backseq,backinstr,backfile,instruction,size_in,Trialtype,back,number,P1,P2,P3,P4,corrAns,trials_practice.thisRepN,trials_practice.thisTrialN,trials_practice.thisN,trials_practice.thisIndex,trials.thisRepN,trials.thisTrialN,trials.thisN,trials.thisIndex,trials_3.thisRepN,trials_3.thisTrialN,trials_3.thisN,trials_3.thisIndex,trials_2.thisRepN,trials_2.thisTrialN,trials_2.thisN,trials_2.thisIndex,trials_4.thisRepN,trials_4.thisTrialN,trials_4.thisN,trials_4.thisIndex,image.started,image.stopped,image_2.started,image_2.stopped,key_resp.keys,key_resp.rt,key_resp.started,key_resp.stopped,image_3.started,image_3.stopped,key_resp_2.keys,key_resp_2.rt,key_resp_2.started,key_resp_2.stopped,image_4.started,image_4.stopped,text.started,text.stopped,H1.started,H1.stopped,H2.started,H2.stopped,H3.started,H3.stopped,H4.started,H4.stopped,key_resp_3.keys,key_resp_3.corr,key_resp_3.rt,key_resp_3.started,key_resp_3.stopped,text_4.started,text_4.stopped,F1.started,F1.stopped,F2.started,F2.stopped,F3.started,F3.stopped,F4.started,F4.stopped,image_7.started,image_7.stopped,text_5.started,text_5.stopped,key_resp_6.keys,key_resp_6.rt,key_resp_6.started,key_resp_6.stopped,image_5.started,image_5.stopped,key_resp_4.keys,key_resp_4.rt,key_resp_4.started,key_resp_4.stopped,key_resp_5.keys,key_resp_5.corr,key_resp_5.started,key_resp_5.stopped,text_3.started,text_3.stopped,H1_2.started,H1_2.stopped,H2_2.started,H2_2.stopped,H3_2.started,H3_2.stopped,H4_2.started,H4_2.stopped,F1_2.started,F1_2.stopped,F2_2.started,F2_2.stopped,F3_2.started,F3_2.stopped,F4_2.started,F4_2.stopped,image_8.started,image_8.stopped,key_resp_5.rt,text_2.started,text_2.stopped,image_6.started,image_6.stopped,participant,session,date,expName,psychopyVersion,frameRate,
,,,,,,,,,,,,,,,,,,,,,,,,,,,,,,,,,9.498294500051998,None,10.467049799975939,None,space,8.51100169995334,10.467049799975939,None,,,,,,,,,,,,,,,,,,,,,,,,,,,,,,,,,,,,,,,,,,,,,,,,,,,,,,,,,,,,,,,,,,,,,,,,,,,,,11018,001,2024_Jan_05_0835,nback,2021.2.3,59.658182486227226,
0-back,instructions\back-0.png,conditions\0back-p.xlsx,instructions\0-BACK.png,"(15, 8)",practice,0,1,stim\yellow.png,stim\gray.png,stim\gray.png,stim\gray.png,up,0,0,0,0,0,0,0,0,0,0,0,0,,,,,,,,,,,,,,,,,19.04639779997524,None,space,75.12433610006701,19.04639779997524,None,94.30785360001028,98.81598800001666,98.78109579999,None,99.21493430004921,100.21708219998982,99.21493430004921,100.21708219998982,99.21493430004921,100.21708219998982,99.21493430004921,100.21708219998982,up,1,0.5158782999496907,99.21493430004921,None,99.21493430004921,None,99.21493430004921,99.71574020001572,99.21493430004921,99.71574020001572,99.21493430004921,99.71574020001572,99.21493430004921,99.71574020001572,99.21493430004921,None,,,,,,,,,,,,,,,,,,,,,,,,,,,,,,,,,,,,,,,,,,11018,001,2024_Jan_05_0835,nback,2021.2.3,59.658182486227226,
0-back,instructions\back-0.png,conditions\0back-p.xlsx,instructions\0-BACK.png,"(15, 8)",practice,0,2,stim\gray.png,stim\yellow.png,stim\gray.png,stim\gray.png,left,0,0,0,0,0,0,0,0,0,1,1,1,,,,,,,,,,,,,,,,,,,,,,,,,,,100.70002240000758,101.70197439996991,100.70002240000758,101.70197439996991,100.70002240000758,101.70197439996991,100.70002240000758,101.70197439996991,left,1,0.3665555000770837,100.70002240000758,None,100.70002240000758,None,100.70002240000758,101.20113519998267,100.70002240000758,101.20113519998267,100.70002240000758,101.20113519998267,100.70002240000758,101.20113519998267,100.70002240000758,None,,,,,,,,,,,,,,,,,,,,,,,,,,,,,,,,,,,,,,,,,,11018,001,2024_Jan_05_0835,nback,2021.2.3,59.658182486227226,
0-back,instructions\back-0.png,conditions\0back-p.xlsx,instructions\0-BACK.png,"(15, 8)",practice,0,3,stim\gray.png,stim\gray.png,stim\yellow.png,stim\gray.png,right,0,0,0,0,0,0,0,0,0,2,2,2,,,,,,,,,,,,,,,,,,,,,,,,,,,102.2025381999556,103.20480980002321,102.2025381999556,103.20480980002321,102.2025381999556,103.20480980002321,102.2025381999556,103.20480980002321,right,1,0.43190619989763945,102.2025381999556,None,102.2025381999556,None,102.2025381999556,102.70412679994479,102.2025381999556,102.70412679994479,102.2025381999556,102.70412679994479,102.2025381999556,102.70412679994479,102.2025381999556,None,,,,,,,,,,,,,,,,,,,,,,,,,,,,,,,,,,,,,,,,,,11018,001,2024_Jan_05_0835,nback,2021.2.3,59.658182486227226,
0-back,instructions\back-0.png,conditions\0back-p.xlsx,instructions\0-BACK.png,"(15, 8)",practice,0,4,stim\gray.png,stim\gray.png,stim\gray.png,stim\yellow.png,down,0,0,0,0,0,0,0,0,0,3,3,3,,,,,,,,,,,,,,,,,,,,,,,,,,,103.70489249995444,104.70731079997495,103.70489249995444,104.70731079997495,103.70489249995444,104.70731079997495,103.70489249995444,104.70731079997495,down,1,0.3783292000880465,103.70489249995444,None,103.70489249995444,None,103.70489249995444,104.20567789999768,103.70489249995444,104.20567789999768,103.70489249995444,104.20567789999768,103.70489249995444,104.20567789999768,103.70489249995444,None,,,,,,,,,,,,,,,,,,,,,,,,,,,,,,,,,,,,,,,,,,11018,001,2024_Jan_05_0835,nback,2021.2.3,59.658182486227226,
0-back,instructions\back-0.png,conditions\0back-p.xlsx,instructions\0-BACK.png,"(15, 8)",practice,0,2,stim\gray.png,stim\yellow.png,stim\gray.png,stim\gray.png,left,0,0,0,0,0,0,0,0,0,4,4,4,,,,,,,,,,,,,,,,,,,,,,,,,,,105.20689170004334,106.20863280002959,105.20689170004334,106.20863280002959,105.20689170004334,106.20863280002959,105.20689170004334,106.20863280002959,left,1,0.3559504000004381,105.20689170004334,None,105.20689170004334,None,105.20689170004334,105.70885209995322,105.20689170004334,105.70885209995322,105.20689170004334,105.70885209995322,105.20689170004334,105.70885209995322,105.20689170004334,None,,,,,,,,,,,,,,,,,,,,,,,,,,,,,,,,,,,,,,,,,,11018,001,2024_Jan_05_0835,nback,2021.2.3,59.658182486227226,
0-back,instructions\back-0.png,conditions\0back-p.xlsx,instructions\0-BACK.png,"(15, 8)",practice,0,1,stim\yellow.png,stim\gray.png,stim\gray.png,stim\gray.png,up,0,0,0,0,0,0,0,0,0,5,5,5,,,,,,,,,,,,,,,,,,,,,,,,,,,106.7092255000025,107.71106110000983,106.7092255000025,107.71106110000983,106.7092255000025,107.71106110000983,106.7092255000025,107.71106110000983,up,1,0.469108400051482,106.7092255000025,None,106.7092255000025,None,106.7092255000025,107.21043780003674,106.7092255000025,107.21043780003674,106.7092255000025,107.21043780003674,106.7092255000025,107.21043780003674,106.7092255000025,None,,,,,,,,,,,,,,,,,,,,,,,,,,,,,,,,,,,,,,,,,,11018,001,2024_Jan_05_0835,nback,2021.2.3,59.658182486227226,
0-back,instructions\back-0.png,conditions\0back-p.xlsx,instructions\0-BACK.png,"(15, 8)",practice,0,4,stim\gray.png,stim\gray.png,stim\gray.png,stim\yellow.png,down,0,0,0,0,0,0,0,0,0,6,6,6,,,,,,,,,,,,,,,,,,,,,,,,,,,108.19470570003614,109.19701490004081,108.19470570003614,109.19701490004081,108.19470570003614,109.19701490004081,108.19470570003614,109.19701490004081,down,1,0.448269100044854,108.19470570003614,None,108.19470570003614,None,108.19470570003614,108.69554089999292,108.19470570003614,108.69554089999292,108.19470570003614,108.69554089999292,108.19470570003614,108.69554089999292,108.19470570003614,None,,,,,,,,,,,,,,,,,,,,,,,,,,,,,,,,,,,,,,,,,,11018,001,2024_Jan_05_0835,nback,2021.2.3,59.658182486227226,
0-back,instructions\back-0.png,conditions\0back-p.xlsx,instructions\0-BACK.png,"(15, 8)",practice,0,3,stim\gray.png,stim\gray.png,stim\yellow.png,stim\gray.png,right,0,0,0,0,0,0,0,0,0,7,7,7,,,,,,,,,,,,,,,,,,,,,,,,,,,109.69749799999408,110.69932180002797,109.69749799999408,110.69932180002797,109.69749799999408,110.69932180002797,109.69749799999408,110.69932180002797,right,1,0.28962240007240325,109.69749799999408,None,109.69749799999408,None,109.69749799999408,110.19762540003285,109.69749799999408,110.19762540003285,109.69749799999408,110.19762540003285,109.69749799999408,110.19762540003285,109.69749799999408,None,,,,,,,,,,,,,,,,,,,,,,,,,,,,,,,,,,,,,,,,,,11018,001,2024_Jan_05_0835,nback,2021.2.3,59.658182486227226,
0-back,instructions\back-0.png,conditions\0back-p.xlsx,instructions\0-BACK.png,"(15, 8)",practice,0,3,stim\gray.png,stim\gray.png,stim\yellow.png,stim\gray.png,right,0,0,0,0,0,0,0,0,0,8,8,8,,,,,,,,,,,,,,,,,,,,,,,,,,,111.19925850001164,112.20134619995952,111.19925850001164,112.20134619995952,111.19925850001164,112.20134619995952,111.19925850001164,112.20134619995952,right,1,0.3870779999997467,111.19925850001164,None,111.19925850001164,None,111.19925850001164,111.6999723999761,111.19925850001164,111.6999723999761,111.19925850001164,111.6999723999761,111.19925850001164,111.6999723999761,111.19925850001164,None,,,,,,,,,,,,,,,,,,,,,,,,,,,,,,,,,,,,,,,,,,11018,001,2024_Jan_05_0835,nback,2021.2.3,59.658182486227226,
0-back,instructions\back-0.png,conditions\0back-p.xlsx,instructions\0-BACK.png,"(15, 8)",practice,0,4,stim\gray.png,stim\gray.png,stim\gray.png,stim\yellow.png,down,0,0,0,0,0,0,0,0,0,9,9,9,,,,,,,,,,,,,,,,,,,,,,,,,,,112.70215250004549,113.7036224999465,112.70215250004549,113.7036224999465,112.70215250004549,113.7036224999465,112.70215250004549,113.7036224999465,down,1,0.36442609992809594,112.70215250004549,None,112.70215250004549,None,112.70215250004549,113.20266770001035,112.70215250004549,113.20266770001035,112.70215250004549,113.20266770001035,112.70215250004549,113.20266770001035,112.70215250004549,None,,,,,,,,,,,,,,,,,,,,,,,,,,,,,,,,,,,,,,,,,,11018,001,2024_Jan_05_0835,nback,2021.2.3,59.658182486227226,
0-back,instructions\back-0.png,conditions\0back-p.xlsx,instructions\0-BACK.png,"(15, 8)",practice,0,1,stim\yellow.png,stim\gray.png,stim\gray.png,stim\gray.png,up,0,0,0,0,0,0,0,0,0,10,10,10,,,,,,,,,,,,,,,,,,,,,,,,,,,114.20351030002348,115.20586280000862,114.20351030002348,115.20586280000862,114.20351030002348,115.20586280000862,114.20351030002348,115.20586280000862,up,1,0.415111199952662,114.20351030002348,None,114.20351030002348,None,114.20351030002348,114.70501709997188,114.20351030002348,114.70501709997188,114.20351030002348,114.70501709997188,114.20351030002348,114.70501709997188,114.20351030002348,None,,,,,,,,,,,,,,,,,,,,,,,,,,,,,,,,,,,,,,,,,,11018,001,2024_Jan_05_0835,nback,2021.2.3,59.658182486227226,
0-back,instructions\back-0.png,conditions\0back-p.xlsx,instructions\0-BACK.png,"(15, 8)",practice,0,2,stim\gray.png,stim\yellow.png,stim\gray.png,stim\gray.png,left,0,0,0,0,0,0,0,0,0,11,11,11,,,,,,,,,,,,,,,,,,,,,,,,,,,115.70620839996263,116.70805969997309,115.70620839996263,116.70805969997309,115.70620839996263,116.70805969997309,115.70620839996263,116.70805969997309,left,1,0.31263870000839233,115.70620839996263,None,115.70620839996263,None,115.70620839996263,116.2072803999763,115.70620839996263,116.2072803999763,115.70620839996263,116.2072803999763,115.70620839996263,116.2072803999763,115.70620839996263,None,,,,,,,,,,,,,,,,,,,,,,,,,,,,,,,,,,,,,,,,,,11018,001,2024_Jan_05_0835,nback,2021.2.3,59.658182486227226,
0-back,instructions\back-0.png,conditions\0back-p.xlsx,instructions\0-BACK.png,"(15, 8)",practice,0,4,stim\gray.png,stim\gray.png,stim\gray.png,stim\yellow.png,down,0,0,0,0,0,0,0,0,0,12,12,12,,,,,,,,,,,,,,,,,,,,,,,,,,,117.20857050002087,118.20984919997863,117.20857050002087,118.20984919997863,117.20857050002087,118.20984919997863,117.20857050002087,118.20984919997863,down,1,0.3543026000261307,117.20857050002087,None,117.20857050002087,None,117.20857050002087,117.70883619994856,117.20857050002087,117.70883619994856,117.20857050002087,117.70883619994856,117.20857050002087,117.70883619994856,117.20857050002087,None,,,,,,,,,,,,,,,,,,,,,,,,,,,,,,,,,,,,,,,,,,11018,001,2024_Jan_05_0835,nback,2021.2.3,59.658182486227226,
0-back,instructions\back-0.png,conditions\0back-p.xlsx,instructions\0-BACK.png,"(15, 8)",practice,0,3,stim\gray.png,stim\gray.png,stim\yellow.png,stim\gray.png,right,0,0,0,0,0,0,0,0,0,13,13,13,,,,,,,,,,,,,,,,,,,,,,,,,,,118.69380320003256,119.69512910000049,118.69380320003256,119.69512910000049,118.69380320003256,119.69512910000049,118.69380320003256,119.69512910000049,right,1,0.33258029993157834,118.69380320003256,None,118.69380320003256,None,118.69380320003256,119.1951111999806,118.69380320003256,119.1951111999806,118.69380320003256,119.1951111999806,118.69380320003256,119.1951111999806,118.69380320003256,None,,,,,,,,,,,,,,,,,,,,,,,,,,,,,,,,,,,,,,,,,,11018,001,2024_Jan_05_0835,nback,2021.2.3,59.658182486227226,
0-back,instructions\back-0.png,conditions\0back-p.xlsx,instructions\0-BACK.png,"(15, 8)",practice,0,1,stim\yellow.png,stim\gray.png,stim\gray.png,stim\gray.png,up,0,0,0,0,0,0,0,0,0,14,14,14,,,,,,,,,,,,,,,,,,,,,,,,,,,120.19592840003315,121.19719360000454,120.19592840003315,121.19719360000454,120.19592840003315,121.19719360000454,120.19592840003315,121.19719360000454,right,0,0.47825119993649423,120.19592840003315,None,120.19592840003315,None,120.19592840003315,120.69686130003538,120.19592840003315,120.69686130003538,120.19592840003315,120.69686130003538,120.19592840003315,120.69686130003538,120.19592840003315,None,,,,,,,,,,,,,,,,,,,,,,,,,,,,,,,,,,,,,,,,,,11018,001,2024_Jan_05_0835,nback,2021.2.3,59.658182486227226,
0-back,instructions\back-0.png,conditions\0back-p.xlsx,instructions\0-BACK.png,"(15, 8)",practice,0,2,stim\gray.png,stim\yellow.png,stim\gray.png,stim\gray.png,left,0,0,0,0,0,0,0,0,0,15,15,15,,,,,,,,,,,,,,,,,,,,,,,,,,,121.6988793000346,122.70083790004719,121.6988793000346,122.70083790004719,121.6988793000346,122.70083790004719,121.6988793000346,122.70083790004719,left,1,0.3275694999611005,121.6988793000346,None,121.6988793000346,None,121.6988793000346,122.19943649997003,121.6988793000346,122.19943649997003,121.6988793000346,122.19943649997003,121.6988793000346,122.19943649997003,121.6988793000346,None,,,,,,,,,,,,,,,,,,,,,,,,,,,,,,,,,,,,,,,,,,11018,001,2024_Jan_05_0835,nback,2021.2.3,59.658182486227226,
0-back,instructions\back-0.png,conditions\0back-p.xlsx,instructions\0-BACK.png,"(15, 8)",practice,0,3,stim\gray.png,stim\gray.png,stim\yellow.png,stim\gray.png,right,0,0,0,0,0,0,0,0,0,16,16,16,,,,,,,,,,,,,,,,,,,,,,,,,,,123.20020299998578,124.20252129994333,123.20020299998578,124.20252129994333,123.20020299998578,124.20252129994333,123.20020299998578,124.20252129994333,right,1,0.34622090007178485,123.20020299998578,None,123.20020299998578,None,123.20020299998578,123.70188029995188,123.20020299998578,123.70188029995188,123.20020299998578,123.70188029995188,123.20020299998578,123.70188029995188,123.20020299998578,None,,,,,,,,,,,,,,,,,,,,,,,,,,,,,,,,,,,,,,,,,,11018,001,2024_Jan_05_0835,nback,2021.2.3,59.658182486227226,
0-back,instructions\back-0.png,conditions\0back-p.xlsx,instructions\0-BACK.png,"(15, 8)",practice,0,1,stim\yellow.png,stim\gray.png,stim\gray.png,stim\gray.png,up,0,0,0,0,0,0,0,0,0,17,17,17,,,,,,,,,,,,,,,,,,,,,,,,,,,124.7026267000474,125.70489589998033,124.7026267000474,125.70489589998033,124.7026267000474,125.70489589998033,124.7026267000474,125.70489589998033,up,1,0.43570619996171445,124.7026267000474,None,124.7026267000474,None,124.7026267000474,125.20351330004632,124.7026267000474,125.20351330004632,124.7026267000474,125.20351330004632,124.7026267000474,125.20351330004632,124.7026267000474,None,,,,,,,,,,,,,,,,,,,,,,,,,,,,,,,,,,,,,,,,,,11018,001,2024_Jan_05_0835,nback,2021.2.3,59.658182486227226,
0-back,instructions\back-0.png,conditions\0back-p.xlsx,instructions\0-BACK.png,"(15, 8)",practice,0,4,stim\gray.png,stim\gray.png,stim\gray.png,stim\yellow.png,down,0,0,0,0,0,0,0,0,0,18,18,18,,,,,,,,,,,,,,,,,,,,,,,,,,,126.20472409995273,127.20633810001891,126.20472409995273,127.20633810001891,126.20472409995273,127.20633810001891,126.20472409995273,127.20633810001891,down,1,0.3738858998985961,126.20472409995273,None,126.20472409995273,None,126.20472409995273,126.70654149993788,126.20472409995273,126.70654149993788,126.20472409995273,126.70654149993788,126.20472409995273,126.70654149993788,126.20472409995273,None,,,,,,,,,,,,,,,,,,,,,,,,,,,,,,,,,,,,,,,,,,11018,001,2024_Jan_05_0835,nback,2021.2.3,59.658182486227226,
0-back,instructions\back-0.png,conditions\0back-p.xlsx,instructions\0-BACK.png,"(15, 8)",practice,0,2,stim\gray.png,stim\yellow.png,stim\gray.png,stim\gray.png,left,0,0,0,0,0,0,0,0,0,19,19,19,,,,,,,,,,,,,,,,,,,,,,,,,,,127.70707210002001,128.70917759998702,127.70707210002001,128.70917759998702,127.70707210002001,128.70917759998702,127.70707210002001,128.70917759998702,left,1,0.2952845999971032,127.70707210002001,None,127.70707210002001,None,127.70707210002001,128.20780239999294,127.70707210002001,128.20780239999294,127.70707210002001,128.20780239999294,127.70707210002001,128.20780239999294,127.70707210002001,None,,,,,,,,,,,,,,,,,,,,,,,,,,,,,,,,,,,,,,,,,,11018,001,2024_Jan_05_0835,nback,2021.2.3,59.658182486227226,
0-back,instructions\back-0.png,conditions\0back-p.xlsx,instructions\0-BACK.png,"(15, 8)",,,,,,,,,0,0,0,0,0,0,0,0,,,,,,,,,,,,,,,,,,,,,,,,,,,,,,,,,,,,,,,,,,,,,,,,,,,,,,,,,,,,,,,,,,,,,,,,,,,,,,,,,,,,,,,,,,,,,,,,,11018,001,2024_Jan_05_0835,nback,2021.2.3,59.658182486227226,
1-back,instructions\back-1.png,conditions\1back-p.xlsx,instructions\1-BACK.png,"(25, 15)",practice,1,1,stim\yellow.png,stim\gray.png,stim\gray.png,stim\gray.png,None,0,0,0,0,0,1,1,1,0,0,0,0,,,,,,,,,,,,,,,,,129.32604580000043,None,space,13.05326959991362,129.32604580000043,None,142.51283250004053,147.01946229999885,146.98566560004838,None,147.42079959996045,148.42175460001454,147.42079959996045,148.42175460001454,147.42079959996045,148.42175460001454,147.42079959996045,148.42175460001454,None,1,,147.42079959996045,None,147.42079959996045,None,147.42079959996045,147.92039009998553,147.42079959996045,147.92039009998553,147.42079959996045,147.92039009998553,147.42079959996045,147.92039009998553,147.42079959996045,None,,,,,,,,,,,,,,,,,,,,,,,,,,,,,,,,,,,,,,,,,,11018,001,2024_Jan_05_0835,nback,2021.2.3,59.658182486227226,
1-back,instructions\back-1.png,conditions\1back-p.xlsx,instructions\1-BACK.png,"(25, 15)",practice,1,2,stim\gray.png,stim\yellow.png,stim\gray.png,stim\gray.png,up,0,0,0,0,0,1,1,1,0,1,1,1,,,,,,,,,,,,,,,,,,,,,,,,,,,148.905218699947,149.90694090002216,148.905218699947,149.90694090002216,148.905218699947,149.90694090002216,148.905218699947,149.90694090002216,left,0,1.3372935000807047,148.905218699947,None,148.905218699947,None,148.905218699947,149.40716709999833,148.905218699947,149.40716709999833,148.905218699947,149.40716709999833,148.905218699947,149.40716709999833,148.905218699947,None,,,,,,,,,,,,,,,,,,,,,,,,,,,,,,,,,,,,,,,,,,11018,001,2024_Jan_05_0835,nback,2021.2.3,59.658182486227226,
1-back,instructions\back-1.png,conditions\1back-p.xlsx,instructions\1-BACK.png,"(25, 15)",practice,1,3,stim\gray.png,stim\gray.png,stim\yellow.png,stim\gray.png,left,0,0,0,0,0,1,1,1,0,2,2,2,,,,,,,,,,,,,,,,,,,,,,,,,,,150.40743559994735,151.4095484999707,150.40743559994735,151.4095484999707,150.40743559994735,151.4095484999707,150.40743559994735,151.4095484999707,None,0,,150.40743559994735,None,150.40743559994735,None,150.40743559994735,150.90886480000336,150.40743559994735,150.90886480000336,150.40743559994735,150.90886480000336,150.40743559994735,150.90886480000336,150.40743559994735,None,,,,,,,,,,,,,,,,,,,,,,,,,,,,,,,,,,,,,,,,,,11018,001,2024_Jan_05_0835,nback,2021.2.3,59.658182486227226,
1-back,instructions\back-1.png,conditions\1back-p.xlsx,instructions\1-BACK.png,"(25, 15)",practice,1,4,stim\gray.png,stim\gray.png,stim\gray.png,stim\yellow.png,right,0,0,0,0,0,1,1,1,0,3,3,3,,,,,,,,,,,,,,,,,,,,,,,,,,,151.90955360000953,152.9108441999415,151.90955360000953,152.9108441999415,151.90955360000953,152.9108441999415,151.90955360000953,152.9108441999415,right,1,0.724783799960278,151.90955360000953,None,151.90955360000953,None,151.90955360000953,152.4103956000181,151.90955360000953,152.4103956000181,151.90955360000953,152.4103956000181,151.90955360000953,152.4103956000181,151.90955360000953,None,,,,,,,,,,,,,,,,,,,,,,,,,,,,,,,,,,,,,,,,,,11018,001,2024_Jan_05_0835,nback,2021.2.3,59.658182486227226,
1-back,instructions\back-1.png,conditions\1back-p.xlsx,instructions\1-BACK.png,"(25, 15)",practice,1,2,stim\gray.png,stim\yellow.png,stim\gray.png,stim\gray.png,down,0,0,0,0,0,1,1,1,0,4,4,4,,,,,,,,,,,,,,,,,,,,,,,,,,,153.41247440001462,154.4132466999581,153.41247440001462,154.4132466999581,153.41247440001462,154.4132466999581,153.41247440001462,154.4132466999581,left,0,1.2698406999697909,153.41247440001462,None,153.41247440001462,None,153.41247440001462,153.91257100005168,153.41247440001462,153.91257100005168,153.41247440001462,153.91257100005168,153.41247440001462,153.91257100005168,153.41247440001462,None,,,,,,,,,,,,,,,,,,,,,,,,,,,,,,,,,,,,,,,,,,11018,001,2024_Jan_05_0835,nback,2021.2.3,59.658182486227226,
1-back,instructions\back-1.png,conditions\1back-p.xlsx,instructions\1-BACK.png,"(25, 15)",practice,1,1,stim\yellow.png,stim\gray.png,stim\gray.png,stim\gray.png,left,0,0,0,0,0,1,1,1,0,5,5,5,,,,,,,,,,,,,,,,,,,,,,,,,,,154.91406450001523,155.91634819994215,154.91406450001523,155.91634819994215,154.91406450001523,155.91634819994215,154.91406450001523,155.91634819994215,up,0,0.5602728999219835,154.91406450001523,None,154.91406450001523,None,154.91406450001523,155.4154220999917,154.91406450001523,155.4154220999917,154.91406450001523,155.4154220999917,154.91406450001523,155.4154220999917,154.91406450001523,None,,,,,,,,,,,,,,,,,,,,,,,,,,,,,,,,,,,,,,,,,,11018,001,2024_Jan_05_0835,nback,2021.2.3,59.658182486227226,
1-back,instructions\back-1.png,conditions\1back-p.xlsx,instructions\1-BACK.png,"(25, 15)",practice,1,4,stim\gray.png,stim\gray.png,stim\gray.png,stim\yellow.png,up,0,0,0,0,0,1,1,1,0,6,6,6,,,,,,,,,,,,,,,,,,,,,,,,,,,156.39950850000605,157.4017817999702,156.39950850000605,157.4017817999702,156.39950850000605,157.4017817999702,156.39950850000605,157.4017817999702,None,0,,156.39950850000605,None,156.39950850000605,None,156.39950850000605,156.90033089998178,156.39950850000605,156.90033089998178,156.39950850000605,156.90033089998178,156.39950850000605,156.90033089998178,156.39950850000605,None,,,,,,,,,,,,,,,,,,,,,,,,,,,,,,,,,,,,,,,,,,11018,001,2024_Jan_05_0835,nback,2021.2.3,59.658182486227226,
1-back,instructions\back-1.png,conditions\1back-p.xlsx,instructions\1-BACK.png,"(25, 15)",practice,1,3,stim\gray.png,stim\gray.png,stim\yellow.png,stim\gray.png,down,0,0,0,0,0,1,1,1,0,7,7,7,,,,,,,,,,,,,,,,,,,,,,,,,,,157.90175239997916,158.9036929999711,157.90175239997916,158.9036929999711,157.90175239997916,158.9036929999711,157.90175239997916,158.9036929999711,None,0,,157.90175239997916,None,157.90175239997916,None,157.90175239997916,158.40272080001887,157.90175239997916,158.40272080001887,157.90175239997916,158.40272080001887,157.90175239997916,158.40272080001887,157.90175239997916,None,,,,,,,,,,,,,,,,,,,,,,,,,,,,,,,,,,,,,,,,,,11018,001,2024_Jan_05_0835,nback,2021.2.3,59.658182486227226,
1-back,instructions\back-1.png,conditions\1back-p.xlsx,instructions\1-BACK.png,"(25, 15)",practice,1,3,stim\gray.png,stim\gray.png,stim\yellow.png,stim\gray.png,right,0,0,0,0,0,1,1,1,0,8,8,8,,,,,,,,,,,,,,,,,,,,,,,,,,,159.40396140003577,160.40543569996953,159.40396140003577,160.40543569996953,159.40396140003577,160.40543569996953,159.40396140003577,160.40543569996953,right,1,0.5189739000052214,159.40396140003577,None,159.40396140003577,None,159.40396140003577,159.9050398999825,159.40396140003577,159.9050398999825,159.40396140003577,159.9050398999825,159.40396140003577,159.9050398999825,159.40396140003577,None,,,,,,,,,,,,,,,,,,,,,,,,,,,,,,,,,,,,,,,,,,11018,001,2024_Jan_05_0835,nback,2021.2.3,59.658182486227226,
1-back,instructions\back-1.png,conditions\1back-p.xlsx,instructions\1-BACK.png,"(25, 15)",practice,1,4,stim\gray.png,stim\gray.png,stim\gray.png,stim\yellow.png,right,0,0,0,0,0,1,1,1,0,9,9,9,,,,,,,,,,,,,,,,,,,,,,,,,,,160.90628090000246,161.90761590003967,160.90628090000246,161.90761590003967,160.90628090000246,161.90761590003967,160.90628090000246,161.90761590003967,down,0,0.9686707999790087,160.90628090000246,None,160.90628090000246,None,160.90628090000246,161.40734020003583,160.90628090000246,161.40734020003583,160.90628090000246,161.40734020003583,160.90628090000246,161.40734020003583,160.90628090000246,None,,,,,,,,,,,,,,,,,,,,,,,,,,,,,,,,,,,,,,,,,,11018,001,2024_Jan_05_0835,nback,2021.2.3,59.658182486227226,
1-back,instructions\back-1.png,conditions\1back-p.xlsx,instructions\1-BACK.png,"(25, 15)",practice,1,1,stim\yellow.png,stim\gray.png,stim\gray.png,stim\gray.png,down,0,0,0,0,0,1,1,1,0,10,10,10,,,,,,,,,,,,,,,,,,,,,,,,,,,162.40850699995644,163.41038529993966,162.40850699995644,163.41038529993966,162.40850699995644,163.41038529993966,162.40850699995644,163.41038529993966,None,0,,162.40850699995644,None,162.40850699995644,None,162.40850699995644,162.90927279996686,162.40850699995644,162.90927279996686,162.40850699995644,162.90927279996686,162.40850699995644,162.90927279996686,162.40850699995644,None,,,,,,,,,,,,,,,,,,,,,,,,,,,,,,,,,,,,,,,,,,11018,001,2024_Jan_05_0835,nback,2021.2.3,59.658182486227226,
1-back,instructions\back-1.png,conditions\1back-p.xlsx,instructions\1-BACK.png,"(25, 15)",practice,1,2,stim\gray.png,stim\yellow.png,stim\gray.png,stim\gray.png,up,0,0,0,0,0,1,1,1,0,11,11,11,,,,,,,,,,,,,,,,,,,,,,,,,,,163.91063059994485,164.91247670003213,163.91063059994485,164.91247670003213,163.91063059994485,164.91247670003213,163.91063059994485,164.91247670003213,up,1,0.7318156999535859,163.91063059994485,None,163.91063059994485,None,163.91063059994485,164.4121425000485,163.91063059994485,164.4121425000485,163.91063059994485,164.4121425000485,163.91063059994485,164.4121425000485,163.91063059994485,None,,,,,,,,,,,,,,,,,,,,,,,,,,,,,,,,,,,,,,,,,,11018,001,2024_Jan_05_0835,nback,2021.2.3,59.658182486227226,
1-back,instructions\back-1.png,conditions\1back-p.xlsx,instructions\1-BACK.png,"(25, 15)",practice,1,4,stim\gray.png,stim\gray.png,stim\gray.png,stim\yellow.png,left,0,0,0,0,0,1,1,1,0,12,12,12,,,,,,,,,,,,,,,,,,,,,,,,,,,165.41293540003244,166.41448799998034,165.41293540003244,166.41448799998034,165.41293540003244,166.41448799998034,165.41293540003244,166.41448799998034,left,1,0.7338340999558568,165.41293540003244,None,165.41293540003244,None,165.41293540003244,165.91362590005156,165.41293540003244,165.91362590005156,165.41293540003244,165.91362590005156,165.41293540003244,165.91362590005156,165.41293540003244,None,,,,,,,,,,,,,,,,,,,,,,,,,,,,,,,,,,,,,,,,,,11018,001,2024_Jan_05_0835,nback,2021.2.3,59.658182486227226,
1-back,instructions\back-1.png,conditions\1back-p.xlsx,instructions\1-BACK.png,"(25, 15)",practice,1,3,stim\gray.png,stim\gray.png,stim\yellow.png,stim\gray.png,down,0,0,0,0,0,1,1,1,0,13,13,13,,,,,,,,,,,,,,,,,,,,,,,,,,,166.9153268999653,167.91750630002934,166.9153268999653,167.91750630002934,166.9153268999653,167.91750630002934,166.9153268999653,167.91750630002934,down,1,0.5030767000280321,166.9153268999653,None,166.9153268999653,None,166.9153268999653,167.4158700000262,166.9153268999653,167.4158700000262,166.9153268999653,167.4158700000262,166.9153268999653,167.4158700000262,166.9153268999653,None,,,,,,,,,,,,,,,,,,,,,,,,,,,,,,,,,,,,,,,,,,11018,001,2024_Jan_05_0835,nback,2021.2.3,59.658182486227226,
1-back,instructions\back-1.png,conditions\1back-p.xlsx,instructions\1-BACK.png,"(25, 15)",practice,1,1,stim\yellow.png,stim\gray.png,stim\gray.png,stim\gray.png,right,0,0,0,0,0,1,1,1,0,14,14,14,,,,,,,,,,,,,,,,,,,,,,,,,,,168.40070949995425,169.4022528999485,168.40070949995425,169.4022528999485,168.40070949995425,169.4022528999485,168.40070949995425,169.4022528999485,right,1,0.5456545000197366,168.40070949995425,None,168.40070949995425,None,168.40070949995425,168.90141159994528,168.40070949995425,168.90141159994528,168.40070949995425,168.90141159994528,168.40070949995425,168.90141159994528,168.40070949995425,None,,,,,,,,,,,,,,,,,,,,,,,,,,,,,,,,,,,,,,,,,,11018,001,2024_Jan_05_0835,nback,2021.2.3,59.658182486227226,
1-back,instructions\back-1.png,conditions\1back-p.xlsx,instructions\1-BACK.png,"(25, 15)",practice,1,2,stim\gray.png,stim\yellow.png,stim\gray.png,stim\gray.png,up,0,0,0,0,0,1,1,1,0,15,15,15,,,,,,,,,,,,,,,,,,,,,,,,,,,169.90283369994722,170.9042532000458,169.90283369994722,170.9042532000458,169.90283369994722,170.9042532000458,169.90283369994722,170.9042532000458,up,1,0.32374859997071326,169.90283369994722,None,169.90283369994722,None,169.90283369994722,170.40364949998911,169.90283369994722,170.40364949998911,169.90283369994722,170.40364949998911,169.90283369994722,170.40364949998911,169.90283369994722,None,,,,,,,,,,,,,,,,,,,,,,,,,,,,,,,,,,,,,,,,,,11018,001,2024_Jan_05_0835,nback,2021.2.3,59.658182486227226,
1-back,instructions\back-1.png,conditions\1back-p.xlsx,instructions\1-BACK.png,"(25, 15)",practice,1,3,stim\gray.png,stim\gray.png,stim\yellow.png,stim\gray.png,left,0,0,0,0,0,1,1,1,0,16,16,16,,,,,,,,,,,,,,,,,,,,,,,,,,,171.40517329995055,172.40674140001647,171.40517329995055,172.40674140001647,171.40517329995055,172.40674140001647,171.40517329995055,172.40674140001647,left,1,0.3492729999125004,171.40517329995055,None,171.40517329995055,None,171.40517329995055,171.90584010002203,171.40517329995055,171.90584010002203,171.40517329995055,171.90584010002203,171.40517329995055,171.90584010002203,171.40517329995055,None,,,,,,,,,,,,,,,,,,,,,,,,,,,,,,,,,,,,,,,,,,11018,001,2024_Jan_05_0835,nback,2021.2.3,59.658182486227226,
1-back,instructions\back-1.png,conditions\1back-p.xlsx,instructions\1-BACK.png,"(25, 15)",practice,1,1,stim\yellow.png,stim\gray.png,stim\gray.png,stim\gray.png,right,0,0,0,0,0,1,1,1,0,17,17,17,,,,,,,,,,,,,,,,,,,,,,,,,,,172.90804739994928,173.90898079995532,172.90804739994928,173.90898079995532,172.90804739994928,173.90898079995532,172.90804739994928,173.90898079995532,right,1,0.3422835998935625,172.90804739994928,None,172.90804739994928,None,172.90804739994928,173.40879100002348,172.90804739994928,173.40879100002348,172.90804739994928,173.40879100002348,172.90804739994928,173.40879100002348,172.90804739994928,None,,,,,,,,,,,,,,,,,,,,,,,,,,,,,,,,,,,,,,,,,,11018,001,2024_Jan_05_0835,nback,2021.2.3,59.658182486227226,
1-back,instructions\back-1.png,conditions\1back-p.xlsx,instructions\1-BACK.png,"(25, 15)",practice,1,4,stim\gray.png,stim\gray.png,stim\gray.png,stim\yellow.png,up,0,0,0,0,0,1,1,1,0,18,18,18,,,,,,,,,,,,,,,,,,,,,,,,,,,174.40955610002857,175.41149790002964,174.40955610002857,175.41149790002964,174.40955610002857,175.41149790002964,174.40955610002857,175.41149790002964,up,1,0.3370728000300005,174.40955610002857,None,174.40955610002857,None,174.40955610002857,174.91089089994784,174.40955610002857,174.91089089994784,174.40955610002857,174.91089089994784,174.40955610002857,174.91089089994784,174.40955610002857,None,,,,,,,,,,,,,,,,,,,,,,,,,,,,,,,,,,,,,,,,,,11018,001,2024_Jan_05_0835,nback,2021.2.3,59.658182486227226,
1-back,instructions\back-1.png,conditions\1back-p.xlsx,instructions\1-BACK.png,"(25, 15)",practice,1,2,stim\gray.png,stim\yellow.png,stim\gray.png,stim\gray.png,down,0,0,0,0,0,1,1,1,0,19,19,19,,,,,,,,,,,,,,,,,,,,,,,,,,,175.91188419994432,176.91403360001277,175.91188419994432,176.91403360001277,175.91188419994432,176.91403360001277,175.91188419994432,176.91403360001277,None,0,,175.91188419994432,None,175.91188419994432,None,175.91188419994432,176.41249140002765,175.91188419994432,176.41249140002765,175.91188419994432,176.41249140002765,175.91188419994432,176.41249140002765,175.91188419994432,None,,,,,,,,,,,,,,,,,,,,,,,,,,,,,,,,,,,,,,,,,,11018,001,2024_Jan_05_0835,nback,2021.2.3,59.658182486227226,
1-back,instructions\back-1.png,conditions\1back-p.xlsx,instructions\1-BACK.png,"(25, 15)",,,,,,,,,0,0,0,0,0,1,1,1,,,,,,,,,,,,,,,,,,,,,,,,,,,,,,,,,,,,,,,,,,,,,,,,,,,,,,,,,,,,,,,,,,,,,,,,,,,,,,,,,,,,,,,,,,,,,,,,,11018,001,2024_Jan_05_0835,nback,2021.2.3,59.658182486227226,
2-back,instructions\back-2.png,conditions\2back-p.xlsx,instructions\2-BACK.png,"(25, 15)",practice,2,1,stim\yellow.png,stim\gray.png,stim\gray.png,stim\gray.png,None,0,0,0,0,0,2,2,2,0,0,0,0,,,,,,,,,,,,,,,,,177.53070450003725,None,space,15.631638999911956,177.53070450003725,None,193.30409650004003,197.81175079999957,197.7784131000517,None,198.212472800049,199.2136553999735,198.212472800049,199.2136553999735,198.212472800049,199.2136553999735,198.212472800049,199.2136553999735,None,1,,198.212472800049,None,198.212472800049,None,198.212472800049,198.71296210004948,198.212472800049,198.71296210004948,198.212472800049,198.71296210004948,198.212472800049,198.71296210004948,198.212472800049,None,,,,,,,,,,,,,,,,,,,,,,,,,,,,,,,,,,,,,,,,,,11018,001,2024_Jan_05_0835,nback,2021.2.3,59.658182486227226,
2-back,instructions\back-2.png,conditions\2back-p.xlsx,instructions\2-BACK.png,"(25, 15)",practice,2,2,stim\gray.png,stim\yellow.png,stim\gray.png,stim\gray.png,None,0,0,0,0,0,2,2,2,0,1,1,1,,,,,,,,,,,,,,,,,,,,,,,,,,,199.6978524000151,200.69930610002484,199.6978524000151,200.69930610002484,199.6978524000151,200.69930610002484,199.6978524000151,200.69930610002484,None,1,,199.6978524000151,None,199.6978524000151,None,199.6978524000151,200.19838860002346,199.6978524000151,200.19838860002346,199.6978524000151,200.19838860002346,199.6978524000151,200.19838860002346,199.6978524000151,None,,,,,,,,,,,,,,,,,,,,,,,,,,,,,,,,,,,,,,,,,,11018,001,2024_Jan_05_0835,nback,2021.2.3,59.658182486227226,
2-back,instructions\back-2.png,conditions\2back-p.xlsx,instructions\2-BACK.png,"(25, 15)",practice,2,3,stim\gray.png,stim\gray.png,stim\yellow.png,stim\gray.png,up,0,0,0,0,0,2,2,2,0,2,2,2,,,,,,,,,,,,,,,,,,,,,,,,,,,201.19922319997568,202.2014812999405,201.19922319997568,202.2014812999405,201.19922319997568,202.2014812999405,201.19922319997568,202.2014812999405,up,1,0.6351179000921547,201.19922319997568,None,201.19922319997568,None,201.19922319997568,201.70002740004566,201.19922319997568,201.70002740004566,201.19922319997568,201.70002740004566,201.19922319997568,201.70002740004566,201.19922319997568,None,,,,,,,,,,,,,,,,,,,,,,,,,,,,,,,,,,,,,,,,,,11018,001,2024_Jan_05_0835,nback,2021.2.3,59.658182486227226,
2-back,instructions\back-2.png,conditions\2back-p.xlsx,instructions\2-BACK.png,"(25, 15)",practice,2,4,stim\gray.png,stim\gray.png,stim\gray.png,stim\yellow.png,left,0,0,0,0,0,2,2,2,0,3,3,3,,,,,,,,,,,,,,,,,,,,,,,,,,,202.70152280002367,203.7046832999913,202.70152280002367,203.7046832999913,202.70152280002367,203.7046832999913,202.70152280002367,203.7046832999913,left,1,0.38917350000701845,202.70152280002367,None,202.70152280002367,None,202.70152280002367,203.20239470002707,202.70152280002367,203.20239470002707,202.70152280002367,203.20239470002707,202.70152280002367,203.20239470002707,202.70152280002367,None,,,,,,,,,,,,,,,,,,,,,,,,,,,,,,,,,,,,,,,,,,11018,001,2024_Jan_05_0835,nback,2021.2.3,59.658182486227226,
2-back,instructions\back-2.png,conditions\2back-p.xlsx,instructions\2-BACK.png,"(25, 15)",practice,2,2,stim\gray.png,stim\yellow.png,stim\gray.png,stim\gray.png,right,0,0,0,0,0,2,2,2,0,4,4,4,,,,,,,,,,,,,,,,,,,,,,,,,,,204.204520600033,205.20607820001896,204.204520600033,205.20607820001896,204.204520600033,205.20607820001896,204.204520600033,205.20607820001896,down,0,1.4698392000282183,204.204520600033,None,204.204520600033,None,204.204520600033,204.7045516000362,204.204520600033,204.7045516000362,204.204520600033,204.7045516000362,204.204520600033,204.7045516000362,204.204520600033,None,,,,,,,,,,,,,,,,,,,,,,,,,,,,,,,,,,,,,,,,,,11018,001,2024_Jan_05_0835,nback,2021.2.3,59.658182486227226,
2-back,instructions\back-2.png,conditions\2back-p.xlsx,instructions\2-BACK.png,"(25, 15)",practice,2,1,stim\yellow.png,stim\gray.png,stim\gray.png,stim\gray.png,down,0,0,0,0,0,2,2,2,0,5,5,5,,,,,,,,,,,,,,,,,,,,,,,,,,,205.70663759997115,206.70743179996498,205.70663759997115,206.70743179996498,205.70663759997115,206.70743179996498,205.70663759997115,206.70743179996498,left,0,1.4163671000860631,205.70663759997115,None,205.70663759997115,None,205.70663759997115,206.20735719997901,205.70663759997115,206.20735719997901,205.70663759997115,206.20735719997901,205.70663759997115,206.20735719997901,205.70663759997115,None,,,,,,,,,,,,,,,,,,,,,,,,,,,,,,,,,,,,,,,,,,11018,001,2024_Jan_05_0835,nback,2021.2.3,59.658182486227226,
2-back,instructions\back-2.png,conditions\2back-p.xlsx,instructions\2-BACK.png,"(25, 15)",practice,2,4,stim\gray.png,stim\gray.png,stim\gray.png,stim\yellow.png,left,0,0,0,0,0,2,2,2,0,6,6,6,,,,,,,,,,,,,,,,,,,,,,,,,,,207.2080091999378,208.20974720001686,207.2080091999378,208.20974720001686,207.2080091999378,208.20974720001686,207.2080091999378,208.20974720001686,None,0,,207.2080091999378,None,207.2080091999378,None,207.2080091999378,207.70972699997947,207.2080091999378,207.70972699997947,207.2080091999378,207.70972699997947,207.2080091999378,207.70972699997947,207.2080091999378,None,,,,,,,,,,,,,,,,,,,,,,,,,,,,,,,,,,,,,,,,,,11018,001,2024_Jan_05_0835,nback,2021.2.3,59.658182486227226,
2-back,instructions\back-2.png,conditions\2back-p.xlsx,instructions\2-BACK.png,"(25, 15)",practice,2,3,stim\gray.png,stim\gray.png,stim\yellow.png,stim\gray.png,up,0,0,0,0,0,2,2,2,0,7,7,7,,,,,,,,,,,,,,,,,,,,,,,,,,,208.69365659996402,209.695210600039,208.69365659996402,209.695210600039,208.69365659996402,209.695210600039,208.69365659996402,209.695210600039,up,1,0.2847958999918774,208.69365659996402,None,208.69365659996402,None,208.69365659996402,209.19453430001158,208.69365659996402,209.19453430001158,208.69365659996402,209.19453430001158,208.69365659996402,209.19453430001158,208.69365659996402,None,,,,,,,,,,,,,,,,,,,,,,,,,,,,,,,,,,,,,,,,,,11018,001,2024_Jan_05_0835,nback,2021.2.3,59.658182486227226,
2-back,instructions\back-2.png,conditions\2back-p.xlsx,instructions\2-BACK.png,"(25, 15)",practice,2,3,stim\gray.png,stim\gray.png,stim\yellow.png,stim\gray.png,down,0,0,0,0,0,2,2,2,0,8,8,8,,,,,,,,,,,,,,,,,,,,,,,,,,,210.19603039999492,211.19788490002975,210.19603039999492,211.19788490002975,210.19603039999492,211.19788490002975,210.19603039999492,211.19788490002975,None,0,,210.19603039999492,None,210.19603039999492,None,210.19603039999492,210.697961900034,210.19603039999492,210.697961900034,210.19603039999492,210.697961900034,210.19603039999492,210.697961900034,210.19603039999492,None,,,,,,,,,,,,,,,,,,,,,,,,,,,,,,,,,,,,,,,,,,11018,001,2024_Jan_05_0835,nback,2021.2.3,59.658182486227226,
2-back,instructions\back-2.png,conditions\2back-p.xlsx,instructions\2-BACK.png,"(25, 15)",practice,2,4,stim\gray.png,stim\gray.png,stim\gray.png,stim\yellow.png,right,0,0,0,0,0,2,2,2,0,9,9,9,,,,,,,,,,,,,,,,,,,,,,,,,,,211.6981259000022,212.70031039998867,211.6981259000022,212.70031039998867,211.6981259000022,212.70031039998867,211.6981259000022,212.70031039998867,right,1,0.7684682999970391,211.6981259000022,None,211.6981259000022,None,211.6981259000022,212.19903619994875,211.6981259000022,212.19903619994875,211.6981259000022,212.19903619994875,211.6981259000022,212.19903619994875,211.6981259000022,None,,,,,,,,,,,,,,,,,,,,,,,,,,,,,,,,,,,,,,,,,,11018,001,2024_Jan_05_0835,nback,2021.2.3,59.658182486227226,
2-back,instructions\back-2.png,conditions\2back-p.xlsx,instructions\2-BACK.png,"(25, 15)",practice,2,1,stim\yellow.png,stim\gray.png,stim\gray.png,stim\gray.png,right,0,0,0,0,0,2,2,2,0,10,10,10,,,,,,,,,,,,,,,,,,,,,,,,,,,213.20083380001597,214.2028592999559,213.20083380001597,214.2028592999559,213.20083380001597,214.2028592999559,213.20083380001597,214.2028592999559,right,1,0.6657966000493616,213.20083380001597,None,213.20083380001597,None,213.20083380001597,213.70109590003267,213.20083380001597,213.70109590003267,213.20083380001597,213.70109590003267,213.20083380001597,213.70109590003267,213.20083380001597,None,,,,,,,,,,,,,,,,,,,,,,,,,,,,,,,,,,,,,,,,,,11018,001,2024_Jan_05_0835,nback,2021.2.3,59.658182486227226,
2-back,instructions\back-2.png,conditions\2back-p.xlsx,instructions\2-BACK.png,"(25, 15)",practice,2,2,stim\gray.png,stim\yellow.png,stim\gray.png,stim\gray.png,down,0,0,0,0,0,2,2,2,0,11,11,11,,,,,,,,,,,,,,,,,,,,,,,,,,,214.70317779993638,215.70410900004208,214.70317779993638,215.70410900004208,214.70317779993638,215.70410900004208,214.70317779993638,215.70410900004208,down,1,0.5875251999823377,214.70317779993638,None,214.70317779993638,None,214.70317779993638,215.2037963999901,214.70317779993638,215.2037963999901,214.70317779993638,215.2037963999901,214.70317779993638,215.2037963999901,214.70317779993638,None,,,,,,,,,,,,,,,,,,,,,,,,,,,,,,,,,,,,,,,,,,11018,001,2024_Jan_05_0835,nback,2021.2.3,59.658182486227226,
2-back,instructions\back-2.png,conditions\2back-p.xlsx,instructions\2-BACK.png,"(25, 15)",practice,2,4,stim\gray.png,stim\gray.png,stim\gray.png,stim\yellow.png,up,0,0,0,0,0,2,2,2,0,12,12,12,,,,,,,,,,,,,,,,,,,,,,,,,,,216.20463709998876,217.20709759998135,216.20463709998876,217.20709759998135,216.20463709998876,217.20709759998135,216.20463709998876,217.20709759998135,up,1,0.3900957000441849,216.20463709998876,None,216.20463709998876,None,216.20463709998876,216.7058728999691,216.20463709998876,216.7058728999691,216.20463709998876,216.7058728999691,216.20463709998876,216.7058728999691,216.20463709998876,None,,,,,,,,,,,,,,,,,,,,,,,,,,,,,,,,,,,,,,,,,,11018,001,2024_Jan_05_0835,nback,2021.2.3,59.658182486227226,
2-back,instructions\back-2.png,conditions\2back-p.xlsx,instructions\2-BACK.png,"(25, 15)",practice,2,3,stim\gray.png,stim\gray.png,stim\yellow.png,stim\gray.png,left,0,0,0,0,0,2,2,2,0,13,13,13,,,,,,,,,,,,,,,,,,,,,,,,,,,217.70702830003574,218.70920619997196,217.70702830003574,218.70920619997196,217.70702830003574,218.70920619997196,217.70702830003574,218.70920619997196,left,1,0.24000039999373257,217.70702830003574,None,217.70702830003574,None,217.70702830003574,218.2077332000481,217.70702830003574,218.2077332000481,217.70702830003574,218.2077332000481,217.70702830003574,218.2077332000481,217.70702830003574,None,,,,,,,,,,,,,,,,,,,,,,,,,,,,,,,,,,,,,,,,,,11018,001,2024_Jan_05_0835,nback,2021.2.3,59.658182486227226,
2-back,instructions\back-2.png,conditions\2back-p.xlsx,instructions\2-BACK.png,"(25, 15)",practice,2,1,stim\yellow.png,stim\gray.png,stim\gray.png,stim\gray.png,down,0,0,0,0,0,2,2,2,0,14,14,14,,,,,,,,,,,,,,,,,,,,,,,,,,,219.19291939993855,220.19417569995858,219.19291939993855,220.19417569995858,219.19291939993855,220.19417569995858,219.19291939993855,220.19417569995858,down,1,0.18553000001702458,219.19291939993855,None,219.19291939993855,None,219.19291939993855,219.6932797000045,219.19291939993855,219.6932797000045,219.19291939993855,219.6932797000045,219.19291939993855,219.6932797000045,219.19291939993855,None,,,,,,,,,,,,,,,,,,,,,,,,,,,,,,,,,,,,,,,,,,11018,001,2024_Jan_05_0835,nback,2021.2.3,59.658182486227226,
2-back,instructions\back-2.png,conditions\2back-p.xlsx,instructions\2-BACK.png,"(25, 15)",practice,2,2,stim\gray.png,stim\yellow.png,stim\gray.png,stim\gray.png,right,0,0,0,0,0,2,2,2,0,15,15,15,,,,,,,,,,,,,,,,,,,,,,,,,,,220.6954467999749,221.69697189994622,220.6954467999749,221.69697189994622,220.6954467999749,221.69697189994622,220.6954467999749,221.69697189994622,right,1,0.059053300064988434,220.6954467999749,None,220.6954467999749,None,220.6954467999749,221.1960320000071,220.6954467999749,221.1960320000071,220.6954467999749,221.1960320000071,220.6954467999749,221.1960320000071,220.6954467999749,None,,,,,,,,,,,,,,,,,,,,,,,,,,,,,,,,,,,,,,,,,,11018,001,2024_Jan_05_0835,nback,2021.2.3,59.658182486227226,
2-back,instructions\back-2.png,conditions\2back-p.xlsx,instructions\2-BACK.png,"(25, 15)",practice,2,3,stim\gray.png,stim\gray.png,stim\yellow.png,stim\gray.png,up,0,0,0,0,0,2,2,2,0,16,16,16,,,,,,,,,,,,,,,,,,,,,,,,,,,222.1969063000288,223.19852620002348,222.1969063000288,223.19852620002348,222.1969063000288,223.19852620002348,222.1969063000288,223.19852620002348,up,1,0.07749679998960346,222.1969063000288,None,222.1969063000288,None,222.1969063000288,222.69821599998977,222.1969063000288,222.69821599998977,222.1969063000288,222.69821599998977,222.1969063000288,222.69821599998977,222.1969063000288,None,,,,,,,,,,,,,,,,,,,,,,,,,,,,,,,,,,,,,,,,,,11018,001,2024_Jan_05_0835,nback,2021.2.3,59.658182486227226,
2-back,instructions\back-2.png,conditions\2back-p.xlsx,instructions\2-BACK.png,"(25, 15)",practice,2,1,stim\yellow.png,stim\gray.png,stim\gray.png,stim\gray.png,left,0,0,0,0,0,2,2,2,0,17,17,17,,,,,,,,,,,,,,,,,,,,,,,,,,,223.6996410000138,224.7012227999512,223.6996410000138,224.7012227999512,223.6996410000138,224.7012227999512,223.6996410000138,224.7012227999512,left,1,0.0389618999324739,223.6996410000138,None,223.6996410000138,None,223.6996410000138,224.20067309995648,223.6996410000138,224.20067309995648,223.6996410000138,224.20067309995648,223.6996410000138,224.20067309995648,223.6996410000138,None,,,,,,,,,,,,,,,,,,,,,,,,,,,,,,,,,,,,,,,,,,11018,001,2024_Jan_05_0835,nback,2021.2.3,59.658182486227226,
2-back,instructions\back-2.png,conditions\2back-p.xlsx,instructions\2-BACK.png,"(25, 15)",practice,2,4,stim\gray.png,stim\gray.png,stim\gray.png,stim\yellow.png,right,0,0,0,0,0,2,2,2,0,18,18,18,,,,,,,,,,,,,,,,,,,,,,,,,,,225.2015416000504,226.20407880004495,225.2015416000504,226.20407880004495,225.2015416000504,226.20407880004495,225.2015416000504,226.20407880004495,right,1,1.4410353999119252,225.2015416000504,None,225.2015416000504,None,225.2015416000504,225.70367850002367,225.2015416000504,225.70367850002367,225.2015416000504,225.70367850002367,225.2015416000504,225.70367850002367,225.2015416000504,None,,,,,,,,,,,,,,,,,,,,,,,,,,,,,,,,,,,,,,,,,,11018,001,2024_Jan_05_0835,nback,2021.2.3,59.658182486227226,
2-back,instructions\back-2.png,conditions\2back-p.xlsx,instructions\2-BACK.png,"(25, 15)",practice,2,2,stim\gray.png,stim\yellow.png,stim\gray.png,stim\gray.png,up,0,0,0,0,0,2,2,2,0,19,19,19,,,,,,,,,,,,,,,,,,,,,,,,,,,226.7039174999809,227.70548190001864,226.7039174999809,227.70548190001864,226.7039174999809,227.70548190001864,226.7039174999809,227.70548190001864,down,0,1.4585415000328794,226.7039174999809,None,226.7039174999809,None,226.7039174999809,227.20436970004812,226.7039174999809,227.20436970004812,226.7039174999809,227.20436970004812,226.7039174999809,227.20436970004812,226.7039174999809,None,,,,,,,,,,,,,,,,,,,,,,,,,,,,,,,,,,,,,,,,,,11018,001,2024_Jan_05_0835,nback,2021.2.3,59.658182486227226,
2-back,instructions\back-2.png,conditions\2back-p.xlsx,instructions\2-BACK.png,"(25, 15)",,,,,,,,,0,0,0,0,0,2,2,2,,,,,,,,,,,,,,,,,,,,,,,,,,,,,,,,,,,,,,,,,,,,,,,,,,,,,,,,,,,,,,,,,,,,,,,,,,,,,,,,,,,,,,,,,,,,,,,,,11018,001,2024_Jan_05_0835,nback,2021.2.3,59.658182486227226,
,,,,,,,,,,,,,0,0,0,0,,,,,,,,,,,,,,,,,,,,,,,,,,,,,,,,,,,,,,,,,,,,,,,,,,,,,,,,,,,,228.20592560002115,None,space,13.084990000003017,228.20592560002115,None,,,,,,,,,,,,,,,,,,,,,,,,,,,,,,,,,,,,11018,001,2024_Jan_05_0835,nback,2021.2.3,59.658182486227226,
,,,,,,,,,,,,,,,,,,,,,,,,,,,,,,,,,,,,,,,,,,,,,,,,,,,,,,,,,,,,,,,,,,,,,,,,,,,,,,,,,,241.30850070004817,None,space,100.3584365999559,241.30850070004817,None,,,,,,,,,,,,,,,,,,,,,,,,,,,,,,11018,001,2024_Jan_05_0835,nback,2021.2.3,59.658182486227226,
2-back,instructions\back-2.png,conditions\20back-e.xlsx,,,experiment,2,2,stim\gray.png,stim\yellow.png,stim\gray.png,stim\gray.png,None,,,,,,,,,,,,,0,0,0,2,0,0,0,0,,,,,,,,,,,,,,,341.8075627000071,346.3157608000329,346.2820282999892,None,,,,,,,,,,,,,,,,,,,,,,,,,,,,,,,,,,,,,,None,1,346.714861299959,None,346.714861299959,None,346.714861299959,347.7164016000461,346.714861299959,347.7164016000461,346.714861299959,347.7164016000461,346.714861299959,347.7164016000461,346.714861299959,347.21646350005176,346.714861299959,347.21646350005176,346.714861299959,347.21646350005176,346.714861299959,347.21646350005176,346.714861299959,None,,,,,,11018,001,2024_Jan_05_0835,nback,2021.2.3,59.658182486227226,
2-back,instructions\back-2.png,conditions\20back-e.xlsx,,,experiment,2,1,stim\yellow.png,stim\gray.png,stim\gray.png,stim\gray.png,None,,,,,,,,,,,,,0,0,0,2,0,1,1,1,,,,,,,,,,,,,,,,,,,,,,,,,,,,,,,,,,,,,,,,,,,,,,,,,,,,,,,,None,1,348.2012743999949,None,348.2012743999949,None,348.2012743999949,349.20183299994096,348.2012743999949,349.20183299994096,348.2012743999949,349.20183299994096,348.2012743999949,349.20183299994096,348.2012743999949,348.7011533000041,348.2012743999949,348.7011533000041,348.2012743999949,348.7011533000041,348.2012743999949,348.7011533000041,348.2012743999949,None,,,,,,11018,001,2024_Jan_05_0835,nback,2021.2.3,59.658182486227226,
2-back,instructions\back-2.png,conditions\20back-e.xlsx,,,experiment,2,4,stim\gray.png,stim\gray.png,stim\gray.png,stim\yellow.png,left,,,,,,,,,,,,,0,0,0,2,0,2,2,2,,,,,,,,,,,,,,,,,,,,,,,,,,,,,,,,,,,,,,,,,,,,,,,,,,,,,,,,left,1,349.7027115999954,None,349.7027115999954,None,349.7027115999954,350.7044679999817,349.7027115999954,350.7044679999817,349.7027115999954,350.7044679999817,349.7027115999954,350.7044679999817,349.7027115999954,350.2037192999851,349.7027115999954,350.2037192999851,349.7027115999954,350.2037192999851,349.7027115999954,350.2037192999851,349.7027115999954,None,0.45199830003548414,,,,,11018,001,2024_Jan_05_0835,nback,2021.2.3,59.658182486227226,
2-back,instructions\back-2.png,conditions\20back-e.xlsx,,,experiment,2,3,stim\gray.png,stim\gray.png,stim\yellow.png,stim\gray.png,up,,,,,,,,,,,,,0,0,0,2,0,3,3,3,,,,,,,,,,,,,,,,,,,,,,,,,,,,,,,,,,,,,,,,,,,,,,,,,,,,,,,,up,1,351.2048666999908,None,351.2048666999908,None,351.2048666999908,352.2068068999797,351.2048666999908,352.2068068999797,351.2048666999908,352.2068068999797,351.2048666999908,352.2068068999797,351.2048666999908,351.70624540001154,351.2048666999908,351.70624540001154,351.2048666999908,351.70624540001154,351.2048666999908,351.70624540001154,351.2048666999908,None,0.19790660007856786,,,,,11018,001,2024_Jan_05_0835,nback,2021.2.3,59.658182486227226,
2-back,instructions\back-2.png,conditions\20back-e.xlsx,,,experiment,2,1,stim\yellow.png,stim\gray.png,stim\gray.png,stim\gray.png,down,,,,,,,,,,,,,0,0,0,2,0,4,4,4,,,,,,,,,,,,,,,,,,,,,,,,,,,,,,,,,,,,,,,,,,,,,,,,,,,,,,,,right,0,352.7071334000211,None,352.7071334000211,None,352.7071334000211,353.7087649999885,352.7071334000211,353.7087649999885,352.7071334000211,353.7087649999885,352.7071334000211,353.7087649999885,352.7071334000211,353.2080321999965,352.7071334000211,353.2080321999965,352.7071334000211,353.2080321999965,352.7071334000211,353.2080321999965,352.7071334000211,None,1.4396846999879926,,,,,11018,001,2024_Jan_05_0835,nback,2021.2.3,59.658182486227226,
2-back,instructions\back-2.png,conditions\20back-e.xlsx,,,experiment,2,2,stim\gray.png,stim\yellow.png,stim\gray.png,stim\gray.png,right,,,,,,,,,,,,,0,0,0,2,0,5,5,5,,,,,,,,,,,,,,,,,,,,,,,,,,,,,,,,,,,,,,,,,,,,,,,,,,,,,,,,up,0,354.2095765999984,None,354.2095765999984,None,354.2095765999984,355.21085040003527,354.2095765999984,355.21085040003527,354.2095765999984,355.21085040003527,354.2095765999984,355.21085040003527,354.2095765999984,354.7099245999707,354.2095765999984,354.7099245999707,354.2095765999984,354.7099245999707,354.2095765999984,354.7099245999707,354.2095765999984,None,1.4250714000081643,,,,,11018,001,2024_Jan_05_0835,nback,2021.2.3,59.658182486227226,
2-back,instructions\back-2.png,conditions\20back-e.xlsx,,,experiment,2,3,stim\gray.png,stim\gray.png,stim\yellow.png,stim\gray.png,up,,,,,,,,,,,,,0,0,0,2,0,6,6,6,,,,,,,,,,,,,,,,,,,,,,,,,,,,,,,,,,,,,,,,,,,,,,,,,,,,,,,,left,0,355.6954159999732,None,355.6954159999732,None,355.6954159999732,356.69698450004216,355.6954159999732,356.69698450004216,355.6954159999732,356.69698450004216,355.6954159999732,356.69698450004216,355.6954159999732,356.19585110002663,355.6954159999732,356.19585110002663,355.6954159999732,356.19585110002663,355.6954159999732,356.19585110002663,355.6954159999732,None,1.3152480999706313,,,,,11018,001,2024_Jan_05_0835,nback,2021.2.3,59.658182486227226,
2-back,instructions\back-2.png,conditions\20back-e.xlsx,,,experiment,2,4,stim\gray.png,stim\gray.png,stim\gray.png,stim\yellow.png,left,,,,,,,,,,,,,0,0,0,2,0,7,7,7,,,,,,,,,,,,,,,,,,,,,,,,,,,,,,,,,,,,,,,,,,,,,,,,,,,,,,,,right,0,357.19709679996595,None,357.19709679996595,None,357.19709679996595,358.19916069996543,357.19709679996595,358.19916069996543,357.19709679996595,358.19916069996543,357.19709679996595,358.19916069996543,357.19709679996595,357.69777550001163,357.19709679996595,357.69777550001163,357.19709679996595,357.69777550001163,357.19709679996595,357.69777550001163,357.19709679996595,None,1.0934659999329597,,,,,11018,001,2024_Jan_05_0835,nback,2021.2.3,59.658182486227226,
2-back,instructions\back-2.png,conditions\20back-e.xlsx,,,experiment,2,3,stim\gray.png,stim\gray.png,stim\yellow.png,stim\gray.png,right,,,,,,,,,,,,,0,0,0,2,0,8,8,8,,,,,,,,,,,,,,,,,,,,,,,,,,,,,,,,,,,,,,,,,,,,,,,,,,,,,,,,down,0,358.69912060000934,None,358.69912060000934,None,358.69912060000934,359.70080120000057,358.69912060000934,359.70080120000057,358.69912060000934,359.70080120000057,358.69912060000934,359.70080120000057,358.69912060000934,359.2007755000377,358.69912060000934,359.2007755000377,358.69912060000934,359.2007755000377,358.69912060000934,359.2007755000377,358.69912060000934,None,1.0157469999976456,,,,,11018,001,2024_Jan_05_0835,nback,2021.2.3,59.658182486227226,
2-back,instructions\back-2.png,conditions\20back-e.xlsx,,,experiment,2,4,stim\gray.png,stim\gray.png,stim\gray.png,stim\yellow.png,down,,,,,,,,,,,,,0,0,0,2,0,9,9,9,,,,,,,,,,,,,,,,,,,,,,,,,,,,,,,,,,,,,,,,,,,,,,,,,,,,,,,,right,0,360.20147009997163,None,360.20147009997163,None,360.20147009997163,361.20365090004634,360.20147009997163,361.20365090004634,360.20147009997163,361.20365090004634,360.20147009997163,361.20365090004634,360.20147009997163,360.7025836999528,360.20147009997163,360.7025836999528,360.20147009997163,360.7025836999528,360.20147009997163,360.7025836999528,360.20147009997163,None,0.7854585000313818,,,,,11018,001,2024_Jan_05_0835,nback,2021.2.3,59.658182486227226,
2-back,instructions\back-2.png,conditions\20back-e.xlsx,,,experiment,2,1,stim\yellow.png,stim\gray.png,stim\gray.png,stim\gray.png,right,,,,,,,,,,,,,0,0,0,2,0,10,10,10,,,,,,,,,,,,,,,,,,,,,,,,,,,,,,,,,,,,,,,,,,,,,,,,,,,,,,,,down,0,361.7039097000379,None,361.7039097000379,None,361.7039097000379,362.7053609000286,361.7039097000379,362.7053609000286,361.7039097000379,362.7053609000286,361.7039097000379,362.7053609000286,361.7039097000379,362.20451289997436,361.7039097000379,362.20451289997436,361.7039097000379,362.20451289997436,361.7039097000379,362.20451289997436,361.7039097000379,None,1.2353697000071406,,,,,11018,001,2024_Jan_05_0835,nback,2021.2.3,59.658182486227226,
2-back,instructions\back-2.png,conditions\20back-e.xlsx,,,experiment,2,2,stim\gray.png,stim\yellow.png,stim\gray.png,stim\gray.png,down,,,,,,,,,,,,,0,0,0,2,0,11,11,11,,,,,,,,,,,,,,,,,,,,,,,,,,,,,,,,,,,,,,,,,,,,,,,,,,,,,,,,up,0,363.2063976000063,None,363.2063976000063,None,363.2063976000063,364.2083106000209,363.2063976000063,364.2083106000209,363.2063976000063,364.2083106000209,363.2063976000063,364.2083106000209,363.2063976000063,363.7073027000297,363.2063976000063,363.7073027000297,363.2063976000063,363.7073027000297,363.2063976000063,363.7073027000297,363.2063976000063,None,1.4442247999832034,,,,,11018,001,2024_Jan_05_0835,nback,2021.2.3,59.658182486227226,
2-back,instructions\back-2.png,conditions\20back-e.xlsx,,,experiment,2,3,stim\gray.png,stim\gray.png,stim\yellow.png,stim\gray.png,up,,,,,,,,,,,,,0,0,0,2,0,12,12,12,,,,,,,,,,,,,,,,,,,,,,,,,,,,,,,,,,,,,,,,,,,,,,,,,,,,,,,,None,0,364.7088291000109,None,364.7088291000109,None,364.7088291000109,365.71069310000166,364.7088291000109,365.71069310000166,364.7088291000109,365.71069310000166,364.7088291000109,365.71069310000166,364.7088291000109,365.20910900004674,364.7088291000109,365.20910900004674,364.7088291000109,365.20910900004674,364.7088291000109,365.20910900004674,364.7088291000109,None,,,,,,11018,001,2024_Jan_05_0835,nback,2021.2.3,59.658182486227226,
2-back,instructions\back-2.png,conditions\20back-e.xlsx,,,experiment,2,1,stim\yellow.png,stim\gray.png,stim\gray.png,stim\gray.png,left,,,,,,,,,,,,,0,0,0,2,0,13,13,13,,,,,,,,,,,,,,,,,,,,,,,,,,,,,,,,,,,,,,,,,,,,,,,,,,,,,,,,left,1,366.2105493999552,None,366.2105493999552,None,366.2105493999552,367.21229749999475,366.2105493999552,367.21229749999475,366.2105493999552,367.21229749999475,366.2105493999552,367.21229749999475,366.2105493999552,366.71158600004856,366.2105493999552,366.71158600004856,366.2105493999552,366.71158600004856,366.2105493999552,366.71158600004856,366.2105493999552,None,0.3761776000028476,,,,,11018,001,2024_Jan_05_0835,nback,2021.2.3,59.658182486227226,
2-back,instructions\back-2.png,conditions\20back-e.xlsx,,,experiment,2,4,stim\gray.png,stim\gray.png,stim\gray.png,stim\yellow.png,right,,,,,,,,,,,,,0,0,0,2,0,14,14,14,,,,,,,,,,,,,,,,,,,,,,,,,,,,,,,,,,,,,,,,,,,,,,,,,,,,,,,,down,0,367.6961860000156,None,367.6961860000156,None,367.6961860000156,368.6973671000451,367.6961860000156,368.6973671000451,367.6961860000156,368.6973671000451,367.6961860000156,368.6973671000451,367.6961860000156,368.1968065999681,367.6961860000156,368.1968065999681,367.6961860000156,368.1968065999681,367.6961860000156,368.1968065999681,367.6961860000156,None,0.6104040000354871,,,,,11018,001,2024_Jan_05_0835,nback,2021.2.3,59.658182486227226,
2-back,instructions\back-2.png,conditions\20back-e.xlsx,,,experiment,2,2,stim\gray.png,stim\yellow.png,stim\gray.png,stim\gray.png,up,,,,,,,,,,,,,0,0,0,2,0,15,15,15,,,,,,,,,,,,,,,,,,,,,,,,,,,,,,,,,,,,,,,,,,,,,,,,,,,,,,,,None,0,369.1982488000067,None,369.1982488000067,None,369.1982488000067,370.19967839994933,369.1982488000067,370.19967839994933,369.1982488000067,370.19967839994933,369.1982488000067,370.19967839994933,369.1982488000067,369.69900080002844,369.1982488000067,369.69900080002844,369.1982488000067,369.69900080002844,369.1982488000067,369.69900080002844,369.1982488000067,None,,,,,,11018,001,2024_Jan_05_0835,nback,2021.2.3,59.658182486227226,
2-back,instructions\back-2.png,conditions\20back-e.xlsx,,,experiment,2,4,stim\gray.png,stim\gray.png,stim\gray.png,stim\yellow.png,down,,,,,,,,,,,,,0,0,0,2,0,16,16,16,,,,,,,,,,,,,,,,,,,,,,,,,,,,,,,,,,,,,,,,,,,,,,,,,,,,,,,,down,1,370.700535699958,None,370.700535699958,None,370.700535699958,371.70196269999724,370.700535699958,371.70196269999724,370.700535699958,371.70196269999724,370.700535699958,371.70196269999724,370.700535699958,371.2010187000269,370.700535699958,371.2010187000269,370.700535699958,371.2010187000269,370.700535699958,371.2010187000269,370.700535699958,None,0.7184809999307618,,,,,11018,001,2024_Jan_05_0835,nback,2021.2.3,59.658182486227226,
2-back,instructions\back-2.png,conditions\20back-e.xlsx,,,experiment,2,3,stim\gray.png,stim\gray.png,stim\yellow.png,stim\gray.png,left,,,,,,,,,,,,,0,0,0,2,0,17,17,17,,,,,,,,,,,,,,,,,,,,,,,,,,,,,,,,,,,,,,,,,,,,,,,,,,,,,,,,up,0,372.202691399958,None,372.202691399958,None,372.202691399958,373.2040032000514,372.202691399958,373.2040032000514,372.202691399958,373.2040032000514,372.202691399958,373.2040032000514,372.202691399958,372.70416880003177,372.202691399958,372.70416880003177,372.202691399958,372.70416880003177,372.202691399958,372.70416880003177,372.202691399958,None,0.9761165999807417,,,,,11018,001,2024_Jan_05_0835,nback,2021.2.3,59.658182486227226,
2-back,instructions\back-2.png,conditions\20back-e.xlsx,,,experiment,2,1,stim\yellow.png,stim\gray.png,stim\gray.png,stim\gray.png,down,,,,,,,,,,,,,0,0,0,2,0,18,18,18,,,,,,,,,,,,,,,,,,,,,,,,,,,,,,,,,,,,,,,,,,,,,,,,,,,,,,,,left,0,373.7049240999622,None,373.7049240999622,None,373.7049240999622,374.70704490004573,373.7049240999622,374.70704490004573,373.7049240999622,374.70704490004573,373.7049240999622,374.70704490004573,373.7049240999622,374.2062768000178,373.7049240999622,374.2062768000178,373.7049240999622,374.2062768000178,373.7049240999622,374.2062768000178,373.7049240999622,None,1.0098746999865398,,,,,11018,001,2024_Jan_05_0835,nback,2021.2.3,59.658182486227226,
2-back,instructions\back-2.png,conditions\20back-e.xlsx,,,experiment,2,2,stim\gray.png,stim\yellow.png,stim\gray.png,stim\gray.png,right,,,,,,,,,,,,,0,0,0,2,0,19,19,19,,,,,,,,,,,,,,,,,,,,,,,,,,,,,,,,,,,,,,,,,,,,,,,,,,,,,,,,up,0,375.2071810000343,None,375.2071810000343,None,375.2071810000343,376.2092291000299,375.2071810000343,376.2092291000299,375.2071810000343,376.2092291000299,375.2071810000343,376.2092291000299,375.2071810000343,375.70787249994464,375.2071810000343,375.70787249994464,375.2071810000343,375.70787249994464,375.2071810000343,375.70787249994464,375.2071810000343,None,1.275553899933584,,,,,11018,001,2024_Jan_05_0835,nback,2021.2.3,59.658182486227226,
2-back,instructions\back-2.png,conditions\20back-e.xlsx,,,,,,,,,,,,,,,,,,,,,,,0,0,0,2,,,,,,,,,,,,,,,,,,,,,,,,,,,,,,,,,,,,,,,,,,,,,,,,,,,,,,,,,,,,,,,,,,,,,,,,,,,,,,,,,,,,,376.7107859000098,None,,,11018,001,2024_Jan_05_0835,nback,2021.2.3,59.658182486227226,
1-back,instructions\back-1.png,conditions\14back-e.xlsx,,,experiment,1,3,stim\gray.png,stim\gray.png,stim\yellow.png,stim\gray.png,None,,,,,,,,,,,,,0,1,1,14,0,0,0,0,,,,,,,,,,,,,,,377.82766329997685,382.33533220004756,382.30134460004047,None,,,,,,,,,,,,,,,,,,,,,,,,,,,,,,,,,,,,,,None,1,382.7188577000052,None,382.7188577000052,None,382.7188577000052,383.7205064999871,382.7188577000052,383.7205064999871,382.7188577000052,383.7205064999871,382.7188577000052,383.7205064999871,382.7188577000052,383.2191243999405,382.7188577000052,383.2191243999405,382.7188577000052,383.2191243999405,382.7188577000052,383.2191243999405,382.7188577000052,None,,,,,,11018,001,2024_Jan_05_0835,nback,2021.2.3,59.658182486227226,
1-back,instructions\back-1.png,conditions\14back-e.xlsx,,,experiment,1,2,stim\gray.png,stim\yellow.png,stim\gray.png,stim\gray.png,right,,,,,,,,,,,,,0,1,1,14,0,1,1,1,,,,,,,,,,,,,,,,,,,,,,,,,,,,,,,,,,,,,,,,,,,,,,,,,,,,,,,,right,1,384.2035961999791,None,384.2035961999791,None,384.2035961999791,385.20521050004754,384.2035961999791,385.20521050004754,384.2035961999791,385.20521050004754,384.2035961999791,385.20521050004754,384.2035961999791,384.70465910003986,384.2035961999791,384.70465910003986,384.2035961999791,384.70465910003986,384.2035961999791,384.70465910003986,384.2035961999791,None,0.4711519998963922,,,,,11018,001,2024_Jan_05_0835,nback,2021.2.3,59.658182486227226,
1-back,instructions\back-1.png,conditions\14back-e.xlsx,,,experiment,1,3,stim\gray.png,stim\gray.png,stim\yellow.png,stim\gray.png,left,,,,,,,,,,,,,0,1,1,14,0,2,2,2,,,,,,,,,,,,,,,,,,,,,,,,,,,,,,,,,,,,,,,,,,,,,,,,,,,,,,,,left,1,385.70703189994674,None,385.70703189994674,None,385.70703189994674,386.70807789999526,385.70703189994674,386.70807789999526,385.70703189994674,386.70807789999526,385.70703189994674,386.70807789999526,385.70703189994674,386.2066813999554,385.70703189994674,386.2066813999554,385.70703189994674,386.2066813999554,385.70703189994674,386.2066813999554,385.70703189994674,None,1.2796264999778941,,,,,11018,001,2024_Jan_05_0835,nback,2021.2.3,59.658182486227226,
1-back,instructions\back-1.png,conditions\14back-e.xlsx,,,experiment,1,1,stim\yellow.png,stim\gray.png,stim\gray.png,stim\gray.png,right,,,,,,,,,,,,,0,1,1,14,0,3,3,3,,,,,,,,,,,,,,,,,,,,,,,,,,,,,,,,,,,,,,,,,,,,,,,,,,,,,,,,right,1,387.20838690001983,None,387.20838690001983,None,387.20838690001983,388.21022869995795,387.20838690001983,388.21022869995795,387.20838690001983,388.21022869995795,387.20838690001983,388.21022869995795,387.20838690001983,387.7092001000419,387.20838690001983,387.7092001000419,387.20838690001983,387.7092001000419,387.20838690001983,387.7092001000419,387.20838690001983,None,0.8586390999844298,,,,,11018,001,2024_Jan_05_0835,nback,2021.2.3,59.658182486227226,
1-back,instructions\back-1.png,conditions\14back-e.xlsx,,,experiment,1,2,stim\gray.png,stim\yellow.png,stim\gray.png,stim\gray.png,up,,,,,,,,,,,,,0,1,1,14,0,4,4,4,,,,,,,,,,,,,,,,,,,,,,,,,,,,,,,,,,,,,,,,,,,,,,,,,,,,,,,,up,1,388.7105895000277,None,388.7105895000277,None,388.7105895000277,389.7117914999835,388.7105895000277,389.7117914999835,388.7105895000277,389.7117914999835,388.7105895000277,389.7117914999835,388.7105895000277,389.21179400000256,388.7105895000277,389.21179400000256,388.7105895000277,389.21179400000256,388.7105895000277,389.21179400000256,388.7105895000277,None,0.6039355000248179,,,,,11018,001,2024_Jan_05_0835,nback,2021.2.3,59.658182486227226,
1-back,instructions\back-1.png,conditions\14back-e.xlsx,,,experiment,1,4,stim\gray.png,stim\gray.png,stim\gray.png,stim\yellow.png,left,,,,,,,,,,,,,0,1,1,14,0,5,5,5,,,,,,,,,,,,,,,,,,,,,,,,,,,,,,,,,,,,,,,,,,,,,,,,,,,,,,,,left,1,390.1959405000089,None,390.1959405000089,None,390.1959405000089,391.19894080003724,390.1959405000089,391.19894080003724,390.1959405000089,391.19894080003724,390.1959405000089,391.19894080003724,390.1959405000089,390.6972958999686,390.1959405000089,390.6972958999686,390.1959405000089,390.6972958999686,390.1959405000089,390.6972958999686,390.1959405000089,None,0.4068898999830708,,,,,11018,001,2024_Jan_05_0835,nback,2021.2.3,59.658182486227226,
1-back,instructions\back-1.png,conditions\14back-e.xlsx,,,experiment,1,3,stim\gray.png,stim\gray.png,stim\yellow.png,stim\gray.png,down,,,,,,,,,,,,,0,1,1,14,0,6,6,6,,,,,,,,,,,,,,,,,,,,,,,,,,,,,,,,,,,,,,,,,,,,,,,,,,,,,,,,None,0,391.6980487999972,None,391.6980487999972,None,391.6980487999972,392.6997086999472,391.6980487999972,392.6997086999472,391.6980487999972,392.6997086999472,391.6980487999972,392.6997086999472,391.6980487999972,392.19937899999786,391.6980487999972,392.19937899999786,391.6980487999972,392.19937899999786,391.6980487999972,392.19937899999786,391.6980487999972,None,,,,,,11018,001,2024_Jan_05_0835,nback,2021.2.3,59.658182486227226,
1-back,instructions\back-1.png,conditions\14back-e.xlsx,,,experiment,1,1,stim\yellow.png,stim\gray.png,stim\gray.png,stim\gray.png,right,,,,,,,,,,,,,0,1,1,14,0,7,7,7,,,,,,,,,,,,,,,,,,,,,,,,,,,,,,,,,,,,,,,,,,,,,,,,,,,,,,,,right,1,393.2003076999681,None,393.2003076999681,None,393.2003076999681,394.20265550003387,393.2003076999681,394.20265550003387,393.2003076999681,394.20265550003387,393.2003076999681,394.20265550003387,393.2003076999681,393.7021709999535,393.2003076999681,393.7021709999535,393.2003076999681,393.7021709999535,393.2003076999681,393.7021709999535,393.2003076999681,None,0.4424124000361189,,,,,11018,001,2024_Jan_05_0835,nback,2021.2.3,59.658182486227226,
1-back,instructions\back-1.png,conditions\14back-e.xlsx,,,experiment,1,3,stim\gray.png,stim\gray.png,stim\yellow.png,stim\gray.png,up,,,,,,,,,,,,,0,1,1,14,0,8,8,8,,,,,,,,,,,,,,,,,,,,,,,,,,,,,,,,,,,,,,,,,,,,,,,,,,,,,,,,None,0,394.70269900001585,None,394.70269900001585,None,394.70269900001585,395.7048277000431,394.70269900001585,395.7048277000431,394.70269900001585,395.7048277000431,394.70269900001585,395.7048277000431,394.70269900001585,395.20351120003033,394.70269900001585,395.20351120003033,394.70269900001585,395.20351120003033,394.70269900001585,395.20351120003033,394.70269900001585,None,,,,,,11018,001,2024_Jan_05_0835,nback,2021.2.3,59.658182486227226,
1-back,instructions\back-1.png,conditions\14back-e.xlsx,,,experiment,1,2,stim\gray.png,stim\yellow.png,stim\gray.png,stim\gray.png,right,,,,,,,,,,,,,0,1,1,14,0,9,9,9,,,,,,,,,,,,,,,,,,,,,,,,,,,,,,,,,,,,,,,,,,,,,,,,,,,,,,,,right,1,396.2049322000239,None,396.2049322000239,None,396.2049322000239,397.2066442000214,396.2049322000239,397.2066442000214,396.2049322000239,397.2066442000214,396.2049322000239,397.2066442000214,396.2049322000239,396.7068642999511,396.2049322000239,396.7068642999511,396.2049322000239,396.7068642999511,396.2049322000239,396.7068642999511,396.2049322000239,None,0.7096754000522196,,,,,11018,001,2024_Jan_05_0835,nback,2021.2.3,59.658182486227226,
1-back,instructions\back-1.png,conditions\14back-e.xlsx,,,experiment,1,4,stim\gray.png,stim\gray.png,stim\gray.png,stim\yellow.png,left,,,,,,,,,,,,,0,1,1,14,0,10,10,10,,,,,,,,,,,,,,,,,,,,,,,,,,,,,,,,,,,,,,,,,,,,,,,,,,,,,,,,left,1,397.70692629995756,None,397.70692629995756,None,397.70692629995756,398.70926110004075,397.70692629995756,398.70926110004075,397.70692629995756,398.70926110004075,397.70692629995756,398.70926110004075,397.70692629995756,398.2084786000196,397.70692629995756,398.2084786000196,397.70692629995756,398.2084786000196,397.70692629995756,398.2084786000196,397.70692629995756,None,1.0718759999144822,,,,,11018,001,2024_Jan_05_0835,nback,2021.2.3,59.658182486227226,
1-back,instructions\back-1.png,conditions\14back-e.xlsx,,,experiment,1,2,stim\gray.png,stim\yellow.png,stim\gray.png,stim\gray.png,down,,,,,,,,,,,,,0,1,1,14,0,11,11,11,,,,,,,,,,,,,,,,,,,,,,,,,,,,,,,,,,,,,,,,,,,,,,,,,,,,,,,,None,0,399.20938480005134,None,399.20938480005134,None,399.20938480005134,400.21098710002843,399.20938480005134,400.21098710002843,399.20938480005134,400.21098710002843,399.20938480005134,400.21098710002843,399.20938480005134,399.71084239997435,399.20938480005134,399.71084239997435,399.20938480005134,399.71084239997435,399.20938480005134,399.71084239997435,399.20938480005134,None,,,,,,11018,001,2024_Jan_05_0835,nback,2021.2.3,59.658182486227226,
1-back,instructions\back-1.png,conditions\14back-e.xlsx,,,experiment,1,4,stim\gray.png,stim\gray.png,stim\gray.png,stim\yellow.png,left,,,,,,,,,,,,,0,1,1,14,0,12,12,12,,,,,,,,,,,,,,,,,,,,,,,,,,,,,,,,,,,,,,,,,,,,,,,,,,,,,,,,left,1,400.694941499969,None,400.694941499969,None,400.694941499969,401.6963970999932,400.694941499969,401.6963970999932,400.694941499969,401.6963970999932,400.694941499969,401.6963970999932,400.694941499969,401.1959712000098,400.694941499969,401.1959712000098,400.694941499969,401.1959712000098,400.694941499969,401.1959712000098,400.694941499969,None,0.9400153999449685,,,,,11018,001,2024_Jan_05_0835,nback,2021.2.3,59.658182486227226,
1-back,instructions\back-1.png,conditions\14back-e.xlsx,,,experiment,1,1,stim\yellow.png,stim\gray.png,stim\gray.png,stim\gray.png,down,,,,,,,,,,,,,0,1,1,14,0,13,13,13,,,,,,,,,,,,,,,,,,,,,,,,,,,,,,,,,,,,,,,,,,,,,,,,,,,,,,,,down,1,402.1969950000057,None,402.1969950000057,None,402.1969950000057,403.1986674000509,402.1969950000057,403.1986674000509,402.1969950000057,403.1986674000509,402.1969950000057,403.1986674000509,402.1969950000057,402.69870089995675,402.1969950000057,402.69870089995675,402.1969950000057,402.69870089995675,402.1969950000057,402.69870089995675,402.1969950000057,None,0.6217439000029117,,,,,11018,001,2024_Jan_05_0835,nback,2021.2.3,59.658182486227226,
1-back,instructions\back-1.png,conditions\14back-e.xlsx,,,experiment,1,1,stim\yellow.png,stim\gray.png,stim\gray.png,stim\gray.png,up,,,,,,,,,,,,,0,1,1,14,0,14,14,14,,,,,,,,,,,,,,,,,,,,,,,,,,,,,,,,,,,,,,,,,,,,,,,,,,,,,,,,up,1,403.699388399953,None,403.699388399953,None,403.699388399953,404.7009953999659,403.699388399953,404.7009953999659,403.699388399953,404.7009953999659,403.699388399953,404.7009953999659,403.699388399953,404.2009534999961,403.699388399953,404.2009534999961,403.699388399953,404.2009534999961,403.699388399953,404.2009534999961,403.699388399953,None,0.4237507999641821,,,,,11018,001,2024_Jan_05_0835,nback,2021.2.3,59.658182486227226,
1-back,instructions\back-1.png,conditions\14back-e.xlsx,,,experiment,1,4,stim\gray.png,stim\gray.png,stim\gray.png,stim\yellow.png,up,,,,,,,,,,,,,0,1,1,14,0,15,15,15,,,,,,,,,,,,,,,,,,,,,,,,,,,,,,,,,,,,,,,,,,,,,,,,,,,,,,,,up,1,405.2016512999544,None,405.2016512999544,None,405.2016512999544,406.2038527999539,405.2016512999544,406.2038527999539,405.2016512999544,406.2038527999539,405.2016512999544,406.2038527999539,405.2016512999544,405.70221519994084,405.2016512999544,405.70221519994084,405.2016512999544,405.70221519994084,405.2016512999544,405.70221519994084,405.2016512999544,None,0.2975563999498263,,,,,11018,001,2024_Jan_05_0835,nback,2021.2.3,59.658182486227226,
1-back,instructions\back-1.png,conditions\14back-e.xlsx,,,experiment,1,1,stim\yellow.png,stim\gray.png,stim\gray.png,stim\gray.png,down,,,,,,,,,,,,,0,1,1,14,0,16,16,16,,,,,,,,,,,,,,,,,,,,,,,,,,,,,,,,,,,,,,,,,,,,,,,,,,,,,,,,down,1,406.7041903999634,None,406.7041903999634,None,406.7041903999634,407.70566249999683,406.7041903999634,407.70566249999683,406.7041903999634,407.70566249999683,406.7041903999634,407.70566249999683,406.7041903999634,407.2047901999904,406.7041903999634,407.2047901999904,406.7041903999634,407.2047901999904,406.7041903999634,407.2047901999904,406.7041903999634,None,0.37050260009709746,,,,,11018,001,2024_Jan_05_0835,nback,2021.2.3,59.658182486227226,
1-back,instructions\back-1.png,conditions\14back-e.xlsx,,,experiment,1,3,stim\gray.png,stim\gray.png,stim\yellow.png,stim\gray.png,up,,,,,,,,,,,,,0,1,1,14,0,17,17,17,,,,,,,,,,,,,,,,,,,,,,,,,,,,,,,,,,,,,,,,,,,,,,,,,,,,,,,,up,1,408.2061150999507,None,408.2061150999507,None,408.2061150999507,409.2074803999858,408.2061150999507,409.2074803999858,408.2061150999507,409.2074803999858,408.2061150999507,409.2074803999858,408.2061150999507,408.7075111999875,408.2061150999507,408.7075111999875,408.2061150999507,408.7075111999875,408.2061150999507,408.7075111999875,408.2061150999507,None,0.3177203999366611,,,,,11018,001,2024_Jan_05_0835,nback,2021.2.3,59.658182486227226,
1-back,instructions\back-1.png,conditions\14back-e.xlsx,,,experiment,1,2,stim\gray.png,stim\yellow.png,stim\gray.png,stim\gray.png,right,,,,,,,,,,,,,0,1,1,14,0,18,18,18,,,,,,,,,,,,,,,,,,,,,,,,,,,,,,,,,,,,,,,,,,,,,,,,,,,,,,,,right,1,409.708175900043,None,409.708175900043,None,409.708175900043,410.7100463999668,409.708175900043,410.7100463999668,409.708175900043,410.7100463999668,409.708175900043,410.7100463999668,409.708175900043,410.2096663999837,409.708175900043,410.2096663999837,409.708175900043,410.2096663999837,409.708175900043,410.2096663999837,409.708175900043,None,0.20663359994068742,,,,,11018,001,2024_Jan_05_0835,nback,2021.2.3,59.658182486227226,
1-back,instructions\back-1.png,conditions\14back-e.xlsx,,,experiment,1,4,stim\gray.png,stim\gray.png,stim\gray.png,stim\yellow.png,left,,,,,,,,,,,,,0,1,1,14,0,19,19,19,,,,,,,,,,,,,,,,,,,,,,,,,,,,,,,,,,,,,,,,,,,,,,,,,,,,,,,,left,1,411.210437700036,None,411.210437700036,None,411.210437700036,412.2119736999739,411.210437700036,412.2119736999739,411.210437700036,412.2119736999739,411.210437700036,412.2119736999739,411.210437700036,411.71108249993995,411.210437700036,411.71108249993995,411.210437700036,411.71108249993995,411.210437700036,411.71108249993995,411.210437700036,None,0.9602511000121012,,,,,11018,001,2024_Jan_05_0835,nback,2021.2.3,59.658182486227226,
1-back,instructions\back-1.png,conditions\14back-e.xlsx,,,,,,,,,,,,,,,,,,,,,,,0,1,1,14,,,,,,,,,,,,,,,,,,,,,,,,,,,,,,,,,,,,,,,,,,,,,,,,,,,,,,,,,,,,,,,,,,,,,,,,,,,,,,,,,,,,,412.6960997999413,None,,,11018,001,2024_Jan_05_0835,nback,2021.2.3,59.658182486227226,
2-back,instructions\back-2.png,conditions\24back-e.xlsx,,,experiment,2,1,stim\yellow.png,stim\gray.png,stim\gray.png,stim\gray.png,None,,,,,,,,,,,,,0,2,2,12,0,0,0,0,,,,,,,,,,,,,,,413.8148638999555,418.32240519998595,418.2718457999872,None,,,,,,,,,,,,,,,,,,,,,,,,,,,,,,,,,,,,,,None,1,418.7229393000016,None,418.7229393000016,None,418.7229393000016,419.7237398000434,418.7229393000016,419.7237398000434,418.7229393000016,419.7237398000434,418.7229393000016,419.7237398000434,418.7229393000016,419.2222305999603,418.7229393000016,419.2222305999603,418.7229393000016,419.2222305999603,418.7229393000016,419.2222305999603,418.7229393000016,None,,,,,,11018,001,2024_Jan_05_0835,nback,2021.2.3,59.658182486227226,
2-back,instructions\back-2.png,conditions\24back-e.xlsx,,,experiment,2,2,stim\gray.png,stim\yellow.png,stim\gray.png,stim\gray.png,None,,,,,,,,,,,,,0,2,2,12,0,1,1,1,,,,,,,,,,,,,,,,,,,,,,,,,,,,,,,,,,,,,,,,,,,,,,,,,,,,,,,,None,1,420.20764639996924,None,420.20764639996924,None,420.20764639996924,421.2090847999789,420.20764639996924,421.2090847999789,420.20764639996924,421.2090847999789,420.20764639996924,421.2090847999789,420.20764639996924,420.7087793999817,420.20764639996924,420.7087793999817,420.20764639996924,420.7087793999817,420.20764639996924,420.7087793999817,420.20764639996924,None,,,,,,11018,001,2024_Jan_05_0835,nback,2021.2.3,59.658182486227226,
2-back,instructions\back-2.png,conditions\24back-e.xlsx,,,experiment,2,1,stim\yellow.png,stim\gray.png,stim\gray.png,stim\gray.png,up,,,,,,,,,,,,,0,2,2,12,0,2,2,2,,,,,,,,,,,,,,,,,,,,,,,,,,,,,,,,,,,,,,,,,,,,,,,,,,,,,,,,up,1,421.70932030002587,None,421.70932030002587,None,421.70932030002587,422.71088529995177,421.70932030002587,422.71088529995177,421.70932030002587,422.71088529995177,421.70932030002587,422.71088529995177,421.70932030002587,422.2101672999561,421.70932030002587,422.2101672999561,421.70932030002587,422.2101672999561,421.70932030002587,422.2101672999561,421.70932030002587,None,0.5897469000192359,,,,,11018,001,2024_Jan_05_0835,nback,2021.2.3,59.658182486227226,
2-back,instructions\back-2.png,conditions\24back-e.xlsx,,,experiment,2,4,stim\gray.png,stim\gray.png,stim\gray.png,stim\yellow.png,left,,,,,,,,,,,,,0,2,2,12,0,3,3,3,,,,,,,,,,,,,,,,,,,,,,,,,,,,,,,,,,,,,,,,,,,,,,,,,,,,,,,,left,1,423.19491109997034,None,423.19491109997034,None,423.19491109997034,424.1963783999672,423.19491109997034,424.1963783999672,423.19491109997034,424.1963783999672,423.19491109997034,424.1963783999672,423.19491109997034,423.6955698999809,423.19491109997034,423.6955698999809,423.19491109997034,423.6955698999809,423.19491109997034,423.6955698999809,423.19491109997034,None,0.48789929994381964,,,,,11018,001,2024_Jan_05_0835,nback,2021.2.3,59.658182486227226,
2-back,instructions\back-2.png,conditions\24back-e.xlsx,,,experiment,2,3,stim\gray.png,stim\gray.png,stim\yellow.png,stim\gray.png,up,,,,,,,,,,,,,0,2,2,12,0,4,4,4,,,,,,,,,,,,,,,,,,,,,,,,,,,,,,,,,,,,,,,,,,,,,,,,,,,,,,,,up,1,424.6971273999661,None,424.6971273999661,None,424.6971273999661,425.6987749999389,424.6971273999661,425.6987749999389,424.6971273999661,425.6987749999389,424.6971273999661,425.6987749999389,424.6971273999661,425.1978295999579,424.6971273999661,425.1978295999579,424.6971273999661,425.1978295999579,424.6971273999661,425.1978295999579,424.6971273999661,None,0.30626989994198084,,,,,11018,001,2024_Jan_05_0835,nback,2021.2.3,59.658182486227226,
2-back,instructions\back-2.png,conditions\24back-e.xlsx,,,experiment,2,4,stim\gray.png,stim\gray.png,stim\gray.png,stim\yellow.png,down,,,,,,,,,,,,,0,2,2,12,0,5,5,5,,,,,,,,,,,,,,,,,,,,,,,,,,,,,,,,,,,,,,,,,,,,,,,,,,,,,,,,down,1,426.1992896000156,None,426.1992896000156,None,426.1992896000156,427.202310499968,426.1992896000156,427.202310499968,426.1992896000156,427.202310499968,426.1992896000156,427.202310499968,426.1992896000156,426.7007519999752,426.1992896000156,426.7007519999752,426.1992896000156,426.7007519999752,426.1992896000156,426.7007519999752,426.1992896000156,None,0.1235563000664115,,,,,11018,001,2024_Jan_05_0835,nback,2021.2.3,59.658182486227226,
2-back,instructions\back-2.png,conditions\24back-e.xlsx,,,experiment,2,3,stim\gray.png,stim\gray.png,stim\yellow.png,stim\gray.png,right,,,,,,,,,,,,,0,2,2,12,0,6,6,6,,,,,,,,,,,,,,,,,,,,,,,,,,,,,,,,,,,,,,,,,,,,,,,,,,,,,,,,None,0,427.7014788000379,None,427.7014788000379,None,427.7014788000379,428.70411609997973,427.7014788000379,428.70411609997973,427.7014788000379,428.70411609997973,427.7014788000379,428.70411609997973,427.7014788000379,428.202385499957,427.7014788000379,428.202385499957,427.7014788000379,428.202385499957,427.7014788000379,428.202385499957,427.7014788000379,None,,,,,,11018,001,2024_Jan_05_0835,nback,2021.2.3,59.658182486227226,
2-back,instructions\back-2.png,conditions\24back-e.xlsx,,,experiment,2,2,stim\gray.png,stim\yellow.png,stim\gray.png,stim\gray.png,down,,,,,,,,,,,,,0,2,2,12,0,7,7,7,,,,,,,,,,,,,,,,,,,,,,,,,,,,,,,,,,,,,,,,,,,,,,,,,,,,,,,,right,0,429.20377709995955,None,429.20377709995955,None,429.20377709995955,430.206066200044,429.20377709995955,430.206066200044,429.20377709995955,430.206066200044,429.20377709995955,430.206066200044,429.20377709995955,429.7046424000291,429.20377709995955,429.7046424000291,429.20377709995955,429.7046424000291,429.20377709995955,429.7046424000291,429.20377709995955,None,1.3269436999689788,,,,,11018,001,2024_Jan_05_0835,nback,2021.2.3,59.658182486227226,
2-back,instructions\back-2.png,conditions\24back-e.xlsx,,,experiment,2,4,stim\gray.png,stim\gray.png,stim\gray.png,stim\yellow.png,right,,,,,,,,,,,,,0,2,2,12,0,8,8,8,,,,,,,,,,,,,,,,,,,,,,,,,,,,,,,,,,,,,,,,,,,,,,,,,,,,,,,,left,0,430.7060107999714,None,430.7060107999714,None,430.7060107999714,431.7074159999611,430.7060107999714,431.7074159999611,430.7060107999714,431.7074159999611,430.7060107999714,431.7074159999611,430.7060107999714,431.2074332999764,430.7060107999714,431.2074332999764,430.7060107999714,431.2074332999764,430.7060107999714,431.2074332999764,430.7060107999714,None,1.17668039991986,,,,,11018,001,2024_Jan_05_0835,nback,2021.2.3,59.658182486227226,
2-back,instructions\back-2.png,conditions\24back-e.xlsx,,,experiment,2,1,stim\yellow.png,stim\gray.png,stim\gray.png,stim\gray.png,left,,,,,,,,,,,,,0,2,2,12,0,9,9,9,,,,,,,,,,,,,,,,,,,,,,,,,,,,,,,,,,,,,,,,,,,,,,,,,,,,,,,,down,0,432.2083559000166,None,432.2083559000166,None,432.2083559000166,433.210351799964,432.2083559000166,433.210351799964,432.2083559000166,433.210351799964,432.2083559000166,433.210351799964,432.2083559000166,432.7090344999451,432.2083559000166,432.7090344999451,432.2083559000166,432.7090344999451,432.2083559000166,432.7090344999451,432.2083559000166,None,1.0422864999854937,,,,,11018,001,2024_Jan_05_0835,nback,2021.2.3,59.658182486227226,
2-back,instructions\back-2.png,conditions\24back-e.xlsx,,,experiment,2,3,stim\gray.png,stim\gray.png,stim\yellow.png,stim\gray.png,down,,,,,,,,,,,,,0,2,2,12,0,10,10,10,,,,,,,,,,,,,,,,,,,,,,,,,,,,,,,,,,,,,,,,,,,,,,,,,,,,,,,,up,0,433.71051639993675,None,433.71051639993675,None,433.71051639993675,434.71206259995233,433.71051639993675,434.71206259995233,433.71051639993675,434.71206259995233,433.71051639993675,434.71206259995233,433.71051639993675,434.2114809999475,433.71051639993675,434.2114809999475,433.71051639993675,434.2114809999475,433.71051639993675,434.2114809999475,433.71051639993675,None,1.1324214999331161,,,,,11018,001,2024_Jan_05_0835,nback,2021.2.3,59.658182486227226,
2-back,instructions\back-2.png,conditions\24back-e.xlsx,,,experiment,2,1,stim\yellow.png,stim\gray.png,stim\gray.png,stim\gray.png,up,,,,,,,,,,,,,0,2,2,12,0,11,11,11,,,,,,,,,,,,,,,,,,,,,,,,,,,,,,,,,,,,,,,,,,,,,,,,,,,,,,,,right,0,435.19584659999236,None,435.19584659999236,None,435.19584659999236,436.1975697999587,435.19584659999236,436.1975697999587,435.19584659999236,436.1975697999587,435.19584659999236,436.1975697999587,435.19584659999236,435.6968257999979,435.19584659999236,435.6968257999979,435.19584659999236,435.6968257999979,435.19584659999236,435.6968257999979,435.19584659999236,None,1.3748327000066638,,,,,11018,001,2024_Jan_05_0835,nback,2021.2.3,59.658182486227226,
2-back,instructions\back-2.png,conditions\24back-e.xlsx,,,experiment,2,2,stim\gray.png,stim\yellow.png,stim\gray.png,stim\gray.png,right,,,,,,,,,,,,,0,2,2,12,0,12,12,12,,,,,,,,,,,,,,,,,,,,,,,,,,,,,,,,,,,,,,,,,,,,,,,,,,,,,,,,up,0,436.69819040002767,None,436.69819040002767,None,436.69819040002767,437.6998168999562,436.69819040002767,437.6998168999562,436.69819040002767,437.6998168999562,436.69819040002767,437.6998168999562,436.69819040002767,437.1990612000227,436.69819040002767,437.1990612000227,436.69819040002767,437.1990612000227,436.69819040002767,437.1990612000227,436.69819040002767,None,1.2728487000567839,,,,,11018,001,2024_Jan_05_0835,nback,2021.2.3,59.658182486227226,
2-back,instructions\back-2.png,conditions\24back-e.xlsx,,,experiment,2,4,stim\gray.png,stim\gray.png,stim\gray.png,stim\yellow.png,up,,,,,,,,,,,,,0,2,2,12,0,13,13,13,,,,,,,,,,,,,,,,,,,,,,,,,,,,,,,,,,,,,,,,,,,,,,,,,,,,,,,,left,0,438.2007590000285,None,438.2007590000285,None,438.2007590000285,439.20340020000003,438.2007590000285,439.20340020000003,438.2007590000285,439.20340020000003,438.2007590000285,439.20340020000003,438.2007590000285,438.7012856999645,438.2007590000285,438.7012856999645,438.2007590000285,438.7012856999645,438.2007590000285,438.7012856999645,438.2007590000285,None,1.290369600057602,,,,,11018,001,2024_Jan_05_0835,nback,2021.2.3,59.658182486227226,
2-back,instructions\back-2.png,conditions\24back-e.xlsx,,,experiment,2,3,stim\gray.png,stim\gray.png,stim\yellow.png,stim\gray.png,left,,,,,,,,,,,,,0,2,2,12,0,14,14,14,,,,,,,,,,,,,,,,,,,,,,,,,,,,,,,,,,,,,,,,,,,,,,,,,,,,,,,,down,0,439.7027055999497,None,439.7027055999497,None,439.7027055999497,440.7053126000101,439.7027055999497,440.7053126000101,439.7027055999497,440.7053126000101,439.7027055999497,440.7053126000101,439.7027055999497,440.20361279998906,439.7027055999497,440.20361279998906,439.7027055999497,440.20361279998906,439.7027055999497,440.20361279998906,439.7027055999497,None,1.1159976000199094,,,,,11018,001,2024_Jan_05_0835,nback,2021.2.3,59.658182486227226,
2-back,instructions\back-2.png,conditions\24back-e.xlsx,,,experiment,2,2,stim\gray.png,stim\yellow.png,stim\gray.png,stim\gray.png,down,,,,,,,,,,,,,0,2,2,12,0,15,15,15,,,,,,,,,,,,,,,,,,,,,,,,,,,,,,,,,,,,,,,,,,,,,,,,,,,,,,,,right,0,441.2050243000267,None,441.2050243000267,None,441.2050243000267,442.20649450004566,441.2050243000267,442.20649450004566,441.2050243000267,442.20649450004566,441.2050243000267,442.20649450004566,441.2050243000267,441.7064445000142,441.2050243000267,441.7064445000142,441.2050243000267,441.7064445000142,441.2050243000267,441.7064445000142,441.2050243000267,None,1.0302346999524161,,,,,11018,001,2024_Jan_05_0835,nback,2021.2.3,59.658182486227226,
2-back,instructions\back-2.png,conditions\24back-e.xlsx,,,experiment,2,4,stim\gray.png,stim\gray.png,stim\gray.png,stim\yellow.png,right,,,,,,,,,,,,,0,2,2,12,0,16,16,16,,,,,,,,,,,,,,,,,,,,,,,,,,,,,,,,,,,,,,,,,,,,,,,,,,,,,,,,left,0,442.7069773999974,None,442.7069773999974,None,442.7069773999974,443.70899980003014,442.7069773999974,443.70899980003014,442.7069773999974,443.70899980003014,442.7069773999974,443.70899980003014,442.7069773999974,443.20906829996966,442.7069773999974,443.20906829996966,442.7069773999974,443.20906829996966,442.7069773999974,443.20906829996966,442.7069773999974,None,0.9205100000835955,,,,,11018,001,2024_Jan_05_0835,nback,2021.2.3,59.658182486227226,
2-back,instructions\back-2.png,conditions\24back-e.xlsx,,,experiment,2,3,stim\gray.png,stim\gray.png,stim\yellow.png,stim\gray.png,left,,,,,,,,,,,,,0,2,2,12,0,17,17,17,,,,,,,,,,,,,,,,,,,,,,,,,,,,,,,,,,,,,,,,,,,,,,,,,,,,,,,,down,0,444.2095224999357,None,444.2095224999357,None,444.2095224999357,445.2110446000006,444.2095224999357,445.2110446000006,444.2095224999357,445.2110446000006,444.2095224999357,445.2110446000006,444.2095224999357,444.71067920001224,444.2095224999357,444.71067920001224,444.2095224999357,444.71067920001224,444.2095224999357,444.71067920001224,444.2095224999357,None,1.2252920999890193,,,,,11018,001,2024_Jan_05_0835,nback,2021.2.3,59.658182486227226,
2-back,instructions\back-2.png,conditions\24back-e.xlsx,,,experiment,2,1,stim\yellow.png,stim\gray.png,stim\gray.png,stim\gray.png,down,,,,,,,,,,,,,0,2,2,12,0,18,18,18,,,,,,,,,,,,,,,,,,,,,,,,,,,,,,,,,,,,,,,,,,,,,,,,,,,,,,,,right,0,445.6950592000503,None,445.6950592000503,None,445.6950592000503,446.6965313999681,445.6950592000503,446.6965313999681,445.6950592000503,446.6965313999681,445.6950592000503,446.6965313999681,445.6950592000503,446.1955909000244,445.6950592000503,446.1955909000244,445.6950592000503,446.1955909000244,445.6950592000503,446.1955909000244,445.6950592000503,None,1.411774200038053,,,,,11018,001,2024_Jan_05_0835,nback,2021.2.3,59.658182486227226,
2-back,instructions\back-2.png,conditions\24back-e.xlsx,,,experiment,2,2,stim\gray.png,stim\yellow.png,stim\gray.png,stim\gray.png,right,,,,,,,,,,,,,0,2,2,12,0,19,19,19,,,,,,,,,,,,,,,,,,,,,,,,,,,,,,,,,,,,,,,,,,,,,,,,,,,,,,,,up,0,447.197155599948,None,447.197155599948,None,447.197155599948,448.19871929998044,447.197155599948,448.19871929998044,447.197155599948,448.19871929998044,447.197155599948,448.19871929998044,447.197155599948,447.6981842999812,447.197155599948,447.6981842999812,447.197155599948,447.6981842999812,447.197155599948,447.6981842999812,447.197155599948,None,1.4535201999824494,,,,,11018,001,2024_Jan_05_0835,nback,2021.2.3,59.658182486227226,
2-back,instructions\back-2.png,conditions\24back-e.xlsx,,,,,,,,,,,,,,,,,,,,,,,0,2,2,12,,,,,,,,,,,,,,,,,,,,,,,,,,,,,,,,,,,,,,,,,,,,,,,,,,,,,,,,,,,,,,,,,,,,,,,,,,,,,,,,,,,,,448.70138440001756,None,,,11018,001,2024_Jan_05_0835,nback,2021.2.3,59.658182486227226,
0-back,instructions\back-0.png,conditions\04back-e.xlsx,,,experiment,0,3,stim\gray.png,stim\gray.png,stim\yellow.png,stim\gray.png,right,,,,,,,,,,,,,0,3,3,13,0,0,0,0,,,,,,,,,,,,,,,449.8177452000091,454.32551620004233,454.2921256000409,None,,,,,,,,,,,,,,,,,,,,,,,,,,,,,,,,,,,,,,right,1,454.7422622999875,None,454.7422622999875,None,454.7422622999875,455.74394259997644,454.7422622999875,455.74394259997644,454.7422622999875,455.74394259997644,454.7422622999875,455.74394259997644,454.7422622999875,455.24239000002854,454.7422622999875,455.24239000002854,454.7422622999875,455.24239000002854,454.7422622999875,455.24239000002854,454.7422622999875,None,0.5890524000860751,,,,,11018,001,2024_Jan_05_0835,nback,2021.2.3,59.658182486227226,
0-back,instructions\back-0.png,conditions\04back-e.xlsx,,,experiment,0,1,stim\yellow.png,stim\gray.png,stim\gray.png,stim\gray.png,up,,,,,,,,,,,,,0,3,3,13,0,1,1,1,,,,,,,,,,,,,,,,,,,,,,,,,,,,,,,,,,,,,,,,,,,,,,,,,,,,,,,,up,1,456.2104548000498,None,456.2104548000498,None,456.2104548000498,457.2125647000503,456.2104548000498,457.2125647000503,456.2104548000498,457.2125647000503,456.2104548000498,457.2125647000503,456.2104548000498,456.7112659999402,456.2104548000498,456.7112659999402,456.2104548000498,456.7112659999402,456.2104548000498,456.7112659999402,456.2104548000498,None,0.36024920002091676,,,,,11018,001,2024_Jan_05_0835,nback,2021.2.3,59.658182486227226,
0-back,instructions\back-0.png,conditions\04back-e.xlsx,,,experiment,0,2,stim\gray.png,stim\yellow.png,stim\gray.png,stim\gray.png,left,,,,,,,,,,,,,0,3,3,13,0,2,2,2,,,,,,,,,,,,,,,,,,,,,,,,,,,,,,,,,,,,,,,,,,,,,,,,,,,,,,,,left,1,457.69603370002005,None,457.69603370002005,None,457.69603370002005,458.69759949995205,457.69603370002005,458.69759949995205,457.69603370002005,458.69759949995205,457.69603370002005,458.69759949995205,457.69603370002005,458.19676690001506,457.69603370002005,458.19676690001506,457.69603370002005,458.19676690001506,457.69603370002005,458.19676690001506,457.69603370002005,None,0.2987640000646934,,,,,11018,001,2024_Jan_05_0835,nback,2021.2.3,59.658182486227226,
0-back,instructions\back-0.png,conditions\04back-e.xlsx,,,experiment,0,3,stim\gray.png,stim\gray.png,stim\yellow.png,stim\gray.png,right,,,,,,,,,,,,,0,3,3,13,0,3,3,3,,,,,,,,,,,,,,,,,,,,,,,,,,,,,,,,,,,,,,,,,,,,,,,,,,,,,,,,right,1,459.1984003999969,None,459.1984003999969,None,459.1984003999969,460.20004369993694,459.1984003999969,460.20004369993694,459.1984003999969,460.20004369993694,459.1984003999969,460.20004369993694,459.1984003999969,459.6993096000515,459.1984003999969,459.6993096000515,459.1984003999969,459.6993096000515,459.1984003999969,459.6993096000515,459.1984003999969,None,0.4523322000168264,,,,,11018,001,2024_Jan_05_0835,nback,2021.2.3,59.658182486227226,
0-back,instructions\back-0.png,conditions\04back-e.xlsx,,,experiment,0,3,stim\gray.png,stim\gray.png,stim\yellow.png,stim\gray.png,right,,,,,,,,,,,,,0,3,3,13,0,4,4,4,,,,,,,,,,,,,,,,,,,,,,,,,,,,,,,,,,,,,,,,,,,,,,,,,,,,,,,,right,1,460.70043850003276,None,460.70043850003276,None,460.70043850003276,461.7028719999362,460.70043850003276,461.7028719999362,460.70043850003276,461.7028719999362,460.70043850003276,461.7028719999362,460.70043850003276,461.2013048999943,460.70043850003276,461.2013048999943,460.70043850003276,461.2013048999943,460.70043850003276,461.2013048999943,460.70043850003276,None,0.4064713000552729,,,,,11018,001,2024_Jan_05_0835,nback,2021.2.3,59.658182486227226,
0-back,instructions\back-0.png,conditions\04back-e.xlsx,,,experiment,0,2,stim\gray.png,stim\yellow.png,stim\gray.png,stim\gray.png,left,,,,,,,,,,,,,0,3,3,13,0,5,5,5,,,,,,,,,,,,,,,,,,,,,,,,,,,,,,,,,,,,,,,,,,,,,,,,,,,,,,,,left,1,462.2027409999864,None,462.2027409999864,None,462.2027409999864,463.20437839999795,462.2027409999864,463.20437839999795,462.2027409999864,463.20437839999795,462.2027409999864,463.20437839999795,462.2027409999864,462.7041921999771,462.2027409999864,462.7041921999771,462.2027409999864,462.7041921999771,462.2027409999864,462.7041921999771,462.2027409999864,None,0.36819970002397895,,,,,11018,001,2024_Jan_05_0835,nback,2021.2.3,59.658182486227226,
0-back,instructions\back-0.png,conditions\04back-e.xlsx,,,experiment,0,2,stim\gray.png,stim\yellow.png,stim\gray.png,stim\gray.png,left,,,,,,,,,,,,,0,3,3,13,0,6,6,6,,,,,,,,,,,,,,,,,,,,,,,,,,,,,,,,,,,,,,,,,,,,,,,,,,,,,,,,left,1,463.7048996000085,None,463.7048996000085,None,463.7048996000085,464.70644620002713,463.7048996000085,464.70644620002713,463.7048996000085,464.70644620002713,463.7048996000085,464.70644620002713,463.7048996000085,464.206507600029,463.7048996000085,464.206507600029,463.7048996000085,464.206507600029,463.7048996000085,464.206507600029,463.7048996000085,None,0.36200790002476424,,,,,11018,001,2024_Jan_05_0835,nback,2021.2.3,59.658182486227226,
0-back,instructions\back-0.png,conditions\04back-e.xlsx,,,experiment,0,1,stim\yellow.png,stim\gray.png,stim\gray.png,stim\gray.png,up,,,,,,,,,,,,,0,3,3,13,0,7,7,7,,,,,,,,,,,,,,,,,,,,,,,,,,,,,,,,,,,,,,,,,,,,,,,,,,,,,,,,up,1,465.2071950000245,None,465.2071950000245,None,465.2071950000245,466.2095993999392,465.2071950000245,466.2095993999392,465.2071950000245,466.2095993999392,465.2071950000245,466.2095993999392,465.2071950000245,465.7079646999482,465.2071950000245,465.7079646999482,465.2071950000245,465.7079646999482,465.2071950000245,465.7079646999482,465.2071950000245,None,0.3716011999640614,,,,,11018,001,2024_Jan_05_0835,nback,2021.2.3,59.658182486227226,
0-back,instructions\back-0.png,conditions\04back-e.xlsx,,,experiment,0,4,stim\gray.png,stim\gray.png,stim\gray.png,stim\yellow.png,down,,,,,,,,,,,,,0,3,3,13,0,8,8,8,,,,,,,,,,,,,,,,,,,,,,,,,,,,,,,,,,,,,,,,,,,,,,,,,,,,,,,,down,1,466.70937729999423,None,466.70937729999423,None,466.70937729999423,467.7117782999994,466.70937729999423,467.7117782999994,466.70937729999423,467.7117782999994,466.70937729999423,467.7117782999994,466.70937729999423,467.2116588000208,466.70937729999423,467.2116588000208,466.70937729999423,467.2116588000208,466.70937729999423,467.2116588000208,466.70937729999423,None,0.27743720007129014,,,,,11018,001,2024_Jan_05_0835,nback,2021.2.3,59.658182486227226,
0-back,instructions\back-0.png,conditions\04back-e.xlsx,,,experiment,0,4,stim\gray.png,stim\gray.png,stim\gray.png,stim\yellow.png,down,,,,,,,,,,,,,0,3,3,13,0,9,9,9,,,,,,,,,,,,,,,,,,,,,,,,,,,,,,,,,,,,,,,,,,,,,,,,,,,,,,,,down,1,468.19493869994767,None,468.19493869994767,None,468.19493869994767,469.1965304999612,468.19493869994767,469.1965304999612,468.19493869994767,469.1965304999612,468.19493869994767,469.1965304999612,468.19493869994767,468.6956475999905,468.19493869994767,468.6956475999905,468.19493869994767,468.6956475999905,468.19493869994767,468.6956475999905,468.19493869994767,None,0.416540400008671,,,,,11018,001,2024_Jan_05_0835,nback,2021.2.3,59.658182486227226,
0-back,instructions\back-0.png,conditions\04back-e.xlsx,,,experiment,0,1,stim\yellow.png,stim\gray.png,stim\gray.png,stim\gray.png,up,,,,,,,,,,,,,0,3,3,13,0,10,10,10,,,,,,,,,,,,,,,,,,,,,,,,,,,,,,,,,,,,,,,,,,,,,,,,,,,,,,,,up,1,469.69709759997204,None,469.69709759997204,None,469.69709759997204,470.6986772000091,469.69709759997204,470.6986772000091,469.69709759997204,470.6986772000091,469.69709759997204,470.6986772000091,469.69709759997204,470.19863130000886,469.69709759997204,470.19863130000886,469.69709759997204,470.19863130000886,469.69709759997204,470.19863130000886,469.69709759997204,None,0.4180111999157816,,,,,11018,001,2024_Jan_05_0835,nback,2021.2.3,59.658182486227226,
0-back,instructions\back-0.png,conditions\04back-e.xlsx,,,experiment,0,4,stim\gray.png,stim\gray.png,stim\gray.png,stim\yellow.png,down,,,,,,,,,,,,,0,3,3,13,0,11,11,11,,,,,,,,,,,,,,,,,,,,,,,,,,,,,,,,,,,,,,,,,,,,,,,,,,,,,,,,down,1,471.1995631000027,None,471.1995631000027,None,471.1995631000027,472.20153910003137,471.1995631000027,472.20153910003137,471.1995631000027,472.20153910003137,471.1995631000027,472.20153910003137,471.1995631000027,471.7007642999524,471.1995631000027,471.7007642999524,471.1995631000027,471.7007642999524,471.1995631000027,471.7007642999524,471.1995631000027,None,0.5556100000394508,,,,,11018,001,2024_Jan_05_0835,nback,2021.2.3,59.658182486227226,
0-back,instructions\back-0.png,conditions\04back-e.xlsx,,,experiment,0,1,stim\yellow.png,stim\gray.png,stim\gray.png,stim\gray.png,up,,,,,,,,,,,,,0,3,3,13,0,12,12,12,,,,,,,,,,,,,,,,,,,,,,,,,,,,,,,,,,,,,,,,,,,,,,,,,,,,,,,,up,1,472.70191169995815,None,472.70191169995815,None,472.70191169995815,473.70379159995355,472.70191169995815,473.70379159995355,472.70191169995815,473.70379159995355,472.70191169995815,473.70379159995355,472.70191169995815,473.2030701000476,472.70191169995815,473.2030701000476,472.70191169995815,473.2030701000476,472.70191169995815,473.2030701000476,472.70191169995815,None,0.42111180000938475,,,,,11018,001,2024_Jan_05_0835,nback,2021.2.3,59.658182486227226,
0-back,instructions\back-0.png,conditions\04back-e.xlsx,,,experiment,0,3,stim\gray.png,stim\gray.png,stim\yellow.png,stim\gray.png,right,,,,,,,,,,,,,0,3,3,13,0,13,13,13,,,,,,,,,,,,,,,,,,,,,,,,,,,,,,,,,,,,,,,,,,,,,,,,,,,,,,,,right,1,474.20418330002576,None,474.20418330002576,None,474.20418330002576,475.20577630004846,474.20418330002576,475.20577630004846,474.20418330002576,475.20577630004846,474.20418330002576,475.20577630004846,474.20418330002576,474.70503499999177,474.20418330002576,474.70503499999177,474.20418330002576,474.70503499999177,474.20418330002576,474.70503499999177,474.20418330002576,None,0.43066129996441305,,,,,11018,001,2024_Jan_05_0835,nback,2021.2.3,59.658182486227226,
0-back,instructions\back-0.png,conditions\04back-e.xlsx,,,experiment,0,4,stim\gray.png,stim\gray.png,stim\gray.png,stim\yellow.png,down,,,,,,,,,,,,,0,3,3,13,0,14,14,14,,,,,,,,,,,,,,,,,,,,,,,,,,,,,,,,,,,,,,,,,,,,,,,,,,,,,,,,down,1,475.706044999999,None,475.706044999999,None,475.706044999999,476.70800450001843,475.706044999999,476.70800450001843,475.706044999999,476.70800450001843,475.706044999999,476.70800450001843,475.706044999999,476.20785080001224,475.706044999999,476.20785080001224,475.706044999999,476.20785080001224,475.706044999999,476.20785080001224,475.706044999999,None,0.4246686000842601,,,,,11018,001,2024_Jan_05_0835,nback,2021.2.3,59.658182486227226,
0-back,instructions\back-0.png,conditions\04back-e.xlsx,,,experiment,0,1,stim\yellow.png,stim\gray.png,stim\gray.png,stim\gray.png,up,,,,,,,,,,,,,0,3,3,13,0,15,15,15,,,,,,,,,,,,,,,,,,,,,,,,,,,,,,,,,,,,,,,,,,,,,,,,,,,,,,,,up,1,477.20807609998155,None,477.20807609998155,None,477.20807609998155,478.2098026999738,477.20807609998155,478.2098026999738,477.20807609998155,478.2098026999738,477.20807609998155,478.2098026999738,477.20807609998155,477.7093826000346,477.20807609998155,477.7093826000346,477.20807609998155,477.7093826000346,477.20807609998155,477.7093826000346,477.20807609998155,None,0.33067779999691993,,,,,11018,001,2024_Jan_05_0835,nback,2021.2.3,59.658182486227226,
0-back,instructions\back-0.png,conditions\04back-e.xlsx,,,experiment,0,2,stim\gray.png,stim\yellow.png,stim\gray.png,stim\gray.png,left,,,,,,,,,,,,,0,3,3,13,0,16,16,16,,,,,,,,,,,,,,,,,,,,,,,,,,,,,,,,,,,,,,,,,,,,,,,,,,,,,,,,left,1,478.7106093999464,None,478.7106093999464,None,478.7106093999464,479.7125452000182,478.7106093999464,479.7125452000182,478.7106093999464,479.7125452000182,478.7106093999464,479.7125452000182,478.7106093999464,479.2111840000143,478.7106093999464,479.2111840000143,478.7106093999464,479.2111840000143,478.7106093999464,479.2111840000143,478.7106093999464,None,0.3081508999457583,,,,,11018,001,2024_Jan_05_0835,nback,2021.2.3,59.658182486227226,
0-back,instructions\back-0.png,conditions\04back-e.xlsx,,,experiment,0,3,stim\gray.png,stim\gray.png,stim\yellow.png,stim\gray.png,right,,,,,,,,,,,,,0,3,3,13,0,17,17,17,,,,,,,,,,,,,,,,,,,,,,,,,,,,,,,,,,,,,,,,,,,,,,,,,,,,,,,,right,1,480.195733099943,None,480.195733099943,None,480.195733099943,481.19751850003377,480.195733099943,481.19751850003377,480.195733099943,481.19751850003377,480.195733099943,481.19751850003377,480.195733099943,480.69698380003683,480.195733099943,480.69698380003683,480.195733099943,480.69698380003683,480.195733099943,480.69698380003683,480.195733099943,None,0.30323789990507066,,,,,11018,001,2024_Jan_05_0835,nback,2021.2.3,59.658182486227226,
