backseq,backinstr,backfile,instruction,size_in,Trialtype,back,number,P1,P2,P3,P4,corrAns,trials_practice.thisRepN,trials_practice.thisTrialN,trials_practice.thisN,trials_practice.thisIndex,trials.thisRepN,trials.thisTrialN,trials.thisN,trials.thisIndex,trials_3.thisRepN,trials_3.thisTrialN,trials_3.thisN,trials_3.thisIndex,trials_2.thisRepN,trials_2.thisTrialN,trials_2.thisN,trials_2.thisIndex,trials_4.thisRepN,trials_4.thisTrialN,trials_4.thisN,trials_4.thisIndex,image.started,image.stopped,image_2.started,image_2.stopped,key_resp.keys,key_resp.rt,key_resp.started,key_resp.stopped,image_3.started,image_3.stopped,key_resp_2.keys,key_resp_2.rt,key_resp_2.started,key_resp_2.stopped,image_4.started,image_4.stopped,text.started,text.stopped,H1.started,H1.stopped,H2.started,H2.stopped,H3.started,H3.stopped,H4.started,H4.stopped,key_resp_3.keys,key_resp_3.corr,key_resp_3.rt,key_resp_3.started,key_resp_3.stopped,text_4.started,text_4.stopped,F1.started,F1.stopped,F2.started,F2.stopped,F3.started,F3.stopped,F4.started,F4.stopped,image_7.started,image_7.stopped,text_5.started,text_5.stopped,key_resp_6.keys,key_resp_6.rt,key_resp_6.started,key_resp_6.stopped,image_5.started,image_5.stopped,key_resp_4.keys,key_resp_4.rt,key_resp_4.started,key_resp_4.stopped,key_resp_5.keys,key_resp_5.corr,key_resp_5.started,key_resp_5.stopped,text_3.started,text_3.stopped,H1_2.started,H1_2.stopped,H2_2.started,H2_2.stopped,H3_2.started,H3_2.stopped,H4_2.started,H4_2.stopped,F1_2.started,F1_2.stopped,F2_2.started,F2_2.stopped,F3_2.started,F3_2.stopped,F4_2.started,F4_2.stopped,image_8.started,image_8.stopped,key_resp_5.rt,text_2.started,text_2.stopped,image_6.started,image_6.stopped,participant,session,date,expName,psychopyVersion,frameRate,
,,,,,,,,,,,,,,,,,,,,,,,,,,,,,,,,,11.052615500055254,None,12.003877700073645,None,space,19.235265200026333,12.003877700073645,None,,,,,,,,,,,,,,,,,,,,,,,,,,,,,,,,,,,,,,,,,,,,,,,,,,,,,,,,,,,,,,,,,,,,,,,,,,,,,11026,001,2024_Jan_10_1031,nback,2021.2.3,59.9150404395355,
0-back,instructions\back-0.png,conditions\0back-p.xlsx,instructions\0-BACK.png,"(15, 8)",practice,0,1,stim\yellow.png,stim\gray.png,stim\gray.png,stim\gray.png,up,0,0,0,0,0,0,0,0,0,0,0,0,,,,,,,,,,,,,,,,,31.315618799999356,None,space,8.66742160008289,31.315618799999356,None,40.128509900067,44.636855400167406,44.61902500013821,None,45.03698220010847,46.03784990007989,45.03698220010847,46.03784990007989,45.03698220010847,46.03784990007989,45.03698220010847,46.03784990007989,up,1,1.1144828998949379,45.03698220010847,None,45.03698220010847,None,45.03698220010847,45.53695740015246,45.03698220010847,45.53695740015246,45.03698220010847,45.53695740015246,45.03698220010847,45.53695740015246,45.03698220010847,None,,,,,,,,,,,,,,,,,,,,,,,,,,,,,,,,,,,,,,,,,,11026,001,2024_Jan_10_1031,nback,2021.2.3,59.9150404395355,
0-back,instructions\back-0.png,conditions\0back-p.xlsx,instructions\0-BACK.png,"(15, 8)",practice,0,2,stim\gray.png,stim\yellow.png,stim\gray.png,stim\gray.png,left,0,0,0,0,0,0,0,0,0,1,1,1,,,,,,,,,,,,,,,,,,,,,,,,,,,46.521463399985805,47.52375250007026,46.521463399985805,47.52375250007026,46.521463399985805,47.52375250007026,46.521463399985805,47.52375250007026,left,1,0.7096836999990046,46.521463399985805,None,46.521463399985805,None,46.521463399985805,47.022440700093284,46.521463399985805,47.022440700093284,46.521463399985805,47.022440700093284,46.521463399985805,47.022440700093284,46.521463399985805,None,,,,,,,,,,,,,,,,,,,,,,,,,,,,,,,,,,,,,,,,,,11026,001,2024_Jan_10_1031,nback,2021.2.3,59.9150404395355,
0-back,instructions\back-0.png,conditions\0back-p.xlsx,instructions\0-BACK.png,"(15, 8)",practice,0,3,stim\gray.png,stim\gray.png,stim\yellow.png,stim\gray.png,right,0,0,0,0,0,0,0,0,0,2,2,2,,,,,,,,,,,,,,,,,,,,,,,,,,,48.02441650000401,49.025586399948224,48.02441650000401,49.025586399948224,48.02441650000401,49.025586399948224,48.02441650000401,49.025586399948224,right,1,0.3746509999036789,48.02441650000401,None,48.02441650000401,None,48.02441650000401,48.52456589997746,48.02441650000401,48.52456589997746,48.02441650000401,48.52456589997746,48.02441650000401,48.52456589997746,48.02441650000401,None,,,,,,,,,,,,,,,,,,,,,,,,,,,,,,,,,,,,,,,,,,11026,001,2024_Jan_10_1031,nback,2021.2.3,59.9150404395355,
0-back,instructions\back-0.png,conditions\0back-p.xlsx,instructions\0-BACK.png,"(15, 8)",practice,0,4,stim\gray.png,stim\gray.png,stim\gray.png,stim\yellow.png,down,0,0,0,0,0,0,0,0,0,3,3,3,,,,,,,,,,,,,,,,,,,,,,,,,,,49.52616659994237,50.52751599997282,49.52616659994237,50.52751599997282,49.52616659994237,50.52751599997282,49.52616659994237,50.52751599997282,down,1,0.5452308999374509,49.52616659994237,None,49.52616659994237,None,49.52616659994237,50.027029799995944,49.52616659994237,50.027029799995944,49.52616659994237,50.027029799995944,49.52616659994237,50.027029799995944,49.52616659994237,None,,,,,,,,,,,,,,,,,,,,,,,,,,,,,,,,,,,,,,,,,,11026,001,2024_Jan_10_1031,nback,2021.2.3,59.9150404395355,
0-back,instructions\back-0.png,conditions\0back-p.xlsx,instructions\0-BACK.png,"(15, 8)",practice,0,2,stim\gray.png,stim\yellow.png,stim\gray.png,stim\gray.png,left,0,0,0,0,0,0,0,0,0,4,4,4,,,,,,,,,,,,,,,,,,,,,,,,,,,51.028361700009555,52.03000749996863,51.028361700009555,52.03000749996863,51.028361700009555,52.03000749996863,51.028361700009555,52.03000749996863,left,1,0.3789280999917537,51.028361700009555,None,51.028361700009555,None,51.028361700009555,51.529114100150764,51.028361700009555,51.529114100150764,51.028361700009555,51.529114100150764,51.028361700009555,51.529114100150764,51.028361700009555,None,,,,,,,,,,,,,,,,,,,,,,,,,,,,,,,,,,,,,,,,,,11026,001,2024_Jan_10_1031,nback,2021.2.3,59.9150404395355,
0-back,instructions\back-0.png,conditions\0back-p.xlsx,instructions\0-BACK.png,"(15, 8)",practice,0,1,stim\yellow.png,stim\gray.png,stim\gray.png,stim\gray.png,up,0,0,0,0,0,0,0,0,0,5,5,5,,,,,,,,,,,,,,,,,,,,,,,,,,,52.53039430011995,53.5325011999812,52.53039430011995,53.5325011999812,52.53039430011995,53.5325011999812,52.53039430011995,53.5325011999812,up,1,0.4285155001562089,52.53039430011995,None,52.53039430011995,None,52.53039430011995,53.03140800003894,52.53039430011995,53.03140800003894,52.53039430011995,53.03140800003894,52.53039430011995,53.03140800003894,52.53039430011995,None,,,,,,,,,,,,,,,,,,,,,,,,,,,,,,,,,,,,,,,,,,11026,001,2024_Jan_10_1031,nback,2021.2.3,59.9150404395355,
0-back,instructions\back-0.png,conditions\0back-p.xlsx,instructions\0-BACK.png,"(15, 8)",practice,0,4,stim\gray.png,stim\gray.png,stim\gray.png,stim\yellow.png,down,0,0,0,0,0,0,0,0,0,6,6,6,,,,,,,,,,,,,,,,,,,,,,,,,,,54.016095800092444,55.01802089996636,54.016095800092444,55.01802089996636,54.016095800092444,55.01802089996636,54.016095800092444,55.01802089996636,down,1,0.5268443000968546,54.016095800092444,None,54.016095800092444,None,54.016095800092444,54.517113000154495,54.016095800092444,54.517113000154495,54.016095800092444,54.517113000154495,54.016095800092444,54.517113000154495,54.016095800092444,None,,,,,,,,,,,,,,,,,,,,,,,,,,,,,,,,,,,,,,,,,,11026,001,2024_Jan_10_1031,nback,2021.2.3,59.9150404395355,
0-back,instructions\back-0.png,conditions\0back-p.xlsx,instructions\0-BACK.png,"(15, 8)",practice,0,3,stim\gray.png,stim\gray.png,stim\yellow.png,stim\gray.png,right,0,0,0,0,0,0,0,0,0,7,7,7,,,,,,,,,,,,,,,,,,,,,,,,,,,55.51901090005413,56.51995240012184,55.51901090005413,56.51995240012184,55.51901090005413,56.51995240012184,55.51901090005413,56.51995240012184,right,1,0.34405210008844733,55.51901090005413,None,55.51901090005413,None,55.51901090005413,56.01891149999574,55.51901090005413,56.01891149999574,55.51901090005413,56.01891149999574,55.51901090005413,56.01891149999574,55.51901090005413,None,,,,,,,,,,,,,,,,,,,,,,,,,,,,,,,,,,,,,,,,,,11026,001,2024_Jan_10_1031,nback,2021.2.3,59.9150404395355,
0-back,instructions\back-0.png,conditions\0back-p.xlsx,instructions\0-BACK.png,"(15, 8)",practice,0,3,stim\gray.png,stim\gray.png,stim\yellow.png,stim\gray.png,right,0,0,0,0,0,0,0,0,0,8,8,8,,,,,,,,,,,,,,,,,,,,,,,,,,,57.02175069996156,58.022823200095445,57.02175069996156,58.022823200095445,57.02175069996156,58.022823200095445,57.02175069996156,58.022823200095445,right,1,0.3612429001368582,57.02175069996156,None,57.02175069996156,None,57.02175069996156,57.52169980015606,57.02175069996156,57.52169980015606,57.02175069996156,57.52169980015606,57.02175069996156,57.52169980015606,57.02175069996156,None,,,,,,,,,,,,,,,,,,,,,,,,,,,,,,,,,,,,,,,,,,11026,001,2024_Jan_10_1031,nback,2021.2.3,59.9150404395355,
0-back,instructions\back-0.png,conditions\0back-p.xlsx,instructions\0-BACK.png,"(15, 8)",practice,0,4,stim\gray.png,stim\gray.png,stim\gray.png,stim\yellow.png,down,0,0,0,0,0,0,0,0,0,9,9,9,,,,,,,,,,,,,,,,,,,,,,,,,,,58.522787200054154,59.52428130013868,58.522787200054154,59.52428130013868,58.522787200054154,59.52428130013868,58.522787200054154,59.52428130013868,down,1,0.47622119984589517,58.522787200054154,None,58.522787200054154,None,58.522787200054154,59.02394700003788,58.522787200054154,59.02394700003788,58.522787200054154,59.02394700003788,58.522787200054154,59.02394700003788,58.522787200054154,None,,,,,,,,,,,,,,,,,,,,,,,,,,,,,,,,,,,,,,,,,,11026,001,2024_Jan_10_1031,nback,2021.2.3,59.9150404395355,
0-back,instructions\back-0.png,conditions\0back-p.xlsx,instructions\0-BACK.png,"(15, 8)",practice,0,1,stim\yellow.png,stim\gray.png,stim\gray.png,stim\gray.png,up,0,0,0,0,0,0,0,0,0,10,10,10,,,,,,,,,,,,,,,,,,,,,,,,,,,60.02510800003074,61.02665110002272,60.02510800003074,61.02665110002272,60.02510800003074,61.02665110002272,60.02510800003074,61.02665110002272,up,1,0.3099582998547703,60.02510800003074,None,60.02510800003074,None,60.02510800003074,60.5258675001096,60.02510800003074,60.5258675001096,60.02510800003074,60.5258675001096,60.02510800003074,60.5258675001096,60.02510800003074,None,,,,,,,,,,,,,,,,,,,,,,,,,,,,,,,,,,,,,,,,,,11026,001,2024_Jan_10_1031,nback,2021.2.3,59.9150404395355,
0-back,instructions\back-0.png,conditions\0back-p.xlsx,instructions\0-BACK.png,"(15, 8)",practice,0,2,stim\gray.png,stim\yellow.png,stim\gray.png,stim\gray.png,left,0,0,0,0,0,0,0,0,0,11,11,11,,,,,,,,,,,,,,,,,,,,,,,,,,,61.527148799970746,62.528656400041655,61.527148799970746,62.528656400041655,61.527148799970746,62.528656400041655,61.527148799970746,62.528656400041655,left,1,0.2721657999791205,61.527148799970746,None,61.527148799970746,None,61.527148799970746,62.0295106000267,61.527148799970746,62.0295106000267,61.527148799970746,62.0295106000267,61.527148799970746,62.0295106000267,61.527148799970746,None,,,,,,,,,,,,,,,,,,,,,,,,,,,,,,,,,,,,,,,,,,11026,001,2024_Jan_10_1031,nback,2021.2.3,59.9150404395355,
0-back,instructions\back-0.png,conditions\0back-p.xlsx,instructions\0-BACK.png,"(15, 8)",practice,0,4,stim\gray.png,stim\gray.png,stim\gray.png,stim\yellow.png,down,0,0,0,0,0,0,0,0,0,12,12,12,,,,,,,,,,,,,,,,,,,,,,,,,,,63.02955480013043,64.03369820001535,63.02955480013043,64.03369820001535,63.02955480013043,64.03369820001535,63.02955480013043,64.03369820001535,down,1,0.3615971999242902,63.02955480013043,None,63.02955480013043,None,63.02955480013043,63.53071409999393,63.02955480013043,63.53071409999393,63.02955480013043,63.53071409999393,63.02955480013043,63.53071409999393,63.02955480013043,None,,,,,,,,,,,,,,,,,,,,,,,,,,,,,,,,,,,,,,,,,,11026,001,2024_Jan_10_1031,nback,2021.2.3,59.9150404395355,
0-back,instructions\back-0.png,conditions\0back-p.xlsx,instructions\0-BACK.png,"(15, 8)",practice,0,3,stim\gray.png,stim\gray.png,stim\yellow.png,stim\gray.png,right,0,0,0,0,0,0,0,0,0,13,13,13,,,,,,,,,,,,,,,,,,,,,,,,,,,64.53161059995182,65.53371400013566,64.53161059995182,65.53371400013566,64.53161059995182,65.53371400013566,64.53161059995182,65.53371400013566,right,1,0.2593982999678701,64.53161059995182,None,64.53161059995182,None,64.53161059995182,65.03300209995359,64.53161059995182,65.03300209995359,64.53161059995182,65.03300209995359,64.53161059995182,65.03300209995359,64.53161059995182,None,,,,,,,,,,,,,,,,,,,,,,,,,,,,,,,,,,,,,,,,,,11026,001,2024_Jan_10_1031,nback,2021.2.3,59.9150404395355,
0-back,instructions\back-0.png,conditions\0back-p.xlsx,instructions\0-BACK.png,"(15, 8)",practice,0,1,stim\yellow.png,stim\gray.png,stim\gray.png,stim\gray.png,up,0,0,0,0,0,0,0,0,0,14,14,14,,,,,,,,,,,,,,,,,,,,,,,,,,,66.01715090009384,67.01957280002534,66.01715090009384,67.01957280002534,66.01715090009384,67.01957280002534,66.01715090009384,67.01957280002534,up,1,0.3018235000781715,66.01715090009384,None,66.01715090009384,None,66.01715090009384,66.51785479998216,66.01715090009384,66.51785479998216,66.01715090009384,66.51785479998216,66.01715090009384,66.51785479998216,66.01715090009384,None,,,,,,,,,,,,,,,,,,,,,,,,,,,,,,,,,,,,,,,,,,11026,001,2024_Jan_10_1031,nback,2021.2.3,59.9150404395355,
0-back,instructions\back-0.png,conditions\0back-p.xlsx,instructions\0-BACK.png,"(15, 8)",practice,0,2,stim\gray.png,stim\yellow.png,stim\gray.png,stim\gray.png,left,0,0,0,0,0,0,0,0,0,15,15,15,,,,,,,,,,,,,,,,,,,,,,,,,,,67.51945669995621,68.5210663001053,67.51945669995621,68.5210663001053,67.51945669995621,68.5210663001053,67.51945669995621,68.5210663001053,left,1,0.3680961998179555,67.51945669995621,None,67.51945669995621,None,67.51945669995621,68.02038560016081,67.51945669995621,68.02038560016081,67.51945669995621,68.02038560016081,67.51945669995621,68.02038560016081,67.51945669995621,None,,,,,,,,,,,,,,,,,,,,,,,,,,,,,,,,,,,,,,,,,,11026,001,2024_Jan_10_1031,nback,2021.2.3,59.9150404395355,
0-back,instructions\back-0.png,conditions\0back-p.xlsx,instructions\0-BACK.png,"(15, 8)",practice,0,3,stim\gray.png,stim\gray.png,stim\yellow.png,stim\gray.png,right,0,0,0,0,0,0,0,0,0,16,16,16,,,,,,,,,,,,,,,,,,,,,,,,,,,69.02161410008557,70.02372639998794,69.02161410008557,70.02372639998794,69.02161410008557,70.02372639998794,69.02161410008557,70.02372639998794,right,1,0.40963870007544756,69.02161410008557,None,69.02161410008557,None,69.02161410008557,69.52251929999329,69.02161410008557,69.52251929999329,69.02161410008557,69.52251929999329,69.02161410008557,69.52251929999329,69.02161410008557,None,,,,,,,,,,,,,,,,,,,,,,,,,,,,,,,,,,,,,,,,,,11026,001,2024_Jan_10_1031,nback,2021.2.3,59.9150404395355,
0-back,instructions\back-0.png,conditions\0back-p.xlsx,instructions\0-BACK.png,"(15, 8)",practice,0,1,stim\yellow.png,stim\gray.png,stim\gray.png,stim\gray.png,up,0,0,0,0,0,0,0,0,0,17,17,17,,,,,,,,,,,,,,,,,,,,,,,,,,,70.52407010016032,71.52618580008857,70.52407010016032,71.52618580008857,70.52407010016032,71.52618580008857,70.52407010016032,71.52618580008857,up,1,0.2992159000132233,70.52407010016032,None,70.52407010016032,None,70.52407010016032,71.02504210011102,70.52407010016032,71.02504210011102,70.52407010016032,71.02504210011102,70.52407010016032,71.02504210011102,70.52407010016032,None,,,,,,,,,,,,,,,,,,,,,,,,,,,,,,,,,,,,,,,,,,11026,001,2024_Jan_10_1031,nback,2021.2.3,59.9150404395355,
0-back,instructions\back-0.png,conditions\0back-p.xlsx,instructions\0-BACK.png,"(15, 8)",practice,0,4,stim\gray.png,stim\gray.png,stim\gray.png,stim\yellow.png,down,0,0,0,0,0,0,0,0,0,18,18,18,,,,,,,,,,,,,,,,,,,,,,,,,,,72.02727970015258,73.02772310003638,72.02727970015258,73.02772310003638,72.02727970015258,73.02772310003638,72.02727970015258,73.02772310003638,down,1,0.4917554999701679,72.02727970015258,None,72.02727970015258,None,72.02727970015258,72.52682010014541,72.02727970015258,72.52682010014541,72.02727970015258,72.52682010014541,72.02727970015258,72.52682010014541,72.02727970015258,None,,,,,,,,,,,,,,,,,,,,,,,,,,,,,,,,,,,,,,,,,,11026,001,2024_Jan_10_1031,nback,2021.2.3,59.9150404395355,
0-back,instructions\back-0.png,conditions\0back-p.xlsx,instructions\0-BACK.png,"(15, 8)",practice,0,2,stim\gray.png,stim\yellow.png,stim\gray.png,stim\gray.png,left,0,0,0,0,0,0,0,0,0,19,19,19,,,,,,,,,,,,,,,,,,,,,,,,,,,73.52883590012789,74.53054750012234,73.52883590012789,74.53054750012234,73.52883590012789,74.53054750012234,73.52883590012789,74.53054750012234,left,1,0.31803890014998615,73.52883590012789,None,73.52883590012789,None,73.52883590012789,74.02915189997293,73.52883590012789,74.02915189997293,73.52883590012789,74.02915189997293,73.52883590012789,74.02915189997293,73.52883590012789,None,,,,,,,,,,,,,,,,,,,,,,,,,,,,,,,,,,,,,,,,,,11026,001,2024_Jan_10_1031,nback,2021.2.3,59.9150404395355,
0-back,instructions\back-0.png,conditions\0back-p.xlsx,instructions\0-BACK.png,"(15, 8)",,,,,,,,,0,0,0,0,0,0,0,0,,,,,,,,,,,,,,,,,,,,,,,,,,,,,,,,,,,,,,,,,,,,,,,,,,,,,,,,,,,,,,,,,,,,,,,,,,,,,,,,,,,,,,,,,,,,,,,,,11026,001,2024_Jan_10_1031,nback,2021.2.3,59.9150404395355,
1-back,instructions\back-1.png,conditions\1back-p.xlsx,instructions\1-BACK.png,"(25, 15)",practice,1,1,stim\yellow.png,stim\gray.png,stim\gray.png,stim\gray.png,None,0,0,0,0,0,1,1,1,0,0,0,0,,,,,,,,,,,,,,,,,75.14735420001671,None,space,5.147734599886462,75.14735420001671,None,80.42206110013649,84.92933150008321,84.89519980014302,None,85.34588639996946,86.34817750006914,85.34588639996946,86.34817750006914,85.34588639996946,86.34817750006914,85.34588639996946,86.34817750006914,None,1,,85.34588639996946,None,85.34588639996946,None,85.34588639996946,85.84669480007142,85.34588639996946,85.84669480007142,85.34588639996946,85.84669480007142,85.34588639996946,85.84669480007142,85.34588639996946,None,,,,,,,,,,,,,,,,,,,,,,,,,,,,,,,,,,,,,,,,,,11026,001,2024_Jan_10_1031,nback,2021.2.3,59.9150404395355,
1-back,instructions\back-1.png,conditions\1back-p.xlsx,instructions\1-BACK.png,"(25, 15)",practice,1,2,stim\gray.png,stim\yellow.png,stim\gray.png,stim\gray.png,up,0,0,0,0,0,1,1,1,0,1,1,1,,,,,,,,,,,,,,,,,,,,,,,,,,,86.83119480009191,87.83319459995255,86.83119480009191,87.83319459995255,86.83119480009191,87.83319459995255,86.83119480009191,87.83319459995255,up,1,0.4559600001666695,86.83119480009191,None,86.83119480009191,None,86.83119480009191,87.33344039996155,86.83119480009191,87.33344039996155,86.83119480009191,87.33344039996155,86.83119480009191,87.33344039996155,86.83119480009191,None,,,,,,,,,,,,,,,,,,,,,,,,,,,,,,,,,,,,,,,,,,11026,001,2024_Jan_10_1031,nback,2021.2.3,59.9150404395355,
1-back,instructions\back-1.png,conditions\1back-p.xlsx,instructions\1-BACK.png,"(25, 15)",practice,1,3,stim\gray.png,stim\gray.png,stim\yellow.png,stim\gray.png,left,0,0,0,0,0,1,1,1,0,2,2,2,,,,,,,,,,,,,,,,,,,,,,,,,,,88.33364140009508,89.33588930009864,88.33364140009508,89.33588930009864,88.33364140009508,89.33588930009864,88.33364140009508,89.33588930009864,left,1,0.38534050015732646,88.33364140009508,None,88.33364140009508,None,88.33364140009508,88.83507980010472,88.33364140009508,88.83507980010472,88.33364140009508,88.83507980010472,88.33364140009508,88.83507980010472,88.33364140009508,None,,,,,,,,,,,,,,,,,,,,,,,,,,,,,,,,,,,,,,,,,,11026,001,2024_Jan_10_1031,nback,2021.2.3,59.9150404395355,
1-back,instructions\back-1.png,conditions\1back-p.xlsx,instructions\1-BACK.png,"(25, 15)",practice,1,4,stim\gray.png,stim\gray.png,stim\gray.png,stim\yellow.png,right,0,0,0,0,0,1,1,1,0,3,3,3,,,,,,,,,,,,,,,,,,,,,,,,,,,89.83576599997468,90.8376397001557,89.83576599997468,90.8376397001557,89.83576599997468,90.8376397001557,89.83576599997468,90.8376397001557,right,1,0.4678720000665635,89.83576599997468,None,89.83576599997468,None,89.83576599997468,90.33641220000573,89.83576599997468,90.33641220000573,89.83576599997468,90.33641220000573,89.83576599997468,90.33641220000573,89.83576599997468,None,,,,,,,,,,,,,,,,,,,,,,,,,,,,,,,,,,,,,,,,,,11026,001,2024_Jan_10_1031,nback,2021.2.3,59.9150404395355,
1-back,instructions\back-1.png,conditions\1back-p.xlsx,instructions\1-BACK.png,"(25, 15)",practice,1,2,stim\gray.png,stim\yellow.png,stim\gray.png,stim\gray.png,down,0,0,0,0,0,1,1,1,0,4,4,4,,,,,,,,,,,,,,,,,,,,,,,,,,,91.3387248001527,92.33938380004838,91.3387248001527,92.33938380004838,91.3387248001527,92.33938380004838,91.3387248001527,92.33938380004838,down,1,0.32422120007686317,91.3387248001527,None,91.3387248001527,None,91.3387248001527,91.83883560006507,91.3387248001527,91.83883560006507,91.3387248001527,91.83883560006507,91.3387248001527,91.83883560006507,91.3387248001527,None,,,,,,,,,,,,,,,,,,,,,,,,,,,,,,,,,,,,,,,,,,11026,001,2024_Jan_10_1031,nback,2021.2.3,59.9150404395355,
1-back,instructions\back-1.png,conditions\1back-p.xlsx,instructions\1-BACK.png,"(25, 15)",practice,1,1,stim\yellow.png,stim\gray.png,stim\gray.png,stim\gray.png,left,0,0,0,0,0,1,1,1,0,5,5,5,,,,,,,,,,,,,,,,,,,,,,,,,,,92.84115580003709,93.84245810005814,92.84115580003709,93.84245810005814,92.84115580003709,93.84245810005814,92.84115580003709,93.84245810005814,left,1,0.19805200002156198,92.84115580003709,None,92.84115580003709,None,92.84115580003709,93.34140889998525,92.84115580003709,93.34140889998525,92.84115580003709,93.34140889998525,92.84115580003709,93.34140889998525,92.84115580003709,None,,,,,,,,,,,,,,,,,,,,,,,,,,,,,,,,,,,,,,,,,,11026,001,2024_Jan_10_1031,nback,2021.2.3,59.9150404395355,
1-back,instructions\back-1.png,conditions\1back-p.xlsx,instructions\1-BACK.png,"(25, 15)",practice,1,4,stim\gray.png,stim\gray.png,stim\gray.png,stim\yellow.png,up,0,0,0,0,0,1,1,1,0,6,6,6,,,,,,,,,,,,,,,,,,,,,,,,,,,94.34319239994511,95.34411379997618,94.34319239994511,95.34411379997618,94.34319239994511,95.34411379997618,94.34319239994511,95.34411379997618,up,1,0.17601100006140769,94.34319239994511,None,94.34319239994511,None,94.34319239994511,94.84412489994429,94.34319239994511,94.84412489994429,94.34319239994511,94.84412489994429,94.34319239994511,94.84412489994429,94.34319239994511,None,,,,,,,,,,,,,,,,,,,,,,,,,,,,,,,,,,,,,,,,,,11026,001,2024_Jan_10_1031,nback,2021.2.3,59.9150404395355,
1-back,instructions\back-1.png,conditions\1back-p.xlsx,instructions\1-BACK.png,"(25, 15)",practice,1,3,stim\gray.png,stim\gray.png,stim\yellow.png,stim\gray.png,down,0,0,0,0,0,1,1,1,0,7,7,7,,,,,,,,,,,,,,,,,,,,,,,,,,,95.82783409999683,96.82974880002439,95.82783409999683,96.82974880002439,95.82783409999683,96.82974880002439,95.82783409999683,96.82974880002439,down,1,0.25114299985580146,95.82783409999683,None,95.82783409999683,None,95.82783409999683,96.32884880015627,95.82783409999683,96.32884880015627,95.82783409999683,96.32884880015627,95.82783409999683,96.32884880015627,95.82783409999683,None,,,,,,,,,,,,,,,,,,,,,,,,,,,,,,,,,,,,,,,,,,11026,001,2024_Jan_10_1031,nback,2021.2.3,59.9150404395355,
1-back,instructions\back-1.png,conditions\1back-p.xlsx,instructions\1-BACK.png,"(25, 15)",practice,1,3,stim\gray.png,stim\gray.png,stim\yellow.png,stim\gray.png,right,0,0,0,0,0,1,1,1,0,8,8,8,,,,,,,,,,,,,,,,,,,,,,,,,,,97.33083330001682,98.33210720005445,97.33083330001682,98.33210720005445,97.33083330001682,98.33210720005445,97.33083330001682,98.33210720005445,right,1,0.22024629986844957,97.33083330001682,None,97.33083330001682,None,97.33083330001682,97.83114220015705,97.33083330001682,97.83114220015705,97.33083330001682,97.83114220015705,97.33083330001682,97.83114220015705,97.33083330001682,None,,,,,,,,,,,,,,,,,,,,,,,,,,,,,,,,,,,,,,,,,,11026,001,2024_Jan_10_1031,nback,2021.2.3,59.9150404395355,
1-back,instructions\back-1.png,conditions\1back-p.xlsx,instructions\1-BACK.png,"(25, 15)",practice,1,4,stim\gray.png,stim\gray.png,stim\gray.png,stim\yellow.png,right,0,0,0,0,0,1,1,1,0,9,9,9,,,,,,,,,,,,,,,,,,,,,,,,,,,98.83251300011761,99.8349814999383,98.83251300011761,99.8349814999383,98.83251300011761,99.8349814999383,98.83251300011761,99.8349814999383,right,1,0.18353929999284446,98.83251300011761,None,98.83251300011761,None,98.83251300011761,99.3333650000859,98.83251300011761,99.3333650000859,98.83251300011761,99.3333650000859,98.83251300011761,99.3333650000859,98.83251300011761,None,,,,,,,,,,,,,,,,,,,,,,,,,,,,,,,,,,,,,,,,,,11026,001,2024_Jan_10_1031,nback,2021.2.3,59.9150404395355,
1-back,instructions\back-1.png,conditions\1back-p.xlsx,instructions\1-BACK.png,"(25, 15)",practice,1,1,stim\yellow.png,stim\gray.png,stim\gray.png,stim\gray.png,down,0,0,0,0,0,1,1,1,0,10,10,10,,,,,,,,,,,,,,,,,,,,,,,,,,,100.33534960006364,101.33694790001027,100.33534960006364,101.33694790001027,100.33534960006364,101.33694790001027,100.33534960006364,101.33694790001027,down,1,0.17563469987362623,100.33534960006364,None,100.33534960006364,None,100.33534960006364,100.83595989993773,100.33534960006364,100.83595989993773,100.33534960006364,100.83595989993773,100.33534960006364,100.83595989993773,100.33534960006364,None,,,,,,,,,,,,,,,,,,,,,,,,,,,,,,,,,,,,,,,,,,11026,001,2024_Jan_10_1031,nback,2021.2.3,59.9150404395355,
1-back,instructions\back-1.png,conditions\1back-p.xlsx,instructions\1-BACK.png,"(25, 15)",practice,1,2,stim\gray.png,stim\yellow.png,stim\gray.png,stim\gray.png,up,0,0,0,0,0,1,1,1,0,11,11,11,,,,,,,,,,,,,,,,,,,,,,,,,,,101.83774480014108,102.83871409995481,101.83774480014108,102.83871409995481,101.83774480014108,102.83871409995481,101.83774480014108,102.83871409995481,up,1,0.28157089999876916,101.83774480014108,None,101.83774480014108,None,101.83774480014108,102.33773110015318,101.83774480014108,102.33773110015318,101.83774480014108,102.33773110015318,101.83774480014108,102.33773110015318,101.83774480014108,None,,,,,,,,,,,,,,,,,,,,,,,,,,,,,,,,,,,,,,,,,,11026,001,2024_Jan_10_1031,nback,2021.2.3,59.9150404395355,
1-back,instructions\back-1.png,conditions\1back-p.xlsx,instructions\1-BACK.png,"(25, 15)",practice,1,4,stim\gray.png,stim\gray.png,stim\gray.png,stim\yellow.png,left,0,0,0,0,0,1,1,1,0,12,12,12,,,,,,,,,,,,,,,,,,,,,,,,,,,103.3391675001476,104.34101930004545,103.3391675001476,104.34101930004545,103.3391675001476,104.34101930004545,103.3391675001476,104.34101930004545,up,0,0.7641463000327349,103.3391675001476,None,103.3391675001476,None,103.3391675001476,103.84003540012054,103.3391675001476,103.84003540012054,103.3391675001476,103.84003540012054,103.3391675001476,103.84003540012054,103.3391675001476,None,,,,,,,,,,,,,,,,,,,,,,,,,,,,,,,,,,,,,,,,,,11026,001,2024_Jan_10_1031,nback,2021.2.3,59.9150404395355,
1-back,instructions\back-1.png,conditions\1back-p.xlsx,instructions\1-BACK.png,"(25, 15)",practice,1,3,stim\gray.png,stim\gray.png,stim\yellow.png,stim\gray.png,down,0,0,0,0,0,1,1,1,0,13,13,13,,,,,,,,,,,,,,,,,,,,,,,,,,,104.82551500014961,105.82647370011546,104.82551500014961,105.82647370011546,104.82551500014961,105.82647370011546,104.82551500014961,105.82647370011546,None,0,,104.82551500014961,None,104.82551500014961,None,104.82551500014961,105.32554049999453,104.82551500014961,105.32554049999453,104.82551500014961,105.32554049999453,104.82551500014961,105.32554049999453,104.82551500014961,None,,,,,,,,,,,,,,,,,,,,,,,,,,,,,,,,,,,,,,,,,,11026,001,2024_Jan_10_1031,nback,2021.2.3,59.9150404395355,
1-back,instructions\back-1.png,conditions\1back-p.xlsx,instructions\1-BACK.png,"(25, 15)",practice,1,1,stim\yellow.png,stim\gray.png,stim\gray.png,stim\gray.png,right,0,0,0,0,0,1,1,1,0,14,14,14,,,,,,,,,,,,,,,,,,,,,,,,,,,106.32710839994252,107.32858550013043,106.32710839994252,107.32858550013043,106.32710839994252,107.32858550013043,106.32710839994252,107.32858550013043,left,0,0.6162498001940548,106.32710839994252,None,106.32710839994252,None,106.32710839994252,106.82833779999055,106.32710839994252,106.82833779999055,106.32710839994252,106.82833779999055,106.32710839994252,106.82833779999055,106.32710839994252,None,,,,,,,,,,,,,,,,,,,,,,,,,,,,,,,,,,,,,,,,,,11026,001,2024_Jan_10_1031,nback,2021.2.3,59.9150404395355,
1-back,instructions\back-1.png,conditions\1back-p.xlsx,instructions\1-BACK.png,"(25, 15)",practice,1,2,stim\gray.png,stim\yellow.png,stim\gray.png,stim\gray.png,up,0,0,0,0,0,1,1,1,0,15,15,15,,,,,,,,,,,,,,,,,,,,,,,,,,,107.82917090016417,108.83099810010754,107.82917090016417,108.83099810010754,107.82917090016417,108.83099810010754,107.82917090016417,108.83099810010754,None,0,,107.82917090016417,None,107.82917090016417,None,107.82917090016417,108.32988020009361,107.82917090016417,108.32988020009361,107.82917090016417,108.32988020009361,107.82917090016417,108.32988020009361,107.82917090016417,None,,,,,,,,,,,,,,,,,,,,,,,,,,,,,,,,,,,,,,,,,,11026,001,2024_Jan_10_1031,nback,2021.2.3,59.9150404395355,
1-back,instructions\back-1.png,conditions\1back-p.xlsx,instructions\1-BACK.png,"(25, 15)",practice,1,3,stim\gray.png,stim\gray.png,stim\yellow.png,stim\gray.png,left,0,0,0,0,0,1,1,1,0,16,16,16,,,,,,,,,,,,,,,,,,,,,,,,,,,109.33218950009905,110.3333042000886,109.33218950009905,110.3333042000886,109.33218950009905,110.3333042000886,109.33218950009905,110.3333042000886,left,1,0.3950237000826746,109.33218950009905,None,109.33218950009905,None,109.33218950009905,109.83326770015992,109.33218950009905,109.83326770015992,109.33218950009905,109.83326770015992,109.33218950009905,109.83326770015992,109.33218950009905,None,,,,,,,,,,,,,,,,,,,,,,,,,,,,,,,,,,,,,,,,,,11026,001,2024_Jan_10_1031,nback,2021.2.3,59.9150404395355,
1-back,instructions\back-1.png,conditions\1back-p.xlsx,instructions\1-BACK.png,"(25, 15)",practice,1,1,stim\yellow.png,stim\gray.png,stim\gray.png,stim\gray.png,right,0,0,0,0,0,1,1,1,0,17,17,17,,,,,,,,,,,,,,,,,,,,,,,,,,,110.83367700013332,111.83517390000634,110.83367700013332,111.83517390000634,110.83367700013332,111.83517390000634,110.83367700013332,111.83517390000634,right,1,0.29342149989679456,110.83367700013332,None,110.83367700013332,None,110.83367700013332,111.3345339000225,110.83367700013332,111.3345339000225,110.83367700013332,111.3345339000225,110.83367700013332,111.3345339000225,110.83367700013332,None,,,,,,,,,,,,,,,,,,,,,,,,,,,,,,,,,,,,,,,,,,11026,001,2024_Jan_10_1031,nback,2021.2.3,59.9150404395355,
1-back,instructions\back-1.png,conditions\1back-p.xlsx,instructions\1-BACK.png,"(25, 15)",practice,1,4,stim\gray.png,stim\gray.png,stim\gray.png,stim\yellow.png,up,0,0,0,0,0,1,1,1,0,18,18,18,,,,,,,,,,,,,,,,,,,,,,,,,,,112.33626420004293,113.33739969995804,112.33626420004293,113.33739969995804,112.33626420004293,113.33739969995804,112.33626420004293,113.33739969995804,up,1,0.23143149982206523,112.33626420004293,None,112.33626420004293,None,112.33626420004293,112.83660209993832,112.33626420004293,112.83660209993832,112.33626420004293,112.83660209993832,112.33626420004293,112.83660209993832,112.33626420004293,None,,,,,,,,,,,,,,,,,,,,,,,,,,,,,,,,,,,,,,,,,,11026,001,2024_Jan_10_1031,nback,2021.2.3,59.9150404395355,
1-back,instructions\back-1.png,conditions\1back-p.xlsx,instructions\1-BACK.png,"(25, 15)",practice,1,2,stim\gray.png,stim\yellow.png,stim\gray.png,stim\gray.png,down,0,0,0,0,0,1,1,1,0,19,19,19,,,,,,,,,,,,,,,,,,,,,,,,,,,113.83873059996404,114.84029520000331,113.83873059996404,114.84029520000331,113.83873059996404,114.84029520000331,113.83873059996404,114.84029520000331,down,1,0.26454630005173385,113.83873059996404,None,113.83873059996404,None,113.83873059996404,114.33879510010593,113.83873059996404,114.33879510010593,113.83873059996404,114.33879510010593,113.83873059996404,114.33879510010593,113.83873059996404,None,,,,,,,,,,,,,,,,,,,,,,,,,,,,,,,,,,,,,,,,,,11026,001,2024_Jan_10_1031,nback,2021.2.3,59.9150404395355,
1-back,instructions\back-1.png,conditions\1back-p.xlsx,instructions\1-BACK.png,"(25, 15)",,,,,,,,,0,0,0,0,0,1,1,1,,,,,,,,,,,,,,,,,,,,,,,,,,,,,,,,,,,,,,,,,,,,,,,,,,,,,,,,,,,,,,,,,,,,,,,,,,,,,,,,,,,,,,,,,,,,,,,,,11026,001,2024_Jan_10_1031,nback,2021.2.3,59.9150404395355,
2-back,instructions\back-2.png,conditions\2back-p.xlsx,instructions\2-BACK.png,"(25, 15)",practice,2,1,stim\yellow.png,stim\gray.png,stim\gray.png,stim\gray.png,None,0,0,0,0,0,2,2,2,0,0,0,0,,,,,,,,,,,,,,,,,115.45685299998149,None,space,5.966147300088778,115.45685299998149,None,121.56606060010381,126.07440980011597,126.0237974000629,None,126.47431310010143,127.47497390001081,126.47431310010143,127.47497390001081,126.47431310010143,127.47497390001081,126.47431310010143,127.47497390001081,None,1,,126.47431310010143,None,126.47431310010143,None,126.47431310010143,126.9742658000905,126.47431310010143,126.9742658000905,126.47431310010143,126.9742658000905,126.47431310010143,126.9742658000905,126.47431310010143,None,,,,,,,,,,,,,,,,,,,,,,,,,,,,,,,,,,,,,,,,,,11026,001,2024_Jan_10_1031,nback,2021.2.3,59.9150404395355,
2-back,instructions\back-2.png,conditions\2back-p.xlsx,instructions\2-BACK.png,"(25, 15)",practice,2,2,stim\gray.png,stim\yellow.png,stim\gray.png,stim\gray.png,None,0,0,0,0,0,2,2,2,0,1,1,1,,,,,,,,,,,,,,,,,,,,,,,,,,,127.95886710006744,128.9605916000437,127.95886710006744,128.9605916000437,127.95886710006744,128.9605916000437,127.95886710006744,128.9605916000437,None,1,,127.95886710006744,None,127.95886710006744,None,127.95886710006744,128.4598105000332,127.95886710006744,128.4598105000332,127.95886710006744,128.4598105000332,127.95886710006744,128.4598105000332,127.95886710006744,None,,,,,,,,,,,,,,,,,,,,,,,,,,,,,,,,,,,,,,,,,,11026,001,2024_Jan_10_1031,nback,2021.2.3,59.9150404395355,
2-back,instructions\back-2.png,conditions\2back-p.xlsx,instructions\2-BACK.png,"(25, 15)",practice,2,3,stim\gray.png,stim\gray.png,stim\yellow.png,stim\gray.png,up,0,0,0,0,0,2,2,2,0,2,2,2,,,,,,,,,,,,,,,,,,,,,,,,,,,129.46130060008727,130.46368189994246,129.46130060008727,130.46368189994246,129.46130060008727,130.46368189994246,129.46130060008727,130.46368189994246,left,0,1.4257245000917464,129.46130060008727,None,129.46130060008727,None,129.46130060008727,129.96201210003346,129.46130060008727,129.96201210003346,129.46130060008727,129.96201210003346,129.46130060008727,129.96201210003346,129.46130060008727,None,,,,,,,,,,,,,,,,,,,,,,,,,,,,,,,,,,,,,,,,,,11026,001,2024_Jan_10_1031,nback,2021.2.3,59.9150404395355,
2-back,instructions\back-2.png,conditions\2back-p.xlsx,instructions\2-BACK.png,"(25, 15)",practice,2,4,stim\gray.png,stim\gray.png,stim\gray.png,stim\yellow.png,left,0,0,0,0,0,2,2,2,0,3,3,3,,,,,,,,,,,,,,,,,,,,,,,,,,,130.96412619994953,131.96472149994224,130.96412619994953,131.96472149994224,130.96412619994953,131.96472149994224,130.96412619994953,131.96472149994224,right,0,1.2911483000498265,130.96412619994953,None,130.96412619994953,None,130.96412619994953,131.46417280007154,130.96412619994953,131.46417280007154,130.96412619994953,131.46417280007154,130.96412619994953,131.46417280007154,130.96412619994953,None,,,,,,,,,,,,,,,,,,,,,,,,,,,,,,,,,,,,,,,,,,11026,001,2024_Jan_10_1031,nback,2021.2.3,59.9150404395355,
2-back,instructions\back-2.png,conditions\2back-p.xlsx,instructions\2-BACK.png,"(25, 15)",practice,2,2,stim\gray.png,stim\yellow.png,stim\gray.png,stim\gray.png,right,0,0,0,0,0,2,2,2,0,4,4,4,,,,,,,,,,,,,,,,,,,,,,,,,,,132.4656549000647,133.46712230006233,132.4656549000647,133.46712230006233,132.4656549000647,133.46712230006233,132.4656549000647,133.46712230006233,None,0,,132.4656549000647,None,132.4656549000647,None,132.4656549000647,132.9670564001426,132.4656549000647,132.9670564001426,132.4656549000647,132.9670564001426,132.4656549000647,132.9670564001426,132.4656549000647,None,,,,,,,,,,,,,,,,,,,,,,,,,,,,,,,,,,,,,,,,,,11026,001,2024_Jan_10_1031,nback,2021.2.3,59.9150404395355,
2-back,instructions\back-2.png,conditions\2back-p.xlsx,instructions\2-BACK.png,"(25, 15)",practice,2,1,stim\yellow.png,stim\gray.png,stim\gray.png,stim\gray.png,down,0,0,0,0,0,2,2,2,0,5,5,5,,,,,,,,,,,,,,,,,,,,,,,,,,,133.967971800128,134.96962069999427,133.967971800128,134.96962069999427,133.967971800128,134.96962069999427,133.967971800128,134.96962069999427,left,0,0.5030352000612766,133.967971800128,None,133.967971800128,None,133.967971800128,134.46937480010092,133.967971800128,134.46937480010092,133.967971800128,134.46937480010092,133.967971800128,134.46937480010092,133.967971800128,None,,,,,,,,,,,,,,,,,,,,,,,,,,,,,,,,,,,,,,,,,,11026,001,2024_Jan_10_1031,nback,2021.2.3,59.9150404395355,
2-back,instructions\back-2.png,conditions\2back-p.xlsx,instructions\2-BACK.png,"(25, 15)",practice,2,4,stim\gray.png,stim\gray.png,stim\gray.png,stim\yellow.png,left,0,0,0,0,0,2,2,2,0,6,6,6,,,,,,,,,,,,,,,,,,,,,,,,,,,135.45475340005942,136.45555069996044,135.45475340005942,136.45555069996044,135.45475340005942,136.45555069996044,135.45475340005942,136.45555069996044,None,0,,135.45475340005942,None,135.45475340005942,None,135.45475340005942,135.95424600015394,135.45475340005942,135.95424600015394,135.45475340005942,135.95424600015394,135.45475340005942,135.95424600015394,135.45475340005942,None,,,,,,,,,,,,,,,,,,,,,,,,,,,,,,,,,,,,,,,,,,11026,001,2024_Jan_10_1031,nback,2021.2.3,59.9150404395355,
2-back,instructions\back-2.png,conditions\2back-p.xlsx,instructions\2-BACK.png,"(25, 15)",practice,2,3,stim\gray.png,stim\gray.png,stim\yellow.png,stim\gray.png,up,0,0,0,0,0,2,2,2,0,7,7,7,,,,,,,,,,,,,,,,,,,,,,,,,,,136.95588449994102,137.95728099998087,136.95588449994102,137.95728099998087,136.95588449994102,137.95728099998087,136.95588449994102,137.95728099998087,None,0,,136.95588449994102,None,136.95588449994102,None,136.95588449994102,137.4561781999655,136.95588449994102,137.4561781999655,136.95588449994102,137.4561781999655,136.95588449994102,137.4561781999655,136.95588449994102,None,,,,,,,,,,,,,,,,,,,,,,,,,,,,,,,,,,,,,,,,,,11026,001,2024_Jan_10_1031,nback,2021.2.3,59.9150404395355,
2-back,instructions\back-2.png,conditions\2back-p.xlsx,instructions\2-BACK.png,"(25, 15)",practice,2,3,stim\gray.png,stim\gray.png,stim\yellow.png,stim\gray.png,down,0,0,0,0,0,2,2,2,0,8,8,8,,,,,,,,,,,,,,,,,,,,,,,,,,,138.45782659994438,139.45950330002233,138.45782659994438,139.45950330002233,138.45782659994438,139.45950330002233,138.45782659994438,139.45950330002233,None,0,,138.45782659994438,None,138.45782659994438,None,138.45782659994438,138.95986589998938,138.45782659994438,138.95986589998938,138.45782659994438,138.95986589998938,138.45782659994438,138.95986589998938,138.45782659994438,None,,,,,,,,,,,,,,,,,,,,,,,,,,,,,,,,,,,,,,,,,,11026,001,2024_Jan_10_1031,nback,2021.2.3,59.9150404395355,
2-back,instructions\back-2.png,conditions\2back-p.xlsx,instructions\2-BACK.png,"(25, 15)",practice,2,4,stim\gray.png,stim\gray.png,stim\gray.png,stim\yellow.png,right,0,0,0,0,0,2,2,2,0,9,9,9,,,,,,,,,,,,,,,,,,,,,,,,,,,139.96019809995778,140.96146490005776,139.96019809995778,140.96146490005776,139.96019809995778,140.96146490005776,139.96019809995778,140.96146490005776,None,0,,139.96019809995778,None,139.96019809995778,None,139.96019809995778,140.4608938000165,139.96019809995778,140.4608938000165,139.96019809995778,140.4608938000165,139.96019809995778,140.4608938000165,139.96019809995778,None,,,,,,,,,,,,,,,,,,,,,,,,,,,,,,,,,,,,,,,,,,11026,001,2024_Jan_10_1031,nback,2021.2.3,59.9150404395355,
2-back,instructions\back-2.png,conditions\2back-p.xlsx,instructions\2-BACK.png,"(25, 15)",practice,2,1,stim\yellow.png,stim\gray.png,stim\gray.png,stim\gray.png,right,0,0,0,0,0,2,2,2,0,10,10,10,,,,,,,,,,,,,,,,,,,,,,,,,,,141.46230370015837,142.4638764001429,141.46230370015837,142.4638764001429,141.46230370015837,142.4638764001429,141.46230370015837,142.4638764001429,None,0,,141.46230370015837,None,141.46230370015837,None,141.46230370015837,141.96320080012083,141.46230370015837,141.96320080012083,141.46230370015837,141.96320080012083,141.46230370015837,141.96320080012083,141.46230370015837,None,,,,,,,,,,,,,,,,,,,,,,,,,,,,,,,,,,,,,,,,,,11026,001,2024_Jan_10_1031,nback,2021.2.3,59.9150404395355,
2-back,instructions\back-2.png,conditions\2back-p.xlsx,instructions\2-BACK.png,"(25, 15)",practice,2,2,stim\gray.png,stim\yellow.png,stim\gray.png,stim\gray.png,down,0,0,0,0,0,2,2,2,0,11,11,11,,,,,,,,,,,,,,,,,,,,,,,,,,,142.96454620012082,143.96662180009298,142.96454620012082,143.96662180009298,142.96454620012082,143.96662180009298,142.96454620012082,143.96662180009298,None,0,,142.96454620012082,None,142.96454620012082,None,142.96454620012082,143.46640080004,142.96454620012082,143.46640080004,142.96454620012082,143.46640080004,142.96454620012082,143.46640080004,142.96454620012082,None,,,,,,,,,,,,,,,,,,,,,,,,,,,,,,,,,,,,,,,,,,11026,001,2024_Jan_10_1031,nback,2021.2.3,59.9150404395355,
2-back,instructions\back-2.png,conditions\2back-p.xlsx,instructions\2-BACK.png,"(25, 15)",practice,2,4,stim\gray.png,stim\gray.png,stim\gray.png,stim\yellow.png,up,0,0,0,0,0,2,2,2,0,12,12,12,,,,,,,,,,,,,,,,,,,,,,,,,,,144.46663890010677,145.46871339995414,144.46663890010677,145.46871339995414,144.46663890010677,145.46871339995414,144.46663890010677,145.46871339995414,None,0,,144.46663890010677,None,144.46663890010677,None,144.46663890010677,144.96849330002442,144.46663890010677,144.96849330002442,144.46663890010677,144.96849330002442,144.46663890010677,144.96849330002442,144.46663890010677,None,,,,,,,,,,,,,,,,,,,,,,,,,,,,,,,,,,,,,,,,,,11026,001,2024_Jan_10_1031,nback,2021.2.3,59.9150404395355,
2-back,instructions\back-2.png,conditions\2back-p.xlsx,instructions\2-BACK.png,"(25, 15)",practice,2,3,stim\gray.png,stim\gray.png,stim\yellow.png,stim\gray.png,left,0,0,0,0,0,2,2,2,0,13,13,13,,,,,,,,,,,,,,,,,,,,,,,,,,,145.9689571999479,146.97151420009322,145.9689571999479,146.97151420009322,145.9689571999479,146.97151420009322,145.9689571999479,146.97151420009322,left,1,0.12618459993973374,145.9689571999479,None,145.9689571999479,None,145.9689571999479,146.47019849997014,145.9689571999479,146.47019849997014,145.9689571999479,146.47019849997014,145.9689571999479,146.47019849997014,145.9689571999479,None,,,,,,,,,,,,,,,,,,,,,,,,,,,,,,,,,,,,,,,,,,11026,001,2024_Jan_10_1031,nback,2021.2.3,59.9150404395355,
2-back,instructions\back-2.png,conditions\2back-p.xlsx,instructions\2-BACK.png,"(25, 15)",practice,2,1,stim\yellow.png,stim\gray.png,stim\gray.png,stim\gray.png,down,0,0,0,0,0,2,2,2,0,14,14,14,,,,,,,,,,,,,,,,,,,,,,,,,,,147.45451860013418,148.45603969995864,147.45451860013418,148.45603969995864,147.45451860013418,148.45603969995864,147.45451860013418,148.45603969995864,down,1,0.1444557998329401,147.45451860013418,None,147.45451860013418,None,147.45451860013418,147.95549850002863,147.45451860013418,147.95549850002863,147.45451860013418,147.95549850002863,147.45451860013418,147.95549850002863,147.45451860013418,None,,,,,,,,,,,,,,,,,,,,,,,,,,,,,,,,,,,,,,,,,,11026,001,2024_Jan_10_1031,nback,2021.2.3,59.9150404395355,
2-back,instructions\back-2.png,conditions\2back-p.xlsx,instructions\2-BACK.png,"(25, 15)",practice,2,2,stim\gray.png,stim\yellow.png,stim\gray.png,stim\gray.png,right,0,0,0,0,0,2,2,2,0,15,15,15,,,,,,,,,,,,,,,,,,,,,,,,,,,148.95730440015905,149.95883420016617,148.95730440015905,149.95883420016617,148.95730440015905,149.95883420016617,148.95730440015905,149.95883420016617,None,0,,148.95730440015905,None,148.95730440015905,None,148.95730440015905,149.4575988999568,148.95730440015905,149.4575988999568,148.95730440015905,149.4575988999568,148.95730440015905,149.4575988999568,148.95730440015905,None,,,,,,,,,,,,,,,,,,,,,,,,,,,,,,,,,,,,,,,,,,11026,001,2024_Jan_10_1031,nback,2021.2.3,59.9150404395355,
2-back,instructions\back-2.png,conditions\2back-p.xlsx,instructions\2-BACK.png,"(25, 15)",practice,2,3,stim\gray.png,stim\gray.png,stim\yellow.png,stim\gray.png,up,0,0,0,0,0,2,2,2,0,16,16,16,,,,,,,,,,,,,,,,,,,,,,,,,,,150.4589744999539,151.46059820009395,150.4589744999539,151.46059820009395,150.4589744999539,151.46059820009395,150.4589744999539,151.46059820009395,None,0,,150.4589744999539,None,150.4589744999539,None,150.4589744999539,150.96037880005315,150.4589744999539,150.96037880005315,150.4589744999539,150.96037880005315,150.4589744999539,150.96037880005315,150.4589744999539,None,,,,,,,,,,,,,,,,,,,,,,,,,,,,,,,,,,,,,,,,,,11026,001,2024_Jan_10_1031,nback,2021.2.3,59.9150404395355,
2-back,instructions\back-2.png,conditions\2back-p.xlsx,instructions\2-BACK.png,"(25, 15)",practice,2,1,stim\yellow.png,stim\gray.png,stim\gray.png,stim\gray.png,left,0,0,0,0,0,2,2,2,0,17,17,17,,,,,,,,,,,,,,,,,,,,,,,,,,,151.96106930007227,152.96331280004233,151.96106930007227,152.96331280004233,151.96106930007227,152.96331280004233,151.96106930007227,152.96331280004233,None,0,,151.96106930007227,None,151.96106930007227,None,151.96106930007227,152.4619114000816,151.96106930007227,152.4619114000816,151.96106930007227,152.4619114000816,151.96106930007227,152.4619114000816,151.96106930007227,None,,,,,,,,,,,,,,,,,,,,,,,,,,,,,,,,,,,,,,,,,,11026,001,2024_Jan_10_1031,nback,2021.2.3,59.9150404395355,
2-back,instructions\back-2.png,conditions\2back-p.xlsx,instructions\2-BACK.png,"(25, 15)",practice,2,4,stim\gray.png,stim\gray.png,stim\gray.png,stim\yellow.png,right,0,0,0,0,0,2,2,2,0,18,18,18,,,,,,,,,,,,,,,,,,,,,,,,,,,153.46337100001983,154.46509149996564,153.46337100001983,154.46509149996564,153.46337100001983,154.46509149996564,153.46337100001983,154.46509149996564,None,0,,153.46337100001983,None,153.46337100001983,None,153.46337100001983,153.96508920006454,153.46337100001983,153.96508920006454,153.46337100001983,153.96508920006454,153.46337100001983,153.96508920006454,153.46337100001983,None,,,,,,,,,,,,,,,,,,,,,,,,,,,,,,,,,,,,,,,,,,11026,001,2024_Jan_10_1031,nback,2021.2.3,59.9150404395355,
2-back,instructions\back-2.png,conditions\2back-p.xlsx,instructions\2-BACK.png,"(25, 15)",practice,2,2,stim\gray.png,stim\yellow.png,stim\gray.png,stim\gray.png,up,0,0,0,0,0,2,2,2,0,19,19,19,,,,,,,,,,,,,,,,,,,,,,,,,,,154.96565919998102,155.96792279998772,154.96565919998102,155.96792279998772,154.96565919998102,155.96792279998772,154.96565919998102,155.96792279998772,up,1,0.16959559987299144,154.96565919998102,None,154.96565919998102,None,154.96565919998102,155.46650620014407,154.96565919998102,155.46650620014407,154.96565919998102,155.46650620014407,154.96565919998102,155.46650620014407,154.96565919998102,None,,,,,,,,,,,,,,,,,,,,,,,,,,,,,,,,,,,,,,,,,,11026,001,2024_Jan_10_1031,nback,2021.2.3,59.9150404395355,
2-back,instructions\back-2.png,conditions\2back-p.xlsx,instructions\2-BACK.png,"(25, 15)",,,,,,,,,0,0,0,0,0,2,2,2,,,,,,,,,,,,,,,,,,,,,,,,,,,,,,,,,,,,,,,,,,,,,,,,,,,,,,,,,,,,,,,,,,,,,,,,,,,,,,,,,,,,,,,,,,,,,,,,,11026,001,2024_Jan_10_1031,nback,2021.2.3,59.9150404395355,
,,,,,,,,,,,,,0,0,0,0,,,,,,,,,,,,,,,,,,,,,,,,,,,,,,,,,,,,,,,,,,,,,,,,,,,,,,,,,,,,156.4683117000386,None,s,3.610708700027317,156.4683117000386,None,,,,,,,,,,,,,,,,,,,,,,,,,,,,,,,,,,,,11026,001,2024_Jan_10_1031,nback,2021.2.3,59.9150404395355,
0-back,instructions\back-0.png,conditions\0back-p.xlsx,instructions\0-BACK.png,"(15, 8)",practice,0,1,stim\yellow.png,stim\gray.png,stim\gray.png,stim\gray.png,up,1,0,1,0,0,0,0,0,0,0,0,0,,,,,,,,,,,,,,,,,160.2235541001428,None,space,4.81560319988057,160.2235541001428,None,165.23074369993992,169.73818460013717,169.67080740001984,None,170.08844570000656,171.08984960010275,170.08844570000656,171.08984960010275,170.08844570000656,171.08984960010275,170.08844570000656,171.08984960010275,up,1,0.35083930008113384,170.08844570000656,None,170.08844570000656,None,170.08844570000656,170.5888654999435,170.08844570000656,170.5888654999435,170.08844570000656,170.5888654999435,170.08844570000656,170.5888654999435,170.08844570000656,None,,,,,,,,,,,,,,,,,,,,,,,,,,,,,,,,,,,,,,,,,,11026,001,2024_Jan_10_1031,nback,2021.2.3,59.9150404395355,
0-back,instructions\back-0.png,conditions\0back-p.xlsx,instructions\0-BACK.png,"(15, 8)",practice,0,2,stim\gray.png,stim\yellow.png,stim\gray.png,stim\gray.png,left,1,0,1,0,0,0,0,0,0,1,1,1,,,,,,,,,,,,,,,,,,,,,,,,,,,171.5734661000315,172.57575260009617,171.5734661000315,172.57575260009617,171.5734661000315,172.57575260009617,171.5734661000315,172.57575260009617,left,1,0.3456981999333948,171.5734661000315,None,171.5734661000315,None,171.5734661000315,172.0744177000597,171.5734661000315,172.0744177000597,171.5734661000315,172.0744177000597,171.5734661000315,172.0744177000597,171.5734661000315,None,,,,,,,,,,,,,,,,,,,,,,,,,,,,,,,,,,,,,,,,,,11026,001,2024_Jan_10_1031,nback,2021.2.3,59.9150404395355,
0-back,instructions\back-0.png,conditions\0back-p.xlsx,instructions\0-BACK.png,"(15, 8)",practice,0,3,stim\gray.png,stim\gray.png,stim\yellow.png,stim\gray.png,right,1,0,1,0,0,0,0,0,0,2,2,2,,,,,,,,,,,,,,,,,,,,,,,,,,,173.07580800005235,174.07744220015593,173.07580800005235,174.07744220015593,173.07580800005235,174.07744220015593,173.07580800005235,174.07744220015593,right,1,0.3074709000065923,173.07580800005235,None,173.07580800005235,None,173.07580800005235,173.5776096000336,173.07580800005235,173.5776096000336,173.07580800005235,173.5776096000336,173.07580800005235,173.5776096000336,173.07580800005235,None,,,,,,,,,,,,,,,,,,,,,,,,,,,,,,,,,,,,,,,,,,11026,001,2024_Jan_10_1031,nback,2021.2.3,59.9150404395355,
0-back,instructions\back-0.png,conditions\0back-p.xlsx,instructions\0-BACK.png,"(15, 8)",practice,0,4,stim\gray.png,stim\gray.png,stim\gray.png,stim\yellow.png,down,1,0,1,0,0,0,0,0,0,3,3,3,,,,,,,,,,,,,,,,,,,,,,,,,,,174.57812039996497,175.57981389993802,174.57812039996497,175.57981389993802,174.57812039996497,175.57981389993802,174.57812039996497,175.57981389993802,down,1,0.27705450006760657,174.57812039996497,None,174.57812039996497,None,174.57812039996497,175.07888479996473,174.57812039996497,175.07888479996473,174.57812039996497,175.07888479996473,174.57812039996497,175.07888479996473,174.57812039996497,None,,,,,,,,,,,,,,,,,,,,,,,,,,,,,,,,,,,,,,,,,,11026,001,2024_Jan_10_1031,nback,2021.2.3,59.9150404395355,
0-back,instructions\back-0.png,conditions\0back-p.xlsx,instructions\0-BACK.png,"(15, 8)",practice,0,2,stim\gray.png,stim\yellow.png,stim\gray.png,stim\gray.png,left,1,0,1,0,0,0,0,0,0,4,4,4,,,,,,,,,,,,,,,,,,,,,,,,,,,176.0803004000336,177.08281409996562,176.0803004000336,177.08281409996562,176.0803004000336,177.08281409996562,176.0803004000336,177.08281409996562,left,1,0.2797050999943167,176.0803004000336,None,176.0803004000336,None,176.0803004000336,176.58171569998376,176.0803004000336,176.58171569998376,176.0803004000336,176.58171569998376,176.0803004000336,176.58171569998376,176.0803004000336,None,,,,,,,,,,,,,,,,,,,,,,,,,,,,,,,,,,,,,,,,,,11026,001,2024_Jan_10_1031,nback,2021.2.3,59.9150404395355,
0-back,instructions\back-0.png,conditions\0back-p.xlsx,instructions\0-BACK.png,"(15, 8)",practice,0,1,stim\yellow.png,stim\gray.png,stim\gray.png,stim\gray.png,up,1,0,1,0,0,0,0,0,0,5,5,5,,,,,,,,,,,,,,,,,,,,,,,,,,,177.58261230005883,178.58509310008958,177.58261230005883,178.58509310008958,177.58261230005883,178.58509310008958,177.58261230005883,178.58509310008958,up,1,0.2565987000707537,177.58261230005883,None,177.58261230005883,None,177.58261230005883,178.08323390013538,177.58261230005883,178.08323390013538,177.58261230005883,178.08323390013538,177.58261230005883,178.08323390013538,177.58261230005883,None,,,,,,,,,,,,,,,,,,,,,,,,,,,,,,,,,,,,,,,,,,11026,001,2024_Jan_10_1031,nback,2021.2.3,59.9150404395355,
0-back,instructions\back-0.png,conditions\0back-p.xlsx,instructions\0-BACK.png,"(15, 8)",practice,0,4,stim\gray.png,stim\gray.png,stim\gray.png,stim\yellow.png,down,1,0,1,0,0,0,0,0,0,6,6,6,,,,,,,,,,,,,,,,,,,,,,,,,,,179.0681193000637,180.07084210007451,179.0681193000637,180.07084210007451,179.0681193000637,180.07084210007451,179.0681193000637,180.07084210007451,down,1,0.4914345999713987,179.0681193000637,None,179.0681193000637,None,179.0681193000637,179.56940630008467,179.0681193000637,179.56940630008467,179.0681193000637,179.56940630008467,179.0681193000637,179.56940630008467,179.0681193000637,None,,,,,,,,,,,,,,,,,,,,,,,,,,,,,,,,,,,,,,,,,,11026,001,2024_Jan_10_1031,nback,2021.2.3,59.9150404395355,
0-back,instructions\back-0.png,conditions\0back-p.xlsx,instructions\0-BACK.png,"(15, 8)",practice,0,3,stim\gray.png,stim\gray.png,stim\yellow.png,stim\gray.png,right,1,0,1,0,0,0,0,0,0,7,7,7,,,,,,,,,,,,,,,,,,,,,,,,,,,180.57010910008103,181.57235640008003,180.57010910008103,181.57235640008003,180.57010910008103,181.57235640008003,180.57010910008103,181.57235640008003,right,1,0.29310739994980395,180.57010910008103,None,180.57010910008103,None,180.57010910008103,181.07105739996769,180.57010910008103,181.07105739996769,180.57010910008103,181.07105739996769,180.57010910008103,181.07105739996769,180.57010910008103,None,,,,,,,,,,,,,,,,,,,,,,,,,,,,,,,,,,,,,,,,,,11026,001,2024_Jan_10_1031,nback,2021.2.3,59.9150404395355,
0-back,instructions\back-0.png,conditions\0back-p.xlsx,instructions\0-BACK.png,"(15, 8)",practice,0,3,stim\gray.png,stim\gray.png,stim\yellow.png,stim\gray.png,right,1,0,1,0,0,0,0,0,0,8,8,8,,,,,,,,,,,,,,,,,,,,,,,,,,,182.07249730010517,183.07500410010107,182.07249730010517,183.07500410010107,182.07249730010517,183.07500410010107,182.07249730010517,183.07500410010107,right,1,0.38258610013872385,182.07249730010517,None,182.07249730010517,None,182.07249730010517,182.57450330001302,182.07249730010517,182.57450330001302,182.07249730010517,182.57450330001302,182.07249730010517,182.57450330001302,182.07249730010517,None,,,,,,,,,,,,,,,,,,,,,,,,,,,,,,,,,,,,,,,,,,11026,001,2024_Jan_10_1031,nback,2021.2.3,59.9150404395355,
0-back,instructions\back-0.png,conditions\0back-p.xlsx,instructions\0-BACK.png,"(15, 8)",practice,0,4,stim\gray.png,stim\gray.png,stim\gray.png,stim\yellow.png,down,1,0,1,0,0,0,0,0,0,9,9,9,,,,,,,,,,,,,,,,,,,,,,,,,,,183.5753691000864,184.57701130001806,183.5753691000864,184.57701130001806,183.5753691000864,184.57701130001806,183.5753691000864,184.57701130001806,down,1,0.46386049990542233,183.5753691000864,None,183.5753691000864,None,183.5753691000864,184.0755013001617,183.5753691000864,184.0755013001617,183.5753691000864,184.0755013001617,183.5753691000864,184.0755013001617,183.5753691000864,None,,,,,,,,,,,,,,,,,,,,,,,,,,,,,,,,,,,,,,,,,,11026,001,2024_Jan_10_1031,nback,2021.2.3,59.9150404395355,
0-back,instructions\back-0.png,conditions\0back-p.xlsx,instructions\0-BACK.png,"(15, 8)",practice,0,1,stim\yellow.png,stim\gray.png,stim\gray.png,stim\gray.png,up,1,0,1,0,0,0,0,0,0,10,10,10,,,,,,,,,,,,,,,,,,,,,,,,,,,185.07697449997067,186.07906040013768,185.07697449997067,186.07906040013768,185.07697449997067,186.07906040013768,185.07697449997067,186.07906040013768,up,1,0.2581190001219511,185.07697449997067,None,185.07697449997067,None,185.07697449997067,185.57777610002086,185.07697449997067,185.57777610002086,185.07697449997067,185.57777610002086,185.07697449997067,185.57777610002086,185.07697449997067,None,,,,,,,,,,,,,,,,,,,,,,,,,,,,,,,,,,,,,,,,,,11026,001,2024_Jan_10_1031,nback,2021.2.3,59.9150404395355,
0-back,instructions\back-0.png,conditions\0back-p.xlsx,instructions\0-BACK.png,"(15, 8)",practice,0,2,stim\gray.png,stim\yellow.png,stim\gray.png,stim\gray.png,left,1,0,1,0,0,0,0,0,0,11,11,11,,,,,,,,,,,,,,,,,,,,,,,,,,,186.57916700001806,187.58150380011648,186.57916700001806,187.58150380011648,186.57916700001806,187.58150380011648,186.57916700001806,187.58150380011648,left,1,0.23595080012455583,186.57916700001806,None,186.57916700001806,None,186.57916700001806,187.07990620005876,186.57916700001806,187.07990620005876,186.57916700001806,187.07990620005876,186.57916700001806,187.07990620005876,186.57916700001806,None,,,,,,,,,,,,,,,,,,,,,,,,,,,,,,,,,,,,,,,,,,11026,001,2024_Jan_10_1031,nback,2021.2.3,59.9150404395355,
0-back,instructions\back-0.png,conditions\0back-p.xlsx,instructions\0-BACK.png,"(15, 8)",practice,0,4,stim\gray.png,stim\gray.png,stim\gray.png,stim\yellow.png,down,1,0,1,0,0,0,0,0,0,12,12,12,,,,,,,,,,,,,,,,,,,,,,,,,,,188.08126070001163,189.0829316000454,188.08126070001163,189.0829316000454,188.08126070001163,189.0829316000454,188.08126070001163,189.0829316000454,down,1,0.24600329995155334,188.08126070001163,None,188.08126070001163,None,188.08126070001163,188.5826258000452,188.08126070001163,188.5826258000452,188.08126070001163,188.5826258000452,188.08126070001163,188.5826258000452,188.08126070001163,None,,,,,,,,,,,,,,,,,,,,,,,,,,,,,,,,,,,,,,,,,,11026,001,2024_Jan_10_1031,nback,2021.2.3,59.9150404395355,
0-back,instructions\back-0.png,conditions\0back-p.xlsx,instructions\0-BACK.png,"(15, 8)",practice,0,3,stim\gray.png,stim\gray.png,stim\yellow.png,stim\gray.png,right,1,0,1,0,0,0,0,0,0,13,13,13,,,,,,,,,,,,,,,,,,,,,,,,,,,189.58396910014562,190.58544820011593,189.58396910014562,190.58544820011593,189.58396910014562,190.58544820011593,189.58396910014562,190.58544820011593,right,1,0.25533040007576346,189.58396910014562,None,189.58396910014562,None,189.58396910014562,190.0849520000629,189.58396910014562,190.0849520000629,189.58396910014562,190.0849520000629,189.58396910014562,190.0849520000629,189.58396910014562,None,,,,,,,,,,,,,,,,,,,,,,,,,,,,,,,,,,,,,,,,,,11026,001,2024_Jan_10_1031,nback,2021.2.3,59.9150404395355,
0-back,instructions\back-0.png,conditions\0back-p.xlsx,instructions\0-BACK.png,"(15, 8)",practice,0,1,stim\yellow.png,stim\gray.png,stim\gray.png,stim\gray.png,up,1,0,1,0,0,0,0,0,0,14,14,14,,,,,,,,,,,,,,,,,,,,,,,,,,,191.06903839996085,192.07149380003102,191.06903839996085,192.07149380003102,191.06903839996085,192.07149380003102,191.06903839996085,192.07149380003102,up,1,0.24207549984566867,191.06903839996085,None,191.06903839996085,None,191.06903839996085,191.57183580007404,191.06903839996085,191.57183580007404,191.06903839996085,191.57183580007404,191.06903839996085,191.57183580007404,191.06903839996085,None,,,,,,,,,,,,,,,,,,,,,,,,,,,,,,,,,,,,,,,,,,11026,001,2024_Jan_10_1031,nback,2021.2.3,59.9150404395355,
0-back,instructions\back-0.png,conditions\0back-p.xlsx,instructions\0-BACK.png,"(15, 8)",practice,0,2,stim\gray.png,stim\yellow.png,stim\gray.png,stim\gray.png,left,1,0,1,0,0,0,0,0,0,15,15,15,,,,,,,,,,,,,,,,,,,,,,,,,,,192.57137220003642,193.5732859999407,192.57137220003642,193.5732859999407,192.57137220003642,193.5732859999407,192.57137220003642,193.5732859999407,left,1,0.2598568999674171,192.57137220003642,None,192.57137220003642,None,192.57137220003642,193.07287469995208,192.57137220003642,193.07287469995208,192.57137220003642,193.07287469995208,192.57137220003642,193.07287469995208,192.57137220003642,None,,,,,,,,,,,,,,,,,,,,,,,,,,,,,,,,,,,,,,,,,,11026,001,2024_Jan_10_1031,nback,2021.2.3,59.9150404395355,
0-back,instructions\back-0.png,conditions\0back-p.xlsx,instructions\0-BACK.png,"(15, 8)",practice,0,3,stim\gray.png,stim\gray.png,stim\yellow.png,stim\gray.png,right,1,0,1,0,0,0,0,0,0,16,16,16,,,,,,,,,,,,,,,,,,,,,,,,,,,194.0736742001027,195.07593910000287,194.0736742001027,195.07593910000287,194.0736742001027,195.07593910000287,194.0736742001027,195.07593910000287,right,1,0.22951589990407228,194.0736742001027,None,194.0736742001027,None,194.0736742001027,194.5744493000675,194.0736742001027,194.5744493000675,194.0736742001027,194.5744493000675,194.0736742001027,194.5744493000675,194.0736742001027,None,,,,,,,,,,,,,,,,,,,,,,,,,,,,,,,,,,,,,,,,,,11026,001,2024_Jan_10_1031,nback,2021.2.3,59.9150404395355,
0-back,instructions\back-0.png,conditions\0back-p.xlsx,instructions\0-BACK.png,"(15, 8)",practice,0,1,stim\yellow.png,stim\gray.png,stim\gray.png,stim\gray.png,up,1,0,1,0,0,0,0,0,0,17,17,17,,,,,,,,,,,,,,,,,,,,,,,,,,,195.57670710003003,196.57731380010955,195.57670710003003,196.57731380010955,195.57670710003003,196.57731380010955,195.57670710003003,196.57731380010955,up,1,0.47076559998095036,195.57670710003003,None,195.57670710003003,None,195.57670710003003,196.07667910004966,195.57670710003003,196.07667910004966,195.57670710003003,196.07667910004966,195.57670710003003,196.07667910004966,195.57670710003003,None,,,,,,,,,,,,,,,,,,,,,,,,,,,,,,,,,,,,,,,,,,11026,001,2024_Jan_10_1031,nback,2021.2.3,59.9150404395355,
0-back,instructions\back-0.png,conditions\0back-p.xlsx,instructions\0-BACK.png,"(15, 8)",practice,0,4,stim\gray.png,stim\gray.png,stim\gray.png,stim\yellow.png,down,1,0,1,0,0,0,0,0,0,18,18,18,,,,,,,,,,,,,,,,,,,,,,,,,,,197.0780267000664,198.0799175000284,197.0780267000664,198.0799175000284,197.0780267000664,198.0799175000284,197.0780267000664,198.0799175000284,down,1,0.2816793001256883,197.0780267000664,None,197.0780267000664,None,197.0780267000664,197.57997910003178,197.0780267000664,197.57997910003178,197.0780267000664,197.57997910003178,197.0780267000664,197.57997910003178,197.0780267000664,None,,,,,,,,,,,,,,,,,,,,,,,,,,,,,,,,,,,,,,,,,,11026,001,2024_Jan_10_1031,nback,2021.2.3,59.9150404395355,
0-back,instructions\back-0.png,conditions\0back-p.xlsx,instructions\0-BACK.png,"(15, 8)",practice,0,2,stim\gray.png,stim\yellow.png,stim\gray.png,stim\gray.png,left,1,0,1,0,0,0,0,0,0,19,19,19,,,,,,,,,,,,,,,,,,,,,,,,,,,198.58080839994363,199.58270999998786,198.58080839994363,199.58270999998786,198.58080839994363,199.58270999998786,198.58080839994363,199.58270999998786,left,1,0.28276349999941885,198.58080839994363,None,198.58080839994363,None,198.58080839994363,199.0809883000329,198.58080839994363,199.0809883000329,198.58080839994363,199.0809883000329,198.58080839994363,199.0809883000329,198.58080839994363,None,,,,,,,,,,,,,,,,,,,,,,,,,,,,,,,,,,,,,,,,,,11026,001,2024_Jan_10_1031,nback,2021.2.3,59.9150404395355,
0-back,instructions\back-0.png,conditions\0back-p.xlsx,instructions\0-BACK.png,"(15, 8)",,,,,,,,,1,0,1,0,0,0,0,0,,,,,,,,,,,,,,,,,,,,,,,,,,,,,,,,,,,,,,,,,,,,,,,,,,,,,,,,,,,,,,,,,,,,,,,,,,,,,,,,,,,,,,,,,,,,,,,,,11026,001,2024_Jan_10_1031,nback,2021.2.3,59.9150404395355,
1-back,instructions\back-1.png,conditions\1back-p.xlsx,instructions\1-BACK.png,"(25, 15)",practice,1,1,stim\yellow.png,stim\gray.png,stim\gray.png,stim\gray.png,None,1,0,1,0,0,1,1,1,0,0,0,0,,,,,,,,,,,,,,,,,200.23256899998523,None,space,2.2550919000059366,200.23256899998523,None,202.63649710011669,207.1435039001517,207.11105150007643,None,207.52681720000692,208.528796199942,207.52681720000692,208.528796199942,207.52681720000692,208.528796199942,207.52681720000692,208.528796199942,None,1,,207.52681720000692,None,207.52681720000692,None,207.52681720000692,208.02784959995188,207.52681720000692,208.02784959995188,207.52681720000692,208.02784959995188,207.52681720000692,208.02784959995188,207.52681720000692,None,,,,,,,,,,,,,,,,,,,,,,,,,,,,,,,,,,,,,,,,,,11026,001,2024_Jan_10_1031,nback,2021.2.3,59.9150404395355,
1-back,instructions\back-1.png,conditions\1back-p.xlsx,instructions\1-BACK.png,"(25, 15)",practice,1,2,stim\gray.png,stim\yellow.png,stim\gray.png,stim\gray.png,up,1,0,1,0,0,1,1,1,0,1,1,1,,,,,,,,,,,,,,,,,,,,,,,,,,,209.01218489999883,210.01455050008371,209.01218489999883,210.01455050008371,209.01218489999883,210.01455050008371,209.01218489999883,210.01455050008371,up,1,0.3635281000752002,209.01218489999883,None,209.01218489999883,None,209.01218489999883,209.5132520000916,209.01218489999883,209.5132520000916,209.01218489999883,209.5132520000916,209.01218489999883,209.5132520000916,209.01218489999883,None,,,,,,,,,,,,,,,,,,,,,,,,,,,,,,,,,,,,,,,,,,11026,001,2024_Jan_10_1031,nback,2021.2.3,59.9150404395355,
1-back,instructions\back-1.png,conditions\1back-p.xlsx,instructions\1-BACK.png,"(25, 15)",practice,1,3,stim\gray.png,stim\gray.png,stim\yellow.png,stim\gray.png,left,1,0,1,0,0,1,1,1,0,2,2,2,,,,,,,,,,,,,,,,,,,,,,,,,,,210.51473019993864,211.51626239996403,210.51473019993864,211.51626239996403,210.51473019993864,211.51626239996403,210.51473019993864,211.51626239996403,left,1,0.2684527998790145,210.51473019993864,None,210.51473019993864,None,210.51473019993864,211.01542720012367,210.51473019993864,211.01542720012367,210.51473019993864,211.01542720012367,210.51473019993864,211.01542720012367,210.51473019993864,None,,,,,,,,,,,,,,,,,,,,,,,,,,,,,,,,,,,,,,,,,,11026,001,2024_Jan_10_1031,nback,2021.2.3,59.9150404395355,
1-back,instructions\back-1.png,conditions\1back-p.xlsx,instructions\1-BACK.png,"(25, 15)",practice,1,4,stim\gray.png,stim\gray.png,stim\gray.png,stim\yellow.png,right,1,0,1,0,0,1,1,1,0,3,3,3,,,,,,,,,,,,,,,,,,,,,,,,,,,212.01686940016225,213.01909950003028,212.01686940016225,213.01909950003028,212.01686940016225,213.01909950003028,212.01686940016225,213.01909950003028,right,1,0.2464489999692887,212.01686940016225,None,212.01686940016225,None,212.01686940016225,212.51759930001572,212.01686940016225,212.51759930001572,212.01686940016225,212.51759930001572,212.01686940016225,212.51759930001572,212.01686940016225,None,,,,,,,,,,,,,,,,,,,,,,,,,,,,,,,,,,,,,,,,,,11026,001,2024_Jan_10_1031,nback,2021.2.3,59.9150404395355,
1-back,instructions\back-1.png,conditions\1back-p.xlsx,instructions\1-BACK.png,"(25, 15)",practice,1,2,stim\gray.png,stim\yellow.png,stim\gray.png,stim\gray.png,down,1,0,1,0,0,1,1,1,0,4,4,4,,,,,,,,,,,,,,,,,,,,,,,,,,,213.51918189995922,214.52180510014296,213.51918189995922,214.52180510014296,213.51918189995922,214.52180510014296,213.51918189995922,214.52180510014296,down,1,0.20025460002943873,213.51918189995922,None,213.51918189995922,None,213.51918189995922,214.02016990003176,213.51918189995922,214.02016990003176,213.51918189995922,214.02016990003176,213.51918189995922,214.02016990003176,213.51918189995922,None,,,,,,,,,,,,,,,,,,,,,,,,,,,,,,,,,,,,,,,,,,11026,001,2024_Jan_10_1031,nback,2021.2.3,59.9150404395355,
1-back,instructions\back-1.png,conditions\1back-p.xlsx,instructions\1-BACK.png,"(25, 15)",practice,1,1,stim\yellow.png,stim\gray.png,stim\gray.png,stim\gray.png,left,1,0,1,0,0,1,1,1,0,5,5,5,,,,,,,,,,,,,,,,,,,,,,,,,,,215.02130959997885,216.02336180000566,215.02130959997885,216.02336180000566,215.02130959997885,216.02336180000566,215.02130959997885,216.02336180000566,left,1,0.16266060015186667,215.02130959997885,None,215.02130959997885,None,215.02130959997885,215.5227216000203,215.02130959997885,215.5227216000203,215.02130959997885,215.5227216000203,215.02130959997885,215.5227216000203,215.02130959997885,None,,,,,,,,,,,,,,,,,,,,,,,,,,,,,,,,,,,,,,,,,,11026,001,2024_Jan_10_1031,nback,2021.2.3,59.9150404395355,
1-back,instructions\back-1.png,conditions\1back-p.xlsx,instructions\1-BACK.png,"(25, 15)",practice,1,4,stim\gray.png,stim\gray.png,stim\gray.png,stim\yellow.png,up,1,0,1,0,0,1,1,1,0,6,6,6,,,,,,,,,,,,,,,,,,,,,,,,,,,216.52368640014902,217.52552579995245,216.52368640014902,217.52552579995245,216.52368640014902,217.52552579995245,216.52368640014902,217.52552579995245,up,1,0.1796543998643756,216.52368640014902,None,216.52368640014902,None,216.52368640014902,217.0245058001019,216.52368640014902,217.0245058001019,216.52368640014902,217.0245058001019,216.52368640014902,217.0245058001019,216.52368640014902,None,,,,,,,,,,,,,,,,,,,,,,,,,,,,,,,,,,,,,,,,,,11026,001,2024_Jan_10_1031,nback,2021.2.3,59.9150404395355,
1-back,instructions\back-1.png,conditions\1back-p.xlsx,instructions\1-BACK.png,"(25, 15)",practice,1,3,stim\gray.png,stim\gray.png,stim\yellow.png,stim\gray.png,down,1,0,1,0,0,1,1,1,0,7,7,7,,,,,,,,,,,,,,,,,,,,,,,,,,,218.00900009996258,219.010931200115,218.00900009996258,219.010931200115,218.00900009996258,219.010931200115,218.00900009996258,219.010931200115,down,1,0.11859380011446774,218.00900009996258,None,218.00900009996258,None,218.00900009996258,218.50999390007928,218.00900009996258,218.50999390007928,218.00900009996258,218.50999390007928,218.00900009996258,218.50999390007928,218.00900009996258,None,,,,,,,,,,,,,,,,,,,,,,,,,,,,,,,,,,,,,,,,,,11026,001,2024_Jan_10_1031,nback,2021.2.3,59.9150404395355,
1-back,instructions\back-1.png,conditions\1back-p.xlsx,instructions\1-BACK.png,"(25, 15)",practice,1,3,stim\gray.png,stim\gray.png,stim\yellow.png,stim\gray.png,right,1,0,1,0,0,1,1,1,0,8,8,8,,,,,,,,,,,,,,,,,,,,,,,,,,,219.5114406000357,220.51283710007556,219.5114406000357,220.51283710007556,219.5114406000357,220.51283710007556,219.5114406000357,220.51283710007556,right,1,1.4559685999993235,219.5114406000357,None,219.5114406000357,None,219.5114406000357,220.01193800009787,219.5114406000357,220.01193800009787,219.5114406000357,220.01193800009787,219.5114406000357,220.01193800009787,219.5114406000357,None,,,,,,,,,,,,,,,,,,,,,,,,,,,,,,,,,,,,,,,,,,11026,001,2024_Jan_10_1031,nback,2021.2.3,59.9150404395355,
1-back,instructions\back-1.png,conditions\1back-p.xlsx,instructions\1-BACK.png,"(25, 15)",practice,1,4,stim\gray.png,stim\gray.png,stim\gray.png,stim\yellow.png,right,1,0,1,0,0,1,1,1,0,9,9,9,,,,,,,,,,,,,,,,,,,,,,,,,,,221.01427239994518,222.01528359996155,221.01427239994518,222.01528359996155,221.01427239994518,222.01528359996155,221.01427239994518,222.01528359996155,down,0,1.40902979997918,221.01427239994518,None,221.01427239994518,None,221.01427239994518,221.51442919997498,221.01427239994518,221.51442919997498,221.01427239994518,221.51442919997498,221.01427239994518,221.51442919997498,221.01427239994518,None,,,,,,,,,,,,,,,,,,,,,,,,,,,,,,,,,,,,,,,,,,11026,001,2024_Jan_10_1031,nback,2021.2.3,59.9150404395355,
1-back,instructions\back-1.png,conditions\1back-p.xlsx,instructions\1-BACK.png,"(25, 15)",practice,1,1,stim\yellow.png,stim\gray.png,stim\gray.png,stim\gray.png,down,1,0,1,0,0,1,1,1,0,10,10,10,,,,,,,,,,,,,,,,,,,,,,,,,,,222.51558200013824,223.51777460006997,222.51558200013824,223.51777460006997,222.51558200013824,223.51777460006997,222.51558200013824,223.51777460006997,None,0,,222.51558200013824,None,222.51558200013824,None,222.51558200013824,223.01687870011665,222.51558200013824,223.01687870011665,222.51558200013824,223.01687870011665,222.51558200013824,223.01687870011665,222.51558200013824,None,,,,,,,,,,,,,,,,,,,,,,,,,,,,,,,,,,,,,,,,,,11026,001,2024_Jan_10_1031,nback,2021.2.3,59.9150404395355,
1-back,instructions\back-1.png,conditions\1back-p.xlsx,instructions\1-BACK.png,"(25, 15)",practice,1,2,stim\gray.png,stim\yellow.png,stim\gray.png,stim\gray.png,up,1,0,1,0,0,1,1,1,0,11,11,11,,,,,,,,,,,,,,,,,,,,,,,,,,,224.01840019994415,225.0196508001536,224.01840019994415,225.0196508001536,224.01840019994415,225.0196508001536,224.01840019994415,225.0196508001536,up,1,0.8448183999862522,224.01840019994415,None,224.01840019994415,None,224.01840019994415,224.5188027000986,224.01840019994415,224.5188027000986,224.01840019994415,224.5188027000986,224.01840019994415,224.5188027000986,224.01840019994415,None,,,,,,,,,,,,,,,,,,,,,,,,,,,,,,,,,,,,,,,,,,11026,001,2024_Jan_10_1031,nback,2021.2.3,59.9150404395355,
1-back,instructions\back-1.png,conditions\1back-p.xlsx,instructions\1-BACK.png,"(25, 15)",practice,1,4,stim\gray.png,stim\gray.png,stim\gray.png,stim\yellow.png,left,1,0,1,0,0,1,1,1,0,12,12,12,,,,,,,,,,,,,,,,,,,,,,,,,,,225.52058460004628,226.52180099999532,225.52058460004628,226.52180099999532,225.52058460004628,226.52180099999532,225.52058460004628,226.52180099999532,left,1,0.438609299948439,225.52058460004628,None,225.52058460004628,None,225.52058460004628,226.02110170014203,225.52058460004628,226.02110170014203,225.52058460004628,226.02110170014203,225.52058460004628,226.02110170014203,225.52058460004628,None,,,,,,,,,,,,,,,,,,,,,,,,,,,,,,,,,,,,,,,,,,11026,001,2024_Jan_10_1031,nback,2021.2.3,59.9150404395355,
1-back,instructions\back-1.png,conditions\1back-p.xlsx,instructions\1-BACK.png,"(25, 15)",practice,1,3,stim\gray.png,stim\gray.png,stim\yellow.png,stim\gray.png,down,1,0,1,0,0,1,1,1,0,13,13,13,,,,,,,,,,,,,,,,,,,,,,,,,,,227.02243040013127,228.02479039994068,227.02243040013127,228.02479039994068,227.02243040013127,228.02479039994068,227.02243040013127,228.02479039994068,down,1,1.0168180000036955,227.02243040013127,None,227.02243040013127,None,227.02243040013127,227.52402939996682,227.02243040013127,227.52402939996682,227.02243040013127,227.52402939996682,227.02243040013127,227.52402939996682,227.02243040013127,None,,,,,,,,,,,,,,,,,,,,,,,,,,,,,,,,,,,,,,,,,,11026,001,2024_Jan_10_1031,nback,2021.2.3,59.9150404395355,
1-back,instructions\back-1.png,conditions\1back-p.xlsx,instructions\1-BACK.png,"(25, 15)",practice,1,1,stim\yellow.png,stim\gray.png,stim\gray.png,stim\gray.png,right,1,0,1,0,0,1,1,1,0,14,14,14,,,,,,,,,,,,,,,,,,,,,,,,,,,228.50796209997497,229.51023830007762,228.50796209997497,229.51023830007762,228.50796209997497,229.51023830007762,228.50796209997497,229.51023830007762,right,1,0.6274071000516415,228.50796209997497,None,228.50796209997497,None,228.50796209997497,229.00955249997787,228.50796209997497,229.00955249997787,228.50796209997497,229.00955249997787,228.50796209997497,229.00955249997787,228.50796209997497,None,,,,,,,,,,,,,,,,,,,,,,,,,,,,,,,,,,,,,,,,,,11026,001,2024_Jan_10_1031,nback,2021.2.3,59.9150404395355,
1-back,instructions\back-1.png,conditions\1back-p.xlsx,instructions\1-BACK.png,"(25, 15)",practice,1,2,stim\gray.png,stim\yellow.png,stim\gray.png,stim\gray.png,up,1,0,1,0,0,1,1,1,0,15,15,15,,,,,,,,,,,,,,,,,,,,,,,,,,,230.0102135001216,231.01163300010376,230.0102135001216,231.01163300010376,230.0102135001216,231.01163300010376,230.0102135001216,231.01163300010376,up,1,0.517125700134784,230.0102135001216,None,230.0102135001216,None,230.0102135001216,230.51122430013493,230.0102135001216,230.51122430013493,230.0102135001216,230.51122430013493,230.0102135001216,230.51122430013493,230.0102135001216,None,,,,,,,,,,,,,,,,,,,,,,,,,,,,,,,,,,,,,,,,,,11026,001,2024_Jan_10_1031,nback,2021.2.3,59.9150404395355,
1-back,instructions\back-1.png,conditions\1back-p.xlsx,instructions\1-BACK.png,"(25, 15)",practice,1,3,stim\gray.png,stim\gray.png,stim\yellow.png,stim\gray.png,left,1,0,1,0,0,1,1,1,0,16,16,16,,,,,,,,,,,,,,,,,,,,,,,,,,,231.51251150015742,232.514534200076,231.51251150015742,232.514534200076,231.51251150015742,232.514534200076,231.51251150015742,232.514534200076,left,1,0.2546887998469174,231.51251150015742,None,231.51251150015742,None,231.51251150015742,232.01364070014097,231.51251150015742,232.01364070014097,231.51251150015742,232.01364070014097,231.51251150015742,232.01364070014097,231.51251150015742,None,,,,,,,,,,,,,,,,,,,,,,,,,,,,,,,,,,,,,,,,,,11026,001,2024_Jan_10_1031,nback,2021.2.3,59.9150404395355,
1-back,instructions\back-1.png,conditions\1back-p.xlsx,instructions\1-BACK.png,"(25, 15)",practice,1,1,stim\yellow.png,stim\gray.png,stim\gray.png,stim\gray.png,right,1,0,1,0,0,1,1,1,0,17,17,17,,,,,,,,,,,,,,,,,,,,,,,,,,,233.0145904000383,234.01760240015574,233.0145904000383,234.01760240015574,233.0145904000383,234.01760240015574,233.0145904000383,234.01760240015574,right,1,0.28880019998177886,233.0145904000383,None,233.0145904000383,None,233.0145904000383,233.5153896000702,233.0145904000383,233.5153896000702,233.0145904000383,233.5153896000702,233.0145904000383,233.5153896000702,233.0145904000383,None,,,,,,,,,,,,,,,,,,,,,,,,,,,,,,,,,,,,,,,,,,11026,001,2024_Jan_10_1031,nback,2021.2.3,59.9150404395355,
1-back,instructions\back-1.png,conditions\1back-p.xlsx,instructions\1-BACK.png,"(25, 15)",practice,1,4,stim\gray.png,stim\gray.png,stim\gray.png,stim\yellow.png,up,1,0,1,0,0,1,1,1,0,18,18,18,,,,,,,,,,,,,,,,,,,,,,,,,,,234.5169474000577,235.51876839995384,234.5169474000577,235.51876839995384,234.5169474000577,235.51876839995384,234.5169474000577,235.51876839995384,up,1,0.40235999994911253,234.5169474000577,None,234.5169474000577,None,234.5169474000577,235.01761960005388,234.5169474000577,235.01761960005388,234.5169474000577,235.01761960005388,234.5169474000577,235.01761960005388,234.5169474000577,None,,,,,,,,,,,,,,,,,,,,,,,,,,,,,,,,,,,,,,,,,,11026,001,2024_Jan_10_1031,nback,2021.2.3,59.9150404395355,
1-back,instructions\back-1.png,conditions\1back-p.xlsx,instructions\1-BACK.png,"(25, 15)",practice,1,2,stim\gray.png,stim\yellow.png,stim\gray.png,stim\gray.png,down,1,0,1,0,0,1,1,1,0,19,19,19,,,,,,,,,,,,,,,,,,,,,,,,,,,236.01924160006456,237.02124799997546,236.01924160006456,237.02124799997546,236.01924160006456,237.02124799997546,236.01924160006456,237.02124799997546,down,1,0.6365124001167715,236.01924160006456,None,236.01924160006456,None,236.01924160006456,236.5199935999699,236.01924160006456,236.5199935999699,236.01924160006456,236.5199935999699,236.01924160006456,236.5199935999699,236.01924160006456,None,,,,,,,,,,,,,,,,,,,,,,,,,,,,,,,,,,,,,,,,,,11026,001,2024_Jan_10_1031,nback,2021.2.3,59.9150404395355,
1-back,instructions\back-1.png,conditions\1back-p.xlsx,instructions\1-BACK.png,"(25, 15)",,,,,,,,,1,0,1,0,0,1,1,1,,,,,,,,,,,,,,,,,,,,,,,,,,,,,,,,,,,,,,,,,,,,,,,,,,,,,,,,,,,,,,,,,,,,,,,,,,,,,,,,,,,,,,,,,,,,,,,,,11026,001,2024_Jan_10_1031,nback,2021.2.3,59.9150404395355,
2-back,instructions\back-2.png,conditions\2back-p.xlsx,instructions\2-BACK.png,"(25, 15)",practice,2,1,stim\yellow.png,stim\gray.png,stim\gray.png,stim\gray.png,None,1,0,1,0,0,2,2,2,0,0,0,0,,,,,,,,,,,,,,,,,237.6714242999442,None,space,5.456395100103691,237.6714242999442,None,243.27987920003943,247.7871231001336,247.75360980001278,None,248.17291500000283,249.1718890001066,248.17291500000283,249.1718890001066,248.17291500000283,249.1718890001066,248.17291500000283,249.1718890001066,None,1,,248.17291500000283,None,248.17291500000283,None,248.17291500000283,248.68790020002052,248.17291500000283,248.68790020002052,248.17291500000283,248.68790020002052,248.17291500000283,248.68790020002052,248.17291500000283,None,,,,,,,,,,,,,,,,,,,,,,,,,,,,,,,,,,,,,,,,,,11026,001,2024_Jan_10_1031,nback,2021.2.3,59.9150404395355,
2-back,instructions\back-2.png,conditions\2back-p.xlsx,instructions\2-BACK.png,"(25, 15)",practice,2,2,stim\gray.png,stim\yellow.png,stim\gray.png,stim\gray.png,None,1,0,1,0,0,2,2,2,0,1,1,1,,,,,,,,,,,,,,,,,,,,,,,,,,,249.6560764000751,250.65813190001063,249.6560764000751,250.65813190001063,249.6560764000751,250.65813190001063,249.6560764000751,250.65813190001063,None,1,,249.6560764000751,None,249.6560764000751,None,249.6560764000751,250.15712420013733,249.6560764000751,250.15712420013733,249.6560764000751,250.15712420013733,249.6560764000751,250.15712420013733,249.6560764000751,None,,,,,,,,,,,,,,,,,,,,,,,,,,,,,,,,,,,,,,,,,,11026,001,2024_Jan_10_1031,nback,2021.2.3,59.9150404395355,
2-back,instructions\back-2.png,conditions\2back-p.xlsx,instructions\2-BACK.png,"(25, 15)",practice,2,3,stim\gray.png,stim\gray.png,stim\yellow.png,stim\gray.png,up,1,0,1,0,0,2,2,2,0,2,2,2,,,,,,,,,,,,,,,,,,,,,,,,,,,251.1582158000674,252.16047570016235,251.1582158000674,252.16047570016235,251.1582158000674,252.16047570016235,251.1582158000674,252.16047570016235,up,1,0.5049405999016017,251.1582158000674,None,251.1582158000674,None,251.1582158000674,251.65972350002266,251.1582158000674,251.65972350002266,251.1582158000674,251.65972350002266,251.1582158000674,251.65972350002266,251.1582158000674,None,,,,,,,,,,,,,,,,,,,,,,,,,,,,,,,,,,,,,,,,,,11026,001,2024_Jan_10_1031,nback,2021.2.3,59.9150404395355,
2-back,instructions\back-2.png,conditions\2back-p.xlsx,instructions\2-BACK.png,"(25, 15)",practice,2,4,stim\gray.png,stim\gray.png,stim\gray.png,stim\yellow.png,left,1,0,1,0,0,2,2,2,0,3,3,3,,,,,,,,,,,,,,,,,,,,,,,,,,,252.66028319997713,253.66193290008232,252.66028319997713,253.66193290008232,252.66028319997713,253.66193290008232,252.66028319997713,253.66193290008232,right,0,1.0192650998942554,252.66028319997713,None,252.66028319997713,None,252.66028319997713,253.16122959996574,252.66028319997713,253.16122959996574,252.66028319997713,253.16122959996574,252.66028319997713,253.16122959996574,252.66028319997713,None,,,,,,,,,,,,,,,,,,,,,,,,,,,,,,,,,,,,,,,,,,11026,001,2024_Jan_10_1031,nback,2021.2.3,59.9150404395355,
2-back,instructions\back-2.png,conditions\2back-p.xlsx,instructions\2-BACK.png,"(25, 15)",practice,2,2,stim\gray.png,stim\yellow.png,stim\gray.png,stim\gray.png,right,1,0,1,0,0,2,2,2,0,4,4,4,,,,,,,,,,,,,,,,,,,,,,,,,,,254.16269770008512,255.16497869999148,254.16269770008512,255.16497869999148,254.16269770008512,255.16497869999148,254.16269770008512,255.16497869999148,left,0,1.4045470000710338,254.16269770008512,None,254.16269770008512,None,254.16269770008512,254.66321890009567,254.16269770008512,254.66321890009567,254.16269770008512,254.66321890009567,254.16269770008512,254.66321890009567,254.16269770008512,None,,,,,,,,,,,,,,,,,,,,,,,,,,,,,,,,,,,,,,,,,,11026,001,2024_Jan_10_1031,nback,2021.2.3,59.9150404395355,
2-back,instructions\back-2.png,conditions\2back-p.xlsx,instructions\2-BACK.png,"(25, 15)",practice,2,1,stim\yellow.png,stim\gray.png,stim\gray.png,stim\gray.png,down,1,0,1,0,0,2,2,2,0,5,5,5,,,,,,,,,,,,,,,,,,,,,,,,,,,255.6648721001111,256.6664051001426,255.6648721001111,256.6664051001426,255.6648721001111,256.6664051001426,255.6648721001111,256.6664051001426,up,0,1.1029733000323176,255.6648721001111,None,255.6648721001111,None,255.6648721001111,256.16548540000804,255.6648721001111,256.16548540000804,255.6648721001111,256.16548540000804,255.6648721001111,256.16548540000804,255.6648721001111,None,,,,,,,,,,,,,,,,,,,,,,,,,,,,,,,,,,,,,,,,,,11026,001,2024_Jan_10_1031,nback,2021.2.3,59.9150404395355,
2-back,instructions\back-2.png,conditions\2back-p.xlsx,instructions\2-BACK.png,"(25, 15)",practice,2,4,stim\gray.png,stim\gray.png,stim\gray.png,stim\yellow.png,left,1,0,1,0,0,2,2,2,0,6,6,6,,,,,,,,,,,,,,,,,,,,,,,,,,,257.1671204001177,258.1686660000123,257.1671204001177,258.1686660000123,257.1671204001177,258.1686660000123,257.1671204001177,258.1686660000123,left,1,1.2245257999747992,257.1671204001177,None,257.1671204001177,None,257.1671204001177,257.6691253001336,257.1671204001177,257.6691253001336,257.1671204001177,257.6691253001336,257.1671204001177,257.6691253001336,257.1671204001177,None,,,,,,,,,,,,,,,,,,,,,,,,,,,,,,,,,,,,,,,,,,11026,001,2024_Jan_10_1031,nback,2021.2.3,59.9150404395355,
2-back,instructions\back-2.png,conditions\2back-p.xlsx,instructions\2-BACK.png,"(25, 15)",practice,2,3,stim\gray.png,stim\gray.png,stim\yellow.png,stim\gray.png,up,1,0,1,0,0,2,2,2,0,7,7,7,,,,,,,,,,,,,,,,,,,,,,,,,,,258.65339790005237,259.65457390015945,258.65339790005237,259.65457390015945,258.65339790005237,259.65457390015945,258.65339790005237,259.65457390015945,None,0,,258.65339790005237,None,258.65339790005237,None,258.65339790005237,259.1535610000137,258.65339790005237,259.1535610000137,258.65339790005237,259.1535610000137,258.65339790005237,259.1535610000137,258.65339790005237,None,,,,,,,,,,,,,,,,,,,,,,,,,,,,,,,,,,,,,,,,,,11026,001,2024_Jan_10_1031,nback,2021.2.3,59.9150404395355,
2-back,instructions\back-2.png,conditions\2back-p.xlsx,instructions\2-BACK.png,"(25, 15)",practice,2,3,stim\gray.png,stim\gray.png,stim\yellow.png,stim\gray.png,down,1,0,1,0,0,2,2,2,0,8,8,8,,,,,,,,,,,,,,,,,,,,,,,,,,,260.154946600087,261.1566123999655,260.154946600087,261.1566123999655,260.154946600087,261.1566123999655,260.154946600087,261.1566123999655,None,0,,260.154946600087,None,260.154946600087,None,260.154946600087,260.6560945000965,260.154946600087,260.6560945000965,260.154946600087,260.6560945000965,260.154946600087,260.6560945000965,260.154946600087,None,,,,,,,,,,,,,,,,,,,,,,,,,,,,,,,,,,,,,,,,,,11026,001,2024_Jan_10_1031,nback,2021.2.3,59.9150404395355,
2-back,instructions\back-2.png,conditions\2back-p.xlsx,instructions\2-BACK.png,"(25, 15)",practice,2,4,stim\gray.png,stim\gray.png,stim\gray.png,stim\yellow.png,right,1,0,1,0,0,2,2,2,0,9,9,9,,,,,,,,,,,,,,,,,,,,,,,,,,,261.657007599948,262.6591879001353,261.657007599948,262.6591879001353,261.657007599948,262.6591879001353,261.657007599948,262.6591879001353,right,1,0.8702670999336988,261.657007599948,None,261.657007599948,None,261.657007599948,262.1582246001344,261.657007599948,262.1582246001344,261.657007599948,262.1582246001344,261.657007599948,262.1582246001344,261.657007599948,None,,,,,,,,,,,,,,,,,,,,,,,,,,,,,,,,,,,,,,,,,,11026,001,2024_Jan_10_1031,nback,2021.2.3,59.9150404395355,
2-back,instructions\back-2.png,conditions\2back-p.xlsx,instructions\2-BACK.png,"(25, 15)",practice,2,1,stim\yellow.png,stim\gray.png,stim\gray.png,stim\gray.png,right,1,0,1,0,0,2,2,2,0,10,10,10,,,,,,,,,,,,,,,,,,,,,,,,,,,263.1592723999638,264.16086239996366,263.1592723999638,264.16086239996366,263.1592723999638,264.16086239996366,263.1592723999638,264.16086239996366,right,1,0.576084200059995,263.1592723999638,None,263.1592723999638,None,263.1592723999638,263.66051129996777,263.1592723999638,263.66051129996777,263.1592723999638,263.66051129996777,263.1592723999638,263.66051129996777,263.1592723999638,None,,,,,,,,,,,,,,,,,,,,,,,,,,,,,,,,,,,,,,,,,,11026,001,2024_Jan_10_1031,nback,2021.2.3,59.9150404395355,
2-back,instructions\back-2.png,conditions\2back-p.xlsx,instructions\2-BACK.png,"(25, 15)",practice,2,2,stim\gray.png,stim\yellow.png,stim\gray.png,stim\gray.png,down,1,0,1,0,0,2,2,2,0,11,11,11,,,,,,,,,,,,,,,,,,,,,,,,,,,264.6616799000185,265.66306339995936,264.6616799000185,265.66306339995936,264.6616799000185,265.66306339995936,264.6616799000185,265.66306339995936,down,1,0.36965989996679127,264.6616799000185,None,264.6616799000185,None,264.6616799000185,265.1623410000466,264.6616799000185,265.1623410000466,264.6616799000185,265.1623410000466,264.6616799000185,265.1623410000466,264.6616799000185,None,,,,,,,,,,,,,,,,,,,,,,,,,,,,,,,,,,,,,,,,,,11026,001,2024_Jan_10_1031,nback,2021.2.3,59.9150404395355,
2-back,instructions\back-2.png,conditions\2back-p.xlsx,instructions\2-BACK.png,"(25, 15)",practice,2,4,stim\gray.png,stim\gray.png,stim\gray.png,stim\yellow.png,up,1,0,1,0,0,2,2,2,0,12,12,12,,,,,,,,,,,,,,,,,,,,,,,,,,,266.1637979000807,267.1665277001448,266.1637979000807,267.1665277001448,266.1637979000807,267.1665277001448,266.1637979000807,267.1665277001448,up,1,1.1554860998876393,266.1637979000807,None,266.1637979000807,None,266.1637979000807,266.6651052001398,266.1637979000807,266.6651052001398,266.1637979000807,266.6651052001398,266.1637979000807,266.6651052001398,266.1637979000807,None,,,,,,,,,,,,,,,,,,,,,,,,,,,,,,,,,,,,,,,,,,11026,001,2024_Jan_10_1031,nback,2021.2.3,59.9150404395355,
2-back,instructions\back-2.png,conditions\2back-p.xlsx,instructions\2-BACK.png,"(25, 15)",practice,2,3,stim\gray.png,stim\gray.png,stim\yellow.png,stim\gray.png,left,1,0,1,0,0,2,2,2,0,13,13,13,,,,,,,,,,,,,,,,,,,,,,,,,,,267.6660025001038,268.66748900013044,267.6660025001038,268.66748900013044,267.6660025001038,268.66748900013044,267.6660025001038,268.66748900013044,left,1,0.8532712999731302,267.6660025001038,None,267.6660025001038,None,267.6660025001038,268.16768459999,267.6660025001038,268.16768459999,267.6660025001038,268.16768459999,267.6660025001038,268.16768459999,267.6660025001038,None,,,,,,,,,,,,,,,,,,,,,,,,,,,,,,,,,,,,,,,,,,11026,001,2024_Jan_10_1031,nback,2021.2.3,59.9150404395355,
2-back,instructions\back-2.png,conditions\2back-p.xlsx,instructions\2-BACK.png,"(25, 15)",practice,2,1,stim\yellow.png,stim\gray.png,stim\gray.png,stim\gray.png,down,1,0,1,0,0,2,2,2,0,14,14,14,,,,,,,,,,,,,,,,,,,,,,,,,,,269.15145290014334,270.1536584000569,269.15145290014334,270.1536584000569,269.15145290014334,270.1536584000569,269.15145290014334,270.1536584000569,down,1,0.5358461998403072,269.15145290014334,None,269.15145290014334,None,269.15145290014334,269.652315299958,269.15145290014334,269.652315299958,269.15145290014334,269.652315299958,269.15145290014334,269.652315299958,269.15145290014334,None,,,,,,,,,,,,,,,,,,,,,,,,,,,,,,,,,,,,,,,,,,11026,001,2024_Jan_10_1031,nback,2021.2.3,59.9150404395355,
2-back,instructions\back-2.png,conditions\2back-p.xlsx,instructions\2-BACK.png,"(25, 15)",practice,2,2,stim\gray.png,stim\yellow.png,stim\gray.png,stim\gray.png,right,1,0,1,0,0,2,2,2,0,15,15,15,,,,,,,,,,,,,,,,,,,,,,,,,,,270.6543827999849,271.6553954000119,270.6543827999849,271.6553954000119,270.6543827999849,271.6553954000119,270.6543827999849,271.6553954000119,None,0,,270.6543827999849,None,270.6543827999849,None,270.6543827999849,271.154676400125,270.6543827999849,271.154676400125,270.6543827999849,271.154676400125,270.6543827999849,271.154676400125,270.6543827999849,None,,,,,,,,,,,,,,,,,,,,,,,,,,,,,,,,,,,,,,,,,,11026,001,2024_Jan_10_1031,nback,2021.2.3,59.9150404395355,
2-back,instructions\back-2.png,conditions\2back-p.xlsx,instructions\2-BACK.png,"(25, 15)",practice,2,3,stim\gray.png,stim\gray.png,stim\yellow.png,stim\gray.png,up,1,0,1,0,0,2,2,2,0,16,16,16,,,,,,,,,,,,,,,,,,,,,,,,,,,272.1561251000967,273.1577370001469,272.1561251000967,273.1577370001469,272.1561251000967,273.1577370001469,272.1561251000967,273.1577370001469,None,0,,272.1561251000967,None,272.1561251000967,None,272.1561251000967,272.6566203001421,272.1561251000967,272.6566203001421,272.1561251000967,272.6566203001421,272.1561251000967,272.6566203001421,272.1561251000967,None,,,,,,,,,,,,,,,,,,,,,,,,,,,,,,,,,,,,,,,,,,11026,001,2024_Jan_10_1031,nback,2021.2.3,59.9150404395355,
2-back,instructions\back-2.png,conditions\2back-p.xlsx,instructions\2-BACK.png,"(25, 15)",practice,2,1,stim\yellow.png,stim\gray.png,stim\gray.png,stim\gray.png,left,1,0,1,0,0,2,2,2,0,17,17,17,,,,,,,,,,,,,,,,,,,,,,,,,,,273.6582376000006,274.66056130011566,273.6582376000006,274.66056130011566,273.6582376000006,274.66056130011566,273.6582376000006,274.66056130011566,left,1,0.14105219999328256,273.6582376000006,None,273.6582376000006,None,273.6582376000006,274.1590909999795,273.6582376000006,274.1590909999795,273.6582376000006,274.1590909999795,273.6582376000006,274.1590909999795,273.6582376000006,None,,,,,,,,,,,,,,,,,,,,,,,,,,,,,,,,,,,,,,,,,,11026,001,2024_Jan_10_1031,nback,2021.2.3,59.9150404395355,
2-back,instructions\back-2.png,conditions\2back-p.xlsx,instructions\2-BACK.png,"(25, 15)",practice,2,4,stim\gray.png,stim\gray.png,stim\gray.png,stim\yellow.png,right,1,0,1,0,0,2,2,2,0,18,18,18,,,,,,,,,,,,,,,,,,,,,,,,,,,275.1608937999699,276.16239820001647,275.1608937999699,276.16239820001647,275.1608937999699,276.16239820001647,275.1608937999699,276.16239820001647,right,1,0.25439839996397495,275.1608937999699,None,275.1608937999699,None,275.1608937999699,275.6611848999746,275.1608937999699,275.6611848999746,275.1608937999699,275.6611848999746,275.1608937999699,275.6611848999746,275.1608937999699,None,,,,,,,,,,,,,,,,,,,,,,,,,,,,,,,,,,,,,,,,,,11026,001,2024_Jan_10_1031,nback,2021.2.3,59.9150404395355,
2-back,instructions\back-2.png,conditions\2back-p.xlsx,instructions\2-BACK.png,"(25, 15)",practice,2,2,stim\gray.png,stim\yellow.png,stim\gray.png,stim\gray.png,up,1,0,1,0,0,2,2,2,0,19,19,19,,,,,,,,,,,,,,,,,,,,,,,,,,,276.662719800137,277.6655494000297,276.662719800137,277.6655494000297,276.662719800137,277.6655494000297,276.662719800137,277.6655494000297,left,0,1.2725112999323756,276.662719800137,None,276.662719800137,None,276.662719800137,277.16426630015485,276.662719800137,277.16426630015485,276.662719800137,277.16426630015485,276.662719800137,277.16426630015485,276.662719800137,None,,,,,,,,,,,,,,,,,,,,,,,,,,,,,,,,,,,,,,,,,,11026,001,2024_Jan_10_1031,nback,2021.2.3,59.9150404395355,
2-back,instructions\back-2.png,conditions\2back-p.xlsx,instructions\2-BACK.png,"(25, 15)",,,,,,,,,1,0,1,0,0,2,2,2,,,,,,,,,,,,,,,,,,,,,,,,,,,,,,,,,,,,,,,,,,,,,,,,,,,,,,,,,,,,,,,,,,,,,,,,,,,,,,,,,,,,,,,,,,,,,,,,,11026,001,2024_Jan_10_1031,nback,2021.2.3,59.9150404395355,
,,,,,,,,,,,,,1,0,1,0,,,,,,,,,,,,,,,,,,,,,,,,,,,,,,,,,,,,,,,,,,,,,,,,,,,,,,,,,,,,278.164846500149,None,space,14.026755899889395,278.164846500149,None,,,,,,,,,,,,,,,,,,,,,,,,,,,,,,,,,,,,11026,001,2024_Jan_10_1031,nback,2021.2.3,59.9150404395355,
,,,,,,,,,,,,,,,,,,,,,,,,,,,,,,,,,,,,,,,,,,,,,,,,,,,,,,,,,,,,,,,,,,,,,,,,,,,,,,,,,,292.21922309999354,None,space,31.7242985998746,292.21922309999354,None,,,,,,,,,,,,,,,,,,,,,,,,,,,,,,11026,001,2024_Jan_10_1031,nback,2021.2.3,59.9150404395355,
1-back,instructions\back-1.png,conditions\11back-e.xlsx,,,experiment,1,3,stim\gray.png,stim\gray.png,stim\yellow.png,stim\gray.png,None,,,,,,,,,,,,,0,0,0,5,0,0,0,0,,,,,,,,,,,,,,,324.1330001000315,328.6403503001202,328.59037380013615,None,,,,,,,,,,,,,,,,,,,,,,,,,,,,,,,,,,,,,,None,1,328.9900605001021,None,328.9900605001021,None,328.9900605001021,329.992117700167,328.9900605001021,329.992117700167,328.9900605001021,329.992117700167,328.9900605001021,329.992117700167,328.9900605001021,329.49108750000596,328.9900605001021,329.49108750000596,328.9900605001021,329.49108750000596,328.9900605001021,329.49108750000596,328.9900605001021,None,,,,,,11026,001,2024_Jan_10_1031,nback,2021.2.3,59.9150404395355,
1-back,instructions\back-1.png,conditions\11back-e.xlsx,,,experiment,1,1,stim\yellow.png,stim\gray.png,stim\gray.png,stim\gray.png,right,,,,,,,,,,,,,0,0,0,5,0,1,1,1,,,,,,,,,,,,,,,,,,,,,,,,,,,,,,,,,,,,,,,,,,,,,,,,,,,,,,,,left,0,330.475846900139,None,330.475846900139,None,330.475846900139,331.4779823999852,330.475846900139,331.4779823999852,330.475846900139,331.4779823999852,330.475846900139,331.4779823999852,330.475846900139,330.9764052000828,330.475846900139,330.9764052000828,330.475846900139,330.9764052000828,330.475846900139,330.9764052000828,330.475846900139,None,0.2754842999856919,,,,,11026,001,2024_Jan_10_1031,nback,2021.2.3,59.9150404395355,
1-back,instructions\back-1.png,conditions\11back-e.xlsx,,,experiment,1,4,stim\gray.png,stim\gray.png,stim\gray.png,stim\yellow.png,up,,,,,,,,,,,,,0,0,0,5,0,2,2,2,,,,,,,,,,,,,,,,,,,,,,,,,,,,,,,,,,,,,,,,,,,,,,,,,,,,,,,,up,1,331.9779676999897,None,331.9779676999897,None,331.9779676999897,332.9793978999369,331.9779676999897,332.9793978999369,331.9779676999897,332.9793978999369,331.9779676999897,332.9793978999369,331.9779676999897,332.47866789996624,331.9779676999897,332.47866789996624,331.9779676999897,332.47866789996624,331.9779676999897,332.47866789996624,331.9779676999897,None,0.02949610003270209,,,,,11026,001,2024_Jan_10_1031,nback,2021.2.3,59.9150404395355,
1-back,instructions\back-1.png,conditions\11back-e.xlsx,,,experiment,1,2,stim\gray.png,stim\yellow.png,stim\gray.png,stim\gray.png,down,,,,,,,,,,,,,0,0,0,5,0,3,3,3,,,,,,,,,,,,,,,,,,,,,,,,,,,,,,,,,,,,,,,,,,,,,,,,,,,,,,,,down,1,333.4803687001113,None,333.4803687001113,None,333.4803687001113,334.48163289995864,333.4803687001113,334.48163289995864,333.4803687001113,334.48163289995864,333.4803687001113,334.48163289995864,333.4803687001113,333.9812602000311,333.4803687001113,333.9812602000311,333.4803687001113,333.9812602000311,333.4803687001113,333.9812602000311,333.4803687001113,None,0.24728350015357137,,,,,11026,001,2024_Jan_10_1031,nback,2021.2.3,59.9150404395355,
1-back,instructions\back-1.png,conditions\11back-e.xlsx,,,experiment,1,1,stim\yellow.png,stim\gray.png,stim\gray.png,stim\gray.png,left,,,,,,,,,,,,,0,0,0,5,0,4,4,4,,,,,,,,,,,,,,,,,,,,,,,,,,,,,,,,,,,,,,,,,,,,,,,,,,,,,,,,left,1,334.983384600142,None,334.983384600142,None,334.983384600142,335.9844392000232,334.983384600142,335.9844392000232,334.983384600142,335.9844392000232,334.983384600142,335.9844392000232,334.983384600142,335.4832601000089,334.983384600142,335.4832601000089,334.983384600142,335.4832601000089,334.983384600142,335.4832601000089,334.983384600142,None,0.25619250000454485,,,,,11026,001,2024_Jan_10_1031,nback,2021.2.3,59.9150404395355,
1-back,instructions\back-1.png,conditions\11back-e.xlsx,,,experiment,1,2,stim\gray.png,stim\yellow.png,stim\gray.png,stim\gray.png,up,,,,,,,,,,,,,0,0,0,5,0,5,5,5,,,,,,,,,,,,,,,,,,,,,,,,,,,,,,,,,,,,,,,,,,,,,,,,,,,,,,,,up,1,336.4844839000143,None,336.4844839000143,None,336.4844839000143,337.48666510009207,336.4844839000143,337.48666510009207,336.4844839000143,337.48666510009207,336.4844839000143,337.48666510009207,336.4844839000143,336.985522700008,336.4844839000143,336.985522700008,336.4844839000143,336.985522700008,336.4844839000143,336.985522700008,336.4844839000143,None,0.322965000057593,,,,,11026,001,2024_Jan_10_1031,nback,2021.2.3,59.9150404395355,
1-back,instructions\back-1.png,conditions\11back-e.xlsx,,,experiment,1,3,stim\gray.png,stim\gray.png,stim\yellow.png,stim\gray.png,left,,,,,,,,,,,,,0,0,0,5,0,6,6,6,,,,,,,,,,,,,,,,,,,,,,,,,,,,,,,,,,,,,,,,,,,,,,,,,,,,,,,,left,1,337.97021090006456,None,337.97021090006456,None,337.97021090006456,338.9717686001677,337.97021090006456,338.9717686001677,337.97021090006456,338.9717686001677,337.97021090006456,338.9717686001677,337.97021090006456,338.4710530999582,337.97021090006456,338.4710530999582,337.97021090006456,338.4710530999582,337.97021090006456,338.4710530999582,337.97021090006456,None,0.22148870001547039,,,,,11026,001,2024_Jan_10_1031,nback,2021.2.3,59.9150404395355,
1-back,instructions\back-1.png,conditions\11back-e.xlsx,,,experiment,1,4,stim\gray.png,stim\gray.png,stim\gray.png,stim\yellow.png,right,,,,,,,,,,,,,0,0,0,5,0,7,7,7,,,,,,,,,,,,,,,,,,,,,,,,,,,,,,,,,,,,,,,,,,,,,,,,,,,,,,,,right,1,339.47243420011364,None,339.47243420011364,None,339.47243420011364,340.47406080015935,339.47243420011364,340.47406080015935,339.47243420011364,340.47406080015935,339.47243420011364,340.47406080015935,339.47243420011364,339.9733792000916,339.47243420011364,339.9733792000916,339.47243420011364,339.9733792000916,339.47243420011364,339.9733792000916,339.47243420011364,None,0.30369250010699034,,,,,11026,001,2024_Jan_10_1031,nback,2021.2.3,59.9150404395355,
1-back,instructions\back-1.png,conditions\11back-e.xlsx,,,experiment,1,4,stim\gray.png,stim\gray.png,stim\gray.png,stim\yellow.png,down,,,,,,,,,,,,,0,0,0,5,0,8,8,8,,,,,,,,,,,,,,,,,,,,,,,,,,,,,,,,,,,,,,,,,,,,,,,,,,,,,,,,down,1,340.9746336999815,None,340.9746336999815,None,340.9746336999815,341.9760296000168,340.9746336999815,341.9760296000168,340.9746336999815,341.9760296000168,340.9746336999815,341.9760296000168,340.9746336999815,341.47591640008613,340.9746336999815,341.47591640008613,340.9746336999815,341.47591640008613,340.9746336999815,341.47591640008613,340.9746336999815,None,0.21747040003538132,,,,,11026,001,2024_Jan_10_1031,nback,2021.2.3,59.9150404395355,
1-back,instructions\back-1.png,conditions\11back-e.xlsx,,,experiment,1,3,stim\gray.png,stim\gray.png,stim\yellow.png,stim\gray.png,down,,,,,,,,,,,,,0,0,0,5,0,9,9,9,,,,,,,,,,,,,,,,,,,,,,,,,,,,,,,,,,,,,,,,,,,,,,,,,,,,,,,,down,1,342.47684150002897,None,342.47684150002897,None,342.47684150002897,343.478447600035,342.47684150002897,343.478447600035,342.47684150002897,343.478447600035,342.47684150002897,343.478447600035,342.47684150002897,342.9778416999616,342.47684150002897,342.9778416999616,342.47684150002897,342.9778416999616,342.47684150002897,342.9778416999616,342.47684150002897,None,0.2510450000409037,,,,,11026,001,2024_Jan_10_1031,nback,2021.2.3,59.9150404395355,
1-back,instructions\back-1.png,conditions\11back-e.xlsx,,,experiment,1,1,stim\yellow.png,stim\gray.png,stim\gray.png,stim\gray.png,right,,,,,,,,,,,,,0,0,0,5,0,10,10,10,,,,,,,,,,,,,,,,,,,,,,,,,,,,,,,,,,,,,,,,,,,,,,,,,,,,,,,,right,1,343.9790978000965,None,343.9790978000965,None,343.9790978000965,344.9812199000735,343.9790978000965,344.9812199000735,343.9790978000965,344.9812199000735,343.9790978000965,344.9812199000735,343.9790978000965,344.48005000012927,343.9790978000965,344.48005000012927,343.9790978000965,344.48005000012927,343.9790978000965,344.48005000012927,343.9790978000965,None,0.2047412998508662,,,,,11026,001,2024_Jan_10_1031,nback,2021.2.3,59.9150404395355,
1-back,instructions\back-1.png,conditions\11back-e.xlsx,,,experiment,1,2,stim\gray.png,stim\yellow.png,stim\gray.png,stim\gray.png,up,,,,,,,,,,,,,0,0,0,5,0,11,11,11,,,,,,,,,,,,,,,,,,,,,,,,,,,,,,,,,,,,,,,,,,,,,,,,,,,,,,,,up,1,345.4812124001328,None,345.4812124001328,None,345.4812124001328,346.4829135001637,345.4812124001328,346.4829135001637,345.4812124001328,346.4829135001637,345.4812124001328,346.4829135001637,345.4812124001328,345.982247200096,345.4812124001328,345.982247200096,345.4812124001328,345.982247200096,345.4812124001328,345.982247200096,345.4812124001328,None,0.22212609997950494,,,,,11026,001,2024_Jan_10_1031,nback,2021.2.3,59.9150404395355,
1-back,instructions\back-1.png,conditions\11back-e.xlsx,,,experiment,1,3,stim\gray.png,stim\gray.png,stim\yellow.png,stim\gray.png,left,,,,,,,,,,,,,0,0,0,5,0,12,12,12,,,,,,,,,,,,,,,,,,,,,,,,,,,,,,,,,,,,,,,,,,,,,,,,,,,,,,,,left,1,346.98426850000396,None,346.98426850000396,None,346.98426850000396,347.9850260000676,346.98426850000396,347.9850260000676,346.98426850000396,347.9850260000676,346.98426850000396,347.9850260000676,346.98426850000396,347.48424439993687,346.98426850000396,347.48424439993687,346.98426850000396,347.48424439993687,346.98426850000396,347.48424439993687,346.98426850000396,None,0.2316238998901099,,,,,11026,001,2024_Jan_10_1031,nback,2021.2.3,59.9150404395355,
1-back,instructions\back-1.png,conditions\11back-e.xlsx,,,experiment,1,4,stim\gray.png,stim\gray.png,stim\gray.png,stim\yellow.png,right,,,,,,,,,,,,,0,0,0,5,0,13,13,13,,,,,,,,,,,,,,,,,,,,,,,,,,,,,,,,,,,,,,,,,,,,,,,,,,,,,,,,right,1,348.48628300009295,None,348.48628300009295,None,348.48628300009295,349.4870705001522,348.48628300009295,349.4870705001522,348.48628300009295,349.4870705001522,348.48628300009295,349.4870705001522,348.48628300009295,348.98742270004004,348.48628300009295,348.98742270004004,348.48628300009295,348.98742270004004,348.48628300009295,348.98742270004004,348.48628300009295,None,0.3291403001639992,,,,,11026,001,2024_Jan_10_1031,nback,2021.2.3,59.9150404395355,
1-back,instructions\back-1.png,conditions\11back-e.xlsx,,,experiment,1,1,stim\yellow.png,stim\gray.png,stim\gray.png,stim\gray.png,down,,,,,,,,,,,,,0,0,0,5,0,14,14,14,,,,,,,,,,,,,,,,,,,,,,,,,,,,,,,,,,,,,,,,,,,,,,,,,,,,,,,,down,1,349.9712511000689,None,349.9712511000689,None,349.9712511000689,350.97370790014975,349.9712511000689,350.97370790014975,349.9712511000689,350.97370790014975,349.9712511000689,350.97370790014975,349.9712511000689,350.4723668000661,349.9712511000689,350.4723668000661,349.9712511000689,350.4723668000661,349.9712511000689,350.4723668000661,349.9712511000689,None,0.23687279992736876,,,,,11026,001,2024_Jan_10_1031,nback,2021.2.3,59.9150404395355,
