backseq,backinstr,backfile,instruction,size_in,Trialtype,back,number,P1,P2,P3,P4,corrAns,trials_practice.thisRepN,trials_practice.thisTrialN,trials_practice.thisN,trials_practice.thisIndex,trials.thisRepN,trials.thisTrialN,trials.thisN,trials.thisIndex,trials_3.thisRepN,trials_3.thisTrialN,trials_3.thisN,trials_3.thisIndex,trials_2.thisRepN,trials_2.thisTrialN,trials_2.thisN,trials_2.thisIndex,trials_4.thisRepN,trials_4.thisTrialN,trials_4.thisN,trials_4.thisIndex,image.started,image.stopped,image_2.started,image_2.stopped,key_resp.keys,key_resp.rt,key_resp.started,key_resp.stopped,image_3.started,image_3.stopped,key_resp_2.keys,key_resp_2.rt,key_resp_2.started,key_resp_2.stopped,image_4.started,image_4.stopped,text.started,text.stopped,H1.started,H1.stopped,H2.started,H2.stopped,H3.started,H3.stopped,H4.started,H4.stopped,key_resp_3.keys,key_resp_3.corr,key_resp_3.rt,key_resp_3.started,key_resp_3.stopped,text_4.started,text_4.stopped,F1.started,F1.stopped,F2.started,F2.stopped,F3.started,F3.stopped,F4.started,F4.stopped,image_7.started,image_7.stopped,text_5.started,text_5.stopped,key_resp_6.keys,key_resp_6.rt,key_resp_6.started,key_resp_6.stopped,image_5.started,image_5.stopped,key_resp_4.keys,key_resp_4.rt,key_resp_4.started,key_resp_4.stopped,key_resp_5.keys,key_resp_5.corr,key_resp_5.started,key_resp_5.stopped,text_3.started,text_3.stopped,H1_2.started,H1_2.stopped,H2_2.started,H2_2.stopped,H3_2.started,H3_2.stopped,H4_2.started,H4_2.stopped,F1_2.started,F1_2.stopped,F2_2.started,F2_2.stopped,F3_2.started,F3_2.stopped,F4_2.started,F4_2.stopped,image_8.started,image_8.stopped,key_resp_5.rt,text_2.started,text_2.stopped,image_6.started,image_6.stopped,participant,session,date,expName,psychopyVersion,frameRate,
,,,,,,,,,,,,,,,,,,,,,,,,,,,,,,,,,11.028288300032727,None,11.979741199989803,None,space,25.865424999967217,11.979741199989803,None,,,,,,,,,,,,,,,,,,,,,,,,,,,,,,,,,,,,,,,,,,,,,,,,,,,,,,,,,,,,,,,,,,,,,,,,,,,,,11023,001,2024_Jan_07_1035,nback,2021.2.3,59.99473249222061,
0-back,instructions\back-0.png,conditions\0back-p.xlsx,instructions\0-BACK.png,"(15, 8)",practice,0,1,stim\yellow.png,stim\gray.png,stim\gray.png,stim\gray.png,up,0,0,0,0,0,0,0,0,0,0,0,0,,,,,,,,,,,,,,,,,37.91815939999651,None,space,113.27091420011129,37.91815939999651,None,151.36960780003574,155.8789376000641,155.82711239997298,None,156.2435475999955,157.24605610000435,156.2435475999955,157.24605610000435,156.2435475999955,157.24605610000435,156.2435475999955,157.24605610000435,up,1,0.562113800086081,156.2435475999955,None,156.2435475999955,None,156.2435475999955,156.7452105000848,156.2435475999955,156.7452105000848,156.2435475999955,156.7452105000848,156.2435475999955,156.7452105000848,156.2435475999955,None,,,,,,,,,,,,,,,,,,,,,,,,,,,,,,,,,,,,,,,,,,11023,001,2024_Jan_07_1035,nback,2021.2.3,59.99473249222061,
0-back,instructions\back-0.png,conditions\0back-p.xlsx,instructions\0-BACK.png,"(15, 8)",practice,0,2,stim\gray.png,stim\yellow.png,stim\gray.png,stim\gray.png,left,0,0,0,0,0,0,0,0,0,1,1,1,,,,,,,,,,,,,,,,,,,,,,,,,,,157.72862369997893,158.73129770008381,157.72862369997893,158.73129770008381,157.72862369997893,158.73129770008381,157.72862369997893,158.73129770008381,left,1,0.48498469998594373,157.72862369997893,None,157.72862369997893,None,157.72862369997893,158.22975360008422,157.72862369997893,158.22975360008422,157.72862369997893,158.22975360008422,157.72862369997893,158.22975360008422,157.72862369997893,None,,,,,,,,,,,,,,,,,,,,,,,,,,,,,,,,,,,,,,,,,,11023,001,2024_Jan_07_1035,nback,2021.2.3,59.99473249222061,
0-back,instructions\back-0.png,conditions\0back-p.xlsx,instructions\0-BACK.png,"(15, 8)",practice,0,3,stim\gray.png,stim\gray.png,stim\yellow.png,stim\gray.png,right,0,0,0,0,0,0,0,0,0,2,2,2,,,,,,,,,,,,,,,,,,,,,,,,,,,159.2312897000229,160.23379900003783,159.2312897000229,160.23379900003783,159.2312897000229,160.23379900003783,159.2312897000229,160.23379900003783,right,1,0.446141800028272,159.2312897000229,None,159.2312897000229,None,159.2312897000229,159.7324576000683,159.2312897000229,159.7324576000683,159.2312897000229,159.7324576000683,159.2312897000229,159.7324576000683,159.2312897000229,None,,,,,,,,,,,,,,,,,,,,,,,,,,,,,,,,,,,,,,,,,,11023,001,2024_Jan_07_1035,nback,2021.2.3,59.99473249222061,
0-back,instructions\back-0.png,conditions\0back-p.xlsx,instructions\0-BACK.png,"(15, 8)",practice,0,4,stim\gray.png,stim\gray.png,stim\gray.png,stim\yellow.png,down,0,0,0,0,0,0,0,0,0,3,3,3,,,,,,,,,,,,,,,,,,,,,,,,,,,160.73355260002427,161.7353998000035,160.73355260002427,161.7353998000035,160.73355260002427,161.7353998000035,160.73355260002427,161.7353998000035,down,1,0.5593970000045374,160.73355260002427,None,160.73355260002427,None,160.73355260002427,161.23469990002923,160.73355260002427,161.23469990002923,160.73355260002427,161.23469990002923,160.73355260002427,161.23469990002923,160.73355260002427,None,,,,,,,,,,,,,,,,,,,,,,,,,,,,,,,,,,,,,,,,,,11023,001,2024_Jan_07_1035,nback,2021.2.3,59.99473249222061,
0-back,instructions\back-0.png,conditions\0back-p.xlsx,instructions\0-BACK.png,"(15, 8)",practice,0,2,stim\gray.png,stim\yellow.png,stim\gray.png,stim\gray.png,left,0,0,0,0,0,0,0,0,0,4,4,4,,,,,,,,,,,,,,,,,,,,,,,,,,,162.2356050000526,163.23793760000262,162.2356050000526,163.23793760000262,162.2356050000526,163.23793760000262,162.2356050000526,163.23793760000262,left,1,0.32942670001648366,162.2356050000526,None,162.2356050000526,None,162.2356050000526,162.7374149999814,162.2356050000526,162.7374149999814,162.2356050000526,162.7374149999814,162.2356050000526,162.7374149999814,162.2356050000526,None,,,,,,,,,,,,,,,,,,,,,,,,,,,,,,,,,,,,,,,,,,11023,001,2024_Jan_07_1035,nback,2021.2.3,59.99473249222061,
0-back,instructions\back-0.png,conditions\0back-p.xlsx,instructions\0-BACK.png,"(15, 8)",practice,0,1,stim\yellow.png,stim\gray.png,stim\gray.png,stim\gray.png,up,0,0,0,0,0,0,0,0,0,5,5,5,,,,,,,,,,,,,,,,,,,,,,,,,,,163.73783980007283,164.74023340002168,163.73783980007283,164.74023340002168,163.73783980007283,164.74023340002168,163.73783980007283,164.74023340002168,up,1,0.3155037999385968,163.73783980007283,None,163.73783980007283,None,163.73783980007283,164.2395301000215,163.73783980007283,164.2395301000215,163.73783980007283,164.2395301000215,163.73783980007283,164.2395301000215,163.73783980007283,None,,,,,,,,,,,,,,,,,,,,,,,,,,,,,,,,,,,,,,,,,,11023,001,2024_Jan_07_1035,nback,2021.2.3,59.99473249222061,
0-back,instructions\back-0.png,conditions\0back-p.xlsx,instructions\0-BACK.png,"(15, 8)",practice,0,4,stim\gray.png,stim\gray.png,stim\gray.png,stim\yellow.png,down,0,0,0,0,0,0,0,0,0,6,6,6,,,,,,,,,,,,,,,,,,,,,,,,,,,165.2405599000631,166.24247759999707,165.2405599000631,166.24247759999707,165.2405599000631,166.24247759999707,165.2405599000631,166.24247759999707,down,1,0.39670000004116446,165.2405599000631,None,165.2405599000631,None,165.2405599000631,165.7408737000078,165.2405599000631,165.7408737000078,165.2405599000631,165.7408737000078,165.2405599000631,165.7408737000078,165.2405599000631,None,,,,,,,,,,,,,,,,,,,,,,,,,,,,,,,,,,,,,,,,,,11023,001,2024_Jan_07_1035,nback,2021.2.3,59.99473249222061,
0-back,instructions\back-0.png,conditions\0back-p.xlsx,instructions\0-BACK.png,"(15, 8)",practice,0,3,stim\gray.png,stim\gray.png,stim\yellow.png,stim\gray.png,right,0,0,0,0,0,0,0,0,0,7,7,7,,,,,,,,,,,,,,,,,,,,,,,,,,,166.72565430006944,167.72744619997684,166.72565430006944,167.72744619997684,166.72565430006944,167.72744619997684,166.72565430006944,167.72744619997684,right,1,0.3752612000098452,166.72565430006944,None,166.72565430006944,None,166.72565430006944,167.22742340003606,166.72565430006944,167.22742340003606,166.72565430006944,167.22742340003606,166.72565430006944,167.22742340003606,166.72565430006944,None,,,,,,,,,,,,,,,,,,,,,,,,,,,,,,,,,,,,,,,,,,11023,001,2024_Jan_07_1035,nback,2021.2.3,59.99473249222061,
0-back,instructions\back-0.png,conditions\0back-p.xlsx,instructions\0-BACK.png,"(15, 8)",practice,0,3,stim\gray.png,stim\gray.png,stim\yellow.png,stim\gray.png,right,0,0,0,0,0,0,0,0,0,8,8,8,,,,,,,,,,,,,,,,,,,,,,,,,,,168.22796500008553,169.23025050002616,168.22796500008553,169.23025050002616,168.22796500008553,169.23025050002616,168.22796500008553,169.23025050002616,right,1,0.42487949994392693,168.22796500008553,None,168.22796500008553,None,168.22796500008553,168.73005700006615,168.22796500008553,168.73005700006615,168.22796500008553,168.73005700006615,168.22796500008553,168.73005700006615,168.22796500008553,None,,,,,,,,,,,,,,,,,,,,,,,,,,,,,,,,,,,,,,,,,,11023,001,2024_Jan_07_1035,nback,2021.2.3,59.99473249222061,
0-back,instructions\back-0.png,conditions\0back-p.xlsx,instructions\0-BACK.png,"(15, 8)",practice,0,4,stim\gray.png,stim\gray.png,stim\gray.png,stim\yellow.png,down,0,0,0,0,0,0,0,0,0,9,9,9,,,,,,,,,,,,,,,,,,,,,,,,,,,169.73020079999696,170.73323000001255,169.73020079999696,170.73323000001255,169.73020079999696,170.73323000001255,169.73020079999696,170.73323000001255,down,1,0.4190175000112504,169.73020079999696,None,169.73020079999696,None,169.73020079999696,170.23120939999353,169.73020079999696,170.23120939999353,169.73020079999696,170.23120939999353,169.73020079999696,170.23120939999353,169.73020079999696,None,,,,,,,,,,,,,,,,,,,,,,,,,,,,,,,,,,,,,,,,,,11023,001,2024_Jan_07_1035,nback,2021.2.3,59.99473249222061,
0-back,instructions\back-0.png,conditions\0back-p.xlsx,instructions\0-BACK.png,"(15, 8)",practice,0,1,stim\yellow.png,stim\gray.png,stim\gray.png,stim\gray.png,up,0,0,0,0,0,0,0,0,0,10,10,10,,,,,,,,,,,,,,,,,,,,,,,,,,,171.23236120003276,172.23457339999732,171.23236120003276,172.23457339999732,171.23236120003276,172.23457339999732,171.23236120003276,172.23457339999732,up,1,0.6047041000565514,171.23236120003276,None,171.23236120003276,None,171.23236120003276,171.73411020007916,171.23236120003276,171.73411020007916,171.23236120003276,171.73411020007916,171.23236120003276,171.73411020007916,171.23236120003276,None,,,,,,,,,,,,,,,,,,,,,,,,,,,,,,,,,,,,,,,,,,11023,001,2024_Jan_07_1035,nback,2021.2.3,59.99473249222061,
0-back,instructions\back-0.png,conditions\0back-p.xlsx,instructions\0-BACK.png,"(15, 8)",practice,0,2,stim\gray.png,stim\yellow.png,stim\gray.png,stim\gray.png,left,0,0,0,0,0,0,0,0,0,11,11,11,,,,,,,,,,,,,,,,,,,,,,,,,,,172.7356474000262,173.73619920003694,172.7356474000262,173.73619920003694,172.7356474000262,173.73619920003694,172.7356474000262,173.73619920003694,left,1,0.3339080000296235,172.7356474000262,None,172.7356474000262,None,172.7356474000262,173.23620080004912,172.7356474000262,173.23620080004912,172.7356474000262,173.23620080004912,172.7356474000262,173.23620080004912,172.7356474000262,None,,,,,,,,,,,,,,,,,,,,,,,,,,,,,,,,,,,,,,,,,,11023,001,2024_Jan_07_1035,nback,2021.2.3,59.99473249222061,
0-back,instructions\back-0.png,conditions\0back-p.xlsx,instructions\0-BACK.png,"(15, 8)",practice,0,4,stim\gray.png,stim\gray.png,stim\gray.png,stim\yellow.png,down,0,0,0,0,0,0,0,0,0,12,12,12,,,,,,,,,,,,,,,,,,,,,,,,,,,174.23686220007949,175.23897549998946,174.23686220007949,175.23897549998946,174.23686220007949,175.23897549998946,174.23686220007949,175.23897549998946,down,1,0.39201730000786483,174.23686220007949,None,174.23686220007949,None,174.23686220007949,174.7375809000805,174.23686220007949,174.7375809000805,174.23686220007949,174.7375809000805,174.23686220007949,174.7375809000805,174.23686220007949,None,,,,,,,,,,,,,,,,,,,,,,,,,,,,,,,,,,,,,,,,,,11023,001,2024_Jan_07_1035,nback,2021.2.3,59.99473249222061,
0-back,instructions\back-0.png,conditions\0back-p.xlsx,instructions\0-BACK.png,"(15, 8)",practice,0,3,stim\gray.png,stim\gray.png,stim\yellow.png,stim\gray.png,right,0,0,0,0,0,0,0,0,0,13,13,13,,,,,,,,,,,,,,,,,,,,,,,,,,,175.7391162000131,176.7406018000329,175.7391162000131,176.7406018000329,175.7391162000131,176.7406018000329,175.7391162000131,176.7406018000329,right,1,0.338270700071007,175.7391162000131,None,175.7391162000131,None,175.7391162000131,176.24130670004524,175.7391162000131,176.24130670004524,175.7391162000131,176.24130670004524,175.7391162000131,176.24130670004524,175.7391162000131,None,,,,,,,,,,,,,,,,,,,,,,,,,,,,,,,,,,,,,,,,,,11023,001,2024_Jan_07_1035,nback,2021.2.3,59.99473249222061,
0-back,instructions\back-0.png,conditions\0back-p.xlsx,instructions\0-BACK.png,"(15, 8)",practice,0,1,stim\yellow.png,stim\gray.png,stim\gray.png,stim\gray.png,up,0,0,0,0,0,0,0,0,0,14,14,14,,,,,,,,,,,,,,,,,,,,,,,,,,,177.22461779997684,178.2272443000693,177.22461779997684,178.2272443000693,177.22461779997684,178.2272443000693,177.22461779997684,178.2272443000693,up,1,0.3488979999674484,177.22461779997684,None,177.22461779997684,None,177.22461779997684,177.72564339998644,177.22461779997684,177.72564339998644,177.22461779997684,177.72564339998644,177.22461779997684,177.72564339998644,177.22461779997684,None,,,,,,,,,,,,,,,,,,,,,,,,,,,,,,,,,,,,,,,,,,11023,001,2024_Jan_07_1035,nback,2021.2.3,59.99473249222061,
0-back,instructions\back-0.png,conditions\0back-p.xlsx,instructions\0-BACK.png,"(15, 8)",practice,0,2,stim\gray.png,stim\yellow.png,stim\gray.png,stim\gray.png,left,0,0,0,0,0,0,0,0,0,15,15,15,,,,,,,,,,,,,,,,,,,,,,,,,,,178.727593800053,179.72983730002306,178.727593800053,179.72983730002306,178.727593800053,179.72983730002306,178.727593800053,179.72983730002306,left,1,0.2774607000174001,178.727593800053,None,178.727593800053,None,178.727593800053,179.22773410007358,178.727593800053,179.22773410007358,178.727593800053,179.22773410007358,178.727593800053,179.22773410007358,178.727593800053,None,,,,,,,,,,,,,,,,,,,,,,,,,,,,,,,,,,,,,,,,,,11023,001,2024_Jan_07_1035,nback,2021.2.3,59.99473249222061,
0-back,instructions\back-0.png,conditions\0back-p.xlsx,instructions\0-BACK.png,"(15, 8)",practice,0,3,stim\gray.png,stim\gray.png,stim\yellow.png,stim\gray.png,right,0,0,0,0,0,0,0,0,0,16,16,16,,,,,,,,,,,,,,,,,,,,,,,,,,,180.2290015000617,181.23120959999505,180.2290015000617,181.23120959999505,180.2290015000617,181.23120959999505,180.2290015000617,181.23120959999505,right,1,0.4326798999682069,180.2290015000617,None,180.2290015000617,None,180.2290015000617,180.72987470007502,180.2290015000617,180.72987470007502,180.2290015000617,180.72987470007502,180.2290015000617,180.72987470007502,180.2290015000617,None,,,,,,,,,,,,,,,,,,,,,,,,,,,,,,,,,,,,,,,,,,11023,001,2024_Jan_07_1035,nback,2021.2.3,59.99473249222061,
0-back,instructions\back-0.png,conditions\0back-p.xlsx,instructions\0-BACK.png,"(15, 8)",practice,0,1,stim\yellow.png,stim\gray.png,stim\gray.png,stim\gray.png,up,0,0,0,0,0,0,0,0,0,17,17,17,,,,,,,,,,,,,,,,,,,,,,,,,,,181.73122750001494,182.73365040007047,181.73122750001494,182.73365040007047,181.73122750001494,182.73365040007047,181.73122750001494,182.73365040007047,up,1,0.37026920006610453,181.73122750001494,None,181.73122750001494,None,181.73122750001494,182.23300900007598,181.73122750001494,182.23300900007598,181.73122750001494,182.23300900007598,181.73122750001494,182.23300900007598,181.73122750001494,None,,,,,,,,,,,,,,,,,,,,,,,,,,,,,,,,,,,,,,,,,,11023,001,2024_Jan_07_1035,nback,2021.2.3,59.99473249222061,
0-back,instructions\back-0.png,conditions\0back-p.xlsx,instructions\0-BACK.png,"(15, 8)",practice,0,4,stim\gray.png,stim\gray.png,stim\gray.png,stim\yellow.png,down,0,0,0,0,0,0,0,0,0,18,18,18,,,,,,,,,,,,,,,,,,,,,,,,,,,183.23361210001167,184.23539160005748,183.23361210001167,184.23539160005748,183.23361210001167,184.23539160005748,183.23361210001167,184.23539160005748,down,1,0.44351080001797527,183.23361210001167,None,183.23361210001167,None,183.23361210001167,183.73544229997788,183.23361210001167,183.73544229997788,183.23361210001167,183.73544229997788,183.23361210001167,183.73544229997788,183.23361210001167,None,,,,,,,,,,,,,,,,,,,,,,,,,,,,,,,,,,,,,,,,,,11023,001,2024_Jan_07_1035,nback,2021.2.3,59.99473249222061,
0-back,instructions\back-0.png,conditions\0back-p.xlsx,instructions\0-BACK.png,"(15, 8)",practice,0,2,stim\gray.png,stim\yellow.png,stim\gray.png,stim\gray.png,left,0,0,0,0,0,0,0,0,0,19,19,19,,,,,,,,,,,,,,,,,,,,,,,,,,,184.73635670007206,185.73814170004334,184.73635670007206,185.73814170004334,184.73635670007206,185.73814170004334,184.73635670007206,185.73814170004334,left,1,0.3333973999833688,184.73635670007206,None,184.73635670007206,None,184.73635670007206,185.236528599984,184.73635670007206,185.236528599984,184.73635670007206,185.236528599984,184.73635670007206,185.236528599984,184.73635670007206,None,,,,,,,,,,,,,,,,,,,,,,,,,,,,,,,,,,,,,,,,,,11023,001,2024_Jan_07_1035,nback,2021.2.3,59.99473249222061,
0-back,instructions\back-0.png,conditions\0back-p.xlsx,instructions\0-BACK.png,"(15, 8)",,,,,,,,,0,0,0,0,0,0,0,0,,,,,,,,,,,,,,,,,,,,,,,,,,,,,,,,,,,,,,,,,,,,,,,,,,,,,,,,,,,,,,,,,,,,,,,,,,,,,,,,,,,,,,,,,,,,,,,,,11023,001,2024_Jan_07_1035,nback,2021.2.3,59.99473249222061,
1-back,instructions\back-1.png,conditions\1back-p.xlsx,instructions\1-BACK.png,"(25, 15)",practice,1,1,stim\yellow.png,stim\gray.png,stim\gray.png,stim\gray.png,None,0,0,0,0,0,1,1,1,0,0,0,0,,,,,,,,,,,,,,,,,186.47137550008483,None,space,86.4624477000907,186.47137550008483,None,273.0998946999898,277.6066780000692,277.5742948000552,None,277.9751189000672,278.97548320004717,277.9751189000672,278.97548320004717,277.9751189000672,278.97548320004717,277.9751189000672,278.97548320004717,up,0,0.44632999994792044,277.9751189000672,None,277.9751189000672,None,277.9751189000672,278.4754935000092,277.9751189000672,278.4754935000092,277.9751189000672,278.4754935000092,277.9751189000672,278.4754935000092,277.9751189000672,None,,,,,,,,,,,,,,,,,,,,,,,,,,,,,,,,,,,,,,,,,,11023,001,2024_Jan_07_1035,nback,2021.2.3,59.99473249222061,
1-back,instructions\back-1.png,conditions\1back-p.xlsx,instructions\1-BACK.png,"(25, 15)",practice,1,2,stim\gray.png,stim\yellow.png,stim\gray.png,stim\gray.png,up,0,0,0,0,0,1,1,1,0,1,1,1,,,,,,,,,,,,,,,,,,,,,,,,,,,279.4593776999973,280.461362299975,279.4593776999973,280.461362299975,279.4593776999973,280.461362299975,279.4593776999973,280.461362299975,left,0,0.9376409000251442,279.4593776999973,None,279.4593776999973,None,279.4593776999973,279.9610006000148,279.4593776999973,279.9610006000148,279.4593776999973,279.9610006000148,279.4593776999973,279.9610006000148,279.4593776999973,None,,,,,,,,,,,,,,,,,,,,,,,,,,,,,,,,,,,,,,,,,,11023,001,2024_Jan_07_1035,nback,2021.2.3,59.99473249222061,
1-back,instructions\back-1.png,conditions\1back-p.xlsx,instructions\1-BACK.png,"(25, 15)",practice,1,3,stim\gray.png,stim\gray.png,stim\yellow.png,stim\gray.png,left,0,0,0,0,0,1,1,1,0,2,2,2,,,,,,,,,,,,,,,,,,,,,,,,,,,280.96174509997945,281.9632019000128,280.96174509997945,281.9632019000128,280.96174509997945,281.9632019000128,280.96174509997945,281.9632019000128,right,0,0.9393620999762788,280.96174509997945,None,280.96174509997945,None,280.96174509997945,281.4630630000029,280.96174509997945,281.4630630000029,280.96174509997945,281.4630630000029,280.96174509997945,281.4630630000029,280.96174509997945,None,,,,,,,,,,,,,,,,,,,,,,,,,,,,,,,,,,,,,,,,,,11023,001,2024_Jan_07_1035,nback,2021.2.3,59.99473249222061,
1-back,instructions\back-1.png,conditions\1back-p.xlsx,instructions\1-BACK.png,"(25, 15)",practice,1,4,stim\gray.png,stim\gray.png,stim\gray.png,stim\yellow.png,right,0,0,0,0,0,1,1,1,0,3,3,3,,,,,,,,,,,,,,,,,,,,,,,,,,,282.46385040006135,283.4660593000008,282.46385040006135,283.4660593000008,282.46385040006135,283.4660593000008,282.46385040006135,283.4660593000008,down,0,0.9814543999964371,282.46385040006135,None,282.46385040006135,None,282.46385040006135,282.965571800014,282.46385040006135,282.965571800014,282.46385040006135,282.965571800014,282.46385040006135,282.965571800014,282.46385040006135,None,,,,,,,,,,,,,,,,,,,,,,,,,,,,,,,,,,,,,,,,,,11023,001,2024_Jan_07_1035,nback,2021.2.3,59.99473249222061,
1-back,instructions\back-1.png,conditions\1back-p.xlsx,instructions\1-BACK.png,"(25, 15)",practice,1,2,stim\gray.png,stim\yellow.png,stim\gray.png,stim\gray.png,down,0,0,0,0,0,1,1,1,0,4,4,4,,,,,,,,,,,,,,,,,,,,,,,,,,,283.966121800011,284.96799000003375,283.966121800011,284.96799000003375,283.966121800011,284.96799000003375,283.966121800011,284.96799000003375,None,0,,283.966121800011,None,283.966121800011,None,283.966121800011,284.46692689997144,283.966121800011,284.46692689997144,283.966121800011,284.46692689997144,283.966121800011,284.46692689997144,283.966121800011,None,,,,,,,,,,,,,,,,,,,,,,,,,,,,,,,,,,,,,,,,,,11023,001,2024_Jan_07_1035,nback,2021.2.3,59.99473249222061,
1-back,instructions\back-1.png,conditions\1back-p.xlsx,instructions\1-BACK.png,"(25, 15)",practice,1,1,stim\yellow.png,stim\gray.png,stim\gray.png,stim\gray.png,left,0,0,0,0,0,1,1,1,0,5,5,5,,,,,,,,,,,,,,,,,,,,,,,,,,,285.46843240002636,286.47034860006534,285.46843240002636,286.47034860006534,285.46843240002636,286.47034860006534,285.46843240002636,286.47034860006534,up,0,0.42509869998320937,285.46843240002636,None,285.46843240002636,None,285.46843240002636,285.96904980007093,285.46843240002636,285.96904980007093,285.46843240002636,285.96904980007093,285.46843240002636,285.96904980007093,285.46843240002636,None,,,,,,,,,,,,,,,,,,,,,,,,,,,,,,,,,,,,,,,,,,11023,001,2024_Jan_07_1035,nback,2021.2.3,59.99473249222061,
1-back,instructions\back-1.png,conditions\1back-p.xlsx,instructions\1-BACK.png,"(25, 15)",practice,1,4,stim\gray.png,stim\gray.png,stim\gray.png,stim\yellow.png,up,0,0,0,0,0,1,1,1,0,6,6,6,,,,,,,,,,,,,,,,,,,,,,,,,,,286.9538683000719,287.95606840006076,286.9538683000719,287.95606840006076,286.9538683000719,287.95606840006076,286.9538683000719,287.95606840006076,up,1,0.6516563999466598,286.9538683000719,None,286.9538683000719,None,286.9538683000719,287.45518250006717,286.9538683000719,287.45518250006717,286.9538683000719,287.45518250006717,286.9538683000719,287.45518250006717,286.9538683000719,None,,,,,,,,,,,,,,,,,,,,,,,,,,,,,,,,,,,,,,,,,,11023,001,2024_Jan_07_1035,nback,2021.2.3,59.99473249222061,
1-back,instructions\back-1.png,conditions\1back-p.xlsx,instructions\1-BACK.png,"(25, 15)",practice,1,3,stim\gray.png,stim\gray.png,stim\yellow.png,stim\gray.png,down,0,0,0,0,0,1,1,1,0,7,7,7,,,,,,,,,,,,,,,,,,,,,,,,,,,288.4569234000519,289.45768260001205,288.4569234000519,289.45768260001205,288.4569234000519,289.45768260001205,288.4569234000519,289.45768260001205,left,0,0.3884776000631973,288.4569234000519,None,288.4569234000519,None,288.4569234000519,288.9569595999783,288.4569234000519,288.9569595999783,288.4569234000519,288.9569595999783,288.4569234000519,288.9569595999783,288.4569234000519,None,,,,,,,,,,,,,,,,,,,,,,,,,,,,,,,,,,,,,,,,,,11023,001,2024_Jan_07_1035,nback,2021.2.3,59.99473249222061,
1-back,instructions\back-1.png,conditions\1back-p.xlsx,instructions\1-BACK.png,"(25, 15)",practice,1,3,stim\gray.png,stim\gray.png,stim\yellow.png,stim\gray.png,right,0,0,0,0,0,1,1,1,0,8,8,8,,,,,,,,,,,,,,,,,,,,,,,,,,,289.95828420005273,290.96024350007065,289.95828420005273,290.96024350007065,289.95828420005273,290.96024350007065,289.95828420005273,290.96024350007065,right,1,1.2470506000099704,289.95828420005273,None,289.95828420005273,None,289.95828420005273,290.4600266000489,289.95828420005273,290.4600266000489,289.95828420005273,290.4600266000489,289.95828420005273,290.4600266000489,289.95828420005273,None,,,,,,,,,,,,,,,,,,,,,,,,,,,,,,,,,,,,,,,,,,11023,001,2024_Jan_07_1035,nback,2021.2.3,59.99473249222061,
1-back,instructions\back-1.png,conditions\1back-p.xlsx,instructions\1-BACK.png,"(25, 15)",practice,1,4,stim\gray.png,stim\gray.png,stim\gray.png,stim\yellow.png,right,0,0,0,0,0,1,1,1,0,9,9,9,,,,,,,,,,,,,,,,,,,,,,,,,,,291.46087090007495,292.46273809997365,291.46087090007495,292.46273809997365,291.46087090007495,292.46273809997365,291.46087090007495,292.46273809997365,up,0,0.9522903999313712,291.46087090007495,None,291.46087090007495,None,291.46087090007495,291.9623652000446,291.46087090007495,291.9623652000446,291.46087090007495,291.9623652000446,291.46087090007495,291.9623652000446,291.46087090007495,None,,,,,,,,,,,,,,,,,,,,,,,,,,,,,,,,,,,,,,,,,,11023,001,2024_Jan_07_1035,nback,2021.2.3,59.99473249222061,
1-back,instructions\back-1.png,conditions\1back-p.xlsx,instructions\1-BACK.png,"(25, 15)",practice,1,1,stim\yellow.png,stim\gray.png,stim\gray.png,stim\gray.png,down,0,0,0,0,0,1,1,1,0,10,10,10,,,,,,,,,,,,,,,,,,,,,,,,,,,292.9628104000585,293.9648870000383,292.9628104000585,293.9648870000383,292.9628104000585,293.9648870000383,292.9628104000585,293.9648870000383,left,0,0.546431599999778,292.9628104000585,None,292.9628104000585,None,292.9628104000585,293.46356270008255,292.9628104000585,293.46356270008255,292.9628104000585,293.46356270008255,292.9628104000585,293.46356270008255,292.9628104000585,None,,,,,,,,,,,,,,,,,,,,,,,,,,,,,,,,,,,,,,,,,,11023,001,2024_Jan_07_1035,nback,2021.2.3,59.99473249222061,
1-back,instructions\back-1.png,conditions\1back-p.xlsx,instructions\1-BACK.png,"(25, 15)",practice,1,2,stim\gray.png,stim\yellow.png,stim\gray.png,stim\gray.png,up,0,0,0,0,0,1,1,1,0,11,11,11,,,,,,,,,,,,,,,,,,,,,,,,,,,294.4657589000417,295.4671588999918,294.4657589000417,295.4671588999918,294.4657589000417,295.4671588999918,294.4657589000417,295.4671588999918,right,0,0.5480422000400722,294.4657589000417,None,294.4657589000417,None,294.4657589000417,294.9666256000055,294.4657589000417,294.9666256000055,294.4657589000417,294.9666256000055,294.4657589000417,294.9666256000055,294.4657589000417,None,,,,,,,,,,,,,,,,,,,,,,,,,,,,,,,,,,,,,,,,,,11023,001,2024_Jan_07_1035,nback,2021.2.3,59.99473249222061,
1-back,instructions\back-1.png,conditions\1back-p.xlsx,instructions\1-BACK.png,"(25, 15)",practice,1,4,stim\gray.png,stim\gray.png,stim\gray.png,stim\yellow.png,left,0,0,0,0,0,1,1,1,0,12,12,12,,,,,,,,,,,,,,,,,,,,,,,,,,,295.9670809999807,296.96956590004265,295.9670809999807,296.96956590004265,295.9670809999807,296.96956590004265,295.9670809999807,296.96956590004265,up,0,0.5903320999350399,295.9670809999807,None,295.9670809999807,None,295.9670809999807,296.46892840007786,295.9670809999807,296.46892840007786,295.9670809999807,296.46892840007786,295.9670809999807,296.46892840007786,295.9670809999807,None,,,,,,,,,,,,,,,,,,,,,,,,,,,,,,,,,,,,,,,,,,11023,001,2024_Jan_07_1035,nback,2021.2.3,59.99473249222061,
1-back,instructions\back-1.png,conditions\1back-p.xlsx,instructions\1-BACK.png,"(25, 15)",practice,1,3,stim\gray.png,stim\gray.png,stim\yellow.png,stim\gray.png,down,0,0,0,0,0,1,1,1,0,13,13,13,,,,,,,,,,,,,,,,,,,,,,,,,,,297.4694698000094,298.471641000011,297.4694698000094,298.471641000011,297.4694698000094,298.471641000011,297.4694698000094,298.471641000011,right,0,0.8644425000529736,297.4694698000094,None,297.4694698000094,None,297.4694698000094,297.9708182000322,297.4694698000094,297.9708182000322,297.4694698000094,297.9708182000322,297.4694698000094,297.9708182000322,297.4694698000094,None,,,,,,,,,,,,,,,,,,,,,,,,,,,,,,,,,,,,,,,,,,11023,001,2024_Jan_07_1035,nback,2021.2.3,59.99473249222061,
1-back,instructions\back-1.png,conditions\1back-p.xlsx,instructions\1-BACK.png,"(25, 15)",practice,1,1,stim\yellow.png,stim\gray.png,stim\gray.png,stim\gray.png,right,0,0,0,0,0,1,1,1,0,14,14,14,,,,,,,,,,,,,,,,,,,,,,,,,,,298.95514480001293,299.9576571000507,298.95514480001293,299.9576571000507,298.95514480001293,299.9576571000507,298.95514480001293,299.9576571000507,right,1,1.1703251000726596,298.95514480001293,None,298.95514480001293,None,298.95514480001293,299.4562773000216,298.95514480001293,299.4562773000216,298.95514480001293,299.4562773000216,298.95514480001293,299.4562773000216,298.95514480001293,None,,,,,,,,,,,,,,,,,,,,,,,,,,,,,,,,,,,,,,,,,,11023,001,2024_Jan_07_1035,nback,2021.2.3,59.99473249222061,
1-back,instructions\back-1.png,conditions\1back-p.xlsx,instructions\1-BACK.png,"(25, 15)",practice,1,2,stim\gray.png,stim\yellow.png,stim\gray.png,stim\gray.png,up,0,0,0,0,0,1,1,1,0,15,15,15,,,,,,,,,,,,,,,,,,,,,,,,,,,300.45722280000336,301.45949879998807,300.45722280000336,301.45949879998807,300.45722280000336,301.45949879998807,300.45722280000336,301.45949879998807,up,1,1.308140000095591,300.45722280000336,None,300.45722280000336,None,300.45722280000336,300.95800370001234,300.45722280000336,300.95800370001234,300.45722280000336,300.95800370001234,300.45722280000336,300.95800370001234,300.45722280000336,None,,,,,,,,,,,,,,,,,,,,,,,,,,,,,,,,,,,,,,,,,,11023,001,2024_Jan_07_1035,nback,2021.2.3,59.99473249222061,
1-back,instructions\back-1.png,conditions\1back-p.xlsx,instructions\1-BACK.png,"(25, 15)",practice,1,3,stim\gray.png,stim\gray.png,stim\yellow.png,stim\gray.png,left,0,0,0,0,0,1,1,1,0,16,16,16,,,,,,,,,,,,,,,,,,,,,,,,,,,301.9601991000818,302.96214950003196,301.9601991000818,302.96214950003196,301.9601991000818,302.96214950003196,301.9601991000818,302.96214950003196,right,0,1.2129722000099719,301.9601991000818,None,301.9601991000818,None,301.9601991000818,302.4608909999952,301.9601991000818,302.4608909999952,301.9601991000818,302.4608909999952,301.9601991000818,302.4608909999952,301.9601991000818,None,,,,,,,,,,,,,,,,,,,,,,,,,,,,,,,,,,,,,,,,,,11023,001,2024_Jan_07_1035,nback,2021.2.3,59.99473249222061,
1-back,instructions\back-1.png,conditions\1back-p.xlsx,instructions\1-BACK.png,"(25, 15)",practice,1,1,stim\yellow.png,stim\gray.png,stim\gray.png,stim\gray.png,right,0,0,0,0,0,1,1,1,0,17,17,17,,,,,,,,,,,,,,,,,,,,,,,,,,,303.4623597000027,304.46323700004723,303.4623597000027,304.46323700004723,303.4623597000027,304.46323700004723,303.4623597000027,304.46323700004723,up,0,1.200113800005056,303.4623597000027,None,303.4623597000027,None,303.4623597000027,303.9633221999975,303.4623597000027,303.9633221999975,303.4623597000027,303.9633221999975,303.4623597000027,303.9633221999975,303.4623597000027,None,,,,,,,,,,,,,,,,,,,,,,,,,,,,,,,,,,,,,,,,,,11023,001,2024_Jan_07_1035,nback,2021.2.3,59.99473249222061,
1-back,instructions\back-1.png,conditions\1back-p.xlsx,instructions\1-BACK.png,"(25, 15)",practice,1,4,stim\gray.png,stim\gray.png,stim\gray.png,stim\yellow.png,up,0,0,0,0,0,1,1,1,0,18,18,18,,,,,,,,,,,,,,,,,,,,,,,,,,,304.96475929999724,305.96612330002245,304.96475929999724,305.96612330002245,304.96475929999724,305.96612330002245,304.96475929999724,305.96612330002245,None,0,,304.96475929999724,None,304.96475929999724,None,304.96475929999724,305.46536060003564,304.96475929999724,305.46536060003564,304.96475929999724,305.46536060003564,304.96475929999724,305.46536060003564,304.96475929999724,None,,,,,,,,,,,,,,,,,,,,,,,,,,,,,,,,,,,,,,,,,,11023,001,2024_Jan_07_1035,nback,2021.2.3,59.99473249222061,
1-back,instructions\back-1.png,conditions\1back-p.xlsx,instructions\1-BACK.png,"(25, 15)",practice,1,2,stim\gray.png,stim\yellow.png,stim\gray.png,stim\gray.png,down,0,0,0,0,0,1,1,1,0,19,19,19,,,,,,,,,,,,,,,,,,,,,,,,,,,306.4666447000345,307.467831499991,306.4666447000345,307.467831499991,306.4666447000345,307.467831499991,306.4666447000345,307.467831499991,left,0,0.24258520000148565,306.4666447000345,None,306.4666447000345,None,306.4666447000345,306.9675061000744,306.4666447000345,306.9675061000744,306.4666447000345,306.9675061000744,306.4666447000345,306.9675061000744,306.4666447000345,None,,,,,,,,,,,,,,,,,,,,,,,,,,,,,,,,,,,,,,,,,,11023,001,2024_Jan_07_1035,nback,2021.2.3,59.99473249222061,
1-back,instructions\back-1.png,conditions\1back-p.xlsx,instructions\1-BACK.png,"(25, 15)",,,,,,,,,0,0,0,0,0,1,1,1,,,,,,,,,,,,,,,,,,,,,,,,,,,,,,,,,,,,,,,,,,,,,,,,,,,,,,,,,,,,,,,,,,,,,,,,,,,,,,,,,,,,,,,,,,,,,,,,,11023,001,2024_Jan_07_1035,nback,2021.2.3,59.99473249222061,
2-back,instructions\back-2.png,conditions\2back-p.xlsx,instructions\2-BACK.png,"(25, 15)",practice,2,1,stim\yellow.png,stim\gray.png,stim\gray.png,stim\gray.png,None,0,0,0,0,0,2,2,2,0,0,0,0,,,,,,,,,,,,,,,,,308.1344049000181,None,space,61.66366299998481,308.1344049000181,None,370.0436045000097,374.5509429000085,374.46759540005587,None,374.8517445999896,375.8529923000606,374.8517445999896,375.8529923000606,374.8517445999896,375.8529923000606,374.8517445999896,375.8529923000606,None,1,,374.8517445999896,None,374.8517445999896,None,374.8517445999896,375.3524279000703,374.8517445999896,375.3524279000703,374.8517445999896,375.3524279000703,374.8517445999896,375.3524279000703,374.8517445999896,None,,,,,,,,,,,,,,,,,,,,,,,,,,,,,,,,,,,,,,,,,,11023,001,2024_Jan_07_1035,nback,2021.2.3,59.99473249222061,
2-back,instructions\back-2.png,conditions\2back-p.xlsx,instructions\2-BACK.png,"(25, 15)",practice,2,2,stim\gray.png,stim\yellow.png,stim\gray.png,stim\gray.png,None,0,0,0,0,0,2,2,2,0,1,1,1,,,,,,,,,,,,,,,,,,,,,,,,,,,376.33628460008185,377.3384831000585,376.33628460008185,377.3384831000585,376.33628460008185,377.3384831000585,376.33628460008185,377.3384831000585,None,1,,376.33628460008185,None,376.33628460008185,None,376.33628460008185,376.8379794000648,376.33628460008185,376.8379794000648,376.33628460008185,376.8379794000648,376.33628460008185,376.8379794000648,376.33628460008185,None,,,,,,,,,,,,,,,,,,,,,,,,,,,,,,,,,,,,,,,,,,11023,001,2024_Jan_07_1035,nback,2021.2.3,59.99473249222061,
2-back,instructions\back-2.png,conditions\2back-p.xlsx,instructions\2-BACK.png,"(25, 15)",practice,2,3,stim\gray.png,stim\gray.png,stim\yellow.png,stim\gray.png,up,0,0,0,0,0,2,2,2,0,2,2,2,,,,,,,,,,,,,,,,,,,,,,,,,,,377.83917460008524,378.8409299000632,377.83917460008524,378.8409299000632,377.83917460008524,378.8409299000632,377.83917460008524,378.8409299000632,up,1,0.550772099988535,377.83917460008524,None,377.83917460008524,None,377.83917460008524,378.34020510001574,377.83917460008524,378.34020510001574,377.83917460008524,378.34020510001574,377.83917460008524,378.34020510001574,377.83917460008524,None,,,,,,,,,,,,,,,,,,,,,,,,,,,,,,,,,,,,,,,,,,11023,001,2024_Jan_07_1035,nback,2021.2.3,59.99473249222061,
2-back,instructions\back-2.png,conditions\2back-p.xlsx,instructions\2-BACK.png,"(25, 15)",practice,2,4,stim\gray.png,stim\gray.png,stim\gray.png,stim\yellow.png,left,0,0,0,0,0,2,2,2,0,3,3,3,,,,,,,,,,,,,,,,,,,,,,,,,,,379.34077560005244,380.3439490000019,379.34077560005244,380.3439490000019,379.34077560005244,380.3439490000019,379.34077560005244,380.3439490000019,left,1,0.5446431000018492,379.34077560005244,None,379.34077560005244,None,379.34077560005244,379.8420284000458,379.34077560005244,379.8420284000458,379.34077560005244,379.8420284000458,379.34077560005244,379.8420284000458,379.34077560005244,None,,,,,,,,,,,,,,,,,,,,,,,,,,,,,,,,,,,,,,,,,,11023,001,2024_Jan_07_1035,nback,2021.2.3,59.99473249222061,
2-back,instructions\back-2.png,conditions\2back-p.xlsx,instructions\2-BACK.png,"(25, 15)",practice,2,2,stim\gray.png,stim\yellow.png,stim\gray.png,stim\gray.png,right,0,0,0,0,0,2,2,2,0,4,4,4,,,,,,,,,,,,,,,,,,,,,,,,,,,380.8430638000136,381.84519100002944,380.8430638000136,381.84519100002944,380.8430638000136,381.84519100002944,380.8430638000136,381.84519100002944,right,1,0.4189155000494793,380.8430638000136,None,380.8430638000136,None,380.8430638000136,381.3444711000193,380.8430638000136,381.3444711000193,380.8430638000136,381.3444711000193,380.8430638000136,381.3444711000193,380.8430638000136,None,,,,,,,,,,,,,,,,,,,,,,,,,,,,,,,,,,,,,,,,,,11023,001,2024_Jan_07_1035,nback,2021.2.3,59.99473249222061,
2-back,instructions\back-2.png,conditions\2back-p.xlsx,instructions\2-BACK.png,"(25, 15)",practice,2,1,stim\yellow.png,stim\gray.png,stim\gray.png,stim\gray.png,down,0,0,0,0,0,2,2,2,0,5,5,5,,,,,,,,,,,,,,,,,,,,,,,,,,,382.34513360005803,383.3474203000078,382.34513360005803,383.3474203000078,382.34513360005803,383.3474203000078,382.34513360005803,383.3474203000078,down,1,0.21211929991841316,382.34513360005803,None,382.34513360005803,None,382.34513360005803,382.8461153000826,382.34513360005803,382.8461153000826,382.34513360005803,382.8461153000826,382.34513360005803,382.8461153000826,382.34513360005803,None,,,,,,,,,,,,,,,,,,,,,,,,,,,,,,,,,,,,,,,,,,11023,001,2024_Jan_07_1035,nback,2021.2.3,59.99473249222061,
2-back,instructions\back-2.png,conditions\2back-p.xlsx,instructions\2-BACK.png,"(25, 15)",practice,2,4,stim\gray.png,stim\gray.png,stim\gray.png,stim\yellow.png,left,0,0,0,0,0,2,2,2,0,6,6,6,,,,,,,,,,,,,,,,,,,,,,,,,,,383.8305851999903,384.8335761000635,383.8305851999903,384.8335761000635,383.8305851999903,384.8335761000635,383.8305851999903,384.8335761000635,left,1,0.2152322999900207,383.8305851999903,None,383.8305851999903,None,383.8305851999903,384.3323332000291,383.8305851999903,384.3323332000291,383.8305851999903,384.3323332000291,383.8305851999903,384.3323332000291,383.8305851999903,None,,,,,,,,,,,,,,,,,,,,,,,,,,,,,,,,,,,,,,,,,,11023,001,2024_Jan_07_1035,nback,2021.2.3,59.99473249222061,
2-back,instructions\back-2.png,conditions\2back-p.xlsx,instructions\2-BACK.png,"(25, 15)",practice,2,3,stim\gray.png,stim\gray.png,stim\yellow.png,stim\gray.png,up,0,0,0,0,0,2,2,2,0,7,7,7,,,,,,,,,,,,,,,,,,,,,,,,,,,385.3342558000004,386.3352376000257,385.3342558000004,386.3352376000257,385.3342558000004,386.3352376000257,385.3342558000004,386.3352376000257,up,1,0.11110189999453723,385.3342558000004,None,385.3342558000004,None,385.3342558000004,385.83469990000594,385.3342558000004,385.83469990000594,385.3342558000004,385.83469990000594,385.3342558000004,385.83469990000594,385.3342558000004,None,,,,,,,,,,,,,,,,,,,,,,,,,,,,,,,,,,,,,,,,,,11023,001,2024_Jan_07_1035,nback,2021.2.3,59.99473249222061,
2-back,instructions\back-2.png,conditions\2back-p.xlsx,instructions\2-BACK.png,"(25, 15)",practice,2,3,stim\gray.png,stim\gray.png,stim\yellow.png,stim\gray.png,down,0,0,0,0,0,2,2,2,0,8,8,8,,,,,,,,,,,,,,,,,,,,,,,,,,,386.83518960000947,387.83741010003723,386.83518960000947,387.83741010003723,386.83518960000947,387.83741010003723,386.83518960000947,387.83741010003723,right,0,0.09011009999085218,386.83518960000947,None,386.83518960000947,None,386.83518960000947,387.33729830000084,386.83518960000947,387.33729830000084,386.83518960000947,387.33729830000084,386.83518960000947,387.33729830000084,386.83518960000947,None,,,,,,,,,,,,,,,,,,,,,,,,,,,,,,,,,,,,,,,,,,11023,001,2024_Jan_07_1035,nback,2021.2.3,59.99473249222061,
2-back,instructions\back-2.png,conditions\2back-p.xlsx,instructions\2-BACK.png,"(25, 15)",practice,2,4,stim\gray.png,stim\gray.png,stim\gray.png,stim\yellow.png,right,0,0,0,0,0,2,2,2,0,9,9,9,,,,,,,,,,,,,,,,,,,,,,,,,,,388.33748019998893,389.33889330003876,388.33748019998893,389.33889330003876,388.33748019998893,389.33889330003876,388.33748019998893,389.33889330003876,left,0,0.29993989993818104,388.33748019998893,None,388.33748019998893,None,388.33748019998893,388.8385768000735,388.33748019998893,388.8385768000735,388.33748019998893,388.8385768000735,388.33748019998893,388.8385768000735,388.33748019998893,None,,,,,,,,,,,,,,,,,,,,,,,,,,,,,,,,,,,,,,,,,,11023,001,2024_Jan_07_1035,nback,2021.2.3,59.99473249222061,
2-back,instructions\back-2.png,conditions\2back-p.xlsx,instructions\2-BACK.png,"(25, 15)",practice,2,1,stim\yellow.png,stim\gray.png,stim\gray.png,stim\gray.png,right,0,0,0,0,0,2,2,2,0,10,10,10,,,,,,,,,,,,,,,,,,,,,,,,,,,389.83972150005866,390.8419887999771,389.83972150005866,390.8419887999771,389.83972150005866,390.8419887999771,389.83972150005866,390.8419887999771,up,0,1.021586999995634,389.83972150005866,None,389.83972150005866,None,389.83972150005866,390.34119880001526,389.83972150005866,390.34119880001526,389.83972150005866,390.34119880001526,389.83972150005866,390.34119880001526,389.83972150005866,None,,,,,,,,,,,,,,,,,,,,,,,,,,,,,,,,,,,,,,,,,,11023,001,2024_Jan_07_1035,nback,2021.2.3,59.99473249222061,
2-back,instructions\back-2.png,conditions\2back-p.xlsx,instructions\2-BACK.png,"(25, 15)",practice,2,2,stim\gray.png,stim\yellow.png,stim\gray.png,stim\gray.png,down,0,0,0,0,0,2,2,2,0,11,11,11,,,,,,,,,,,,,,,,,,,,,,,,,,,391.34178330004215,392.3443640000187,391.34178330004215,392.3443640000187,391.34178330004215,392.3443640000187,391.34178330004215,392.3443640000187,up,0,0.8560710999881849,391.34178330004215,None,391.34178330004215,None,391.34178330004215,391.8433214999968,391.34178330004215,391.8433214999968,391.34178330004215,391.8433214999968,391.34178330004215,391.8433214999968,391.34178330004215,None,,,,,,,,,,,,,,,,,,,,,,,,,,,,,,,,,,,,,,,,,,11023,001,2024_Jan_07_1035,nback,2021.2.3,59.99473249222061,
2-back,instructions\back-2.png,conditions\2back-p.xlsx,instructions\2-BACK.png,"(25, 15)",practice,2,4,stim\gray.png,stim\gray.png,stim\gray.png,stim\yellow.png,up,0,0,0,0,0,2,2,2,0,12,12,12,,,,,,,,,,,,,,,,,,,,,,,,,,,392.8442281000316,393.8455996999983,392.8442281000316,393.8455996999983,392.8442281000316,393.8455996999983,392.8442281000316,393.8455996999983,right,0,0.729417199967429,392.8442281000316,None,392.8442281000316,None,392.8442281000316,393.34477680001874,392.8442281000316,393.34477680001874,392.8442281000316,393.34477680001874,392.8442281000316,393.34477680001874,392.8442281000316,None,,,,,,,,,,,,,,,,,,,,,,,,,,,,,,,,,,,,,,,,,,11023,001,2024_Jan_07_1035,nback,2021.2.3,59.99473249222061,
2-back,instructions\back-2.png,conditions\2back-p.xlsx,instructions\2-BACK.png,"(25, 15)",practice,2,3,stim\gray.png,stim\gray.png,stim\yellow.png,stim\gray.png,left,0,0,0,0,0,2,2,2,0,13,13,13,,,,,,,,,,,,,,,,,,,,,,,,,,,394.34643630008213,395.34792570001446,394.34643630008213,395.34792570001446,394.34643630008213,395.34792570001446,394.34643630008213,395.34792570001446,left,1,1.0107922999886796,394.34643630008213,None,394.34643630008213,None,394.34643630008213,394.84714379999787,394.34643630008213,394.84714379999787,394.34643630008213,394.84714379999787,394.34643630008213,394.84714379999787,394.34643630008213,None,,,,,,,,,,,,,,,,,,,,,,,,,,,,,,,,,,,,,,,,,,11023,001,2024_Jan_07_1035,nback,2021.2.3,59.99473249222061,
2-back,instructions\back-2.png,conditions\2back-p.xlsx,instructions\2-BACK.png,"(25, 15)",practice,2,1,stim\yellow.png,stim\gray.png,stim\gray.png,stim\gray.png,down,0,0,0,0,0,2,2,2,0,14,14,14,,,,,,,,,,,,,,,,,,,,,,,,,,,395.83190700004343,396.83411649998743,395.83190700004343,396.83411649998743,395.83190700004343,396.83411649998743,395.83190700004343,396.83411649998743,up,0,1.221631700056605,395.83190700004343,None,395.83190700004343,None,395.83190700004343,396.33362930000294,395.83190700004343,396.33362930000294,395.83190700004343,396.33362930000294,395.83190700004343,396.33362930000294,395.83190700004343,None,,,,,,,,,,,,,,,,,,,,,,,,,,,,,,,,,,,,,,,,,,11023,001,2024_Jan_07_1035,nback,2021.2.3,59.99473249222061,
2-back,instructions\back-2.png,conditions\2back-p.xlsx,instructions\2-BACK.png,"(25, 15)",practice,2,2,stim\gray.png,stim\yellow.png,stim\gray.png,stim\gray.png,right,0,0,0,0,0,2,2,2,0,15,15,15,,,,,,,,,,,,,,,,,,,,,,,,,,,397.33489190007094,398.3364506000653,397.33489190007094,398.3364506000653,397.33489190007094,398.3364506000653,397.33489190007094,398.3364506000653,right,1,0.910317900008522,397.33489190007094,None,397.33489190007094,None,397.33489190007094,397.83563800004777,397.33489190007094,397.83563800004777,397.33489190007094,397.83563800004777,397.33489190007094,397.83563800004777,397.33489190007094,None,,,,,,,,,,,,,,,,,,,,,,,,,,,,,,,,,,,,,,,,,,11023,001,2024_Jan_07_1035,nback,2021.2.3,59.99473249222061,
2-back,instructions\back-2.png,conditions\2back-p.xlsx,instructions\2-BACK.png,"(25, 15)",practice,2,3,stim\gray.png,stim\gray.png,stim\yellow.png,stim\gray.png,up,0,0,0,0,0,2,2,2,0,16,16,16,,,,,,,,,,,,,,,,,,,,,,,,,,,398.83699500001967,399.838543400052,398.83699500001967,399.838543400052,398.83699500001967,399.838543400052,398.83699500001967,399.838543400052,left,0,0.704222800093703,398.83699500001967,None,398.83699500001967,None,398.83699500001967,399.33783830003813,398.83699500001967,399.33783830003813,398.83699500001967,399.33783830003813,398.83699500001967,399.33783830003813,398.83699500001967,None,,,,,,,,,,,,,,,,,,,,,,,,,,,,,,,,,,,,,,,,,,11023,001,2024_Jan_07_1035,nback,2021.2.3,59.99473249222061,
2-back,instructions\back-2.png,conditions\2back-p.xlsx,instructions\2-BACK.png,"(25, 15)",practice,2,1,stim\yellow.png,stim\gray.png,stim\gray.png,stim\gray.png,left,0,0,0,0,0,2,2,2,0,17,17,17,,,,,,,,,,,,,,,,,,,,,,,,,,,400.33855750004295,401.3408834000584,400.33855750004295,401.3408834000584,400.33855750004295,401.3408834000584,400.33855750004295,401.3408834000584,right,0,1.0427475000033155,400.33855750004295,None,400.33855750004295,None,400.33855750004295,400.8398463000776,400.33855750004295,400.8398463000776,400.33855750004295,400.8398463000776,400.33855750004295,400.8398463000776,400.33855750004295,None,,,,,,,,,,,,,,,,,,,,,,,,,,,,,,,,,,,,,,,,,,11023,001,2024_Jan_07_1035,nback,2021.2.3,59.99473249222061,
2-back,instructions\back-2.png,conditions\2back-p.xlsx,instructions\2-BACK.png,"(25, 15)",practice,2,4,stim\gray.png,stim\gray.png,stim\gray.png,stim\yellow.png,right,0,0,0,0,0,2,2,2,0,18,18,18,,,,,,,,,,,,,,,,,,,,,,,,,,,401.84135120001156,402.84244070004206,401.84135120001156,402.84244070004206,401.84135120001156,402.84244070004206,401.84135120001156,402.84244070004206,up,0,1.0278330000583082,401.84135120001156,None,401.84135120001156,None,401.84135120001156,402.34191419999115,401.84135120001156,402.34191419999115,401.84135120001156,402.34191419999115,401.84135120001156,402.34191419999115,401.84135120001156,None,,,,,,,,,,,,,,,,,,,,,,,,,,,,,,,,,,,,,,,,,,11023,001,2024_Jan_07_1035,nback,2021.2.3,59.99473249222061,
2-back,instructions\back-2.png,conditions\2back-p.xlsx,instructions\2-BACK.png,"(25, 15)",practice,2,2,stim\gray.png,stim\yellow.png,stim\gray.png,stim\gray.png,up,0,0,0,0,0,2,2,2,0,19,19,19,,,,,,,,,,,,,,,,,,,,,,,,,,,403.3436532000778,404.3448802999919,403.3436532000778,404.3448802999919,403.3436532000778,404.3448802999919,403.3436532000778,404.3448802999919,left,0,0.9818914999486879,403.3436532000778,None,403.3436532000778,None,403.3436532000778,403.8449553999817,403.3436532000778,403.8449553999817,403.3436532000778,403.8449553999817,403.3436532000778,403.8449553999817,403.3436532000778,None,,,,,,,,,,,,,,,,,,,,,,,,,,,,,,,,,,,,,,,,,,11023,001,2024_Jan_07_1035,nback,2021.2.3,59.99473249222061,
2-back,instructions\back-2.png,conditions\2back-p.xlsx,instructions\2-BACK.png,"(25, 15)",,,,,,,,,0,0,0,0,0,2,2,2,,,,,,,,,,,,,,,,,,,,,,,,,,,,,,,,,,,,,,,,,,,,,,,,,,,,,,,,,,,,,,,,,,,,,,,,,,,,,,,,,,,,,,,,,,,,,,,,,11023,001,2024_Jan_07_1035,nback,2021.2.3,59.99473249222061,
,,,,,,,,,,,,,0,0,0,0,,,,,,,,,,,,,,,,,,,,,,,,,,,,,,,,,,,,,,,,,,,,,,,,,,,,,,,,,,,,404.8458888999885,None,s,18.367549299960956,404.8458888999885,None,,,,,,,,,,,,,,,,,,,,,,,,,,,,,,,,,,,,11023,001,2024_Jan_07_1035,nback,2021.2.3,59.99473249222061,
0-back,instructions\back-0.png,conditions\0back-p.xlsx,instructions\0-BACK.png,"(15, 8)",practice,0,1,stim\yellow.png,stim\gray.png,stim\gray.png,stim\gray.png,up,1,0,1,0,0,0,0,0,0,0,0,0,,,,,,,,,,,,,,,,,423.3559459000826,None,space,3.9774028999963775,423.3559459000826,None,427.54544570005964,432.0524961000774,431.96918999997433,None,432.38616550003644,433.3874496000353,432.38616550003644,433.3874496000353,432.38616550003644,433.3874496000353,432.38616550003644,433.3874496000353,up,1,0.44310070003848523,432.38616550003644,None,432.38616550003644,None,432.38616550003644,432.8875665999949,432.38616550003644,432.8875665999949,432.38616550003644,432.8875665999949,432.38616550003644,432.8875665999949,432.38616550003644,None,,,,,,,,,,,,,,,,,,,,,,,,,,,,,,,,,,,,,,,,,,11023,001,2024_Jan_07_1035,nback,2021.2.3,59.99473249222061,
0-back,instructions\back-0.png,conditions\0back-p.xlsx,instructions\0-BACK.png,"(15, 8)",practice,0,2,stim\gray.png,stim\yellow.png,stim\gray.png,stim\gray.png,left,1,0,1,0,0,0,0,0,0,1,1,1,,,,,,,,,,,,,,,,,,,,,,,,,,,433.87165640003514,434.8737996000564,433.87165640003514,434.8737996000564,433.87165640003514,434.8737996000564,433.87165640003514,434.8737996000564,left,1,0.333857599995099,433.87165640003514,None,433.87165640003514,None,433.87165640003514,434.37302060006186,433.87165640003514,434.37302060006186,433.87165640003514,434.37302060006186,433.87165640003514,434.37302060006186,433.87165640003514,None,,,,,,,,,,,,,,,,,,,,,,,,,,,,,,,,,,,,,,,,,,11023,001,2024_Jan_07_1035,nback,2021.2.3,59.99473249222061,
0-back,instructions\back-0.png,conditions\0back-p.xlsx,instructions\0-BACK.png,"(15, 8)",practice,0,3,stim\gray.png,stim\gray.png,stim\yellow.png,stim\gray.png,right,1,0,1,0,0,0,0,0,0,2,2,2,,,,,,,,,,,,,,,,,,,,,,,,,,,435.3744978000177,436.3761221000459,435.3744978000177,436.3761221000459,435.3744978000177,436.3761221000459,435.3744978000177,436.3761221000459,right,1,0.31105720007326454,435.3744978000177,None,435.3744978000177,None,435.3744978000177,435.8745001000352,435.3744978000177,435.8745001000352,435.3744978000177,435.8745001000352,435.3744978000177,435.8745001000352,435.3744978000177,None,,,,,,,,,,,,,,,,,,,,,,,,,,,,,,,,,,,,,,,,,,11023,001,2024_Jan_07_1035,nback,2021.2.3,59.99473249222061,
0-back,instructions\back-0.png,conditions\0back-p.xlsx,instructions\0-BACK.png,"(15, 8)",practice,0,4,stim\gray.png,stim\gray.png,stim\gray.png,stim\yellow.png,down,1,0,1,0,0,0,0,0,0,3,3,3,,,,,,,,,,,,,,,,,,,,,,,,,,,436.876720600063,437.8778939000331,436.876720600063,437.8778939000331,436.876720600063,437.8778939000331,436.876720600063,437.8778939000331,down,1,0.3204596999567002,436.876720600063,None,436.876720600063,None,436.876720600063,437.3777207999956,436.876720600063,437.3777207999956,436.876720600063,437.3777207999956,436.876720600063,437.3777207999956,436.876720600063,None,,,,,,,,,,,,,,,,,,,,,,,,,,,,,,,,,,,,,,,,,,11023,001,2024_Jan_07_1035,nback,2021.2.3,59.99473249222061,
0-back,instructions\back-0.png,conditions\0back-p.xlsx,instructions\0-BACK.png,"(15, 8)",practice,0,2,stim\gray.png,stim\yellow.png,stim\gray.png,stim\gray.png,left,1,0,1,0,0,0,0,0,0,4,4,4,,,,,,,,,,,,,,,,,,,,,,,,,,,438.37823450006545,439.37983860005625,438.37823450006545,439.37983860005625,438.37823450006545,439.37983860005625,438.37823450006545,439.37983860005625,left,1,0.3553671999834478,438.37823450006545,None,438.37823450006545,None,438.37823450006545,438.88024740002584,438.37823450006545,438.88024740002584,438.37823450006545,438.88024740002584,438.37823450006545,438.88024740002584,438.37823450006545,None,,,,,,,,,,,,,,,,,,,,,,,,,,,,,,,,,,,,,,,,,,11023,001,2024_Jan_07_1035,nback,2021.2.3,59.99473249222061,
0-back,instructions\back-0.png,conditions\0back-p.xlsx,instructions\0-BACK.png,"(15, 8)",practice,0,1,stim\yellow.png,stim\gray.png,stim\gray.png,stim\gray.png,up,1,0,1,0,0,0,0,0,0,5,5,5,,,,,,,,,,,,,,,,,,,,,,,,,,,439.8805142000783,440.88261189998593,439.8805142000783,440.88261189998593,439.8805142000783,440.88261189998593,439.8805142000783,440.88261189998593,up,1,0.3253069999627769,439.8805142000783,None,439.8805142000783,None,439.8805142000783,440.38196460006293,439.8805142000783,440.38196460006293,439.8805142000783,440.38196460006293,439.8805142000783,440.38196460006293,439.8805142000783,None,,,,,,,,,,,,,,,,,,,,,,,,,,,,,,,,,,,,,,,,,,11023,001,2024_Jan_07_1035,nback,2021.2.3,59.99473249222061,
0-back,instructions\back-0.png,conditions\0back-p.xlsx,instructions\0-BACK.png,"(15, 8)",practice,0,4,stim\gray.png,stim\gray.png,stim\gray.png,stim\yellow.png,down,1,0,1,0,0,0,0,0,0,6,6,6,,,,,,,,,,,,,,,,,,,,,,,,,,,441.3827002000762,442.384091700078,441.3827002000762,442.384091700078,441.3827002000762,442.384091700078,441.3827002000762,442.384091700078,down,1,0.4704719999572262,441.3827002000762,None,441.3827002000762,None,441.3827002000762,441.88339400000405,441.3827002000762,441.88339400000405,441.3827002000762,441.88339400000405,441.3827002000762,441.88339400000405,441.3827002000762,None,,,,,,,,,,,,,,,,,,,,,,,,,,,,,,,,,,,,,,,,,,11023,001,2024_Jan_07_1035,nback,2021.2.3,59.99473249222061,
0-back,instructions\back-0.png,conditions\0back-p.xlsx,instructions\0-BACK.png,"(15, 8)",practice,0,3,stim\gray.png,stim\gray.png,stim\yellow.png,stim\gray.png,right,1,0,1,0,0,0,0,0,0,7,7,7,,,,,,,,,,,,,,,,,,,,,,,,,,,442.8681231000228,443.8703584000468,442.8681231000228,443.8703584000468,442.8681231000228,443.8703584000468,442.8681231000228,443.8703584000468,right,1,0.2981381000718102,442.8681231000228,None,442.8681231000228,None,442.8681231000228,443.36978890001774,442.8681231000228,443.36978890001774,442.8681231000228,443.36978890001774,442.8681231000228,443.36978890001774,442.8681231000228,None,,,,,,,,,,,,,,,,,,,,,,,,,,,,,,,,,,,,,,,,,,11023,001,2024_Jan_07_1035,nback,2021.2.3,59.99473249222061,
0-back,instructions\back-0.png,conditions\0back-p.xlsx,instructions\0-BACK.png,"(15, 8)",practice,0,3,stim\gray.png,stim\gray.png,stim\yellow.png,stim\gray.png,right,1,0,1,0,0,0,0,0,0,8,8,8,,,,,,,,,,,,,,,,,,,,,,,,,,,444.37031200004276,445.37291560007725,444.37031200004276,445.37291560007725,444.37031200004276,445.37291560007725,444.37031200004276,445.37291560007725,right,1,0.3712934999493882,444.37031200004276,None,444.37031200004276,None,444.37031200004276,444.87157690001186,444.37031200004276,444.87157690001186,444.37031200004276,444.87157690001186,444.37031200004276,444.87157690001186,444.37031200004276,None,,,,,,,,,,,,,,,,,,,,,,,,,,,,,,,,,,,,,,,,,,11023,001,2024_Jan_07_1035,nback,2021.2.3,59.99473249222061,
0-back,instructions\back-0.png,conditions\0back-p.xlsx,instructions\0-BACK.png,"(15, 8)",practice,0,4,stim\gray.png,stim\gray.png,stim\gray.png,stim\yellow.png,down,1,0,1,0,0,0,0,0,0,9,9,9,,,,,,,,,,,,,,,,,,,,,,,,,,,445.87280560005456,446.8745669000782,445.87280560005456,446.8745669000782,445.87280560005456,446.8745669000782,445.87280560005456,446.8745669000782,down,1,0.5013088999548927,445.87280560005456,None,445.87280560005456,None,445.87280560005456,446.37416140001733,445.87280560005456,446.37416140001733,445.87280560005456,446.37416140001733,445.87280560005456,446.37416140001733,445.87280560005456,None,,,,,,,,,,,,,,,,,,,,,,,,,,,,,,,,,,,,,,,,,,11023,001,2024_Jan_07_1035,nback,2021.2.3,59.99473249222061,
0-back,instructions\back-0.png,conditions\0back-p.xlsx,instructions\0-BACK.png,"(15, 8)",practice,0,1,stim\yellow.png,stim\gray.png,stim\gray.png,stim\gray.png,up,1,0,1,0,0,0,0,0,0,10,10,10,,,,,,,,,,,,,,,,,,,,,,,,,,,447.3749028000748,448.3772633000044,447.3749028000748,448.3772633000044,447.3749028000748,448.3772633000044,447.3749028000748,448.3772633000044,up,1,0.47843379992991686,447.3749028000748,None,447.3749028000748,None,447.3749028000748,447.8756372000789,447.3749028000748,447.8756372000789,447.3749028000748,447.8756372000789,447.3749028000748,447.8756372000789,447.3749028000748,None,,,,,,,,,,,,,,,,,,,,,,,,,,,,,,,,,,,,,,,,,,11023,001,2024_Jan_07_1035,nback,2021.2.3,59.99473249222061,
0-back,instructions\back-0.png,conditions\0back-p.xlsx,instructions\0-BACK.png,"(15, 8)",practice,0,2,stim\gray.png,stim\yellow.png,stim\gray.png,stim\gray.png,left,1,0,1,0,0,0,0,0,0,11,11,11,,,,,,,,,,,,,,,,,,,,,,,,,,,448.8772686000448,449.8786111000227,448.8772686000448,449.8786111000227,448.8772686000448,449.8786111000227,448.8772686000448,449.8786111000227,left,1,0.39204419997986406,448.8772686000448,None,448.8772686000448,None,448.8772686000448,449.37809060001746,448.8772686000448,449.37809060001746,448.8772686000448,449.37809060001746,448.8772686000448,449.37809060001746,448.8772686000448,None,,,,,,,,,,,,,,,,,,,,,,,,,,,,,,,,,,,,,,,,,,11023,001,2024_Jan_07_1035,nback,2021.2.3,59.99473249222061,
0-back,instructions\back-0.png,conditions\0back-p.xlsx,instructions\0-BACK.png,"(15, 8)",practice,0,4,stim\gray.png,stim\gray.png,stim\gray.png,stim\yellow.png,down,1,0,1,0,0,0,0,0,0,12,12,12,,,,,,,,,,,,,,,,,,,,,,,,,,,450.379484300036,451.38090790004935,450.379484300036,451.38090790004935,450.379484300036,451.38090790004935,450.379484300036,451.38090790004935,down,1,0.3858769000507891,450.379484300036,None,450.379484300036,None,450.379484300036,450.8807544000447,450.379484300036,450.8807544000447,450.379484300036,450.8807544000447,450.379484300036,450.8807544000447,450.379484300036,None,,,,,,,,,,,,,,,,,,,,,,,,,,,,,,,,,,,,,,,,,,11023,001,2024_Jan_07_1035,nback,2021.2.3,59.99473249222061,
0-back,instructions\back-0.png,conditions\0back-p.xlsx,instructions\0-BACK.png,"(15, 8)",practice,0,3,stim\gray.png,stim\gray.png,stim\yellow.png,stim\gray.png,right,1,0,1,0,0,0,0,0,0,13,13,13,,,,,,,,,,,,,,,,,,,,,,,,,,,451.8815046000527,452.88356610003393,451.8815046000527,452.88356610003393,451.8815046000527,452.88356610003393,451.8815046000527,452.88356610003393,right,1,0.3718792999861762,451.8815046000527,None,451.8815046000527,None,451.8815046000527,452.38309850008227,451.8815046000527,452.38309850008227,451.8815046000527,452.38309850008227,451.8815046000527,452.38309850008227,451.8815046000527,None,,,,,,,,,,,,,,,,,,,,,,,,,,,,,,,,,,,,,,,,,,11023,001,2024_Jan_07_1035,nback,2021.2.3,59.99473249222061,
0-back,instructions\back-0.png,conditions\0back-p.xlsx,instructions\0-BACK.png,"(15, 8)",practice,0,1,stim\yellow.png,stim\gray.png,stim\gray.png,stim\gray.png,up,1,0,1,0,0,0,0,0,0,14,14,14,,,,,,,,,,,,,,,,,,,,,,,,,,,453.36732219997793,454.3690791000845,453.36732219997793,454.3690791000845,453.36732219997793,454.3690791000845,453.36732219997793,454.3690791000845,up,1,0.32588259992189705,453.36732219997793,None,453.36732219997793,None,453.36732219997793,453.8687272000825,453.36732219997793,453.8687272000825,453.36732219997793,453.8687272000825,453.36732219997793,453.8687272000825,453.36732219997793,None,,,,,,,,,,,,,,,,,,,,,,,,,,,,,,,,,,,,,,,,,,11023,001,2024_Jan_07_1035,nback,2021.2.3,59.99473249222061,
0-back,instructions\back-0.png,conditions\0back-p.xlsx,instructions\0-BACK.png,"(15, 8)",practice,0,2,stim\gray.png,stim\yellow.png,stim\gray.png,stim\gray.png,left,1,0,1,0,0,0,0,0,0,15,15,15,,,,,,,,,,,,,,,,,,,,,,,,,,,454.87066680006683,455.8709712000564,454.87066680006683,455.8709712000564,454.87066680006683,455.8709712000564,454.87066680006683,455.8709712000564,left,1,0.2945490999845788,454.87066680006683,None,454.87066680006683,None,454.87066680006683,455.3699277000269,454.87066680006683,455.3699277000269,454.87066680006683,455.3699277000269,454.87066680006683,455.3699277000269,454.87066680006683,None,,,,,,,,,,,,,,,,,,,,,,,,,,,,,,,,,,,,,,,,,,11023,001,2024_Jan_07_1035,nback,2021.2.3,59.99473249222061,
0-back,instructions\back-0.png,conditions\0back-p.xlsx,instructions\0-BACK.png,"(15, 8)",practice,0,3,stim\gray.png,stim\gray.png,stim\yellow.png,stim\gray.png,right,1,0,1,0,0,0,0,0,0,16,16,16,,,,,,,,,,,,,,,,,,,,,,,,,,,456.3716038999846,457.3740322000813,456.3716038999846,457.3740322000813,456.3716038999846,457.3740322000813,456.3716038999846,457.3740322000813,right,1,0.36166699999012053,456.3716038999846,None,456.3716038999846,None,456.3716038999846,456.87229900003877,456.3716038999846,456.87229900003877,456.3716038999846,456.87229900003877,456.3716038999846,456.87229900003877,456.3716038999846,None,,,,,,,,,,,,,,,,,,,,,,,,,,,,,,,,,,,,,,,,,,11023,001,2024_Jan_07_1035,nback,2021.2.3,59.99473249222061,
0-back,instructions\back-0.png,conditions\0back-p.xlsx,instructions\0-BACK.png,"(15, 8)",practice,0,1,stim\yellow.png,stim\gray.png,stim\gray.png,stim\gray.png,up,1,0,1,0,0,0,0,0,0,17,17,17,,,,,,,,,,,,,,,,,,,,,,,,,,,457.8739443999948,458.8753684000112,457.8739443999948,458.8753684000112,457.8739443999948,458.8753684000112,457.8739443999948,458.8753684000112,up,1,0.36370269989129156,457.8739443999948,None,457.8739443999948,None,457.8739443999948,458.37546150002163,457.8739443999948,458.37546150002163,457.8739443999948,458.37546150002163,457.8739443999948,458.37546150002163,457.8739443999948,None,,,,,,,,,,,,,,,,,,,,,,,,,,,,,,,,,,,,,,,,,,11023,001,2024_Jan_07_1035,nback,2021.2.3,59.99473249222061,
0-back,instructions\back-0.png,conditions\0back-p.xlsx,instructions\0-BACK.png,"(15, 8)",practice,0,4,stim\gray.png,stim\gray.png,stim\gray.png,stim\yellow.png,down,1,0,1,0,0,0,0,0,0,18,18,18,,,,,,,,,,,,,,,,,,,,,,,,,,,459.37610850005876,460.3779399000341,459.37610850005876,460.3779399000341,459.37610850005876,460.3779399000341,459.37610850005876,460.3779399000341,down,1,0.461304199998267,459.37610850005876,None,459.37610850005876,None,459.37610850005876,459.87741590000223,459.37610850005876,459.87741590000223,459.37610850005876,459.87741590000223,459.37610850005876,459.87741590000223,459.37610850005876,None,,,,,,,,,,,,,,,,,,,,,,,,,,,,,,,,,,,,,,,,,,11023,001,2024_Jan_07_1035,nback,2021.2.3,59.99473249222061,
0-back,instructions\back-0.png,conditions\0back-p.xlsx,instructions\0-BACK.png,"(15, 8)",practice,0,2,stim\gray.png,stim\yellow.png,stim\gray.png,stim\gray.png,left,1,0,1,0,0,0,0,0,0,19,19,19,,,,,,,,,,,,,,,,,,,,,,,,,,,460.8782934000483,461.8800485000247,460.8782934000483,461.8800485000247,460.8782934000483,461.8800485000247,460.8782934000483,461.8800485000247,left,1,0.33568290004041046,460.8782934000483,None,460.8782934000483,None,460.8782934000483,461.3797042000806,460.8782934000483,461.3797042000806,460.8782934000483,461.3797042000806,460.8782934000483,461.3797042000806,460.8782934000483,None,,,,,,,,,,,,,,,,,,,,,,,,,,,,,,,,,,,,,,,,,,11023,001,2024_Jan_07_1035,nback,2021.2.3,59.99473249222061,
0-back,instructions\back-0.png,conditions\0back-p.xlsx,instructions\0-BACK.png,"(15, 8)",,,,,,,,,1,0,1,0,0,0,0,0,,,,,,,,,,,,,,,,,,,,,,,,,,,,,,,,,,,,,,,,,,,,,,,,,,,,,,,,,,,,,,,,,,,,,,,,,,,,,,,,,,,,,,,,,,,,,,,,,11023,001,2024_Jan_07_1035,nback,2021.2.3,59.99473249222061,
1-back,instructions\back-1.png,conditions\1back-p.xlsx,instructions\1-BACK.png,"(25, 15)",practice,1,1,stim\yellow.png,stim\gray.png,stim\gray.png,stim\gray.png,None,1,0,1,0,0,1,1,1,0,0,0,0,,,,,,,,,,,,,,,,,462.53143299999647,None,space,1.3062457999913022,462.53143299999647,None,463.9663469999796,468.4748073000228,468.44007110001985,None,468.89121140004136,469.8923939000815,468.89121140004136,469.8923939000815,468.89121140004136,469.8923939000815,468.89121140004136,469.8923939000815,None,1,,468.89121140004136,None,468.89121140004136,None,468.89121140004136,469.39166490000207,468.89121140004136,469.39166490000207,468.89121140004136,469.39166490000207,468.89121140004136,469.39166490000207,468.89121140004136,None,,,,,,,,,,,,,,,,,,,,,,,,,,,,,,,,,,,,,,,,,,11023,001,2024_Jan_07_1035,nback,2021.2.3,59.99473249222061,
1-back,instructions\back-1.png,conditions\1back-p.xlsx,instructions\1-BACK.png,"(25, 15)",practice,1,2,stim\gray.png,stim\yellow.png,stim\gray.png,stim\gray.png,up,1,0,1,0,0,1,1,1,0,1,1,1,,,,,,,,,,,,,,,,,,,,,,,,,,,470.37600609997753,471.3780297000194,470.37600609997753,471.3780297000194,470.37600609997753,471.3780297000194,470.37600609997753,471.3780297000194,up,1,0.7094317999435589,470.37600609997753,None,470.37600609997753,None,470.37600609997753,470.8768502000021,470.37600609997753,470.8768502000021,470.37600609997753,470.8768502000021,470.37600609997753,470.8768502000021,470.37600609997753,None,,,,,,,,,,,,,,,,,,,,,,,,,,,,,,,,,,,,,,,,,,11023,001,2024_Jan_07_1035,nback,2021.2.3,59.99473249222061,
1-back,instructions\back-1.png,conditions\1back-p.xlsx,instructions\1-BACK.png,"(25, 15)",practice,1,3,stim\gray.png,stim\gray.png,stim\yellow.png,stim\gray.png,left,1,0,1,0,0,1,1,1,0,2,2,2,,,,,,,,,,,,,,,,,,,,,,,,,,,471.87916440004483,472.88022819999605,471.87916440004483,472.88022819999605,471.87916440004483,472.88022819999605,471.87916440004483,472.88022819999605,left,1,0.43062919995281845,471.87916440004483,None,471.87916440004483,None,471.87916440004483,472.3792850000318,471.87916440004483,472.3792850000318,471.87916440004483,472.3792850000318,471.87916440004483,472.3792850000318,471.87916440004483,None,,,,,,,,,,,,,,,,,,,,,,,,,,,,,,,,,,,,,,,,,,11023,001,2024_Jan_07_1035,nback,2021.2.3,59.99473249222061,
1-back,instructions\back-1.png,conditions\1back-p.xlsx,instructions\1-BACK.png,"(25, 15)",practice,1,4,stim\gray.png,stim\gray.png,stim\gray.png,stim\yellow.png,right,1,0,1,0,0,1,1,1,0,3,3,3,,,,,,,,,,,,,,,,,,,,,,,,,,,473.3815110999858,474.3822821000358,473.3815110999858,474.3822821000358,473.3815110999858,474.3822821000358,473.3815110999858,474.3822821000358,right,1,0.33572250010911375,473.3815110999858,None,473.3815110999858,None,473.3815110999858,473.8807365000248,473.3815110999858,473.8807365000248,473.3815110999858,473.8807365000248,473.3815110999858,473.8807365000248,473.3815110999858,None,,,,,,,,,,,,,,,,,,,,,,,,,,,,,,,,,,,,,,,,,,11023,001,2024_Jan_07_1035,nback,2021.2.3,59.99473249222061,
1-back,instructions\back-1.png,conditions\1back-p.xlsx,instructions\1-BACK.png,"(25, 15)",practice,1,2,stim\gray.png,stim\yellow.png,stim\gray.png,stim\gray.png,down,1,0,1,0,0,1,1,1,0,4,4,4,,,,,,,,,,,,,,,,,,,,,,,,,,,474.8824135999894,475.8841728999978,474.8824135999894,475.8841728999978,474.8824135999894,475.8841728999978,474.8824135999894,475.8841728999978,down,1,0.03522840002551675,474.8824135999894,None,474.8824135999894,None,474.8824135999894,475.3837832000572,474.8824135999894,475.3837832000572,474.8824135999894,475.3837832000572,474.8824135999894,475.3837832000572,474.8824135999894,None,,,,,,,,,,,,,,,,,,,,,,,,,,,,,,,,,,,,,,,,,,11023,001,2024_Jan_07_1035,nback,2021.2.3,59.99473249222061,
1-back,instructions\back-1.png,conditions\1back-p.xlsx,instructions\1-BACK.png,"(25, 15)",practice,1,1,stim\yellow.png,stim\gray.png,stim\gray.png,stim\gray.png,left,1,0,1,0,0,1,1,1,0,5,5,5,,,,,,,,,,,,,,,,,,,,,,,,,,,476.38508889998775,477.3869654000737,476.38508889998775,477.3869654000737,476.38508889998775,477.3869654000737,476.38508889998775,477.3869654000737,up,0,1.4529945999383926,476.38508889998775,None,476.38508889998775,None,476.38508889998775,476.88541620003525,476.38508889998775,476.88541620003525,476.38508889998775,476.88541620003525,476.38508889998775,476.88541620003525,476.38508889998775,None,,,,,,,,,,,,,,,,,,,,,,,,,,,,,,,,,,,,,,,,,,11023,001,2024_Jan_07_1035,nback,2021.2.3,59.99473249222061,
1-back,instructions\back-1.png,conditions\1back-p.xlsx,instructions\1-BACK.png,"(25, 15)",practice,1,4,stim\gray.png,stim\gray.png,stim\gray.png,stim\yellow.png,up,1,0,1,0,0,1,1,1,0,6,6,6,,,,,,,,,,,,,,,,,,,,,,,,,,,477.87015570001677,478.8728286999976,477.87015570001677,478.8728286999976,477.87015570001677,478.8728286999976,477.87015570001677,478.8728286999976,None,0,,477.87015570001677,None,477.87015570001677,None,477.87015570001677,478.37160130008124,477.87015570001677,478.37160130008124,477.87015570001677,478.37160130008124,477.87015570001677,478.37160130008124,477.87015570001677,None,,,,,,,,,,,,,,,,,,,,,,,,,,,,,,,,,,,,,,,,,,11023,001,2024_Jan_07_1035,nback,2021.2.3,59.99473249222061,
1-back,instructions\back-1.png,conditions\1back-p.xlsx,instructions\1-BACK.png,"(25, 15)",practice,1,3,stim\gray.png,stim\gray.png,stim\yellow.png,stim\gray.png,down,1,0,1,0,0,1,1,1,0,7,7,7,,,,,,,,,,,,,,,,,,,,,,,,,,,479.37229980004486,480.3746510000201,479.37229980004486,480.3746510000201,479.37229980004486,480.3746510000201,479.37229980004486,480.3746510000201,down,1,0.06518090004101396,479.37229980004486,None,479.37229980004486,None,479.37229980004486,479.8738867000211,479.37229980004486,479.8738867000211,479.37229980004486,479.8738867000211,479.37229980004486,479.8738867000211,479.37229980004486,None,,,,,,,,,,,,,,,,,,,,,,,,,,,,,,,,,,,,,,,,,,11023,001,2024_Jan_07_1035,nback,2021.2.3,59.99473249222061,
1-back,instructions\back-1.png,conditions\1back-p.xlsx,instructions\1-BACK.png,"(25, 15)",practice,1,3,stim\gray.png,stim\gray.png,stim\yellow.png,stim\gray.png,right,1,0,1,0,0,1,1,1,0,8,8,8,,,,,,,,,,,,,,,,,,,,,,,,,,,480.87548030004837,481.87665830005426,480.87548030004837,481.87665830005426,480.87548030004837,481.87665830005426,480.87548030004837,481.87665830005426,right,1,0.09791929996572435,480.87548030004837,None,480.87548030004837,None,480.87548030004837,481.3759195000166,480.87548030004837,481.3759195000166,480.87548030004837,481.3759195000166,480.87548030004837,481.3759195000166,480.87548030004837,None,,,,,,,,,,,,,,,,,,,,,,,,,,,,,,,,,,,,,,,,,,11023,001,2024_Jan_07_1035,nback,2021.2.3,59.99473249222061,
1-back,instructions\back-1.png,conditions\1back-p.xlsx,instructions\1-BACK.png,"(25, 15)",practice,1,4,stim\gray.png,stim\gray.png,stim\gray.png,stim\yellow.png,right,1,0,1,0,0,1,1,1,0,9,9,9,,,,,,,,,,,,,,,,,,,,,,,,,,,482.3768411000492,483.37899620004464,482.3768411000492,483.37899620004464,482.3768411000492,483.37899620004464,482.3768411000492,483.37899620004464,right,1,0.18078189995139837,482.3768411000492,None,482.3768411000492,None,482.3768411000492,482.8787991000572,482.3768411000492,482.8787991000572,482.3768411000492,482.8787991000572,482.3768411000492,482.8787991000572,482.3768411000492,None,,,,,,,,,,,,,,,,,,,,,,,,,,,,,,,,,,,,,,,,,,11023,001,2024_Jan_07_1035,nback,2021.2.3,59.99473249222061,
1-back,instructions\back-1.png,conditions\1back-p.xlsx,instructions\1-BACK.png,"(25, 15)",practice,1,1,stim\yellow.png,stim\gray.png,stim\gray.png,stim\gray.png,down,1,0,1,0,0,1,1,1,0,10,10,10,,,,,,,,,,,,,,,,,,,,,,,,,,,483.8790342999855,484.8815218000673,483.8790342999855,484.8815218000673,483.8790342999855,484.8815218000673,483.8790342999855,484.8815218000673,down,1,0.04652789991814643,483.8790342999855,None,483.8790342999855,None,483.8790342999855,484.3797935000621,483.8790342999855,484.3797935000621,483.8790342999855,484.3797935000621,483.8790342999855,484.3797935000621,483.8790342999855,None,,,,,,,,,,,,,,,,,,,,,,,,,,,,,,,,,,,,,,,,,,11023,001,2024_Jan_07_1035,nback,2021.2.3,59.99473249222061,
1-back,instructions\back-1.png,conditions\1back-p.xlsx,instructions\1-BACK.png,"(25, 15)",practice,1,2,stim\gray.png,stim\yellow.png,stim\gray.png,stim\gray.png,up,1,0,1,0,0,1,1,1,0,11,11,11,,,,,,,,,,,,,,,,,,,,,,,,,,,485.3812968999846,486.3826827000594,485.3812968999846,486.3826827000594,485.3812968999846,486.3826827000594,485.3812968999846,486.3826827000594,None,0,,485.3812968999846,None,485.3812968999846,None,485.3812968999846,485.88202770007774,485.3812968999846,485.88202770007774,485.3812968999846,485.88202770007774,485.3812968999846,485.88202770007774,485.3812968999846,None,,,,,,,,,,,,,,,,,,,,,,,,,,,,,,,,,,,,,,,,,,11023,001,2024_Jan_07_1035,nback,2021.2.3,59.99473249222061,
1-back,instructions\back-1.png,conditions\1back-p.xlsx,instructions\1-BACK.png,"(25, 15)",practice,1,4,stim\gray.png,stim\gray.png,stim\gray.png,stim\yellow.png,left,1,0,1,0,0,1,1,1,0,12,12,12,,,,,,,,,,,,,,,,,,,,,,,,,,,486.8835509000346,487.8853406000417,486.8835509000346,487.8853406000417,486.8835509000346,487.8853406000417,486.8835509000346,487.8853406000417,left,1,0.13014040002599359,486.8835509000346,None,486.8835509000346,None,486.8835509000346,487.3849731000373,486.8835509000346,487.3849731000373,486.8835509000346,487.3849731000373,486.8835509000346,487.3849731000373,486.8835509000346,None,,,,,,,,,,,,,,,,,,,,,,,,,,,,,,,,,,,,,,,,,,11023,001,2024_Jan_07_1035,nback,2021.2.3,59.99473249222061,
1-back,instructions\back-1.png,conditions\1back-p.xlsx,instructions\1-BACK.png,"(25, 15)",practice,1,3,stim\gray.png,stim\gray.png,stim\yellow.png,stim\gray.png,down,1,0,1,0,0,1,1,1,0,13,13,13,,,,,,,,,,,,,,,,,,,,,,,,,,,488.3862698000157,489.3872502000304,488.3862698000157,489.3872502000304,488.3862698000157,489.3872502000304,488.3862698000157,489.3872502000304,down,1,0.0030173000413924456,488.3862698000157,None,488.3862698000157,None,488.3862698000157,488.88633260002825,488.3862698000157,488.88633260002825,488.3862698000157,488.88633260002825,488.3862698000157,488.88633260002825,488.3862698000157,None,,,,,,,,,,,,,,,,,,,,,,,,,,,,,,,,,,,,,,,,,,11023,001,2024_Jan_07_1035,nback,2021.2.3,59.99473249222061,
1-back,instructions\back-1.png,conditions\1back-p.xlsx,instructions\1-BACK.png,"(25, 15)",practice,1,1,stim\yellow.png,stim\gray.png,stim\gray.png,stim\gray.png,right,1,0,1,0,0,1,1,1,0,14,14,14,,,,,,,,,,,,,,,,,,,,,,,,,,,489.87118910008576,490.87274410005193,489.87118910008576,490.87274410005193,489.87118910008576,490.87274410005193,489.87118910008576,490.87274410005193,None,0,,489.87118910008576,None,489.87118910008576,None,489.87118910008576,490.37272770004347,489.87118910008576,490.37272770004347,489.87118910008576,490.37272770004347,489.87118910008576,490.37272770004347,489.87118910008576,None,,,,,,,,,,,,,,,,,,,,,,,,,,,,,,,,,,,,,,,,,,11023,001,2024_Jan_07_1035,nback,2021.2.3,59.99473249222061,
1-back,instructions\back-1.png,conditions\1back-p.xlsx,instructions\1-BACK.png,"(25, 15)",practice,1,2,stim\gray.png,stim\yellow.png,stim\gray.png,stim\gray.png,up,1,0,1,0,0,1,1,1,0,15,15,15,,,,,,,,,,,,,,,,,,,,,,,,,,,491.3740572000388,492.37570179998875,491.3740572000388,492.37570179998875,491.3740572000388,492.37570179998875,491.3740572000388,492.37570179998875,up,1,0.0315112000098452,491.3740572000388,None,491.3740572000388,None,491.3740572000388,491.8754095999757,491.3740572000388,491.8754095999757,491.3740572000388,491.8754095999757,491.3740572000388,491.8754095999757,491.3740572000388,None,,,,,,,,,,,,,,,,,,,,,,,,,,,,,,,,,,,,,,,,,,11023,001,2024_Jan_07_1035,nback,2021.2.3,59.99473249222061,
1-back,instructions\back-1.png,conditions\1back-p.xlsx,instructions\1-BACK.png,"(25, 15)",practice,1,3,stim\gray.png,stim\gray.png,stim\yellow.png,stim\gray.png,left,1,0,1,0,0,1,1,1,0,16,16,16,,,,,,,,,,,,,,,,,,,,,,,,,,,492.8757133000763,493.8770483999979,492.8757133000763,493.8770483999979,492.8757133000763,493.8770483999979,492.8757133000763,493.8770483999979,left,1,0.05758100003004074,492.8757133000763,None,492.8757133000763,None,492.8757133000763,493.378505300032,492.8757133000763,493.378505300032,492.8757133000763,493.378505300032,492.8757133000763,493.378505300032,492.8757133000763,None,,,,,,,,,,,,,,,,,,,,,,,,,,,,,,,,,,,,,,,,,,11023,001,2024_Jan_07_1035,nback,2021.2.3,59.99473249222061,
1-back,instructions\back-1.png,conditions\1back-p.xlsx,instructions\1-BACK.png,"(25, 15)",practice,1,1,stim\yellow.png,stim\gray.png,stim\gray.png,stim\gray.png,right,1,0,1,0,0,1,1,1,0,17,17,17,,,,,,,,,,,,,,,,,,,,,,,,,,,494.3785508000292,495.38072580005974,494.3785508000292,495.38072580005974,494.3785508000292,495.38072580005974,494.3785508000292,495.38072580005974,right,1,0.10704120004083961,494.3785508000292,None,494.3785508000292,None,494.3785508000292,494.87951670004986,494.3785508000292,494.87951670004986,494.3785508000292,494.87951670004986,494.3785508000292,494.87951670004986,494.3785508000292,None,,,,,,,,,,,,,,,,,,,,,,,,,,,,,,,,,,,,,,,,,,11023,001,2024_Jan_07_1035,nback,2021.2.3,59.99473249222061,
1-back,instructions\back-1.png,conditions\1back-p.xlsx,instructions\1-BACK.png,"(25, 15)",practice,1,4,stim\gray.png,stim\gray.png,stim\gray.png,stim\yellow.png,up,1,0,1,0,0,1,1,1,0,18,18,18,,,,,,,,,,,,,,,,,,,,,,,,,,,495.8811192000285,496.88245480007026,495.8811192000285,496.88245480007026,495.8811192000285,496.88245480007026,495.8811192000285,496.88245480007026,up,1,0.1082159000216052,495.8811192000285,None,495.8811192000285,None,495.8811192000285,496.3817373000784,495.8811192000285,496.3817373000784,495.8811192000285,496.3817373000784,495.8811192000285,496.3817373000784,495.8811192000285,None,,,,,,,,,,,,,,,,,,,,,,,,,,,,,,,,,,,,,,,,,,11023,001,2024_Jan_07_1035,nback,2021.2.3,59.99473249222061,
1-back,instructions\back-1.png,conditions\1back-p.xlsx,instructions\1-BACK.png,"(25, 15)",practice,1,2,stim\gray.png,stim\yellow.png,stim\gray.png,stim\gray.png,down,1,0,1,0,0,1,1,1,0,19,19,19,,,,,,,,,,,,,,,,,,,,,,,,,,,497.3824009000091,498.3845381999854,497.3824009000091,498.3845381999854,497.3824009000091,498.3845381999854,497.3824009000091,498.3845381999854,down,1,0.6633893999969587,497.3824009000091,None,497.3824009000091,None,497.3824009000091,497.8834154000506,497.3824009000091,497.8834154000506,497.3824009000091,497.8834154000506,497.3824009000091,497.8834154000506,497.3824009000091,None,,,,,,,,,,,,,,,,,,,,,,,,,,,,,,,,,,,,,,,,,,11023,001,2024_Jan_07_1035,nback,2021.2.3,59.99473249222061,
1-back,instructions\back-1.png,conditions\1back-p.xlsx,instructions\1-BACK.png,"(25, 15)",,,,,,,,,1,0,1,0,0,1,1,1,,,,,,,,,,,,,,,,,,,,,,,,,,,,,,,,,,,,,,,,,,,,,,,,,,,,,,,,,,,,,,,,,,,,,,,,,,,,,,,,,,,,,,,,,,,,,,,,,11023,001,2024_Jan_07_1035,nback,2021.2.3,59.99473249222061,
2-back,instructions\back-2.png,conditions\2back-p.xlsx,instructions\2-BACK.png,"(25, 15)",practice,2,1,stim\yellow.png,stim\gray.png,stim\gray.png,stim\gray.png,None,1,0,1,0,0,2,2,2,0,0,0,0,,,,,,,,,,,,,,,,,499.001352100051,None,space,20.436091999989003,499.001352100051,None,519.5644210000755,524.0740860999795,524.055703900056,None,524.4904480000259,525.491262900061,524.4904480000259,525.491262900061,524.4904480000259,525.491262900061,524.4904480000259,525.491262900061,None,1,,524.4904480000259,None,524.4904480000259,None,524.4904480000259,524.9907882000552,524.4904480000259,524.9907882000552,524.4904480000259,524.9907882000552,524.4904480000259,524.9907882000552,524.4904480000259,None,,,,,,,,,,,,,,,,,,,,,,,,,,,,,,,,,,,,,,,,,,11023,001,2024_Jan_07_1035,nback,2021.2.3,59.99473249222061,
2-back,instructions\back-2.png,conditions\2back-p.xlsx,instructions\2-BACK.png,"(25, 15)",practice,2,2,stim\gray.png,stim\yellow.png,stim\gray.png,stim\gray.png,None,1,0,1,0,0,2,2,2,0,1,1,1,,,,,,,,,,,,,,,,,,,,,,,,,,,525.9746054999996,526.9769099000841,525.9746054999996,526.9769099000841,525.9746054999996,526.9769099000841,525.9746054999996,526.9769099000841,None,1,,525.9746054999996,None,525.9746054999996,None,525.9746054999996,526.4766264000209,525.9746054999996,526.4766264000209,525.9746054999996,526.4766264000209,525.9746054999996,526.4766264000209,525.9746054999996,None,,,,,,,,,,,,,,,,,,,,,,,,,,,,,,,,,,,,,,,,,,11023,001,2024_Jan_07_1035,nback,2021.2.3,59.99473249222061,
2-back,instructions\back-2.png,conditions\2back-p.xlsx,instructions\2-BACK.png,"(25, 15)",practice,2,3,stim\gray.png,stim\gray.png,stim\yellow.png,stim\gray.png,up,1,0,1,0,0,2,2,2,0,2,2,2,,,,,,,,,,,,,,,,,,,,,,,,,,,527.4780268999748,528.4791150999954,527.4780268999748,528.4791150999954,527.4780268999748,528.4791150999954,527.4780268999748,528.4791150999954,up,1,0.3754201999399811,527.4780268999748,None,527.4780268999748,None,527.4780268999748,527.9777211999753,527.4780268999748,527.9777211999753,527.4780268999748,527.9777211999753,527.4780268999748,527.9777211999753,527.4780268999748,None,,,,,,,,,,,,,,,,,,,,,,,,,,,,,,,,,,,,,,,,,,11023,001,2024_Jan_07_1035,nback,2021.2.3,59.99473249222061,
2-back,instructions\back-2.png,conditions\2back-p.xlsx,instructions\2-BACK.png,"(25, 15)",practice,2,4,stim\gray.png,stim\gray.png,stim\gray.png,stim\yellow.png,left,1,0,1,0,0,2,2,2,0,3,3,3,,,,,,,,,,,,,,,,,,,,,,,,,,,528.9791574000847,529.9821493000491,528.9791574000847,529.9821493000491,528.9791574000847,529.9821493000491,528.9791574000847,529.9821493000491,right,0,1.3463499000063166,528.9791574000847,None,528.9791574000847,None,528.9791574000847,529.480648900033,528.9791574000847,529.480648900033,528.9791574000847,529.480648900033,528.9791574000847,529.480648900033,528.9791574000847,None,,,,,,,,,,,,,,,,,,,,,,,,,,,,,,,,,,,,,,,,,,11023,001,2024_Jan_07_1035,nback,2021.2.3,59.99473249222061,
2-back,instructions\back-2.png,conditions\2back-p.xlsx,instructions\2-BACK.png,"(25, 15)",practice,2,2,stim\gray.png,stim\yellow.png,stim\gray.png,stim\gray.png,right,1,0,1,0,0,2,2,2,0,4,4,4,,,,,,,,,,,,,,,,,,,,,,,,,,,530.4814523999812,531.48347560002,530.4814523999812,531.48347560002,530.4814523999812,531.48347560002,530.4814523999812,531.48347560002,down,0,0.9804286999860778,530.4814523999812,None,530.4814523999812,None,530.4814523999812,530.983513000072,530.4814523999812,530.983513000072,530.4814523999812,530.983513000072,530.4814523999812,530.983513000072,530.4814523999812,None,,,,,,,,,,,,,,,,,,,,,,,,,,,,,,,,,,,,,,,,,,11023,001,2024_Jan_07_1035,nback,2021.2.3,59.99473249222061,
2-back,instructions\back-2.png,conditions\2back-p.xlsx,instructions\2-BACK.png,"(25, 15)",practice,2,1,stim\yellow.png,stim\gray.png,stim\gray.png,stim\gray.png,down,1,0,1,0,0,2,2,2,0,5,5,5,,,,,,,,,,,,,,,,,,,,,,,,,,,531.9837290999712,532.9864805000834,531.9837290999712,532.9864805000834,531.9837290999712,532.9864805000834,531.9837290999712,532.9864805000834,left,0,0.6298712999559939,531.9837290999712,None,531.9837290999712,None,531.9837290999712,532.4852056000382,531.9837290999712,532.4852056000382,531.9837290999712,532.4852056000382,531.9837290999712,532.4852056000382,531.9837290999712,None,,,,,,,,,,,,,,,,,,,,,,,,,,,,,,,,,,,,,,,,,,11023,001,2024_Jan_07_1035,nback,2021.2.3,59.99473249222061,
2-back,instructions\back-2.png,conditions\2back-p.xlsx,instructions\2-BACK.png,"(25, 15)",practice,2,4,stim\gray.png,stim\gray.png,stim\gray.png,stim\yellow.png,left,1,0,1,0,0,2,2,2,0,6,6,6,,,,,,,,,,,,,,,,,,,,,,,,,,,533.4697701000841,534.4716687999899,533.4697701000841,534.4716687999899,533.4697701000841,534.4716687999899,533.4697701000841,534.4716687999899,up,0,0.3847002999391407,533.4697701000841,None,533.4697701000841,None,533.4697701000841,533.9701810000697,533.4697701000841,533.9701810000697,533.4697701000841,533.9701810000697,533.4697701000841,533.9701810000697,533.4697701000841,None,,,,,,,,,,,,,,,,,,,,,,,,,,,,,,,,,,,,,,,,,,11023,001,2024_Jan_07_1035,nback,2021.2.3,59.99473249222061,
2-back,instructions\back-2.png,conditions\2back-p.xlsx,instructions\2-BACK.png,"(25, 15)",practice,2,3,stim\gray.png,stim\gray.png,stim\yellow.png,stim\gray.png,up,1,0,1,0,0,2,2,2,0,7,7,7,,,,,,,,,,,,,,,,,,,,,,,,,,,534.9716503000818,535.9748392000329,534.9716503000818,535.9748392000329,534.9716503000818,535.9748392000329,534.9716503000818,535.9748392000329,down,0,0.2179486999521032,534.9716503000818,None,534.9716503000818,None,534.9716503000818,535.4723276000004,534.9716503000818,535.4723276000004,534.9716503000818,535.4723276000004,534.9716503000818,535.4723276000004,534.9716503000818,None,,,,,,,,,,,,,,,,,,,,,,,,,,,,,,,,,,,,,,,,,,11023,001,2024_Jan_07_1035,nback,2021.2.3,59.99473249222061,
2-back,instructions\back-2.png,conditions\2back-p.xlsx,instructions\2-BACK.png,"(25, 15)",practice,2,3,stim\gray.png,stim\gray.png,stim\yellow.png,stim\gray.png,down,1,0,1,0,0,2,2,2,0,8,8,8,,,,,,,,,,,,,,,,,,,,,,,,,,,536.4748778999783,537.4754626000067,536.4748778999783,537.4754626000067,536.4748778999783,537.4754626000067,536.4748778999783,537.4754626000067,right,0,0.14652409998234361,536.4748778999783,None,536.4748778999783,None,536.4748778999783,536.975256600068,536.4748778999783,536.975256600068,536.4748778999783,536.975256600068,536.4748778999783,536.975256600068,536.4748778999783,None,,,,,,,,,,,,,,,,,,,,,,,,,,,,,,,,,,,,,,,,,,11023,001,2024_Jan_07_1035,nback,2021.2.3,59.99473249222061,
2-back,instructions\back-2.png,conditions\2back-p.xlsx,instructions\2-BACK.png,"(25, 15)",practice,2,4,stim\gray.png,stim\gray.png,stim\gray.png,stim\yellow.png,right,1,0,1,0,0,2,2,2,0,9,9,9,,,,,,,,,,,,,,,,,,,,,,,,,,,537.9757799999788,538.9777430000249,537.9757799999788,538.9777430000249,537.9757799999788,538.9777430000249,537.9757799999788,538.9777430000249,right,1,0.1824109998997301,537.9757799999788,None,537.9757799999788,None,537.9757799999788,538.4776559000602,537.9757799999788,538.4776559000602,537.9757799999788,538.4776559000602,537.9757799999788,538.4776559000602,537.9757799999788,None,,,,,,,,,,,,,,,,,,,,,,,,,,,,,,,,,,,,,,,,,,11023,001,2024_Jan_07_1035,nback,2021.2.3,59.99473249222061,
2-back,instructions\back-2.png,conditions\2back-p.xlsx,instructions\2-BACK.png,"(25, 15)",practice,2,1,stim\yellow.png,stim\gray.png,stim\gray.png,stim\gray.png,right,1,0,1,0,0,2,2,2,0,10,10,10,,,,,,,,,,,,,,,,,,,,,,,,,,,539.4793274999829,540.4804580999771,539.4793274999829,540.4804580999771,539.4793274999829,540.4804580999771,539.4793274999829,540.4804580999771,down,0,0.21456589992158115,539.4793274999829,None,539.4793274999829,None,539.4793274999829,539.9795221000677,539.4793274999829,539.9795221000677,539.4793274999829,539.9795221000677,539.4793274999829,539.9795221000677,539.4793274999829,None,,,,,,,,,,,,,,,,,,,,,,,,,,,,,,,,,,,,,,,,,,11023,001,2024_Jan_07_1035,nback,2021.2.3,59.99473249222061,
2-back,instructions\back-2.png,conditions\2back-p.xlsx,instructions\2-BACK.png,"(25, 15)",practice,2,2,stim\gray.png,stim\yellow.png,stim\gray.png,stim\gray.png,down,1,0,1,0,0,2,2,2,0,11,11,11,,,,,,,,,,,,,,,,,,,,,,,,,,,540.9804390000645,541.9829045999795,540.9804390000645,541.9829045999795,540.9804390000645,541.9829045999795,540.9804390000645,541.9829045999795,left,0,0.34495269996114075,540.9804390000645,None,540.9804390000645,None,540.9804390000645,541.4811572000617,540.9804390000645,541.4811572000617,540.9804390000645,541.4811572000617,540.9804390000645,541.4811572000617,540.9804390000645,None,,,,,,,,,,,,,,,,,,,,,,,,,,,,,,,,,,,,,,,,,,11023,001,2024_Jan_07_1035,nback,2021.2.3,59.99473249222061,
2-back,instructions\back-2.png,conditions\2back-p.xlsx,instructions\2-BACK.png,"(25, 15)",practice,2,4,stim\gray.png,stim\gray.png,stim\gray.png,stim\yellow.png,up,1,0,1,0,0,2,2,2,0,12,12,12,,,,,,,,,,,,,,,,,,,,,,,,,,,542.48248840007,543.484850000008,542.48248840007,543.484850000008,542.48248840007,543.484850000008,542.48248840007,543.484850000008,None,0,,542.48248840007,None,542.48248840007,None,542.48248840007,542.983710700064,542.48248840007,542.983710700064,542.48248840007,542.983710700064,542.48248840007,542.983710700064,542.48248840007,None,,,,,,,,,,,,,,,,,,,,,,,,,,,,,,,,,,,,,,,,,,11023,001,2024_Jan_07_1035,nback,2021.2.3,59.99473249222061,
2-back,instructions\back-2.png,conditions\2back-p.xlsx,instructions\2-BACK.png,"(25, 15)",practice,2,3,stim\gray.png,stim\gray.png,stim\yellow.png,stim\gray.png,left,1,0,1,0,0,2,2,2,0,13,13,13,,,,,,,,,,,,,,,,,,,,,,,,,,,543.9689737000735,544.9700942999916,543.9689737000735,544.9700942999916,543.9689737000735,544.9700942999916,543.9689737000735,544.9700942999916,None,0,,543.9689737000735,None,543.9689737000735,None,543.9689737000735,544.4693807000294,543.9689737000735,544.4693807000294,543.9689737000735,544.4693807000294,543.9689737000735,544.4693807000294,543.9689737000735,None,,,,,,,,,,,,,,,,,,,,,,,,,,,,,,,,,,,,,,,,,,11023,001,2024_Jan_07_1035,nback,2021.2.3,59.99473249222061,
2-back,instructions\back-2.png,conditions\2back-p.xlsx,instructions\2-BACK.png,"(25, 15)",practice,2,1,stim\yellow.png,stim\gray.png,stim\gray.png,stim\gray.png,down,1,0,1,0,0,2,2,2,0,14,14,14,,,,,,,,,,,,,,,,,,,,,,,,,,,545.4703336000675,546.4720136000542,545.4703336000675,546.4720136000542,545.4703336000675,546.4720136000542,545.4703336000675,546.4720136000542,down,1,0.2712996000191197,545.4703336000675,None,545.4703336000675,None,545.4703336000675,545.9721401999705,545.4703336000675,545.9721401999705,545.4703336000675,545.9721401999705,545.4703336000675,545.9721401999705,545.4703336000675,None,,,,,,,,,,,,,,,,,,,,,,,,,,,,,,,,,,,,,,,,,,11023,001,2024_Jan_07_1035,nback,2021.2.3,59.99473249222061,
2-back,instructions\back-2.png,conditions\2back-p.xlsx,instructions\2-BACK.png,"(25, 15)",practice,2,2,stim\gray.png,stim\yellow.png,stim\gray.png,stim\gray.png,right,1,0,1,0,0,2,2,2,0,15,15,15,,,,,,,,,,,,,,,,,,,,,,,,,,,546.9724827000173,547.9746126000537,546.9724827000173,547.9746126000537,546.9724827000173,547.9746126000537,546.9724827000173,547.9746126000537,up,0,1.3853515000082552,546.9724827000173,None,546.9724827000173,None,546.9724827000173,547.4743740999838,546.9724827000173,547.4743740999838,546.9724827000173,547.4743740999838,546.9724827000173,547.4743740999838,546.9724827000173,None,,,,,,,,,,,,,,,,,,,,,,,,,,,,,,,,,,,,,,,,,,11023,001,2024_Jan_07_1035,nback,2021.2.3,59.99473249222061,
2-back,instructions\back-2.png,conditions\2back-p.xlsx,instructions\2-BACK.png,"(25, 15)",practice,2,3,stim\gray.png,stim\gray.png,stim\yellow.png,stim\gray.png,up,1,0,1,0,0,2,2,2,0,16,16,16,,,,,,,,,,,,,,,,,,,,,,,,,,,548.4748096000403,549.4766964999726,548.4748096000403,549.4766964999726,548.4748096000403,549.4766964999726,548.4748096000403,549.4766964999726,left,0,1.3466960999649018,548.4748096000403,None,548.4748096000403,None,548.4748096000403,548.975641499972,548.4748096000403,548.975641499972,548.4748096000403,548.975641499972,548.4748096000403,548.975641499972,548.4748096000403,None,,,,,,,,,,,,,,,,,,,,,,,,,,,,,,,,,,,,,,,,,,11023,001,2024_Jan_07_1035,nback,2021.2.3,59.99473249222061,
2-back,instructions\back-2.png,conditions\2back-p.xlsx,instructions\2-BACK.png,"(25, 15)",practice,2,1,stim\yellow.png,stim\gray.png,stim\gray.png,stim\gray.png,left,1,0,1,0,0,2,2,2,0,17,17,17,,,,,,,,,,,,,,,,,,,,,,,,,,,549.9770090000238,550.9790124000283,549.9770090000238,550.9790124000283,549.9770090000238,550.9790124000283,549.9770090000238,550.9790124000283,right,0,1.2691773000406101,549.9770090000238,None,549.9770090000238,None,549.9770090000238,550.478983100038,549.9770090000238,550.478983100038,549.9770090000238,550.478983100038,549.9770090000238,550.478983100038,549.9770090000238,None,,,,,,,,,,,,,,,,,,,,,,,,,,,,,,,,,,,,,,,,,,11023,001,2024_Jan_07_1035,nback,2021.2.3,59.99473249222061,
2-back,instructions\back-2.png,conditions\2back-p.xlsx,instructions\2-BACK.png,"(25, 15)",practice,2,4,stim\gray.png,stim\gray.png,stim\gray.png,stim\yellow.png,right,1,0,1,0,0,2,2,2,0,18,18,18,,,,,,,,,,,,,,,,,,,,,,,,,,,551.4790848999983,552.4814429000253,551.4790848999983,552.4814429000253,551.4790848999983,552.4814429000253,551.4790848999983,552.4814429000253,up,0,1.1746445000171661,551.4790848999983,None,551.4790848999983,None,551.4790848999983,551.980154799996,551.4790848999983,551.980154799996,551.4790848999983,551.980154799996,551.4790848999983,551.980154799996,551.4790848999983,None,,,,,,,,,,,,,,,,,,,,,,,,,,,,,,,,,,,,,,,,,,11023,001,2024_Jan_07_1035,nback,2021.2.3,59.99473249222061,
2-back,instructions\back-2.png,conditions\2back-p.xlsx,instructions\2-BACK.png,"(25, 15)",practice,2,2,stim\gray.png,stim\yellow.png,stim\gray.png,stim\gray.png,up,1,0,1,0,0,2,2,2,0,19,19,19,,,,,,,,,,,,,,,,,,,,,,,,,,,552.9815181000158,553.9839017000049,552.9815181000158,553.9839017000049,552.9815181000158,553.9839017000049,552.9815181000158,553.9839017000049,down,0,0.9529021000489593,552.9815181000158,None,552.9815181000158,None,552.9815181000158,553.4831741000526,552.9815181000158,553.4831741000526,552.9815181000158,553.4831741000526,552.9815181000158,553.4831741000526,552.9815181000158,None,,,,,,,,,,,,,,,,,,,,,,,,,,,,,,,,,,,,,,,,,,11023,001,2024_Jan_07_1035,nback,2021.2.3,59.99473249222061,
2-back,instructions\back-2.png,conditions\2back-p.xlsx,instructions\2-BACK.png,"(25, 15)",,,,,,,,,1,0,1,0,0,2,2,2,,,,,,,,,,,,,,,,,,,,,,,,,,,,,,,,,,,,,,,,,,,,,,,,,,,,,,,,,,,,,,,,,,,,,,,,,,,,,,,,,,,,,,,,,,,,,,,,,11023,001,2024_Jan_07_1035,nback,2021.2.3,59.99473249222061,
,,,,,,,,,,,,,1,0,1,0,,,,,,,,,,,,,,,,,,,,,,,,,,,,,,,,,,,,,,,,,,,,,,,,,,,,,,,,,,,,554.4843370000599,None,space,5.961194000090472,554.4843370000599,None,,,,,,,,,,,,,,,,,,,,,,,,,,,,,,,,,,,,11023,001,2024_Jan_07_1035,nback,2021.2.3,59.99473249222061,
,,,,,,,,,,,,,,,,,,,,,,,,,,,,,,,,,,,,,,,,,,,,,,,,,,,,,,,,,,,,,,,,,,,,,,,,,,,,,,,,,,560.475809100084,None,space,29.81790679995902,560.475809100084,None,,,,,,,,,,,,,,,,,,,,,,,,,,,,,,11023,001,2024_Jan_07_1035,nback,2021.2.3,59.99473249222061,
1-back,instructions\back-1.png,conditions\12back-e.xlsx,,,experiment,1,2,stim\gray.png,stim\yellow.png,stim\gray.png,stim\gray.png,None,,,,,,,,,,,,,0,0,0,6,0,0,0,0,,,,,,,,,,,,,,,590.4535295000533,594.9613155000843,594.9109626000281,None,,,,,,,,,,,,,,,,,,,,,,,,,,,,,,,,,,,,,,None,1,595.3444168000715,None,595.3444168000715,None,595.3444168000715,596.3465422000736,595.3444168000715,596.3465422000736,595.3444168000715,596.3465422000736,595.3444168000715,596.3465422000736,595.3444168000715,595.84573489998,595.3444168000715,595.84573489998,595.3444168000715,595.84573489998,595.3444168000715,595.84573489998,595.3444168000715,None,,,,,,11023,001,2024_Jan_07_1035,nback,2021.2.3,59.99473249222061,
1-back,instructions\back-1.png,conditions\12back-e.xlsx,,,experiment,1,3,stim\gray.png,stim\gray.png,stim\yellow.png,stim\gray.png,left,,,,,,,,,,,,,0,0,0,6,0,1,1,1,,,,,,,,,,,,,,,,,,,,,,,,,,,,,,,,,,,,,,,,,,,,,,,,,,,,,,,,left,1,596.8310553000774,None,596.8310553000774,None,596.8310553000774,597.8313192999922,596.8310553000774,597.8313192999922,596.8310553000774,597.8313192999922,596.8310553000774,597.8313192999922,596.8310553000774,597.3309314000653,596.8310553000774,597.3309314000653,596.8310553000774,597.3309314000653,596.8310553000774,597.3309314000653,596.8310553000774,None,0.3103920998983085,,,,,11023,001,2024_Jan_07_1035,nback,2021.2.3,59.99473249222061,
1-back,instructions\back-1.png,conditions\12back-e.xlsx,,,experiment,1,4,stim\gray.png,stim\gray.png,stim\gray.png,stim\yellow.png,right,,,,,,,,,,,,,0,0,0,6,0,2,2,2,,,,,,,,,,,,,,,,,,,,,,,,,,,,,,,,,,,,,,,,,,,,,,,,,,,,,,,,down,0,598.332451299997,None,598.332451299997,None,598.332451299997,599.3342057000846,598.332451299997,599.3342057000846,598.332451299997,599.3342057000846,598.332451299997,599.3342057000846,598.332451299997,598.8338714999845,598.332451299997,598.8338714999845,598.332451299997,598.8338714999845,598.332451299997,598.8338714999845,598.332451299997,None,1.313415199983865,,,,,11023,001,2024_Jan_07_1035,nback,2021.2.3,59.99473249222061,
1-back,instructions\back-1.png,conditions\12back-e.xlsx,,,experiment,1,3,stim\gray.png,stim\gray.png,stim\yellow.png,stim\gray.png,down,,,,,,,,,,,,,0,0,0,6,0,3,3,3,,,,,,,,,,,,,,,,,,,,,,,,,,,,,,,,,,,,,,,,,,,,,,,,,,,,,,,,right,0,599.8346176000778,None,599.8346176000778,None,599.8346176000778,600.8356239000568,599.8346176000778,600.8356239000568,599.8346176000778,600.8356239000568,599.8346176000778,600.8356239000568,599.8346176000778,600.334994200035,599.8346176000778,600.334994200035,599.8346176000778,600.334994200035,599.8346176000778,600.334994200035,599.8346176000778,None,1.2588475999655202,,,,,11023,001,2024_Jan_07_1035,nback,2021.2.3,59.99473249222061,
1-back,instructions\back-1.png,conditions\12back-e.xlsx,,,experiment,1,1,stim\yellow.png,stim\gray.png,stim\gray.png,stim\gray.png,right,,,,,,,,,,,,,0,0,0,6,0,4,4,4,,,,,,,,,,,,,,,,,,,,,,,,,,,,,,,,,,,,,,,,,,,,,,,,,,,,,,,,up,0,601.3360324000241,None,601.3360324000241,None,601.3360324000241,602.3378702000482,601.3360324000241,602.3378702000482,601.3360324000241,602.3378702000482,601.3360324000241,602.3378702000482,601.3360324000241,601.8380892999703,601.3360324000241,601.8380892999703,601.3360324000241,601.8380892999703,601.3360324000241,601.8380892999703,601.3360324000241,None,1.1576069000875577,,,,,11023,001,2024_Jan_07_1035,nback,2021.2.3,59.99473249222061,
1-back,instructions\back-1.png,conditions\12back-e.xlsx,,,experiment,1,2,stim\gray.png,stim\yellow.png,stim\gray.png,stim\gray.png,up,,,,,,,,,,,,,0,0,0,6,0,5,5,5,,,,,,,,,,,,,,,,,,,,,,,,,,,,,,,,,,,,,,,,,,,,,,,,,,,,,,,,left,0,602.8386090999702,None,602.8386090999702,None,602.8386090999702,603.8409661999904,602.8386090999702,603.8409661999904,602.8386090999702,603.8409661999904,602.8386090999702,603.8409661999904,602.8386090999702,603.3395102000795,602.8386090999702,603.3395102000795,602.8386090999702,603.3395102000795,602.8386090999702,603.3395102000795,602.8386090999702,None,0.8709115999517962,,,,,11023,001,2024_Jan_07_1035,nback,2021.2.3,59.99473249222061,
1-back,instructions\back-1.png,conditions\12back-e.xlsx,,,experiment,1,2,stim\gray.png,stim\yellow.png,stim\gray.png,stim\gray.png,left,,,,,,,,,,,,,0,0,0,6,0,6,6,6,,,,,,,,,,,,,,,,,,,,,,,,,,,,,,,,,,,,,,,,,,,,,,,,,,,,,,,,left,1,604.3244416000089,None,604.3244416000089,None,604.3244416000089,605.3266706999857,604.3244416000089,605.3266706999857,604.3244416000089,605.3266706999857,604.3244416000089,605.3266706999857,604.3244416000089,604.8257721000118,604.3244416000089,604.8257721000118,604.3244416000089,604.8257721000118,604.3244416000089,604.8257721000118,604.3244416000089,None,0.7371136000147089,,,,,11023,001,2024_Jan_07_1035,nback,2021.2.3,59.99473249222061,
1-back,instructions\back-1.png,conditions\12back-e.xlsx,,,experiment,1,4,stim\gray.png,stim\gray.png,stim\gray.png,stim\yellow.png,left,,,,,,,,,,,,,0,0,0,6,0,7,7,7,,,,,,,,,,,,,,,,,,,,,,,,,,,,,,,,,,,,,,,,,,,,,,,,,,,,,,,,down,0,605.826985700056,None,605.826985700056,None,605.826985700056,606.8285329000792,605.826985700056,606.8285329000792,605.826985700056,606.8285329000792,605.826985700056,606.8285329000792,605.826985700056,606.3278596000746,605.826985700056,606.3278596000746,605.826985700056,606.3278596000746,605.826985700056,606.3278596000746,605.826985700056,None,0.6992401001043618,,,,,11023,001,2024_Jan_07_1035,nback,2021.2.3,59.99473249222061,
1-back,instructions\back-1.png,conditions\12back-e.xlsx,,,experiment,1,1,stim\yellow.png,stim\gray.png,stim\gray.png,stim\gray.png,down,,,,,,,,,,,,,0,0,0,6,0,8,8,8,,,,,,,,,,,,,,,,,,,,,,,,,,,,,,,,,,,,,,,,,,,,,,,,,,,,,,,,up,0,607.3286077000666,None,607.3286077000666,None,607.3286077000666,608.330955500016,607.3286077000666,608.330955500016,607.3286077000666,608.330955500016,607.3286077000666,608.330955500016,607.3286077000666,607.8307776000584,607.3286077000666,607.8307776000584,607.3286077000666,607.8307776000584,607.3286077000666,607.8307776000584,607.3286077000666,None,0.7968995999544859,,,,,11023,001,2024_Jan_07_1035,nback,2021.2.3,59.99473249222061,
1-back,instructions\back-1.png,conditions\12back-e.xlsx,,,experiment,1,3,stim\gray.png,stim\gray.png,stim\yellow.png,stim\gray.png,up,,,,,,,,,,,,,0,0,0,6,0,9,9,9,,,,,,,,,,,,,,,,,,,,,,,,,,,,,,,,,,,,,,,,,,,,,,,,,,,,,,,,None,0,608.8309158000629,None,608.8309158000629,None,608.8309158000629,609.8335793999722,608.8309158000629,609.8335793999722,608.8309158000629,609.8335793999722,608.8309158000629,609.8335793999722,608.8309158000629,609.33252549998,608.8309158000629,609.33252549998,608.8309158000629,609.33252549998,608.8309158000629,609.33252549998,608.8309158000629,None,,,,,,11023,001,2024_Jan_07_1035,nback,2021.2.3,59.99473249222061,
1-back,instructions\back-1.png,conditions\12back-e.xlsx,,,experiment,1,4,stim\gray.png,stim\gray.png,stim\gray.png,stim\yellow.png,right,,,,,,,,,,,,,0,0,0,6,0,10,10,10,,,,,,,,,,,,,,,,,,,,,,,,,,,,,,,,,,,,,,,,,,,,,,,,,,,,,,,,down,0,610.3331110000145,None,610.3331110000145,None,610.3331110000145,611.3351476000389,610.3331110000145,611.3351476000389,610.3331110000145,611.3351476000389,610.3331110000145,611.3351476000389,610.3331110000145,610.8347303000046,610.3331110000145,610.8347303000046,610.3331110000145,610.8347303000046,610.3331110000145,610.8347303000046,610.3331110000145,None,1.3853292000712827,,,,,11023,001,2024_Jan_07_1035,nback,2021.2.3,59.99473249222061,
1-back,instructions\back-1.png,conditions\12back-e.xlsx,,,experiment,1,3,stim\gray.png,stim\gray.png,stim\yellow.png,stim\gray.png,down,,,,,,,,,,,,,0,0,0,6,0,11,11,11,,,,,,,,,,,,,,,,,,,,,,,,,,,,,,,,,,,,,,,,,,,,,,,,,,,,,,,,None,0,611.8351980000734,None,611.8351980000734,None,611.8351980000734,612.8374796999851,611.8351980000734,612.8374796999851,611.8351980000734,612.8374796999851,611.8351980000734,612.8374796999851,611.8351980000734,612.3369766999967,611.8351980000734,612.3369766999967,611.8351980000734,612.3369766999967,611.8351980000734,612.3369766999967,611.8351980000734,None,,,,,,11023,001,2024_Jan_07_1035,nback,2021.2.3,59.99473249222061,
1-back,instructions\back-1.png,conditions\12back-e.xlsx,,,experiment,1,1,stim\yellow.png,stim\gray.png,stim\gray.png,stim\gray.png,left,,,,,,,,,,,,,0,0,0,6,0,12,12,12,,,,,,,,,,,,,,,,,,,,,,,,,,,,,,,,,,,,,,,,,,,,,,,,,,,,,,,,up,0,613.3376906000776,None,613.3376906000776,None,613.3376906000776,614.3391350000165,613.3376906000776,614.3391350000165,613.3376906000776,614.3391350000165,613.3376906000776,614.3391350000165,613.3376906000776,613.8384031000314,613.3376906000776,613.8384031000314,613.3376906000776,613.8384031000314,613.3376906000776,613.8384031000314,613.3376906000776,None,1.4037769000278786,,,,,11023,001,2024_Jan_07_1035,nback,2021.2.3,59.99473249222061,
1-back,instructions\back-1.png,conditions\12back-e.xlsx,,,experiment,1,4,stim\gray.png,stim\gray.png,stim\gray.png,stim\yellow.png,up,,,,,,,,,,,,,0,0,0,6,0,13,13,13,,,,,,,,,,,,,,,,,,,,,,,,,,,,,,,,,,,,,,,,,,,,,,,,,,,,,,,,down,0,614.8230582000688,None,614.8230582000688,None,614.8230582000688,615.8251684000716,614.8230582000688,615.8251684000716,614.8230582000688,615.8251684000716,614.8230582000688,615.8251684000716,614.8230582000688,615.3247397000669,614.8230582000688,615.3247397000669,614.8230582000688,615.3247397000669,614.8230582000688,615.3247397000669,614.8230582000688,None,1.222763399942778,,,,,11023,001,2024_Jan_07_1035,nback,2021.2.3,59.99473249222061,
1-back,instructions\back-1.png,conditions\12back-e.xlsx,,,experiment,1,1,stim\yellow.png,stim\gray.png,stim\gray.png,stim\gray.png,down,,,,,,,,,,,,,0,0,0,6,0,14,14,14,,,,,,,,,,,,,,,,,,,,,,,,,,,,,,,,,,,,,,,,,,,,,,,,,,,,,,,,up,0,616.325308599975,None,616.325308599975,None,616.325308599975,617.3278393000364,616.325308599975,617.3278393000364,616.325308599975,617.3278393000364,616.325308599975,617.3278393000364,616.325308599975,616.8263856000267,616.325308599975,616.8263856000267,616.325308599975,616.8263856000267,616.325308599975,616.8263856000267,616.325308599975,None,1.2242447999306023,,,,,11023,001,2024_Jan_07_1035,nback,2021.2.3,59.99473249222061,
