backseq,backinstr,backfile,instruction,size_in,Trialtype,back,number,P1,P2,P3,P4,corrAns,trials_practice.thisRepN,trials_practice.thisTrialN,trials_practice.thisN,trials_practice.thisIndex,trials.thisRepN,trials.thisTrialN,trials.thisN,trials.thisIndex,trials_3.thisRepN,trials_3.thisTrialN,trials_3.thisN,trials_3.thisIndex,trials_2.thisRepN,trials_2.thisTrialN,trials_2.thisN,trials_2.thisIndex,trials_4.thisRepN,trials_4.thisTrialN,trials_4.thisN,trials_4.thisIndex,image.started,image.stopped,image_2.started,image_2.stopped,key_resp.keys,key_resp.rt,key_resp.started,key_resp.stopped,image_3.started,image_3.stopped,key_resp_2.keys,key_resp_2.rt,key_resp_2.started,key_resp_2.stopped,image_4.started,image_4.stopped,text.started,text.stopped,H1.started,H1.stopped,H2.started,H2.stopped,H3.started,H3.stopped,H4.started,H4.stopped,key_resp_3.keys,key_resp_3.corr,key_resp_3.rt,key_resp_3.started,key_resp_3.stopped,text_4.started,text_4.stopped,F1.started,F1.stopped,F2.started,F2.stopped,F3.started,F3.stopped,F4.started,F4.stopped,image_7.started,image_7.stopped,text_5.started,text_5.stopped,key_resp_6.keys,key_resp_6.rt,key_resp_6.started,key_resp_6.stopped,image_5.started,image_5.stopped,key_resp_4.keys,key_resp_4.rt,key_resp_4.started,key_resp_4.stopped,key_resp_5.keys,key_resp_5.corr,key_resp_5.started,key_resp_5.stopped,text_3.started,text_3.stopped,H1_2.started,H1_2.stopped,H2_2.started,H2_2.stopped,H3_2.started,H3_2.stopped,H4_2.started,H4_2.stopped,F1_2.started,F1_2.stopped,F2_2.started,F2_2.stopped,F3_2.started,F3_2.stopped,F4_2.started,F4_2.stopped,image_8.started,image_8.stopped,key_resp_5.rt,text_2.started,text_2.stopped,image_6.started,image_6.stopped,participant,session,date,expName,psychopyVersion,frameRate,
,,,,,,,,,,,,,,,,,,,,,,,,,,,,,,,,,10.723498999956064,None,11.691921299905516,None,space,1.9719121999805793,11.691921299905516,None,,,,,,,,,,,,,,,,,,,,,,,,,,,,,,,,,,,,,,,,,,,,,,,,,,,,,,,,,,,,,,,,,,,,,,,,,,,,,11021,001,2024_Jan_05_1139,nback,2021.2.3,59.95408717337748,
0-back,instructions\back-0.png,conditions\0back-p.xlsx,instructions\0-BACK.png,"(15, 8)",practice,0,1,stim\yellow.png,stim\gray.png,stim\gray.png,stim\gray.png,up,0,0,0,0,0,0,0,0,0,0,0,0,,,,,,,,,,,,,,,,,13.72840779996477,None,space,100.9916482999688,13.72840779996477,None,114.8940350000048,119.40148549992591,119.35199419991113,None,119.76978549989872,120.7704064999707,119.76978549989872,120.7704064999707,119.76978549989872,120.7704064999707,119.76978549989872,120.7704064999707,up,1,0.47034030000213534,119.76978549989872,None,119.76978549989872,None,119.76978549989872,120.27022889989894,119.76978549989872,120.27022889989894,119.76978549989872,120.27022889989894,119.76978549989872,120.27022889989894,119.76978549989872,None,,,,,,,,,,,,,,,,,,,,,,,,,,,,,,,,,,,,,,,,,,11021,001,2024_Jan_05_1139,nback,2021.2.3,59.95408717337748,
0-back,instructions\back-0.png,conditions\0back-p.xlsx,instructions\0-BACK.png,"(15, 8)",practice,0,2,stim\gray.png,stim\yellow.png,stim\gray.png,stim\gray.png,left,0,0,0,0,0,0,0,0,0,1,1,1,,,,,,,,,,,,,,,,,,,,,,,,,,,121.25376019999385,122.25591209996492,121.25376019999385,122.25591209996492,121.25376019999385,122.25591209996492,121.25376019999385,122.25591209996492,left,1,0.4583666999824345,121.25376019999385,None,121.25376019999385,None,121.25376019999385,121.75550480000675,121.25376019999385,121.75550480000675,121.25376019999385,121.75550480000675,121.25376019999385,121.75550480000675,121.25376019999385,None,,,,,,,,,,,,,,,,,,,,,,,,,,,,,,,,,,,,,,,,,,11021,001,2024_Jan_05_1139,nback,2021.2.3,59.95408717337748,
0-back,instructions\back-0.png,conditions\0back-p.xlsx,instructions\0-BACK.png,"(15, 8)",practice,0,3,stim\gray.png,stim\gray.png,stim\yellow.png,stim\gray.png,right,0,0,0,0,0,0,0,0,0,2,2,2,,,,,,,,,,,,,,,,,,,,,,,,,,,122.75646039994899,123.75895149994176,122.75646039994899,123.75895149994176,122.75646039994899,123.75895149994176,122.75646039994899,123.75895149994176,right,1,0.5483535000821576,122.75646039994899,None,122.75646039994899,None,122.75646039994899,123.257272799965,122.75646039994899,123.257272799965,122.75646039994899,123.257272799965,122.75646039994899,123.257272799965,122.75646039994899,None,,,,,,,,,,,,,,,,,,,,,,,,,,,,,,,,,,,,,,,,,,11021,001,2024_Jan_05_1139,nback,2021.2.3,59.95408717337748,
0-back,instructions\back-0.png,conditions\0back-p.xlsx,instructions\0-BACK.png,"(15, 8)",practice,0,4,stim\gray.png,stim\gray.png,stim\gray.png,stim\yellow.png,down,0,0,0,0,0,0,0,0,0,3,3,3,,,,,,,,,,,,,,,,,,,,,,,,,,,124.25873080000747,125.26111709990073,124.25873080000747,125.26111709990073,124.25873080000747,125.26111709990073,124.25873080000747,125.26111709990073,down,1,0.48539940000046045,124.25873080000747,None,124.25873080000747,None,124.25873080000747,124.75947019993328,124.25873080000747,124.75947019993328,124.25873080000747,124.75947019993328,124.25873080000747,124.75947019993328,124.25873080000747,None,,,,,,,,,,,,,,,,,,,,,,,,,,,,,,,,,,,,,,,,,,11021,001,2024_Jan_05_1139,nback,2021.2.3,59.95408717337748,
0-back,instructions\back-0.png,conditions\0back-p.xlsx,instructions\0-BACK.png,"(15, 8)",practice,0,2,stim\gray.png,stim\yellow.png,stim\gray.png,stim\gray.png,left,0,0,0,0,0,0,0,0,0,4,4,4,,,,,,,,,,,,,,,,,,,,,,,,,,,125.76205509994179,126.76269919995684,125.76205509994179,126.76269919995684,125.76205509994179,126.76269919995684,125.76205509994179,126.76269919995684,left,1,0.4862128000240773,125.76205509994179,None,125.76205509994179,None,125.76205509994179,126.26195229997393,125.76205509994179,126.26195229997393,125.76205509994179,126.26195229997393,125.76205509994179,126.26195229997393,125.76205509994179,None,,,,,,,,,,,,,,,,,,,,,,,,,,,,,,,,,,,,,,,,,,11021,001,2024_Jan_05_1139,nback,2021.2.3,59.95408717337748,
0-back,instructions\back-0.png,conditions\0back-p.xlsx,instructions\0-BACK.png,"(15, 8)",practice,0,1,stim\yellow.png,stim\gray.png,stim\gray.png,stim\gray.png,up,0,0,0,0,0,0,0,0,0,5,5,5,,,,,,,,,,,,,,,,,,,,,,,,,,,127.26277309993748,128.2648042999208,127.26277309993748,128.2648042999208,127.26277309993748,128.2648042999208,127.26277309993748,128.2648042999208,up,1,0.2812841000268236,127.26277309993748,None,127.26277309993748,None,127.26277309993748,127.76475629990455,127.26277309993748,127.76475629990455,127.26277309993748,127.76475629990455,127.26277309993748,127.76475629990455,127.26277309993748,None,,,,,,,,,,,,,,,,,,,,,,,,,,,,,,,,,,,,,,,,,,11021,001,2024_Jan_05_1139,nback,2021.2.3,59.95408717337748,
0-back,instructions\back-0.png,conditions\0back-p.xlsx,instructions\0-BACK.png,"(15, 8)",practice,0,4,stim\gray.png,stim\gray.png,stim\gray.png,stim\yellow.png,down,0,0,0,0,0,0,0,0,0,6,6,6,,,,,,,,,,,,,,,,,,,,,,,,,,,128.76536259998102,129.76724919991102,128.76536259998102,129.76724919991102,128.76536259998102,129.76724919991102,128.76536259998102,129.76724919991102,down,1,0.45869750005658716,128.76536259998102,None,128.76536259998102,None,128.76536259998102,129.26669159997255,128.76536259998102,129.26669159997255,128.76536259998102,129.26669159997255,128.76536259998102,129.26669159997255,128.76536259998102,None,,,,,,,,,,,,,,,,,,,,,,,,,,,,,,,,,,,,,,,,,,11021,001,2024_Jan_05_1139,nback,2021.2.3,59.95408717337748,
0-back,instructions\back-0.png,conditions\0back-p.xlsx,instructions\0-BACK.png,"(15, 8)",practice,0,3,stim\gray.png,stim\gray.png,stim\yellow.png,stim\gray.png,right,0,0,0,0,0,0,0,0,0,7,7,7,,,,,,,,,,,,,,,,,,,,,,,,,,,130.25081919995137,131.25288239994552,130.25081919995137,131.25288239994552,130.25081919995137,131.25288239994552,130.25081919995137,131.25288239994552,right,1,0.4217371999984607,130.25081919995137,None,130.25081919995137,None,130.25081919995137,130.75162140000612,130.25081919995137,130.75162140000612,130.25081919995137,130.75162140000612,130.25081919995137,130.75162140000612,130.25081919995137,None,,,,,,,,,,,,,,,,,,,,,,,,,,,,,,,,,,,,,,,,,,11021,001,2024_Jan_05_1139,nback,2021.2.3,59.95408717337748,
0-back,instructions\back-0.png,conditions\0back-p.xlsx,instructions\0-BACK.png,"(15, 8)",practice,0,3,stim\gray.png,stim\gray.png,stim\yellow.png,stim\gray.png,right,0,0,0,0,0,0,0,0,0,8,8,8,,,,,,,,,,,,,,,,,,,,,,,,,,,131.7533364999108,132.75549499993213,131.7533364999108,132.75549499993213,131.7533364999108,132.75549499993213,131.7533364999108,132.75549499993213,right,1,0.4632225000532344,131.7533364999108,None,131.7533364999108,None,131.7533364999108,132.2538101999089,131.7533364999108,132.2538101999089,131.7533364999108,132.2538101999089,131.7533364999108,132.2538101999089,131.7533364999108,None,,,,,,,,,,,,,,,,,,,,,,,,,,,,,,,,,,,,,,,,,,11021,001,2024_Jan_05_1139,nback,2021.2.3,59.95408717337748,
0-back,instructions\back-0.png,conditions\0back-p.xlsx,instructions\0-BACK.png,"(15, 8)",practice,0,4,stim\gray.png,stim\gray.png,stim\gray.png,stim\yellow.png,down,0,0,0,0,0,0,0,0,0,9,9,9,,,,,,,,,,,,,,,,,,,,,,,,,,,133.255414599902,134.2567692999728,133.255414599902,134.2567692999728,133.255414599902,134.2567692999728,133.255414599902,134.2567692999728,down,1,0.6246084999293089,133.255414599902,None,133.255414599902,None,133.255414599902,133.7574137999909,133.255414599902,133.7574137999909,133.255414599902,133.7574137999909,133.255414599902,133.7574137999909,133.255414599902,None,,,,,,,,,,,,,,,,,,,,,,,,,,,,,,,,,,,,,,,,,,11021,001,2024_Jan_05_1139,nback,2021.2.3,59.95408717337748,
0-back,instructions\back-0.png,conditions\0back-p.xlsx,instructions\0-BACK.png,"(15, 8)",practice,0,1,stim\yellow.png,stim\gray.png,stim\gray.png,stim\gray.png,up,0,0,0,0,0,0,0,0,0,10,10,10,,,,,,,,,,,,,,,,,,,,,,,,,,,134.80751859990414,135.80978999997023,134.80751859990414,135.80978999997023,134.80751859990414,135.80978999997023,134.80751859990414,135.80978999997023,up,1,0.33663989999331534,134.80751859990414,None,134.80751859990414,None,134.80751859990414,135.3092037999304,134.80751859990414,135.3092037999304,134.80751859990414,135.3092037999304,134.80751859990414,135.3092037999304,134.80751859990414,None,,,,,,,,,,,,,,,,,,,,,,,,,,,,,,,,,,,,,,,,,,11021,001,2024_Jan_05_1139,nback,2021.2.3,59.95408717337748,
0-back,instructions\back-0.png,conditions\0back-p.xlsx,instructions\0-BACK.png,"(15, 8)",practice,0,2,stim\gray.png,stim\yellow.png,stim\gray.png,stim\gray.png,left,0,0,0,0,0,0,0,0,0,11,11,11,,,,,,,,,,,,,,,,,,,,,,,,,,,136.25987449998502,137.2614670000039,136.25987449998502,137.2614670000039,136.25987449998502,137.2614670000039,136.25987449998502,137.2614670000039,left,1,0.30820450000464916,136.25987449998502,None,136.25987449998502,None,136.25987449998502,136.76035869994666,136.25987449998502,136.76035869994666,136.25987449998502,136.76035869994666,136.25987449998502,136.76035869994666,136.25987449998502,None,,,,,,,,,,,,,,,,,,,,,,,,,,,,,,,,,,,,,,,,,,11021,001,2024_Jan_05_1139,nback,2021.2.3,59.95408717337748,
0-back,instructions\back-0.png,conditions\0back-p.xlsx,instructions\0-BACK.png,"(15, 8)",practice,0,4,stim\gray.png,stim\gray.png,stim\gray.png,stim\yellow.png,down,0,0,0,0,0,0,0,0,0,12,12,12,,,,,,,,,,,,,,,,,,,,,,,,,,,137.76232479989994,138.76442479994148,137.76232479989994,138.76442479994148,137.76232479989994,138.76442479994148,137.76232479989994,138.76442479994148,down,1,0.5976941999979317,137.76232479989994,None,137.76232479989994,None,137.76232479989994,138.26289969997015,137.76232479989994,138.26289969997015,137.76232479989994,138.26289969997015,137.76232479989994,138.26289969997015,137.76232479989994,None,,,,,,,,,,,,,,,,,,,,,,,,,,,,,,,,,,,,,,,,,,11021,001,2024_Jan_05_1139,nback,2021.2.3,59.95408717337748,
0-back,instructions\back-0.png,conditions\0back-p.xlsx,instructions\0-BACK.png,"(15, 8)",practice,0,3,stim\gray.png,stim\gray.png,stim\yellow.png,stim\gray.png,right,0,0,0,0,0,0,0,0,0,13,13,13,,,,,,,,,,,,,,,,,,,,,,,,,,,139.26434569992125,140.26656989997718,139.26434569992125,140.26656989997718,139.26434569992125,140.26656989997718,139.26434569992125,140.26656989997718,right,1,0.4079385999357328,139.26434569992125,None,139.26434569992125,None,139.26434569992125,139.76657559990417,139.26434569992125,139.76657559990417,139.26434569992125,139.76657559990417,139.26434569992125,139.76657559990417,139.26434569992125,None,,,,,,,,,,,,,,,,,,,,,,,,,,,,,,,,,,,,,,,,,,11021,001,2024_Jan_05_1139,nback,2021.2.3,59.95408717337748,
0-back,instructions\back-0.png,conditions\0back-p.xlsx,instructions\0-BACK.png,"(15, 8)",practice,0,1,stim\yellow.png,stim\gray.png,stim\gray.png,stim\gray.png,up,0,0,0,0,0,0,0,0,0,14,14,14,,,,,,,,,,,,,,,,,,,,,,,,,,,140.7501269999193,141.75160909991246,140.7501269999193,141.75160909991246,140.7501269999193,141.75160909991246,140.7501269999193,141.75160909991246,up,1,0.29004649992566556,140.7501269999193,None,140.7501269999193,None,140.7501269999193,141.2506920999149,140.7501269999193,141.2506920999149,140.7501269999193,141.2506920999149,140.7501269999193,141.2506920999149,140.7501269999193,None,,,,,,,,,,,,,,,,,,,,,,,,,,,,,,,,,,,,,,,,,,11021,001,2024_Jan_05_1139,nback,2021.2.3,59.95408717337748,
0-back,instructions\back-0.png,conditions\0back-p.xlsx,instructions\0-BACK.png,"(15, 8)",practice,0,2,stim\gray.png,stim\yellow.png,stim\gray.png,stim\gray.png,left,0,0,0,0,0,0,0,0,0,15,15,15,,,,,,,,,,,,,,,,,,,,,,,,,,,142.25209699990228,143.25424779998139,142.25209699990228,143.25424779998139,142.25209699990228,143.25424779998139,142.25209699990228,143.25424779998139,left,1,0.3479068001033738,142.25209699990228,None,142.25209699990228,None,142.25209699990228,142.75290839991067,142.25209699990228,142.75290839991067,142.25209699990228,142.75290839991067,142.25209699990228,142.75290839991067,142.25209699990228,None,,,,,,,,,,,,,,,,,,,,,,,,,,,,,,,,,,,,,,,,,,11021,001,2024_Jan_05_1139,nback,2021.2.3,59.95408717337748,
0-back,instructions\back-0.png,conditions\0back-p.xlsx,instructions\0-BACK.png,"(15, 8)",practice,0,3,stim\gray.png,stim\gray.png,stim\yellow.png,stim\gray.png,right,0,0,0,0,0,0,0,0,0,16,16,16,,,,,,,,,,,,,,,,,,,,,,,,,,,143.75427549995948,144.7557639000006,143.75427549995948,144.7557639000006,143.75427549995948,144.7557639000006,143.75427549995948,144.7557639000006,right,1,0.35797630005981773,143.75427549995948,None,143.75427549995948,None,143.75427549995948,144.25507319997996,143.75427549995948,144.25507319997996,143.75427549995948,144.25507319997996,143.75427549995948,144.25507319997996,143.75427549995948,None,,,,,,,,,,,,,,,,,,,,,,,,,,,,,,,,,,,,,,,,,,11021,001,2024_Jan_05_1139,nback,2021.2.3,59.95408717337748,
0-back,instructions\back-0.png,conditions\0back-p.xlsx,instructions\0-BACK.png,"(15, 8)",practice,0,1,stim\yellow.png,stim\gray.png,stim\gray.png,stim\gray.png,up,0,0,0,0,0,0,0,0,0,17,17,17,,,,,,,,,,,,,,,,,,,,,,,,,,,145.25647789996583,146.25826409994625,145.25647789996583,146.25826409994625,145.25647789996583,146.25826409994625,145.25647789996583,146.25826409994625,up,1,0.30361800000537187,145.25647789996583,None,145.25647789996583,None,145.25647789996583,145.7577130999416,145.25647789996583,145.7577130999416,145.25647789996583,145.7577130999416,145.25647789996583,145.7577130999416,145.25647789996583,None,,,,,,,,,,,,,,,,,,,,,,,,,,,,,,,,,,,,,,,,,,11021,001,2024_Jan_05_1139,nback,2021.2.3,59.95408717337748,
0-back,instructions\back-0.png,conditions\0back-p.xlsx,instructions\0-BACK.png,"(15, 8)",practice,0,4,stim\gray.png,stim\gray.png,stim\gray.png,stim\yellow.png,down,0,0,0,0,0,0,0,0,0,18,18,18,,,,,,,,,,,,,,,,,,,,,,,,,,,146.75874379999004,147.7605986999115,146.75874379999004,147.7605986999115,146.75874379999004,147.7605986999115,146.75874379999004,147.7605986999115,down,1,0.41737110004760325,146.75874379999004,None,146.75874379999004,None,146.75874379999004,147.26035929995123,146.75874379999004,147.26035929995123,146.75874379999004,147.26035929995123,146.75874379999004,147.26035929995123,146.75874379999004,None,,,,,,,,,,,,,,,,,,,,,,,,,,,,,,,,,,,,,,,,,,11021,001,2024_Jan_05_1139,nback,2021.2.3,59.95408717337748,
0-back,instructions\back-0.png,conditions\0back-p.xlsx,instructions\0-BACK.png,"(15, 8)",practice,0,2,stim\gray.png,stim\yellow.png,stim\gray.png,stim\gray.png,left,0,0,0,0,0,0,0,0,0,19,19,19,,,,,,,,,,,,,,,,,,,,,,,,,,,148.26099350000732,149.26240020000841,148.26099350000732,149.26240020000841,148.26099350000732,149.26240020000841,148.26099350000732,149.26240020000841,left,1,0.36306030000559986,148.26099350000732,None,148.26099350000732,None,148.26099350000732,148.7616930999793,148.26099350000732,148.7616930999793,148.26099350000732,148.7616930999793,148.26099350000732,148.7616930999793,148.26099350000732,None,,,,,,,,,,,,,,,,,,,,,,,,,,,,,,,,,,,,,,,,,,11021,001,2024_Jan_05_1139,nback,2021.2.3,59.95408717337748,
0-back,instructions\back-0.png,conditions\0back-p.xlsx,instructions\0-BACK.png,"(15, 8)",,,,,,,,,0,0,0,0,0,0,0,0,,,,,,,,,,,,,,,,,,,,,,,,,,,,,,,,,,,,,,,,,,,,,,,,,,,,,,,,,,,,,,,,,,,,,,,,,,,,,,,,,,,,,,,,,,,,,,,,,11021,001,2024_Jan_05_1139,nback,2021.2.3,59.95408717337748,
1-back,instructions\back-1.png,conditions\1back-p.xlsx,instructions\1-BACK.png,"(25, 15)",practice,1,1,stim\yellow.png,stim\gray.png,stim\gray.png,stim\gray.png,None,0,0,0,0,0,1,1,1,0,0,0,0,,,,,,,,,,,,,,,,,149.91332159994636,None,space,9.502901999978349,149.91332159994636,None,159.5608391999267,164.06781389995012,164.0352467999328,None,164.46928979991935,165.47005110001191,164.46928979991935,165.47005110001191,164.46928979991935,165.47005110001191,164.46928979991935,165.47005110001191,None,1,,164.46928979991935,None,164.46928979991935,None,164.46928979991935,164.96916719991714,164.46928979991935,164.96916719991714,164.46928979991935,164.96916719991714,164.46928979991935,164.96916719991714,164.46928979991935,None,,,,,,,,,,,,,,,,,,,,,,,,,,,,,,,,,,,,,,,,,,11021,001,2024_Jan_05_1139,nback,2021.2.3,59.95408717337748,
1-back,instructions\back-1.png,conditions\1back-p.xlsx,instructions\1-BACK.png,"(25, 15)",practice,1,2,stim\gray.png,stim\yellow.png,stim\gray.png,stim\gray.png,up,0,0,0,0,0,1,1,1,0,1,1,1,,,,,,,,,,,,,,,,,,,,,,,,,,,165.95400039991364,166.95593649998773,165.95400039991364,166.95593649998773,165.95400039991364,166.95593649998773,165.95400039991364,166.95593649998773,up,1,0.8541275000898167,165.95400039991364,None,165.95400039991364,None,165.95400039991364,166.45465159998275,165.95400039991364,166.45465159998275,165.95400039991364,166.45465159998275,165.95400039991364,166.45465159998275,165.95400039991364,None,,,,,,,,,,,,,,,,,,,,,,,,,,,,,,,,,,,,,,,,,,11021,001,2024_Jan_05_1139,nback,2021.2.3,59.95408717337748,
1-back,instructions\back-1.png,conditions\1back-p.xlsx,instructions\1-BACK.png,"(25, 15)",practice,1,3,stim\gray.png,stim\gray.png,stim\yellow.png,stim\gray.png,left,0,0,0,0,0,1,1,1,0,2,2,2,,,,,,,,,,,,,,,,,,,,,,,,,,,167.4559084000066,168.45834489993285,167.4559084000066,168.45834489993285,167.4559084000066,168.45834489993285,167.4559084000066,168.45834489993285,None,0,,167.4559084000066,None,167.4559084000066,None,167.4559084000066,167.95704559993464,167.4559084000066,167.95704559993464,167.4559084000066,167.95704559993464,167.4559084000066,167.95704559993464,167.4559084000066,None,,,,,,,,,,,,,,,,,,,,,,,,,,,,,,,,,,,,,,,,,,11021,001,2024_Jan_05_1139,nback,2021.2.3,59.95408717337748,
1-back,instructions\back-1.png,conditions\1back-p.xlsx,instructions\1-BACK.png,"(25, 15)",practice,1,4,stim\gray.png,stim\gray.png,stim\gray.png,stim\yellow.png,right,0,0,0,0,0,1,1,1,0,3,3,3,,,,,,,,,,,,,,,,,,,,,,,,,,,168.9595219999319,169.95995889999904,168.9595219999319,169.95995889999904,168.9595219999319,169.95995889999904,168.9595219999319,169.95995889999904,right,1,0.5684886000817642,168.9595219999319,None,168.9595219999319,None,168.9595219999319,169.4591134999646,168.9595219999319,169.4591134999646,168.9595219999319,169.4591134999646,168.9595219999319,169.4591134999646,168.9595219999319,None,,,,,,,,,,,,,,,,,,,,,,,,,,,,,,,,,,,,,,,,,,11021,001,2024_Jan_05_1139,nback,2021.2.3,59.95408717337748,
1-back,instructions\back-1.png,conditions\1back-p.xlsx,instructions\1-BACK.png,"(25, 15)",practice,1,2,stim\gray.png,stim\yellow.png,stim\gray.png,stim\gray.png,down,0,0,0,0,0,1,1,1,0,4,4,4,,,,,,,,,,,,,,,,,,,,,,,,,,,170.4608167000115,171.462099700002,170.4608167000115,171.462099700002,170.4608167000115,171.462099700002,170.4608167000115,171.462099700002,None,0,,170.4608167000115,None,170.4608167000115,None,170.4608167000115,170.96136039996054,170.4608167000115,170.96136039996054,170.4608167000115,170.96136039996054,170.4608167000115,170.96136039996054,170.4608167000115,None,,,,,,,,,,,,,,,,,,,,,,,,,,,,,,,,,,,,,,,,,,11021,001,2024_Jan_05_1139,nback,2021.2.3,59.95408717337748,
1-back,instructions\back-1.png,conditions\1back-p.xlsx,instructions\1-BACK.png,"(25, 15)",practice,1,1,stim\yellow.png,stim\gray.png,stim\gray.png,stim\gray.png,left,0,0,0,0,0,1,1,1,0,5,5,5,,,,,,,,,,,,,,,,,,,,,,,,,,,171.9628152999794,172.96497279999312,171.9628152999794,172.96497279999312,171.9628152999794,172.96497279999312,171.9628152999794,172.96497279999312,up,0,0.5734277999727055,171.9628152999794,None,171.9628152999794,None,171.9628152999794,172.46356840000954,171.9628152999794,172.46356840000954,171.9628152999794,172.46356840000954,171.9628152999794,172.46356840000954,171.9628152999794,None,,,,,,,,,,,,,,,,,,,,,,,,,,,,,,,,,,,,,,,,,,11021,001,2024_Jan_05_1139,nback,2021.2.3,59.95408717337748,
1-back,instructions\back-1.png,conditions\1back-p.xlsx,instructions\1-BACK.png,"(25, 15)",practice,1,4,stim\gray.png,stim\gray.png,stim\gray.png,stim\yellow.png,up,0,0,0,0,0,1,1,1,0,6,6,6,,,,,,,,,,,,,,,,,,,,,,,,,,,173.44835159997456,174.44990080001298,173.44835159997456,174.44990080001298,173.44835159997456,174.44990080001298,173.44835159997456,174.44990080001298,None,0,,173.44835159997456,None,173.44835159997456,None,173.44835159997456,173.94918839994352,173.44835159997456,173.94918839994352,173.44835159997456,173.94918839994352,173.44835159997456,173.94918839994352,173.44835159997456,None,,,,,,,,,,,,,,,,,,,,,,,,,,,,,,,,,,,,,,,,,,11021,001,2024_Jan_05_1139,nback,2021.2.3,59.95408717337748,
1-back,instructions\back-1.png,conditions\1back-p.xlsx,instructions\1-BACK.png,"(25, 15)",practice,1,3,stim\gray.png,stim\gray.png,stim\yellow.png,stim\gray.png,down,0,0,0,0,0,1,1,1,0,7,7,7,,,,,,,,,,,,,,,,,,,,,,,,,,,174.95060969993938,175.9523200999247,174.95060969993938,175.9523200999247,174.95060969993938,175.9523200999247,174.95060969993938,175.9523200999247,down,1,0.7776073000859469,174.95060969993938,None,174.95060969993938,None,174.95060969993938,175.4513446999481,174.95060969993938,175.4513446999481,174.95060969993938,175.4513446999481,174.95060969993938,175.4513446999481,174.95060969993938,None,,,,,,,,,,,,,,,,,,,,,,,,,,,,,,,,,,,,,,,,,,11021,001,2024_Jan_05_1139,nback,2021.2.3,59.95408717337748,
1-back,instructions\back-1.png,conditions\1back-p.xlsx,instructions\1-BACK.png,"(25, 15)",practice,1,3,stim\gray.png,stim\gray.png,stim\yellow.png,stim\gray.png,right,0,0,0,0,0,1,1,1,0,8,8,8,,,,,,,,,,,,,,,,,,,,,,,,,,,176.4524633999681,177.45433009997942,176.4524633999681,177.45433009997942,176.4524633999681,177.45433009997942,176.4524633999681,177.45433009997942,None,0,,176.4524633999681,None,176.4524633999681,None,176.4524633999681,176.953647099901,176.4524633999681,176.953647099901,176.4524633999681,176.953647099901,176.4524633999681,176.953647099901,176.4524633999681,None,,,,,,,,,,,,,,,,,,,,,,,,,,,,,,,,,,,,,,,,,,11021,001,2024_Jan_05_1139,nback,2021.2.3,59.95408717337748,
1-back,instructions\back-1.png,conditions\1back-p.xlsx,instructions\1-BACK.png,"(25, 15)",practice,1,4,stim\gray.png,stim\gray.png,stim\gray.png,stim\yellow.png,right,0,0,0,0,0,1,1,1,0,9,9,9,,,,,,,,,,,,,,,,,,,,,,,,,,,177.955047299969,178.9571791999042,177.955047299969,178.9571791999042,177.955047299969,178.9571791999042,177.955047299969,178.9571791999042,right,1,1.3013253000099212,177.955047299969,None,177.955047299969,None,177.955047299969,178.45568229991477,177.955047299969,178.45568229991477,177.955047299969,178.45568229991477,177.955047299969,178.45568229991477,177.955047299969,None,,,,,,,,,,,,,,,,,,,,,,,,,,,,,,,,,,,,,,,,,,11021,001,2024_Jan_05_1139,nback,2021.2.3,59.95408717337748,
1-back,instructions\back-1.png,conditions\1back-p.xlsx,instructions\1-BACK.png,"(25, 15)",practice,1,1,stim\yellow.png,stim\gray.png,stim\gray.png,stim\gray.png,down,0,0,0,0,0,1,1,1,0,10,10,10,,,,,,,,,,,,,,,,,,,,,,,,,,,179.45717760000844,180.4586844999576,179.45717760000844,180.4586844999576,179.45717760000844,180.4586844999576,179.45717760000844,180.4586844999576,None,0,,179.45717760000844,None,179.45717760000844,None,179.45717760000844,179.9588747000089,179.45717760000844,179.9588747000089,179.45717760000844,179.9588747000089,179.45717760000844,179.9588747000089,179.45717760000844,None,,,,,,,,,,,,,,,,,,,,,,,,,,,,,,,,,,,,,,,,,,11021,001,2024_Jan_05_1139,nback,2021.2.3,59.95408717337748,
1-back,instructions\back-1.png,conditions\1back-p.xlsx,instructions\1-BACK.png,"(25, 15)",practice,1,2,stim\gray.png,stim\yellow.png,stim\gray.png,stim\gray.png,up,0,0,0,0,0,1,1,1,0,11,11,11,,,,,,,,,,,,,,,,,,,,,,,,,,,180.9595190999098,181.9607754999306,180.9595190999098,181.9607754999306,180.9595190999098,181.9607754999306,180.9595190999098,181.9607754999306,up,1,0.7446451999712735,180.9595190999098,None,180.9595190999098,None,180.9595190999098,181.46051609993447,180.9595190999098,181.46051609993447,180.9595190999098,181.46051609993447,180.9595190999098,181.46051609993447,180.9595190999098,None,,,,,,,,,,,,,,,,,,,,,,,,,,,,,,,,,,,,,,,,,,11021,001,2024_Jan_05_1139,nback,2021.2.3,59.95408717337748,
1-back,instructions\back-1.png,conditions\1back-p.xlsx,instructions\1-BACK.png,"(25, 15)",practice,1,4,stim\gray.png,stim\gray.png,stim\gray.png,stim\yellow.png,left,0,0,0,0,0,1,1,1,0,12,12,12,,,,,,,,,,,,,,,,,,,,,,,,,,,182.46179999993183,183.46312949992716,182.46179999993183,183.46312949992716,182.46179999993183,183.46312949992716,182.46179999993183,183.46312949992716,None,0,,182.46179999993183,None,182.46179999993183,None,182.46179999993183,182.9625024999259,182.46179999993183,182.9625024999259,182.46179999993183,182.9625024999259,182.46179999993183,182.9625024999259,182.46179999993183,None,,,,,,,,,,,,,,,,,,,,,,,,,,,,,,,,,,,,,,,,,,11021,001,2024_Jan_05_1139,nback,2021.2.3,59.95408717337748,
1-back,instructions\back-1.png,conditions\1back-p.xlsx,instructions\1-BACK.png,"(25, 15)",practice,1,3,stim\gray.png,stim\gray.png,stim\yellow.png,stim\gray.png,down,0,0,0,0,0,1,1,1,0,13,13,13,,,,,,,,,,,,,,,,,,,,,,,,,,,183.96371859998908,184.9653960999567,183.96371859998908,184.9653960999567,183.96371859998908,184.9653960999567,183.96371859998908,184.9653960999567,down,1,0.7644090999383479,183.96371859998908,None,183.96371859998908,None,183.96371859998908,184.464711299981,183.96371859998908,184.464711299981,183.96371859998908,184.464711299981,183.96371859998908,184.464711299981,183.96371859998908,None,,,,,,,,,,,,,,,,,,,,,,,,,,,,,,,,,,,,,,,,,,11021,001,2024_Jan_05_1139,nback,2021.2.3,59.95408717337748,
1-back,instructions\back-1.png,conditions\1back-p.xlsx,instructions\1-BACK.png,"(25, 15)",practice,1,1,stim\yellow.png,stim\gray.png,stim\gray.png,stim\gray.png,right,0,0,0,0,0,1,1,1,0,14,14,14,,,,,,,,,,,,,,,,,,,,,,,,,,,185.44928870000876,186.45189399993978,185.44928870000876,186.45189399993978,185.44928870000876,186.45189399993978,185.44928870000876,186.45189399993978,None,0,,185.44928870000876,None,185.44928870000876,None,185.44928870000876,185.95093910000287,185.44928870000876,185.95093910000287,185.44928870000876,185.95093910000287,185.44928870000876,185.95093910000287,185.44928870000876,None,,,,,,,,,,,,,,,,,,,,,,,,,,,,,,,,,,,,,,,,,,11021,001,2024_Jan_05_1139,nback,2021.2.3,59.95408717337748,
1-back,instructions\back-1.png,conditions\1back-p.xlsx,instructions\1-BACK.png,"(25, 15)",practice,1,2,stim\gray.png,stim\yellow.png,stim\gray.png,stim\gray.png,up,0,0,0,0,0,1,1,1,0,15,15,15,,,,,,,,,,,,,,,,,,,,,,,,,,,186.95146779995412,187.95378899993375,186.95146779995412,187.95378899993375,186.95146779995412,187.95378899993375,186.95146779995412,187.95378899993375,up,1,0.36882149998564273,186.95146779995412,None,186.95146779995412,None,186.95146779995412,187.45243089995347,186.95146779995412,187.45243089995347,186.95146779995412,187.45243089995347,186.95146779995412,187.45243089995347,186.95146779995412,None,,,,,,,,,,,,,,,,,,,,,,,,,,,,,,,,,,,,,,,,,,11021,001,2024_Jan_05_1139,nback,2021.2.3,59.95408717337748,
1-back,instructions\back-1.png,conditions\1back-p.xlsx,instructions\1-BACK.png,"(25, 15)",practice,1,3,stim\gray.png,stim\gray.png,stim\yellow.png,stim\gray.png,left,0,0,0,0,0,1,1,1,0,16,16,16,,,,,,,,,,,,,,,,,,,,,,,,,,,188.45386040001176,189.4554555999348,188.45386040001176,189.4554555999348,188.45386040001176,189.4554555999348,188.45386040001176,189.4554555999348,None,0,,188.45386040001176,None,188.45386040001176,None,188.45386040001176,188.9546554000117,188.45386040001176,188.9546554000117,188.45386040001176,188.9546554000117,188.45386040001176,188.9546554000117,188.45386040001176,None,,,,,,,,,,,,,,,,,,,,,,,,,,,,,,,,,,,,,,,,,,11021,001,2024_Jan_05_1139,nback,2021.2.3,59.95408717337748,
1-back,instructions\back-1.png,conditions\1back-p.xlsx,instructions\1-BACK.png,"(25, 15)",practice,1,1,stim\yellow.png,stim\gray.png,stim\gray.png,stim\gray.png,right,0,0,0,0,0,1,1,1,0,17,17,17,,,,,,,,,,,,,,,,,,,,,,,,,,,189.9562252999749,190.9586316999048,189.9562252999749,190.9586316999048,189.9562252999749,190.9586316999048,189.9562252999749,190.9586316999048,right,1,0.28403089998755604,189.9562252999749,None,189.9562252999749,None,189.9562252999749,190.45692329993472,189.9562252999749,190.45692329993472,189.9562252999749,190.45692329993472,189.9562252999749,190.45692329993472,189.9562252999749,None,,,,,,,,,,,,,,,,,,,,,,,,,,,,,,,,,,,,,,,,,,11021,001,2024_Jan_05_1139,nback,2021.2.3,59.95408717337748,
1-back,instructions\back-1.png,conditions\1back-p.xlsx,instructions\1-BACK.png,"(25, 15)",practice,1,4,stim\gray.png,stim\gray.png,stim\gray.png,stim\yellow.png,up,0,0,0,0,0,1,1,1,0,18,18,18,,,,,,,,,,,,,,,,,,,,,,,,,,,191.4582620000001,192.46008889994118,191.4582620000001,192.46008889994118,191.4582620000001,192.46008889994118,191.4582620000001,192.46008889994118,None,0,,191.4582620000001,None,191.4582620000001,None,191.4582620000001,191.95951429998968,191.4582620000001,191.95951429998968,191.4582620000001,191.95951429998968,191.4582620000001,191.95951429998968,191.4582620000001,None,,,,,,,,,,,,,,,,,,,,,,,,,,,,,,,,,,,,,,,,,,11021,001,2024_Jan_05_1139,nback,2021.2.3,59.95408717337748,
1-back,instructions\back-1.png,conditions\1back-p.xlsx,instructions\1-BACK.png,"(25, 15)",practice,1,2,stim\gray.png,stim\yellow.png,stim\gray.png,stim\gray.png,down,0,0,0,0,0,1,1,1,0,19,19,19,,,,,,,,,,,,,,,,,,,,,,,,,,,192.96051979996264,193.96240640000906,192.96051979996264,193.96240640000906,192.96051979996264,193.96240640000906,192.96051979996264,193.96240640000906,down,1,1.3838171999668702,192.96051979996264,None,192.96051979996264,None,192.96051979996264,193.46159379999153,192.96051979996264,193.46159379999153,192.96051979996264,193.46159379999153,192.96051979996264,193.46159379999153,192.96051979996264,None,,,,,,,,,,,,,,,,,,,,,,,,,,,,,,,,,,,,,,,,,,11021,001,2024_Jan_05_1139,nback,2021.2.3,59.95408717337748,
1-back,instructions\back-1.png,conditions\1back-p.xlsx,instructions\1-BACK.png,"(25, 15)",,,,,,,,,0,0,0,0,0,1,1,1,,,,,,,,,,,,,,,,,,,,,,,,,,,,,,,,,,,,,,,,,,,,,,,,,,,,,,,,,,,,,,,,,,,,,,,,,,,,,,,,,,,,,,,,,,,,,,,,,11021,001,2024_Jan_05_1139,nback,2021.2.3,59.95408717337748,
2-back,instructions\back-2.png,conditions\2back-p.xlsx,instructions\2-BACK.png,"(25, 15)",practice,2,1,stim\yellow.png,stim\gray.png,stim\gray.png,stim\gray.png,None,0,0,0,0,0,2,2,2,0,0,0,0,,,,,,,,,,,,,,,,,194.59618709993083,None,space,34.9242183000315,194.59618709993083,None,229.69823290000204,234.20598199998494,234.15577849990223,None,234.572466099984,235.57372889993712,234.572466099984,235.57372889993712,234.572466099984,235.57372889993712,234.572466099984,235.57372889993712,None,1,,234.572466099984,None,234.572466099984,None,234.572466099984,235.07270659995265,234.572466099984,235.07270659995265,234.572466099984,235.07270659995265,234.572466099984,235.07270659995265,234.572466099984,None,,,,,,,,,,,,,,,,,,,,,,,,,,,,,,,,,,,,,,,,,,11021,001,2024_Jan_05_1139,nback,2021.2.3,59.95408717337748,
2-back,instructions\back-2.png,conditions\2back-p.xlsx,instructions\2-BACK.png,"(25, 15)",practice,2,2,stim\gray.png,stim\yellow.png,stim\gray.png,stim\gray.png,None,0,0,0,0,0,2,2,2,0,1,1,1,,,,,,,,,,,,,,,,,,,,,,,,,,,236.05772679997608,237.05926060001366,236.05772679997608,237.05926060001366,236.05772679997608,237.05926060001366,236.05772679997608,237.05926060001366,None,1,,236.05772679997608,None,236.05772679997608,None,236.05772679997608,236.55860449990723,236.05772679997608,236.55860449990723,236.05772679997608,236.55860449990723,236.05772679997608,236.55860449990723,236.05772679997608,None,,,,,,,,,,,,,,,,,,,,,,,,,,,,,,,,,,,,,,,,,,11021,001,2024_Jan_05_1139,nback,2021.2.3,59.95408717337748,
2-back,instructions\back-2.png,conditions\2back-p.xlsx,instructions\2-BACK.png,"(25, 15)",practice,2,3,stim\gray.png,stim\gray.png,stim\yellow.png,stim\gray.png,up,0,0,0,0,0,2,2,2,0,2,2,2,,,,,,,,,,,,,,,,,,,,,,,,,,,237.56018559995573,238.56152009998914,237.56018559995573,238.56152009998914,237.56018559995573,238.56152009998914,237.56018559995573,238.56152009998914,up,1,1.1839509999845177,237.56018559995573,None,237.56018559995573,None,237.56018559995573,238.06072209996637,237.56018559995573,238.06072209996637,237.56018559995573,238.06072209996637,237.56018559995573,238.06072209996637,237.56018559995573,None,,,,,,,,,,,,,,,,,,,,,,,,,,,,,,,,,,,,,,,,,,11021,001,2024_Jan_05_1139,nback,2021.2.3,59.95408717337748,
2-back,instructions\back-2.png,conditions\2back-p.xlsx,instructions\2-BACK.png,"(25, 15)",practice,2,4,stim\gray.png,stim\gray.png,stim\gray.png,stim\yellow.png,left,0,0,0,0,0,2,2,2,0,3,3,3,,,,,,,,,,,,,,,,,,,,,,,,,,,239.06218879995868,240.06406070000958,239.06218879995868,240.06406070000958,239.06218879995868,240.06406070000958,239.06218879995868,240.06406070000958,left,1,1.4421652999008074,239.06218879995868,None,239.06218879995868,None,239.06218879995868,239.56412569992244,239.06218879995868,239.56412569992244,239.06218879995868,239.56412569992244,239.06218879995868,239.56412569992244,239.06218879995868,None,,,,,,,,,,,,,,,,,,,,,,,,,,,,,,,,,,,,,,,,,,11021,001,2024_Jan_05_1139,nback,2021.2.3,59.95408717337748,
2-back,instructions\back-2.png,conditions\2back-p.xlsx,instructions\2-BACK.png,"(25, 15)",practice,2,2,stim\gray.png,stim\yellow.png,stim\gray.png,stim\gray.png,right,0,0,0,0,0,2,2,2,0,4,4,4,,,,,,,,,,,,,,,,,,,,,,,,,,,240.5644344999455,241.56597609992605,240.5644344999455,241.56597609992605,240.5644344999455,241.56597609992605,240.5644344999455,241.56597609992605,None,0,,240.5644344999455,None,240.5644344999455,None,240.5644344999455,241.0650967999827,240.5644344999455,241.0650967999827,240.5644344999455,241.0650967999827,240.5644344999455,241.0650967999827,240.5644344999455,None,,,,,,,,,,,,,,,,,,,,,,,,,,,,,,,,,,,,,,,,,,11021,001,2024_Jan_05_1139,nback,2021.2.3,59.95408717337748,
2-back,instructions\back-2.png,conditions\2back-p.xlsx,instructions\2-BACK.png,"(25, 15)",practice,2,1,stim\yellow.png,stim\gray.png,stim\gray.png,stim\gray.png,down,0,0,0,0,0,2,2,2,0,5,5,5,,,,,,,,,,,,,,,,,,,,,,,,,,,242.06674059992656,243.06817439990118,242.06674059992656,243.06817439990118,242.06674059992656,243.06817439990118,242.06674059992656,243.06817439990118,right,0,0.27776880003511906,242.06674059992656,None,242.06674059992656,None,242.06674059992656,242.567844199948,242.06674059992656,242.567844199948,242.06674059992656,242.567844199948,242.06674059992656,242.567844199948,242.06674059992656,None,,,,,,,,,,,,,,,,,,,,,,,,,,,,,,,,,,,,,,,,,,11021,001,2024_Jan_05_1139,nback,2021.2.3,59.95408717337748,
2-back,instructions\back-2.png,conditions\2back-p.xlsx,instructions\2-BACK.png,"(25, 15)",practice,2,4,stim\gray.png,stim\gray.png,stim\gray.png,stim\yellow.png,left,0,0,0,0,0,2,2,2,0,6,6,6,,,,,,,,,,,,,,,,,,,,,,,,,,,243.5530163999647,244.5537785999477,243.5530163999647,244.5537785999477,243.5530163999647,244.5537785999477,243.5530163999647,244.5537785999477,down,0,0.27917260001413524,243.5530163999647,None,243.5530163999647,None,243.5530163999647,244.05386200000066,243.5530163999647,244.05386200000066,243.5530163999647,244.05386200000066,243.5530163999647,244.05386200000066,243.5530163999647,None,,,,,,,,,,,,,,,,,,,,,,,,,,,,,,,,,,,,,,,,,,11021,001,2024_Jan_05_1139,nback,2021.2.3,59.95408717337748,
2-back,instructions\back-2.png,conditions\2back-p.xlsx,instructions\2-BACK.png,"(25, 15)",practice,2,3,stim\gray.png,stim\gray.png,stim\yellow.png,stim\gray.png,up,0,0,0,0,0,2,2,2,0,7,7,7,,,,,,,,,,,,,,,,,,,,,,,,,,,245.0543751999503,246.05596359993797,245.0543751999503,246.05596359993797,245.0543751999503,246.05596359993797,245.0543751999503,246.05596359993797,left,0,0.33112380001693964,245.0543751999503,None,245.0543751999503,None,245.0543751999503,245.5558312999783,245.0543751999503,245.5558312999783,245.0543751999503,245.5558312999783,245.0543751999503,245.5558312999783,245.0543751999503,None,,,,,,,,,,,,,,,,,,,,,,,,,,,,,,,,,,,,,,,,,,11021,001,2024_Jan_05_1139,nback,2021.2.3,59.95408717337748,
2-back,instructions\back-2.png,conditions\2back-p.xlsx,instructions\2-BACK.png,"(25, 15)",practice,2,3,stim\gray.png,stim\gray.png,stim\yellow.png,stim\gray.png,down,0,0,0,0,0,2,2,2,0,8,8,8,,,,,,,,,,,,,,,,,,,,,,,,,,,246.5566871999763,247.55827609996777,246.5566871999763,247.55827609996777,246.5566871999763,247.55827609996777,246.5566871999763,247.55827609996777,up,0,0.12398439995013177,246.5566871999763,None,246.5566871999763,None,246.5566871999763,247.0582997999154,246.5566871999763,247.0582997999154,246.5566871999763,247.0582997999154,246.5566871999763,247.0582997999154,246.5566871999763,None,,,,,,,,,,,,,,,,,,,,,,,,,,,,,,,,,,,,,,,,,,11021,001,2024_Jan_05_1139,nback,2021.2.3,59.95408717337748,
2-back,instructions\back-2.png,conditions\2back-p.xlsx,instructions\2-BACK.png,"(25, 15)",practice,2,4,stim\gray.png,stim\gray.png,stim\gray.png,stim\yellow.png,right,0,0,0,0,0,2,2,2,0,9,9,9,,,,,,,,,,,,,,,,,,,,,,,,,,,248.05867199995555,249.06030329992063,248.05867199995555,249.06030329992063,248.05867199995555,249.06030329992063,248.05867199995555,249.06030329992063,down,0,0.1257194000063464,248.05867199995555,None,248.05867199995555,None,248.05867199995555,248.56079709995538,248.05867199995555,248.56079709995538,248.05867199995555,248.56079709995538,248.05867199995555,248.56079709995538,248.05867199995555,None,,,,,,,,,,,,,,,,,,,,,,,,,,,,,,,,,,,,,,,,,,11021,001,2024_Jan_05_1139,nback,2021.2.3,59.95408717337748,
2-back,instructions\back-2.png,conditions\2back-p.xlsx,instructions\2-BACK.png,"(25, 15)",practice,2,1,stim\yellow.png,stim\gray.png,stim\gray.png,stim\gray.png,right,0,0,0,0,0,2,2,2,0,10,10,10,,,,,,,,,,,,,,,,,,,,,,,,,,,249.56181300000753,250.56358179997187,249.56181300000753,250.56358179997187,249.56181300000753,250.56358179997187,249.56181300000753,250.56358179997187,right,1,0.2786989000160247,249.56181300000753,None,249.56181300000753,None,249.56181300000753,250.06186539994087,249.56181300000753,250.06186539994087,249.56181300000753,250.06186539994087,249.56181300000753,250.06186539994087,249.56181300000753,None,,,,,,,,,,,,,,,,,,,,,,,,,,,,,,,,,,,,,,,,,,11021,001,2024_Jan_05_1139,nback,2021.2.3,59.95408717337748,
2-back,instructions\back-2.png,conditions\2back-p.xlsx,instructions\2-BACK.png,"(25, 15)",practice,2,2,stim\gray.png,stim\yellow.png,stim\gray.png,stim\gray.png,down,0,0,0,0,0,2,2,2,0,11,11,11,,,,,,,,,,,,,,,,,,,,,,,,,,,251.06334299989976,252.06559129990637,251.06334299989976,252.06559129990637,251.06334299989976,252.06559129990637,251.06334299989976,252.06559129990637,down,1,0.16091019997838885,251.06334299989976,None,251.06334299989976,None,251.06334299989976,251.5651157000102,251.06334299989976,251.5651157000102,251.06334299989976,251.5651157000102,251.06334299989976,251.5651157000102,251.06334299989976,None,,,,,,,,,,,,,,,,,,,,,,,,,,,,,,,,,,,,,,,,,,11021,001,2024_Jan_05_1139,nback,2021.2.3,59.95408717337748,
2-back,instructions\back-2.png,conditions\2back-p.xlsx,instructions\2-BACK.png,"(25, 15)",practice,2,4,stim\gray.png,stim\gray.png,stim\gray.png,stim\yellow.png,up,0,0,0,0,0,2,2,2,0,12,12,12,,,,,,,,,,,,,,,,,,,,,,,,,,,252.56538499996532,253.56715659995098,252.56538499996532,253.56715659995098,252.56538499996532,253.56715659995098,252.56538499996532,253.56715659995098,up,1,0.07478839997202158,252.56538499996532,None,252.56538499996532,None,252.56538499996532,253.0663818999892,252.56538499996532,253.0663818999892,252.56538499996532,253.0663818999892,252.56538499996532,253.0663818999892,252.56538499996532,None,,,,,,,,,,,,,,,,,,,,,,,,,,,,,,,,,,,,,,,,,,11021,001,2024_Jan_05_1139,nback,2021.2.3,59.95408717337748,
2-back,instructions\back-2.png,conditions\2back-p.xlsx,instructions\2-BACK.png,"(25, 15)",practice,2,3,stim\gray.png,stim\gray.png,stim\yellow.png,stim\gray.png,left,0,0,0,0,0,2,2,2,0,13,13,13,,,,,,,,,,,,,,,,,,,,,,,,,,,254.06769920000806,255.069291499909,254.06769920000806,255.069291499909,254.06769920000806,255.069291499909,254.06769920000806,255.069291499909,left,1,0.22052790003363043,254.06769920000806,None,254.06769920000806,None,254.06769920000806,254.56931419996545,254.06769920000806,254.56931419996545,254.06769920000806,254.56931419996545,254.06769920000806,254.56931419996545,254.06769920000806,None,,,,,,,,,,,,,,,,,,,,,,,,,,,,,,,,,,,,,,,,,,11021,001,2024_Jan_05_1139,nback,2021.2.3,59.95408717337748,
2-back,instructions\back-2.png,conditions\2back-p.xlsx,instructions\2-BACK.png,"(25, 15)",practice,2,1,stim\yellow.png,stim\gray.png,stim\gray.png,stim\gray.png,down,0,0,0,0,0,2,2,2,0,14,14,14,,,,,,,,,,,,,,,,,,,,,,,,,,,255.5532551999204,256.5557407999877,255.5532551999204,256.5557407999877,255.5532551999204,256.5557407999877,255.5532551999204,256.5557407999877,down,1,0.19888450007420033,255.5532551999204,None,255.5532551999204,None,255.5532551999204,256.05518929997925,255.5532551999204,256.05518929997925,255.5532551999204,256.05518929997925,255.5532551999204,256.05518929997925,255.5532551999204,None,,,,,,,,,,,,,,,,,,,,,,,,,,,,,,,,,,,,,,,,,,11021,001,2024_Jan_05_1139,nback,2021.2.3,59.95408717337748,
2-back,instructions\back-2.png,conditions\2back-p.xlsx,instructions\2-BACK.png,"(25, 15)",practice,2,2,stim\gray.png,stim\yellow.png,stim\gray.png,stim\gray.png,right,0,0,0,0,0,2,2,2,0,15,15,15,,,,,,,,,,,,,,,,,,,,,,,,,,,257.05553010001313,258.05785109999124,257.05553010001313,258.05785109999124,257.05553010001313,258.05785109999124,257.05553010001313,258.05785109999124,right,1,0.5290101999416947,257.05553010001313,None,257.05553010001313,None,257.05553010001313,257.55741119990125,257.05553010001313,257.55741119990125,257.05553010001313,257.55741119990125,257.05553010001313,257.55741119990125,257.05553010001313,None,,,,,,,,,,,,,,,,,,,,,,,,,,,,,,,,,,,,,,,,,,11021,001,2024_Jan_05_1139,nback,2021.2.3,59.95408717337748,
2-back,instructions\back-2.png,conditions\2back-p.xlsx,instructions\2-BACK.png,"(25, 15)",practice,2,3,stim\gray.png,stim\gray.png,stim\yellow.png,stim\gray.png,up,0,0,0,0,0,2,2,2,0,16,16,16,,,,,,,,,,,,,,,,,,,,,,,,,,,258.5578346999828,259.5593344999943,258.5578346999828,259.5593344999943,258.5578346999828,259.5593344999943,258.5578346999828,259.5593344999943,left,0,0.5943822000408545,258.5578346999828,None,258.5578346999828,None,258.5578346999828,259.05896279995795,258.5578346999828,259.05896279995795,258.5578346999828,259.05896279995795,258.5578346999828,259.05896279995795,258.5578346999828,None,,,,,,,,,,,,,,,,,,,,,,,,,,,,,,,,,,,,,,,,,,11021,001,2024_Jan_05_1139,nback,2021.2.3,59.95408717337748,
2-back,instructions\back-2.png,conditions\2back-p.xlsx,instructions\2-BACK.png,"(25, 15)",practice,2,1,stim\yellow.png,stim\gray.png,stim\gray.png,stim\gray.png,left,0,0,0,0,0,2,2,2,0,17,17,17,,,,,,,,,,,,,,,,,,,,,,,,,,,260.0614508999279,261.06181839993224,260.0614508999279,261.06181839993224,260.0614508999279,261.06181839993224,260.0614508999279,261.06181839993224,right,0,1.2587130999891087,260.0614508999279,None,260.0614508999279,None,260.0614508999279,260.5614015999017,260.0614508999279,260.5614015999017,260.0614508999279,260.5614015999017,260.0614508999279,260.5614015999017,260.0614508999279,None,,,,,,,,,,,,,,,,,,,,,,,,,,,,,,,,,,,,,,,,,,11021,001,2024_Jan_05_1139,nback,2021.2.3,59.95408717337748,
2-back,instructions\back-2.png,conditions\2back-p.xlsx,instructions\2-BACK.png,"(25, 15)",practice,2,4,stim\gray.png,stim\gray.png,stim\gray.png,stim\yellow.png,right,0,0,0,0,0,2,2,2,0,18,18,18,,,,,,,,,,,,,,,,,,,,,,,,,,,261.56205379997846,262.5643502000021,261.56205379997846,262.5643502000021,261.56205379997846,262.5643502000021,261.56205379997846,262.5643502000021,down,0,1.3188320000190288,261.56205379997846,None,261.56205379997846,None,261.56205379997846,262.06397019990254,261.56205379997846,262.06397019990254,261.56205379997846,262.06397019990254,261.56205379997846,262.06397019990254,261.56205379997846,None,,,,,,,,,,,,,,,,,,,,,,,,,,,,,,,,,,,,,,,,,,11021,001,2024_Jan_05_1139,nback,2021.2.3,59.95408717337748,
2-back,instructions\back-2.png,conditions\2back-p.xlsx,instructions\2-BACK.png,"(25, 15)",practice,2,2,stim\gray.png,stim\yellow.png,stim\gray.png,stim\gray.png,up,0,0,0,0,0,2,2,2,0,19,19,19,,,,,,,,,,,,,,,,,,,,,,,,,,,263.06558619998395,264.0661197999725,263.06558619998395,264.0661197999725,263.06558619998395,264.0661197999725,263.06558619998395,264.0661197999725,None,0,,263.06558619998395,None,263.06558619998395,None,263.06558619998395,263.5661642999621,263.06558619998395,263.5661642999621,263.06558619998395,263.5661642999621,263.06558619998395,263.5661642999621,263.06558619998395,None,,,,,,,,,,,,,,,,,,,,,,,,,,,,,,,,,,,,,,,,,,11021,001,2024_Jan_05_1139,nback,2021.2.3,59.95408717337748,
2-back,instructions\back-2.png,conditions\2back-p.xlsx,instructions\2-BACK.png,"(25, 15)",,,,,,,,,0,0,0,0,0,2,2,2,,,,,,,,,,,,,,,,,,,,,,,,,,,,,,,,,,,,,,,,,,,,,,,,,,,,,,,,,,,,,,,,,,,,,,,,,,,,,,,,,,,,,,,,,,,,,,,,,11021,001,2024_Jan_05_1139,nback,2021.2.3,59.95408717337748,
,,,,,,,,,,,,,0,0,0,0,,,,,,,,,,,,,,,,,,,,,,,,,,,,,,,,,,,,,,,,,,,,,,,,,,,,,,,,,,,,264.5671626999974,None,s,3.2654220999684185,264.5671626999974,None,,,,,,,,,,,,,,,,,,,,,,,,,,,,,,,,,,,,11021,001,2024_Jan_05_1139,nback,2021.2.3,59.95408717337748,
0-back,instructions\back-0.png,conditions\0back-p.xlsx,instructions\0-BACK.png,"(15, 8)",practice,0,1,stim\yellow.png,stim\gray.png,stim\gray.png,stim\gray.png,up,1,0,1,0,0,0,0,0,0,0,0,0,,,,,,,,,,,,,,,,,267.97151589998975,None,space,5.405409300001338,267.97151589998975,None,273.5124086999567,278.02174499991816,277.9884705999866,None,278.4227982999291,279.4223817999009,278.4227982999291,279.4223817999009,278.4227982999291,279.4223817999009,278.4227982999291,279.4223817999009,up,1,0.3540632000658661,278.4227982999291,None,278.4227982999291,None,278.4227982999291,278.9380127999466,278.4227982999291,278.9380127999466,278.4227982999291,278.9380127999466,278.4227982999291,278.9380127999466,278.4227982999291,None,,,,,,,,,,,,,,,,,,,,,,,,,,,,,,,,,,,,,,,,,,11021,001,2024_Jan_05_1139,nback,2021.2.3,59.95408717337748,
0-back,instructions\back-0.png,conditions\0back-p.xlsx,instructions\0-BACK.png,"(15, 8)",practice,0,2,stim\gray.png,stim\yellow.png,stim\gray.png,stim\gray.png,left,1,0,1,0,0,0,0,0,0,1,1,1,,,,,,,,,,,,,,,,,,,,,,,,,,,279.9058851998998,280.9086052000057,279.9058851998998,280.9086052000057,279.9058851998998,280.9086052000057,279.9058851998998,280.9086052000057,left,1,0.48630749993026257,279.9058851998998,None,279.9058851998998,None,279.9058851998998,280.407005499932,279.9058851998998,280.407005499932,279.9058851998998,280.407005499932,279.9058851998998,280.407005499932,279.9058851998998,None,,,,,,,,,,,,,,,,,,,,,,,,,,,,,,,,,,,,,,,,,,11021,001,2024_Jan_05_1139,nback,2021.2.3,59.95408717337748,
0-back,instructions\back-0.png,conditions\0back-p.xlsx,instructions\0-BACK.png,"(15, 8)",practice,0,3,stim\gray.png,stim\gray.png,stim\yellow.png,stim\gray.png,right,1,0,1,0,0,0,0,0,0,2,2,2,,,,,,,,,,,,,,,,,,,,,,,,,,,281.4082543000113,282.4106088000117,281.4082543000113,282.4106088000117,281.4082543000113,282.4106088000117,281.4082543000113,282.4106088000117,right,1,0.32006659999024123,281.4082543000113,None,281.4082543000113,None,281.4082543000113,281.90971969999373,281.4082543000113,281.90971969999373,281.4082543000113,281.90971969999373,281.4082543000113,281.90971969999373,281.4082543000113,None,,,,,,,,,,,,,,,,,,,,,,,,,,,,,,,,,,,,,,,,,,11021,001,2024_Jan_05_1139,nback,2021.2.3,59.95408717337748,
0-back,instructions\back-0.png,conditions\0back-p.xlsx,instructions\0-BACK.png,"(15, 8)",practice,0,4,stim\gray.png,stim\gray.png,stim\gray.png,stim\yellow.png,down,1,0,1,0,0,0,0,0,0,3,3,3,,,,,,,,,,,,,,,,,,,,,,,,,,,282.9105360999238,283.9120955999242,282.9105360999238,283.9120955999242,282.9105360999238,283.9120955999242,282.9105360999238,283.9120955999242,right,0,0.16173600009642541,282.9105360999238,None,282.9105360999238,None,282.9105360999238,283.4112596999621,282.9105360999238,283.4112596999621,282.9105360999238,283.4112596999621,282.9105360999238,283.4112596999621,282.9105360999238,None,,,,,,,,,,,,,,,,,,,,,,,,,,,,,,,,,,,,,,,,,,11021,001,2024_Jan_05_1139,nback,2021.2.3,59.95408717337748,
0-back,instructions\back-0.png,conditions\0back-p.xlsx,instructions\0-BACK.png,"(15, 8)",practice,0,2,stim\gray.png,stim\yellow.png,stim\gray.png,stim\gray.png,left,1,0,1,0,0,0,0,0,0,4,4,4,,,,,,,,,,,,,,,,,,,,,,,,,,,284.41278599994257,285.41565249999985,284.41278599994257,285.41565249999985,284.41278599994257,285.41565249999985,284.41278599994257,285.41565249999985,left,1,0.5398003000300378,284.41278599994257,None,284.41278599994257,None,284.41278599994257,284.9137079999782,284.41278599994257,284.9137079999782,284.41278599994257,284.9137079999782,284.41278599994257,284.9137079999782,284.41278599994257,None,,,,,,,,,,,,,,,,,,,,,,,,,,,,,,,,,,,,,,,,,,11021,001,2024_Jan_05_1139,nback,2021.2.3,59.95408717337748,
0-back,instructions\back-0.png,conditions\0back-p.xlsx,instructions\0-BACK.png,"(15, 8)",practice,0,1,stim\yellow.png,stim\gray.png,stim\gray.png,stim\gray.png,up,1,0,1,0,0,0,0,0,0,5,5,5,,,,,,,,,,,,,,,,,,,,,,,,,,,285.91488619998563,286.91709050000645,285.91488619998563,286.91709050000645,285.91488619998563,286.91709050000645,285.91488619998563,286.91709050000645,up,1,0.3413558000465855,285.91488619998563,None,285.91488619998563,None,285.91488619998563,286.41695079999045,285.91488619998563,286.41695079999045,285.91488619998563,286.41695079999045,285.91488619998563,286.41695079999045,285.91488619998563,None,,,,,,,,,,,,,,,,,,,,,,,,,,,,,,,,,,,,,,,,,,11021,001,2024_Jan_05_1139,nback,2021.2.3,59.95408717337748,
0-back,instructions\back-0.png,conditions\0back-p.xlsx,instructions\0-BACK.png,"(15, 8)",practice,0,4,stim\gray.png,stim\gray.png,stim\gray.png,stim\yellow.png,down,1,0,1,0,0,0,0,0,0,6,6,6,,,,,,,,,,,,,,,,,,,,,,,,,,,287.41709749994334,288.41946349991485,287.41709749994334,288.41946349991485,287.41709749994334,288.41946349991485,287.41709749994334,288.41946349991485,down,1,0.3991276000160724,287.41709749994334,None,287.41709749994334,None,287.41709749994334,287.9185347999446,287.41709749994334,287.9185347999446,287.41709749994334,287.9185347999446,287.41709749994334,287.9185347999446,287.41709749994334,None,,,,,,,,,,,,,,,,,,,,,,,,,,,,,,,,,,,,,,,,,,11021,001,2024_Jan_05_1139,nback,2021.2.3,59.95408717337748,
0-back,instructions\back-0.png,conditions\0back-p.xlsx,instructions\0-BACK.png,"(15, 8)",practice,0,3,stim\gray.png,stim\gray.png,stim\yellow.png,stim\gray.png,right,1,0,1,0,0,0,0,0,0,7,7,7,,,,,,,,,,,,,,,,,,,,,,,,,,,288.9026800999418,289.90476790000685,288.9026800999418,289.90476790000685,288.9026800999418,289.90476790000685,288.9026800999418,289.90476790000685,right,1,0.3695189000573009,288.9026800999418,None,288.9026800999418,None,288.9026800999418,289.4040122999577,288.9026800999418,289.4040122999577,288.9026800999418,289.4040122999577,288.9026800999418,289.4040122999577,288.9026800999418,None,,,,,,,,,,,,,,,,,,,,,,,,,,,,,,,,,,,,,,,,,,11021,001,2024_Jan_05_1139,nback,2021.2.3,59.95408717337748,
0-back,instructions\back-0.png,conditions\0back-p.xlsx,instructions\0-BACK.png,"(15, 8)",practice,0,3,stim\gray.png,stim\gray.png,stim\yellow.png,stim\gray.png,right,1,0,1,0,0,0,0,0,0,8,8,8,,,,,,,,,,,,,,,,,,,,,,,,,,,290.4049741999479,291.4070374999428,290.4049741999479,291.4070374999428,290.4049741999479,291.4070374999428,290.4049741999479,291.4070374999428,right,1,0.3313510000007227,290.4049741999479,None,290.4049741999479,None,290.4049741999479,290.9067057999782,290.4049741999479,290.9067057999782,290.4049741999479,290.9067057999782,290.4049741999479,290.9067057999782,290.4049741999479,None,,,,,,,,,,,,,,,,,,,,,,,,,,,,,,,,,,,,,,,,,,11021,001,2024_Jan_05_1139,nback,2021.2.3,59.95408717337748,
0-back,instructions\back-0.png,conditions\0back-p.xlsx,instructions\0-BACK.png,"(15, 8)",practice,0,4,stim\gray.png,stim\gray.png,stim\gray.png,stim\yellow.png,down,1,0,1,0,0,0,0,0,0,9,9,9,,,,,,,,,,,,,,,,,,,,,,,,,,,291.90721159998793,292.9084809999913,291.90721159998793,292.9084809999913,291.90721159998793,292.9084809999913,291.90721159998793,292.9084809999913,down,1,0.3732219999656081,291.90721159998793,None,291.90721159998793,None,291.90721159998793,292.40788239997346,291.90721159998793,292.40788239997346,291.90721159998793,292.40788239997346,291.90721159998793,292.40788239997346,291.90721159998793,None,,,,,,,,,,,,,,,,,,,,,,,,,,,,,,,,,,,,,,,,,,11021,001,2024_Jan_05_1139,nback,2021.2.3,59.95408717337748,
0-back,instructions\back-0.png,conditions\0back-p.xlsx,instructions\0-BACK.png,"(15, 8)",practice,0,1,stim\yellow.png,stim\gray.png,stim\gray.png,stim\gray.png,up,1,0,1,0,0,0,0,0,0,10,10,10,,,,,,,,,,,,,,,,,,,,,,,,,,,293.40951599995606,294.4113747999072,293.40951599995606,294.4113747999072,293.40951599995606,294.4113747999072,293.40951599995606,294.4113747999072,up,1,0.5268252000678331,293.40951599995606,None,293.40951599995606,None,293.40951599995606,293.9103935000021,293.40951599995606,293.9103935000021,293.40951599995606,293.9103935000021,293.40951599995606,293.9103935000021,293.40951599995606,None,,,,,,,,,,,,,,,,,,,,,,,,,,,,,,,,,,,,,,,,,,11021,001,2024_Jan_05_1139,nback,2021.2.3,59.95408717337748,
0-back,instructions\back-0.png,conditions\0back-p.xlsx,instructions\0-BACK.png,"(15, 8)",practice,0,2,stim\gray.png,stim\yellow.png,stim\gray.png,stim\gray.png,left,1,0,1,0,0,0,0,0,0,11,11,11,,,,,,,,,,,,,,,,,,,,,,,,,,,294.913177600014,295.91375629999675,294.913177600014,295.91375629999675,294.913177600014,295.91375629999675,294.913177600014,295.91375629999675,left,1,0.5910309999017045,294.913177600014,None,294.913177600014,None,294.913177600014,295.4123907999601,294.913177600014,295.4123907999601,294.913177600014,295.4123907999601,294.913177600014,295.4123907999601,294.913177600014,None,,,,,,,,,,,,,,,,,,,,,,,,,,,,,,,,,,,,,,,,,,11021,001,2024_Jan_05_1139,nback,2021.2.3,59.95408717337748,
0-back,instructions\back-0.png,conditions\0back-p.xlsx,instructions\0-BACK.png,"(15, 8)",practice,0,4,stim\gray.png,stim\gray.png,stim\gray.png,stim\yellow.png,down,1,0,1,0,0,0,0,0,0,12,12,12,,,,,,,,,,,,,,,,,,,,,,,,,,,296.4144181999145,297.41538829996716,296.4144181999145,297.41538829996716,296.4144181999145,297.41538829996716,296.4144181999145,297.41538829996716,down,1,0.3378317999886349,296.4144181999145,None,296.4144181999145,None,296.4144181999145,296.91467239998747,296.4144181999145,296.91467239998747,296.4144181999145,296.91467239998747,296.4144181999145,296.91467239998747,296.4144181999145,None,,,,,,,,,,,,,,,,,,,,,,,,,,,,,,,,,,,,,,,,,,11021,001,2024_Jan_05_1139,nback,2021.2.3,59.95408717337748,
0-back,instructions\back-0.png,conditions\0back-p.xlsx,instructions\0-BACK.png,"(15, 8)",practice,0,3,stim\gray.png,stim\gray.png,stim\yellow.png,stim\gray.png,right,1,0,1,0,0,0,0,0,0,13,13,13,,,,,,,,,,,,,,,,,,,,,,,,,,,297.91603540000506,298.91838519996963,297.91603540000506,298.91838519996963,297.91603540000506,298.91838519996963,297.91603540000506,298.91838519996963,right,1,0.36459259991534054,297.91603540000506,None,297.91603540000506,None,297.91603540000506,298.41759649990126,297.91603540000506,298.41759649990126,297.91603540000506,298.41759649990126,297.91603540000506,298.41759649990126,297.91603540000506,None,,,,,,,,,,,,,,,,,,,,,,,,,,,,,,,,,,,,,,,,,,11021,001,2024_Jan_05_1139,nback,2021.2.3,59.95408717337748,
0-back,instructions\back-0.png,conditions\0back-p.xlsx,instructions\0-BACK.png,"(15, 8)",practice,0,1,stim\yellow.png,stim\gray.png,stim\gray.png,stim\gray.png,up,1,0,1,0,0,0,0,0,0,14,14,14,,,,,,,,,,,,,,,,,,,,,,,,,,,299.40162069990765,300.4031441999832,299.40162069990765,300.4031441999832,299.40162069990765,300.4031441999832,299.40162069990765,300.4031441999832,up,1,0.3026236000005156,299.40162069990765,None,299.40162069990765,None,299.40162069990765,299.9022528999485,299.40162069990765,299.9022528999485,299.40162069990765,299.9022528999485,299.40162069990765,299.9022528999485,299.40162069990765,None,,,,,,,,,,,,,,,,,,,,,,,,,,,,,,,,,,,,,,,,,,11021,001,2024_Jan_05_1139,nback,2021.2.3,59.95408717337748,
0-back,instructions\back-0.png,conditions\0back-p.xlsx,instructions\0-BACK.png,"(15, 8)",practice,0,2,stim\gray.png,stim\yellow.png,stim\gray.png,stim\gray.png,left,1,0,1,0,0,0,0,0,0,15,15,15,,,,,,,,,,,,,,,,,,,,,,,,,,,300.9041904999176,301.90625839994755,300.9041904999176,301.90625839994755,300.9041904999176,301.90625839994755,300.9041904999176,301.90625839994755,left,1,0.4402454000664875,300.9041904999176,None,300.9041904999176,None,300.9041904999176,301.40511089994106,300.9041904999176,301.40511089994106,300.9041904999176,301.40511089994106,300.9041904999176,301.40511089994106,300.9041904999176,None,,,,,,,,,,,,,,,,,,,,,,,,,,,,,,,,,,,,,,,,,,11021,001,2024_Jan_05_1139,nback,2021.2.3,59.95408717337748,
0-back,instructions\back-0.png,conditions\0back-p.xlsx,instructions\0-BACK.png,"(15, 8)",practice,0,3,stim\gray.png,stim\gray.png,stim\yellow.png,stim\gray.png,right,1,0,1,0,0,0,0,0,0,16,16,16,,,,,,,,,,,,,,,,,,,,,,,,,,,302.4061894000042,303.40854299999774,302.4061894000042,303.40854299999774,302.4061894000042,303.40854299999774,302.4061894000042,303.40854299999774,right,1,0.5541062999982387,302.4061894000042,None,302.4061894000042,None,302.4061894000042,302.9073219000129,302.4061894000042,302.9073219000129,302.4061894000042,302.9073219000129,302.4061894000042,302.9073219000129,302.4061894000042,None,,,,,,,,,,,,,,,,,,,,,,,,,,,,,,,,,,,,,,,,,,11021,001,2024_Jan_05_1139,nback,2021.2.3,59.95408717337748,
0-back,instructions\back-0.png,conditions\0back-p.xlsx,instructions\0-BACK.png,"(15, 8)",practice,0,1,stim\yellow.png,stim\gray.png,stim\gray.png,stim\gray.png,up,1,0,1,0,0,0,0,0,0,17,17,17,,,,,,,,,,,,,,,,,,,,,,,,,,,303.9082092999015,304.9101289999671,303.9082092999015,304.9101289999671,303.9082092999015,304.9101289999671,303.9082092999015,304.9101289999671,up,1,0.7726459999103099,303.9082092999015,None,303.9082092999015,None,303.9082092999015,304.40934909996577,303.9082092999015,304.40934909996577,303.9082092999015,304.40934909996577,303.9082092999015,304.40934909996577,303.9082092999015,None,,,,,,,,,,,,,,,,,,,,,,,,,,,,,,,,,,,,,,,,,,11021,001,2024_Jan_05_1139,nback,2021.2.3,59.95408717337748,
0-back,instructions\back-0.png,conditions\0back-p.xlsx,instructions\0-BACK.png,"(15, 8)",practice,0,4,stim\gray.png,stim\gray.png,stim\gray.png,stim\yellow.png,down,1,0,1,0,0,0,0,0,0,18,18,18,,,,,,,,,,,,,,,,,,,,,,,,,,,305.4111219999613,306.412138100015,305.4111219999613,306.412138100015,305.4111219999613,306.412138100015,305.4111219999613,306.412138100015,down,1,0.41349770000670105,305.4111219999613,None,305.4111219999613,None,305.4111219999613,305.91200649994425,305.4111219999613,305.91200649994425,305.4111219999613,305.91200649994425,305.4111219999613,305.91200649994425,305.4111219999613,None,,,,,,,,,,,,,,,,,,,,,,,,,,,,,,,,,,,,,,,,,,11021,001,2024_Jan_05_1139,nback,2021.2.3,59.95408717337748,
0-back,instructions\back-0.png,conditions\0back-p.xlsx,instructions\0-BACK.png,"(15, 8)",practice,0,2,stim\gray.png,stim\yellow.png,stim\gray.png,stim\gray.png,left,1,0,1,0,0,0,0,0,0,19,19,19,,,,,,,,,,,,,,,,,,,,,,,,,,,306.9128553000046,307.9143099999055,306.9128553000046,307.9143099999055,306.9128553000046,307.9143099999055,306.9128553000046,307.9143099999055,left,1,0.6397790999617428,306.9128553000046,None,306.9128553000046,None,306.9128553000046,307.41334619990084,306.9128553000046,307.41334619990084,306.9128553000046,307.41334619990084,306.9128553000046,307.41334619990084,306.9128553000046,None,,,,,,,,,,,,,,,,,,,,,,,,,,,,,,,,,,,,,,,,,,11021,001,2024_Jan_05_1139,nback,2021.2.3,59.95408717337748,
0-back,instructions\back-0.png,conditions\0back-p.xlsx,instructions\0-BACK.png,"(15, 8)",,,,,,,,,1,0,1,0,0,0,0,0,,,,,,,,,,,,,,,,,,,,,,,,,,,,,,,,,,,,,,,,,,,,,,,,,,,,,,,,,,,,,,,,,,,,,,,,,,,,,,,,,,,,,,,,,,,,,,,,,11021,001,2024_Jan_05_1139,nback,2021.2.3,59.95408717337748,
1-back,instructions\back-1.png,conditions\1back-p.xlsx,instructions\1-BACK.png,"(25, 15)",practice,1,1,stim\yellow.png,stim\gray.png,stim\gray.png,stim\gray.png,None,1,0,1,0,0,1,1,1,0,0,0,0,,,,,,,,,,,,,,,,,308.5309981999453,None,space,9.38230499997735,308.5309981999453,None,318.04580530000385,322.55340609990526,322.5197358999867,None,322.95373979990836,323.9547627000138,322.95373979990836,323.9547627000138,322.95373979990836,323.9547627000138,322.95373979990836,323.9547627000138,None,1,,322.95373979990836,None,322.95373979990836,None,322.95373979990836,323.4547272999771,322.95373979990836,323.4547272999771,322.95373979990836,323.4547272999771,322.95373979990836,323.4547272999771,322.95373979990836,None,,,,,,,,,,,,,,,,,,,,,,,,,,,,,,,,,,,,,,,,,,11021,001,2024_Jan_05_1139,nback,2021.2.3,59.95408717337748,
1-back,instructions\back-1.png,conditions\1back-p.xlsx,instructions\1-BACK.png,"(25, 15)",practice,1,2,stim\gray.png,stim\yellow.png,stim\gray.png,stim\gray.png,up,1,0,1,0,0,1,1,1,0,1,1,1,,,,,,,,,,,,,,,,,,,,,,,,,,,324.438877999899,325.44022140000015,324.438877999899,325.44022140000015,324.438877999899,325.44022140000015,324.438877999899,325.44022140000015,up,1,0.7695593999233097,324.438877999899,None,324.438877999899,None,324.438877999899,324.9400408999063,324.438877999899,324.9400408999063,324.438877999899,324.9400408999063,324.438877999899,324.9400408999063,324.438877999899,None,,,,,,,,,,,,,,,,,,,,,,,,,,,,,,,,,,,,,,,,,,11021,001,2024_Jan_05_1139,nback,2021.2.3,59.95408717337748,
1-back,instructions\back-1.png,conditions\1back-p.xlsx,instructions\1-BACK.png,"(25, 15)",practice,1,3,stim\gray.png,stim\gray.png,stim\yellow.png,stim\gray.png,left,1,0,1,0,0,1,1,1,0,2,2,2,,,,,,,,,,,,,,,,,,,,,,,,,,,325.9408243999351,326.94358739990275,325.9408243999351,326.94358739990275,325.9408243999351,326.94358739990275,325.9408243999351,326.94358739990275,left,1,0.24377990001812577,325.9408243999351,None,325.9408243999351,None,325.9408243999351,326.44187109998893,325.9408243999351,326.44187109998893,325.9408243999351,326.44187109998893,325.9408243999351,326.44187109998893,325.9408243999351,None,,,,,,,,,,,,,,,,,,,,,,,,,,,,,,,,,,,,,,,,,,11021,001,2024_Jan_05_1139,nback,2021.2.3,59.95408717337748,
1-back,instructions\back-1.png,conditions\1back-p.xlsx,instructions\1-BACK.png,"(25, 15)",practice,1,4,stim\gray.png,stim\gray.png,stim\gray.png,stim\yellow.png,right,1,0,1,0,0,1,1,1,0,3,3,3,,,,,,,,,,,,,,,,,,,,,,,,,,,327.44331699993927,328.4451794999186,327.44331699993927,328.4451794999186,327.44331699993927,328.4451794999186,327.44331699993927,328.4451794999186,right,1,0.2853072000434622,327.44331699993927,None,327.44331699993927,None,327.44331699993927,327.94383759994525,327.44331699993927,327.94383759994525,327.44331699993927,327.94383759994525,327.44331699993927,327.94383759994525,327.44331699993927,None,,,,,,,,,,,,,,,,,,,,,,,,,,,,,,,,,,,,,,,,,,11021,001,2024_Jan_05_1139,nback,2021.2.3,59.95408717337748,
1-back,instructions\back-1.png,conditions\1back-p.xlsx,instructions\1-BACK.png,"(25, 15)",practice,1,2,stim\gray.png,stim\yellow.png,stim\gray.png,stim\gray.png,down,1,0,1,0,0,1,1,1,0,4,4,4,,,,,,,,,,,,,,,,,,,,,,,,,,,328.94727819995023,329.946993199992,328.94727819995023,329.946993199992,328.94727819995023,329.946993199992,328.94727819995023,329.946993199992,down,1,0.3089776000706479,328.94727819995023,None,328.94727819995023,None,328.94727819995023,329.4628268999513,328.94727819995023,329.4628268999513,328.94727819995023,329.4628268999513,328.94727819995023,329.4628268999513,328.94727819995023,None,,,,,,,,,,,,,,,,,,,,,,,,,,,,,,,,,,,,,,,,,,11021,001,2024_Jan_05_1139,nback,2021.2.3,59.95408717337748,
1-back,instructions\back-1.png,conditions\1back-p.xlsx,instructions\1-BACK.png,"(25, 15)",practice,1,1,stim\yellow.png,stim\gray.png,stim\gray.png,stim\gray.png,left,1,0,1,0,0,1,1,1,0,5,5,5,,,,,,,,,,,,,,,,,,,,,,,,,,,330.44766129995696,331.44930919993203,330.44766129995696,331.44930919993203,330.44766129995696,331.44930919993203,330.44766129995696,331.44930919993203,left,1,0.20872540003620088,330.44766129995696,None,330.44766129995696,None,330.44766129995696,330.94872240000404,330.44766129995696,330.94872240000404,330.44766129995696,330.94872240000404,330.44766129995696,330.94872240000404,330.44766129995696,None,,,,,,,,,,,,,,,,,,,,,,,,,,,,,,,,,,,,,,,,,,11021,001,2024_Jan_05_1139,nback,2021.2.3,59.95408717337748,
1-back,instructions\back-1.png,conditions\1back-p.xlsx,instructions\1-BACK.png,"(25, 15)",practice,1,4,stim\gray.png,stim\gray.png,stim\gray.png,stim\yellow.png,up,1,0,1,0,0,1,1,1,0,6,6,6,,,,,,,,,,,,,,,,,,,,,,,,,,,331.95060069998726,332.9512827999424,331.95060069998726,332.9512827999424,331.95060069998726,332.9512827999424,331.95060069998726,332.9512827999424,up,1,0.13779940002132207,331.95060069998726,None,331.95060069998726,None,331.95060069998726,332.4507042999612,331.95060069998726,332.4507042999612,331.95060069998726,332.4507042999612,331.95060069998726,332.4507042999612,331.95060069998726,None,,,,,,,,,,,,,,,,,,,,,,,,,,,,,,,,,,,,,,,,,,11021,001,2024_Jan_05_1139,nback,2021.2.3,59.95408717337748,
1-back,instructions\back-1.png,conditions\1back-p.xlsx,instructions\1-BACK.png,"(25, 15)",practice,1,3,stim\gray.png,stim\gray.png,stim\yellow.png,stim\gray.png,down,1,0,1,0,0,1,1,1,0,7,7,7,,,,,,,,,,,,,,,,,,,,,,,,,,,333.4355030999286,334.4373105999548,333.4355030999286,334.4373105999548,333.4355030999286,334.4373105999548,333.4355030999286,334.4373105999548,down,1,0.14077340008225292,333.4355030999286,None,333.4355030999286,None,333.4355030999286,333.9362049999181,333.4355030999286,333.9362049999181,333.4355030999286,333.9362049999181,333.4355030999286,333.9362049999181,333.4355030999286,None,,,,,,,,,,,,,,,,,,,,,,,,,,,,,,,,,,,,,,,,,,11021,001,2024_Jan_05_1139,nback,2021.2.3,59.95408717337748,
1-back,instructions\back-1.png,conditions\1back-p.xlsx,instructions\1-BACK.png,"(25, 15)",practice,1,3,stim\gray.png,stim\gray.png,stim\yellow.png,stim\gray.png,right,1,0,1,0,0,1,1,1,0,8,8,8,,,,,,,,,,,,,,,,,,,,,,,,,,,334.93757199996617,335.9394315999234,334.93757199996617,335.9394315999234,334.93757199996617,335.9394315999234,334.93757199996617,335.9394315999234,right,1,0.1833411999978125,334.93757199996617,None,334.93757199996617,None,334.93757199996617,335.4392559999833,334.93757199996617,335.4392559999833,334.93757199996617,335.4392559999833,334.93757199996617,335.4392559999833,334.93757199996617,None,,,,,,,,,,,,,,,,,,,,,,,,,,,,,,,,,,,,,,,,,,11021,001,2024_Jan_05_1139,nback,2021.2.3,59.95408717337748,
1-back,instructions\back-1.png,conditions\1back-p.xlsx,instructions\1-BACK.png,"(25, 15)",practice,1,4,stim\gray.png,stim\gray.png,stim\gray.png,stim\yellow.png,right,1,0,1,0,0,1,1,1,0,9,9,9,,,,,,,,,,,,,,,,,,,,,,,,,,,336.4398277999135,337.4411650999682,336.4398277999135,337.4411650999682,336.4398277999135,337.4411650999682,336.4398277999135,337.4411650999682,right,1,0.20836029993370175,336.4398277999135,None,336.4398277999135,None,336.4398277999135,336.94141029997263,336.4398277999135,336.94141029997263,336.4398277999135,336.94141029997263,336.4398277999135,336.94141029997263,336.4398277999135,None,,,,,,,,,,,,,,,,,,,,,,,,,,,,,,,,,,,,,,,,,,11021,001,2024_Jan_05_1139,nback,2021.2.3,59.95408717337748,
1-back,instructions\back-1.png,conditions\1back-p.xlsx,instructions\1-BACK.png,"(25, 15)",practice,1,1,stim\yellow.png,stim\gray.png,stim\gray.png,stim\gray.png,down,1,0,1,0,0,1,1,1,0,10,10,10,,,,,,,,,,,,,,,,,,,,,,,,,,,337.94216619990766,338.9444213999668,337.94216619990766,338.9444213999668,337.94216619990766,338.9444213999668,337.94216619990766,338.9444213999668,down,1,0.21007809997536242,337.94216619990766,None,337.94216619990766,None,337.94216619990766,338.4427839999553,337.94216619990766,338.4427839999553,337.94216619990766,338.4427839999553,337.94216619990766,338.4427839999553,337.94216619990766,None,,,,,,,,,,,,,,,,,,,,,,,,,,,,,,,,,,,,,,,,,,11021,001,2024_Jan_05_1139,nback,2021.2.3,59.95408717337748,
1-back,instructions\back-1.png,conditions\1back-p.xlsx,instructions\1-BACK.png,"(25, 15)",practice,1,2,stim\gray.png,stim\yellow.png,stim\gray.png,stim\gray.png,up,1,0,1,0,0,1,1,1,0,11,11,11,,,,,,,,,,,,,,,,,,,,,,,,,,,339.4443686999148,340.4457437999081,339.4443686999148,340.4457437999081,339.4443686999148,340.4457437999081,339.4443686999148,340.4457437999081,up,1,0.19588419992942363,339.4443686999148,None,339.4443686999148,None,339.4443686999148,339.94524849997833,339.4443686999148,339.94524849997833,339.4443686999148,339.94524849997833,339.4443686999148,339.94524849997833,339.4443686999148,None,,,,,,,,,,,,,,,,,,,,,,,,,,,,,,,,,,,,,,,,,,11021,001,2024_Jan_05_1139,nback,2021.2.3,59.95408717337748,
1-back,instructions\back-1.png,conditions\1back-p.xlsx,instructions\1-BACK.png,"(25, 15)",practice,1,4,stim\gray.png,stim\gray.png,stim\gray.png,stim\yellow.png,left,1,0,1,0,0,1,1,1,0,12,12,12,,,,,,,,,,,,,,,,,,,,,,,,,,,340.94662949990015,341.94811689993367,340.94662949990015,341.94811689993367,340.94662949990015,341.94811689993367,340.94662949990015,341.94811689993367,left,1,0.2057537001091987,340.94662949990015,None,340.94662949990015,None,340.94662949990015,341.4476008999627,340.94662949990015,341.4476008999627,340.94662949990015,341.4476008999627,340.94662949990015,341.4476008999627,340.94662949990015,None,,,,,,,,,,,,,,,,,,,,,,,,,,,,,,,,,,,,,,,,,,11021,001,2024_Jan_05_1139,nback,2021.2.3,59.95408717337748,
1-back,instructions\back-1.png,conditions\1back-p.xlsx,instructions\1-BACK.png,"(25, 15)",practice,1,3,stim\gray.png,stim\gray.png,stim\yellow.png,stim\gray.png,down,1,0,1,0,0,1,1,1,0,13,13,13,,,,,,,,,,,,,,,,,,,,,,,,,,,342.44877539994195,343.4503011999186,342.44877539994195,343.4503011999186,342.44877539994195,343.4503011999186,342.44877539994195,343.4503011999186,right,0,0.6162070999853313,342.44877539994195,None,342.44877539994195,None,342.44877539994195,342.95007449993864,342.44877539994195,342.95007449993864,342.44877539994195,342.95007449993864,342.44877539994195,342.95007449993864,342.44877539994195,None,,,,,,,,,,,,,,,,,,,,,,,,,,,,,,,,,,,,,,,,,,11021,001,2024_Jan_05_1139,nback,2021.2.3,59.95408717337748,
1-back,instructions\back-1.png,conditions\1back-p.xlsx,instructions\1-BACK.png,"(25, 15)",practice,1,1,stim\yellow.png,stim\gray.png,stim\gray.png,stim\gray.png,right,1,0,1,0,0,1,1,1,0,14,14,14,,,,,,,,,,,,,,,,,,,,,,,,,,,343.9341066000052,344.9361952999607,343.9341066000052,344.9361952999607,343.9341066000052,344.9361952999607,343.9341066000052,344.9361952999607,right,1,0.5061724999686703,343.9341066000052,None,343.9341066000052,None,343.9341066000052,344.435819300008,343.9341066000052,344.435819300008,343.9341066000052,344.435819300008,343.9341066000052,344.435819300008,343.9341066000052,None,,,,,,,,,,,,,,,,,,,,,,,,,,,,,,,,,,,,,,,,,,11021,001,2024_Jan_05_1139,nback,2021.2.3,59.95408717337748,
1-back,instructions\back-1.png,conditions\1back-p.xlsx,instructions\1-BACK.png,"(25, 15)",practice,1,2,stim\gray.png,stim\yellow.png,stim\gray.png,stim\gray.png,up,1,0,1,0,0,1,1,1,0,15,15,15,,,,,,,,,,,,,,,,,,,,,,,,,,,345.43662739999127,346.438147299923,345.43662739999127,346.438147299923,345.43662739999127,346.438147299923,345.43662739999127,346.438147299923,up,1,0.3560036999406293,345.43662739999127,None,345.43662739999127,None,345.43662739999127,345.9380427999422,345.43662739999127,345.9380427999422,345.43662739999127,345.9380427999422,345.43662739999127,345.9380427999422,345.43662739999127,None,,,,,,,,,,,,,,,,,,,,,,,,,,,,,,,,,,,,,,,,,,11021,001,2024_Jan_05_1139,nback,2021.2.3,59.95408717337748,
1-back,instructions\back-1.png,conditions\1back-p.xlsx,instructions\1-BACK.png,"(25, 15)",practice,1,3,stim\gray.png,stim\gray.png,stim\yellow.png,stim\gray.png,left,1,0,1,0,0,1,1,1,0,16,16,16,,,,,,,,,,,,,,,,,,,,,,,,,,,346.93887369998265,347.9411397000076,346.93887369998265,347.9411397000076,346.93887369998265,347.9411397000076,346.93887369998265,347.9411397000076,left,1,0.29358309996314347,346.93887369998265,None,346.93887369998265,None,346.93887369998265,347.43976109998766,346.93887369998265,347.43976109998766,346.93887369998265,347.43976109998766,346.93887369998265,347.43976109998766,346.93887369998265,None,,,,,,,,,,,,,,,,,,,,,,,,,,,,,,,,,,,,,,,,,,11021,001,2024_Jan_05_1139,nback,2021.2.3,59.95408717337748,
1-back,instructions\back-1.png,conditions\1back-p.xlsx,instructions\1-BACK.png,"(25, 15)",practice,1,1,stim\yellow.png,stim\gray.png,stim\gray.png,stim\gray.png,right,1,0,1,0,0,1,1,1,0,17,17,17,,,,,,,,,,,,,,,,,,,,,,,,,,,348.44156159996055,349.4424340999685,348.44156159996055,349.4424340999685,348.44156159996055,349.4424340999685,348.44156159996055,349.4424340999685,up,0,1.4157022000290453,348.44156159996055,None,348.44156159996055,None,348.44156159996055,348.94179710000753,348.44156159996055,348.94179710000753,348.44156159996055,348.94179710000753,348.44156159996055,348.94179710000753,348.44156159996055,None,,,,,,,,,,,,,,,,,,,,,,,,,,,,,,,,,,,,,,,,,,11021,001,2024_Jan_05_1139,nback,2021.2.3,59.95408717337748,
1-back,instructions\back-1.png,conditions\1back-p.xlsx,instructions\1-BACK.png,"(25, 15)",practice,1,4,stim\gray.png,stim\gray.png,stim\gray.png,stim\yellow.png,up,1,0,1,0,0,1,1,1,0,18,18,18,,,,,,,,,,,,,,,,,,,,,,,,,,,349.94319229992107,350.9447090999456,349.94319229992107,350.9447090999456,349.94319229992107,350.9447090999456,349.94319229992107,350.9447090999456,None,0,,349.94319229992107,None,349.94319229992107,None,349.94319229992107,350.4449533999432,349.94319229992107,350.4449533999432,349.94319229992107,350.4449533999432,349.94319229992107,350.4449533999432,349.94319229992107,None,,,,,,,,,,,,,,,,,,,,,,,,,,,,,,,,,,,,,,,,,,11021,001,2024_Jan_05_1139,nback,2021.2.3,59.95408717337748,
1-back,instructions\back-1.png,conditions\1back-p.xlsx,instructions\1-BACK.png,"(25, 15)",practice,1,2,stim\gray.png,stim\yellow.png,stim\gray.png,stim\gray.png,down,1,0,1,0,0,1,1,1,0,19,19,19,,,,,,,,,,,,,,,,,,,,,,,,,,,351.4454084999161,352.447007699986,351.4454084999161,352.447007699986,351.4454084999161,352.447007699986,351.4454084999161,352.447007699986,down,1,0.2669267999008298,351.4454084999161,None,351.4454084999161,None,351.4454084999161,351.9462197999237,351.4454084999161,351.9462197999237,351.4454084999161,351.9462197999237,351.4454084999161,351.9462197999237,351.4454084999161,None,,,,,,,,,,,,,,,,,,,,,,,,,,,,,,,,,,,,,,,,,,11021,001,2024_Jan_05_1139,nback,2021.2.3,59.95408717337748,
1-back,instructions\back-1.png,conditions\1back-p.xlsx,instructions\1-BACK.png,"(25, 15)",,,,,,,,,1,0,1,0,0,1,1,1,,,,,,,,,,,,,,,,,,,,,,,,,,,,,,,,,,,,,,,,,,,,,,,,,,,,,,,,,,,,,,,,,,,,,,,,,,,,,,,,,,,,,,,,,,,,,,,,,11021,001,2024_Jan_05_1139,nback,2021.2.3,59.95408717337748,
2-back,instructions\back-2.png,conditions\2back-p.xlsx,instructions\2-BACK.png,"(25, 15)",practice,2,1,stim\yellow.png,stim\gray.png,stim\gray.png,stim\gray.png,None,1,0,1,0,0,2,2,2,0,0,0,0,,,,,,,,,,,,,,,,,353.0642421999946,None,space,10.648922699969262,353.0642421999946,None,363.86421999998856,368.37246330000926,368.32179379998706,None,368.7550904999953,369.75630989996716,368.7550904999953,369.75630989996716,368.7550904999953,369.75630989996716,368.7550904999953,369.75630989996716,None,1,,368.7550904999953,None,368.7550904999953,None,368.7550904999953,369.2553623999702,368.7550904999953,369.2553623999702,368.7550904999953,369.2553623999702,368.7550904999953,369.2553623999702,368.7550904999953,None,,,,,,,,,,,,,,,,,,,,,,,,,,,,,,,,,,,,,,,,,,11021,001,2024_Jan_05_1139,nback,2021.2.3,59.95408717337748,
2-back,instructions\back-2.png,conditions\2back-p.xlsx,instructions\2-BACK.png,"(25, 15)",practice,2,2,stim\gray.png,stim\yellow.png,stim\gray.png,stim\gray.png,None,1,0,1,0,0,2,2,2,0,1,1,1,,,,,,,,,,,,,,,,,,,,,,,,,,,370.23993929999415,371.2414293999318,370.23993929999415,371.2414293999318,370.23993929999415,371.2414293999318,370.23993929999415,371.2414293999318,None,1,,370.23993929999415,None,370.23993929999415,None,370.23993929999415,370.74061769992113,370.23993929999415,370.74061769992113,370.23993929999415,370.74061769992113,370.23993929999415,370.74061769992113,370.23993929999415,None,,,,,,,,,,,,,,,,,,,,,,,,,,,,,,,,,,,,,,,,,,11021,001,2024_Jan_05_1139,nback,2021.2.3,59.95408717337748,
2-back,instructions\back-2.png,conditions\2back-p.xlsx,instructions\2-BACK.png,"(25, 15)",practice,2,3,stim\gray.png,stim\gray.png,stim\yellow.png,stim\gray.png,up,1,0,1,0,0,2,2,2,0,2,2,2,,,,,,,,,,,,,,,,,,,,,,,,,,,371.74224659998436,372.74408609990496,371.74224659998436,372.74408609990496,371.74224659998436,372.74408609990496,371.74224659998436,372.74408609990496,up,1,0.44280089996755123,371.74224659998436,None,371.74224659998436,None,371.74224659998436,372.2431229999056,371.74224659998436,372.2431229999056,371.74224659998436,372.2431229999056,371.74224659998436,372.2431229999056,371.74224659998436,None,,,,,,,,,,,,,,,,,,,,,,,,,,,,,,,,,,,,,,,,,,11021,001,2024_Jan_05_1139,nback,2021.2.3,59.95408717337748,
2-back,instructions\back-2.png,conditions\2back-p.xlsx,instructions\2-BACK.png,"(25, 15)",practice,2,4,stim\gray.png,stim\gray.png,stim\gray.png,stim\yellow.png,left,1,0,1,0,0,2,2,2,0,3,3,3,,,,,,,,,,,,,,,,,,,,,,,,,,,373.24427609995473,374.24599319999106,373.24427609995473,374.24599319999106,373.24427609995473,374.24599319999106,373.24427609995473,374.24599319999106,left,1,0.25212880002800375,373.24427609995473,None,373.24427609995473,None,373.24427609995473,373.74523199989926,373.24427609995473,373.74523199989926,373.24427609995473,373.74523199989926,373.24427609995473,373.74523199989926,373.24427609995473,None,,,,,,,,,,,,,,,,,,,,,,,,,,,,,,,,,,,,,,,,,,11021,001,2024_Jan_05_1139,nback,2021.2.3,59.95408717337748,
2-back,instructions\back-2.png,conditions\2back-p.xlsx,instructions\2-BACK.png,"(25, 15)",practice,2,2,stim\gray.png,stim\yellow.png,stim\gray.png,stim\gray.png,right,1,0,1,0,0,2,2,2,0,4,4,4,,,,,,,,,,,,,,,,,,,,,,,,,,,374.7466401999118,375.74826689995825,374.7466401999118,375.74826689995825,374.7466401999118,375.74826689995825,374.7466401999118,375.74826689995825,right,1,0.2617621999233961,374.7466401999118,None,374.7466401999118,None,374.7466401999118,375.24769069999456,374.7466401999118,375.24769069999456,374.7466401999118,375.24769069999456,374.7466401999118,375.24769069999456,374.7466401999118,None,,,,,,,,,,,,,,,,,,,,,,,,,,,,,,,,,,,,,,,,,,11021,001,2024_Jan_05_1139,nback,2021.2.3,59.95408717337748,
2-back,instructions\back-2.png,conditions\2back-p.xlsx,instructions\2-BACK.png,"(25, 15)",practice,2,1,stim\yellow.png,stim\gray.png,stim\gray.png,stim\gray.png,down,1,0,1,0,0,2,2,2,0,5,5,5,,,,,,,,,,,,,,,,,,,,,,,,,,,376.2487591999816,377.2502741999924,376.2487591999816,377.2502741999924,376.2487591999816,377.2502741999924,376.2487591999816,377.2502741999924,down,1,0.2314986001001671,376.2487591999816,None,376.2487591999816,None,376.2487591999816,376.74982439994346,376.2487591999816,376.74982439994346,376.2487591999816,376.74982439994346,376.2487591999816,376.74982439994346,376.2487591999816,None,,,,,,,,,,,,,,,,,,,,,,,,,,,,,,,,,,,,,,,,,,11021,001,2024_Jan_05_1139,nback,2021.2.3,59.95408717337748,
2-back,instructions\back-2.png,conditions\2back-p.xlsx,instructions\2-BACK.png,"(25, 15)",practice,2,4,stim\gray.png,stim\gray.png,stim\gray.png,stim\yellow.png,left,1,0,1,0,0,2,2,2,0,6,6,6,,,,,,,,,,,,,,,,,,,,,,,,,,,377.73502009990625,378.73655389994383,377.73502009990625,378.73655389994383,377.73502009990625,378.73655389994383,377.73502009990625,378.73655389994383,left,1,0.19361469999421388,377.73502009990625,None,377.73502009990625,None,377.73502009990625,378.2357684999006,377.73502009990625,378.2357684999006,377.73502009990625,378.2357684999006,377.73502009990625,378.2357684999006,377.73502009990625,None,,,,,,,,,,,,,,,,,,,,,,,,,,,,,,,,,,,,,,,,,,11021,001,2024_Jan_05_1139,nback,2021.2.3,59.95408717337748,
2-back,instructions\back-2.png,conditions\2back-p.xlsx,instructions\2-BACK.png,"(25, 15)",practice,2,3,stim\gray.png,stim\gray.png,stim\yellow.png,stim\gray.png,up,1,0,1,0,0,2,2,2,0,7,7,7,,,,,,,,,,,,,,,,,,,,,,,,,,,379.2366102999076,380.23791839997284,379.2366102999076,380.23791839997284,379.2366102999076,380.23791839997284,379.2366102999076,380.23791839997284,up,1,0.0036906999303027987,379.2366102999076,None,379.2366102999076,None,379.2366102999076,379.7375619999366,379.2366102999076,379.7375619999366,379.2366102999076,379.7375619999366,379.2366102999076,379.7375619999366,379.2366102999076,None,,,,,,,,,,,,,,,,,,,,,,,,,,,,,,,,,,,,,,,,,,11021,001,2024_Jan_05_1139,nback,2021.2.3,59.95408717337748,
2-back,instructions\back-2.png,conditions\2back-p.xlsx,instructions\2-BACK.png,"(25, 15)",practice,2,3,stim\gray.png,stim\gray.png,stim\yellow.png,stim\gray.png,down,1,0,1,0,0,2,2,2,0,8,8,8,,,,,,,,,,,,,,,,,,,,,,,,,,,380.73887229990214,381.74038629990537,380.73887229990214,381.74038629990537,380.73887229990214,381.74038629990537,380.73887229990214,381.74038629990537,down,1,0.22159679990727454,380.73887229990214,None,380.73887229990214,None,380.73887229990214,381.239727600012,380.73887229990214,381.239727600012,380.73887229990214,381.239727600012,380.73887229990214,381.239727600012,380.73887229990214,None,,,,,,,,,,,,,,,,,,,,,,,,,,,,,,,,,,,,,,,,,,11021,001,2024_Jan_05_1139,nback,2021.2.3,59.95408717337748,
2-back,instructions\back-2.png,conditions\2back-p.xlsx,instructions\2-BACK.png,"(25, 15)",practice,2,4,stim\gray.png,stim\gray.png,stim\gray.png,stim\yellow.png,right,1,0,1,0,0,2,2,2,0,9,9,9,,,,,,,,,,,,,,,,,,,,,,,,,,,382.2409766999772,383.2426233999431,382.2409766999772,383.2426233999431,382.2409766999772,383.2426233999431,382.2409766999772,383.2426233999431,right,1,0.16752030001953244,382.2409766999772,None,382.2409766999772,None,382.2409766999772,382.7419884999981,382.2409766999772,382.7419884999981,382.2409766999772,382.7419884999981,382.2409766999772,382.7419884999981,382.2409766999772,None,,,,,,,,,,,,,,,,,,,,,,,,,,,,,,,,,,,,,,,,,,11021,001,2024_Jan_05_1139,nback,2021.2.3,59.95408717337748,
2-back,instructions\back-2.png,conditions\2back-p.xlsx,instructions\2-BACK.png,"(25, 15)",practice,2,1,stim\yellow.png,stim\gray.png,stim\gray.png,stim\gray.png,right,1,0,1,0,0,2,2,2,0,10,10,10,,,,,,,,,,,,,,,,,,,,,,,,,,,383.7432741000084,384.7448691999307,383.7432741000084,384.7448691999307,383.7432741000084,384.7448691999307,383.7432741000084,384.7448691999307,down,0,1.441344999941066,383.7432741000084,None,383.7432741000084,None,383.7432741000084,384.24436369992327,383.7432741000084,384.24436369992327,383.7432741000084,384.24436369992327,383.7432741000084,384.24436369992327,383.7432741000084,None,,,,,,,,,,,,,,,,,,,,,,,,,,,,,,,,,,,,,,,,,,11021,001,2024_Jan_05_1139,nback,2021.2.3,59.95408717337748,
2-back,instructions\back-2.png,conditions\2back-p.xlsx,instructions\2-BACK.png,"(25, 15)",practice,2,2,stim\gray.png,stim\yellow.png,stim\gray.png,stim\gray.png,down,1,0,1,0,0,2,2,2,0,11,11,11,,,,,,,,,,,,,,,,,,,,,,,,,,,385.2456686999649,386.24788579996675,385.2456686999649,386.24788579996675,385.2456686999649,386.24788579996675,385.2456686999649,386.24788579996675,None,0,,385.2456686999649,None,385.2456686999649,None,385.2456686999649,385.746258799918,385.2456686999649,385.746258799918,385.2456686999649,385.746258799918,385.2456686999649,385.746258799918,385.2456686999649,None,,,,,,,,,,,,,,,,,,,,,,,,,,,,,,,,,,,,,,,,,,11021,001,2024_Jan_05_1139,nback,2021.2.3,59.95408717337748,
2-back,instructions\back-2.png,conditions\2back-p.xlsx,instructions\2-BACK.png,"(25, 15)",practice,2,4,stim\gray.png,stim\gray.png,stim\gray.png,stim\yellow.png,up,1,0,1,0,0,2,2,2,0,12,12,12,,,,,,,,,,,,,,,,,,,,,,,,,,,386.74808169994503,387.75018410000484,386.74808169994503,387.75018410000484,386.74808169994503,387.75018410000484,386.74808169994503,387.75018410000484,up,1,0.044518299982883036,386.74808169994503,None,386.74808169994503,None,386.74808169994503,387.2490566999186,386.74808169994503,387.2490566999186,386.74808169994503,387.2490566999186,386.74808169994503,387.2490566999186,386.74808169994503,None,,,,,,,,,,,,,,,,,,,,,,,,,,,,,,,,,,,,,,,,,,11021,001,2024_Jan_05_1139,nback,2021.2.3,59.95408717337748,
2-back,instructions\back-2.png,conditions\2back-p.xlsx,instructions\2-BACK.png,"(25, 15)",practice,2,3,stim\gray.png,stim\gray.png,stim\yellow.png,stim\gray.png,left,1,0,1,0,0,2,2,2,0,13,13,13,,,,,,,,,,,,,,,,,,,,,,,,,,,388.25000759994145,389.2515520999441,388.25000759994145,389.2515520999441,388.25000759994145,389.2515520999441,388.25000759994145,389.2515520999441,left,1,0.014614899992011487,388.25000759994145,None,388.25000759994145,None,388.25000759994145,388.7508738999022,388.25000759994145,388.7508738999022,388.25000759994145,388.7508738999022,388.25000759994145,388.7508738999022,388.25000759994145,None,,,,,,,,,,,,,,,,,,,,,,,,,,,,,,,,,,,,,,,,,,11021,001,2024_Jan_05_1139,nback,2021.2.3,59.95408717337748,
2-back,instructions\back-2.png,conditions\2back-p.xlsx,instructions\2-BACK.png,"(25, 15)",practice,2,1,stim\yellow.png,stim\gray.png,stim\gray.png,stim\gray.png,down,1,0,1,0,0,2,2,2,0,14,14,14,,,,,,,,,,,,,,,,,,,,,,,,,,,389.73558799992315,390.73769609990995,389.73558799992315,390.73769609990995,389.73558799992315,390.73769609990995,389.73558799992315,390.73769609990995,right,0,1.4174293000251055,389.73558799992315,None,389.73558799992315,None,389.73558799992315,390.2365986999357,389.73558799992315,390.2365986999357,389.73558799992315,390.2365986999357,389.73558799992315,390.2365986999357,389.73558799992315,None,,,,,,,,,,,,,,,,,,,,,,,,,,,,,,,,,,,,,,,,,,11021,001,2024_Jan_05_1139,nback,2021.2.3,59.95408717337748,
2-back,instructions\back-2.png,conditions\2back-p.xlsx,instructions\2-BACK.png,"(25, 15)",practice,2,2,stim\gray.png,stim\yellow.png,stim\gray.png,stim\gray.png,right,1,0,1,0,0,2,2,2,0,15,15,15,,,,,,,,,,,,,,,,,,,,,,,,,,,391.2385685999179,392.23992089997046,391.2385685999179,392.23992089997046,391.2385685999179,392.23992089997046,391.2385685999179,392.23992089997046,None,0,,391.2385685999179,None,391.2385685999179,None,391.2385685999179,391.73904899996705,391.2385685999179,391.73904899996705,391.2385685999179,391.73904899996705,391.2385685999179,391.73904899996705,391.2385685999179,None,,,,,,,,,,,,,,,,,,,,,,,,,,,,,,,,,,,,,,,,,,11021,001,2024_Jan_05_1139,nback,2021.2.3,59.95408717337748,
2-back,instructions\back-2.png,conditions\2back-p.xlsx,instructions\2-BACK.png,"(25, 15)",practice,2,3,stim\gray.png,stim\gray.png,stim\yellow.png,stim\gray.png,up,1,0,1,0,0,2,2,2,0,16,16,16,,,,,,,,,,,,,,,,,,,,,,,,,,,392.7399417000124,393.7422375999158,392.7399417000124,393.7422375999158,392.7399417000124,393.7422375999158,392.7399417000124,393.7422375999158,left,0,1.3964647999964654,392.7399417000124,None,392.7399417000124,None,392.7399417000124,393.2416513999924,392.7399417000124,393.2416513999924,392.7399417000124,393.2416513999924,392.7399417000124,393.2416513999924,392.7399417000124,None,,,,,,,,,,,,,,,,,,,,,,,,,,,,,,,,,,,,,,,,,,11021,001,2024_Jan_05_1139,nback,2021.2.3,59.95408717337748,
2-back,instructions\back-2.png,conditions\2back-p.xlsx,instructions\2-BACK.png,"(25, 15)",practice,2,1,stim\yellow.png,stim\gray.png,stim\gray.png,stim\gray.png,left,1,0,1,0,0,2,2,2,0,17,17,17,,,,,,,,,,,,,,,,,,,,,,,,,,,394.24215039995033,395.24378239992075,394.24215039995033,395.24378239992075,394.24215039995033,395.24378239992075,394.24215039995033,395.24378239992075,None,0,,394.24215039995033,None,394.24215039995033,None,394.24215039995033,394.7428878999781,394.24215039995033,394.7428878999781,394.24215039995033,394.7428878999781,394.24215039995033,394.7428878999781,394.24215039995033,None,,,,,,,,,,,,,,,,,,,,,,,,,,,,,,,,,,,,,,,,,,11021,001,2024_Jan_05_1139,nback,2021.2.3,59.95408717337748,
2-back,instructions\back-2.png,conditions\2back-p.xlsx,instructions\2-BACK.png,"(25, 15)",practice,2,4,stim\gray.png,stim\gray.png,stim\gray.png,stim\yellow.png,right,1,0,1,0,0,2,2,2,0,18,18,18,,,,,,,,,,,,,,,,,,,,,,,,,,,395.74445120000746,396.7468328999821,395.74445120000746,396.7468328999821,395.74445120000746,396.7468328999821,395.74445120000746,396.7468328999821,up,0,1.4240205999230966,395.74445120000746,None,395.74445120000746,None,395.74445120000746,396.2458096999908,395.74445120000746,396.2458096999908,395.74445120000746,396.2458096999908,395.74445120000746,396.2458096999908,395.74445120000746,None,,,,,,,,,,,,,,,,,,,,,,,,,,,,,,,,,,,,,,,,,,11021,001,2024_Jan_05_1139,nback,2021.2.3,59.95408717337748,
2-back,instructions\back-2.png,conditions\2back-p.xlsx,instructions\2-BACK.png,"(25, 15)",practice,2,2,stim\gray.png,stim\yellow.png,stim\gray.png,stim\gray.png,up,1,0,1,0,0,2,2,2,0,19,19,19,,,,,,,,,,,,,,,,,,,,,,,,,,,397.2467935999157,398.2482858999865,397.2467935999157,398.2482858999865,397.2467935999157,398.2482858999865,397.2467935999157,398.2482858999865,down,0,1.4016795000061393,397.2467935999157,None,397.2467935999157,None,397.2467935999157,397.7481825000141,397.2467935999157,397.7481825000141,397.2467935999157,397.7481825000141,397.2467935999157,397.7481825000141,397.2467935999157,None,,,,,,,,,,,,,,,,,,,,,,,,,,,,,,,,,,,,,,,,,,11021,001,2024_Jan_05_1139,nback,2021.2.3,59.95408717337748,
2-back,instructions\back-2.png,conditions\2back-p.xlsx,instructions\2-BACK.png,"(25, 15)",,,,,,,,,1,0,1,0,0,2,2,2,,,,,,,,,,,,,,,,,,,,,,,,,,,,,,,,,,,,,,,,,,,,,,,,,,,,,,,,,,,,,,,,,,,,,,,,,,,,,,,,,,,,,,,,,,,,,,,,,11021,001,2024_Jan_05_1139,nback,2021.2.3,59.95408717337748,
,,,,,,,,,,,,,1,0,1,0,,,,,,,,,,,,,,,,,,,,,,,,,,,,,,,,,,,,,,,,,,,,,,,,,,,,,,,,,,,,398.7492917999625,None,space,5.763032200047746,398.7492917999625,None,,,,,,,,,,,,,,,,,,,,,,,,,,,,,,,,,,,,11021,001,2024_Jan_05_1139,nback,2021.2.3,59.95408717337748,
,,,,,,,,,,,,,,,,,,,,,,,,,,,,,,,,,,,,,,,,,,,,,,,,,,,,,,,,,,,,,,,,,,,,,,,,,,,,,,,,,,404.54075649997685,None,space,61.86789300001692,404.54075649997685,None,,,,,,,,,,,,,,,,,,,,,,,,,,,,,,11021,001,2024_Jan_05_1139,nback,2021.2.3,59.95408717337748,
2-back,instructions\back-2.png,conditions\21back-e.xlsx,,,experiment,2,3,stim\gray.png,stim\gray.png,stim\yellow.png,stim\gray.png,None,,,,,,,,,,,,,0,0,0,3,0,0,0,0,,,,,,,,,,,,,,,466.5660845999373,471.0735222999938,471.0401552999392,None,,,,,,,,,,,,,,,,,,,,,,,,,,,,,,,,,,,,,,None,1,471.45676440000534,None,471.45676440000534,None,471.45676440000534,472.458688099985,471.45676440000534,472.458688099985,471.45676440000534,472.458688099985,471.45676440000534,472.458688099985,471.45676440000534,471.95839069993235,471.45676440000534,471.95839069993235,471.45676440000534,471.95839069993235,471.45676440000534,471.95839069993235,471.45676440000534,None,,,,,,11021,001,2024_Jan_05_1139,nback,2021.2.3,59.95408717337748,
2-back,instructions\back-2.png,conditions\21back-e.xlsx,,,experiment,2,4,stim\gray.png,stim\gray.png,stim\gray.png,stim\yellow.png,None,,,,,,,,,,,,,0,0,0,3,0,1,1,1,,,,,,,,,,,,,,,,,,,,,,,,,,,,,,,,,,,,,,,,,,,,,,,,,,,,,,,,None,1,472.94280660001095,None,472.94280660001095,None,472.94280660001095,473.9436436999822,472.94280660001095,473.9436436999822,472.94280660001095,473.9436436999822,472.94280660001095,473.9436436999822,472.94280660001095,473.4429068999598,472.94280660001095,473.4429068999598,472.94280660001095,473.4429068999598,472.94280660001095,473.4429068999598,472.94280660001095,None,,,,,,11021,001,2024_Jan_05_1139,nback,2021.2.3,59.95408717337748,
2-back,instructions\back-2.png,conditions\21back-e.xlsx,,,experiment,2,1,stim\yellow.png,stim\gray.png,stim\gray.png,stim\gray.png,right,,,,,,,,,,,,,0,0,0,3,0,2,2,2,,,,,,,,,,,,,,,,,,,,,,,,,,,,,,,,,,,,,,,,,,,,,,,,,,,,,,,,down,0,474.4444073999766,None,474.4444073999766,None,474.4444073999766,475.44576589995995,474.4444073999766,475.44576589995995,474.4444073999766,475.44576589995995,474.4444073999766,475.44576589995995,474.4444073999766,474.9451230999548,474.4444073999766,474.9451230999548,474.4444073999766,474.9451230999548,474.4444073999766,474.9451230999548,474.4444073999766,None,1.276015300070867,,,,,11021,001,2024_Jan_05_1139,nback,2021.2.3,59.95408717337748,
2-back,instructions\back-2.png,conditions\21back-e.xlsx,,,experiment,2,2,stim\gray.png,stim\yellow.png,stim\gray.png,stim\gray.png,down,,,,,,,,,,,,,0,0,0,3,0,3,3,3,,,,,,,,,,,,,,,,,,,,,,,,,,,,,,,,,,,,,,,,,,,,,,,,,,,,,,,,up,0,475.9466598998988,None,475.9466598998988,None,475.9466598998988,476.94818319997285,475.9466598998988,476.94818319997285,475.9466598998988,476.94818319997285,475.9466598998988,476.94818319997285,475.9466598998988,476.4474621999543,475.9466598998988,476.4474621999543,475.9466598998988,476.4474621999543,475.9466598998988,476.4474621999543,475.9466598998988,None,1.3738843000028282,,,,,11021,001,2024_Jan_05_1139,nback,2021.2.3,59.95408717337748,
2-back,instructions\back-2.png,conditions\21back-e.xlsx,,,experiment,2,1,stim\yellow.png,stim\gray.png,stim\gray.png,stim\gray.png,up,,,,,,,,,,,,,0,0,0,3,0,4,4,4,,,,,,,,,,,,,,,,,,,,,,,,,,,,,,,,,,,,,,,,,,,,,,,,,,,,,,,,None,0,477.44919969991315,None,477.44919969991315,None,477.44919969991315,478.45054180000443,477.44919969991315,478.45054180000443,477.44919969991315,478.45054180000443,477.44919969991315,478.45054180000443,477.44919969991315,477.94983179995324,477.44919969991315,477.94983179995324,477.44919969991315,477.94983179995324,477.44919969991315,477.94983179995324,477.44919969991315,None,,,,,,11021,001,2024_Jan_05_1139,nback,2021.2.3,59.95408717337748,
2-back,instructions\back-2.png,conditions\21back-e.xlsx,,,experiment,2,2,stim\gray.png,stim\yellow.png,stim\gray.png,stim\gray.png,left,,,,,,,,,,,,,0,0,0,3,0,5,5,5,,,,,,,,,,,,,,,,,,,,,,,,,,,,,,,,,,,,,,,,,,,,,,,,,,,,,,,,left,1,478.95117559994105,None,478.95117559994105,None,478.95117559994105,479.9529683999717,478.95117559994105,479.9529683999717,478.95117559994105,479.9529683999717,478.95117559994105,479.9529683999717,478.95117559994105,479.45165920001455,478.95117559994105,479.45165920001455,478.95117559994105,479.45165920001455,478.95117559994105,479.45165920001455,478.95117559994105,None,0.06587350007612258,,,,,11021,001,2024_Jan_05_1139,nback,2021.2.3,59.95408717337748,
2-back,instructions\back-2.png,conditions\21back-e.xlsx,,,experiment,2,3,stim\gray.png,stim\gray.png,stim\yellow.png,stim\gray.png,up,,,,,,,,,,,,,0,0,0,3,0,6,6,6,,,,,,,,,,,,,,,,,,,,,,,,,,,,,,,,,,,,,,,,,,,,,,,,,,,,,,,,None,0,480.43673759989906,None,480.43673759989906,None,480.43673759989906,481.43817149999086,480.43673759989906,481.43817149999086,480.43673759989906,481.43817149999086,480.43673759989906,481.43817149999086,480.43673759989906,480.9376147999428,480.43673759989906,480.9376147999428,480.43673759989906,480.9376147999428,480.43673759989906,480.9376147999428,480.43673759989906,None,,,,,,11021,001,2024_Jan_05_1139,nback,2021.2.3,59.95408717337748,
2-back,instructions\back-2.png,conditions\21back-e.xlsx,,,experiment,2,4,stim\gray.png,stim\gray.png,stim\gray.png,stim\yellow.png,left,,,,,,,,,,,,,0,0,0,3,0,7,7,7,,,,,,,,,,,,,,,,,,,,,,,,,,,,,,,,,,,,,,,,,,,,,,,,,,,,,,,,left,1,481.9388817999279,None,481.9388817999279,None,481.9388817999279,482.9410814999137,481.9388817999279,482.9410814999137,481.9388817999279,482.9410814999137,481.9388817999279,482.9410814999137,481.9388817999279,482.43955739995,481.9388817999279,482.43955739995,481.9388817999279,482.43955739995,481.9388817999279,482.43955739995,481.9388817999279,None,0.06171199993696064,,,,,11021,001,2024_Jan_05_1139,nback,2021.2.3,59.95408717337748,
2-back,instructions\back-2.png,conditions\21back-e.xlsx,,,experiment,2,3,stim\gray.png,stim\gray.png,stim\yellow.png,stim\gray.png,right,,,,,,,,,,,,,0,0,0,3,0,8,8,8,,,,,,,,,,,,,,,,,,,,,,,,,,,,,,,,,,,,,,,,,,,,,,,,,,,,,,,,down,0,483.4415203999961,None,483.4415203999961,None,483.4415203999961,484.44260219996795,483.4415203999961,484.44260219996795,483.4415203999961,484.44260219996795,483.4415203999961,484.44260219996795,483.4415203999961,483.9417564999312,483.4415203999961,483.9417564999312,483.4415203999961,483.9417564999312,483.4415203999961,483.9417564999312,483.4415203999961,None,1.3269910999806598,,,,,11021,001,2024_Jan_05_1139,nback,2021.2.3,59.95408717337748,
2-back,instructions\back-2.png,conditions\21back-e.xlsx,,,experiment,2,1,stim\yellow.png,stim\gray.png,stim\gray.png,stim\gray.png,down,,,,,,,,,,,,,0,0,0,3,0,9,9,9,,,,,,,,,,,,,,,,,,,,,,,,,,,,,,,,,,,,,,,,,,,,,,,,,,,,,,,,None,0,484.9435274999123,None,484.9435274999123,None,484.9435274999123,485.94484769995324,484.9435274999123,485.94484769995324,484.9435274999123,485.94484769995324,484.9435274999123,485.94484769995324,484.9435274999123,485.44406269991305,484.9435274999123,485.44406269991305,484.9435274999123,485.44406269991305,484.9435274999123,485.44406269991305,484.9435274999123,None,,,,,,11021,001,2024_Jan_05_1139,nback,2021.2.3,59.95408717337748,
2-back,instructions\back-2.png,conditions\21back-e.xlsx,,,experiment,2,4,stim\gray.png,stim\gray.png,stim\gray.png,stim\yellow.png,right,,,,,,,,,,,,,0,0,0,3,0,10,10,10,,,,,,,,,,,,,,,,,,,,,,,,,,,,,,,,,,,,,,,,,,,,,,,,,,,,,,,,down,0,486.44550149992574,None,486.44550149992574,None,486.44550149992574,487.44721989997197,486.44550149992574,487.44721989997197,486.44550149992574,487.44721989997197,486.44550149992574,487.44721989997197,486.44550149992574,486.94626729993615,486.44550149992574,486.94626729993615,486.44550149992574,486.94626729993615,486.44550149992574,486.94626729993615,486.44550149992574,None,1.4109041999327019,,,,,11021,001,2024_Jan_05_1139,nback,2021.2.3,59.95408717337748,
2-back,instructions\back-2.png,conditions\21back-e.xlsx,,,experiment,2,2,stim\gray.png,stim\yellow.png,stim\gray.png,stim\gray.png,up,,,,,,,,,,,,,0,0,0,3,0,11,11,11,,,,,,,,,,,,,,,,,,,,,,,,,,,,,,,,,,,,,,,,,,,,,,,,,,,,,,,,left,0,487.94794569991063,None,487.94794569991063,None,487.94794569991063,488.94921009999234,487.94794569991063,488.94921009999234,487.94794569991063,488.94921009999234,487.94794569991063,488.94921009999234,487.94794569991063,488.44833089993335,487.94794569991063,488.44833089993335,487.94794569991063,488.44833089993335,487.94794569991063,488.44833089993335,487.94794569991063,None,1.4615074000321329,,,,,11021,001,2024_Jan_05_1139,nback,2021.2.3,59.95408717337748,
2-back,instructions\back-2.png,conditions\21back-e.xlsx,,,experiment,2,4,stim\gray.png,stim\gray.png,stim\gray.png,stim\yellow.png,down,,,,,,,,,,,,,0,0,0,3,0,12,12,12,,,,,,,,,,,,,,,,,,,,,,,,,,,,,,,,,,,,,,,,,,,,,,,,,,,,,,,,None,0,489.45001519995276,None,489.45001519995276,None,489.45001519995276,490.4527728999965,489.45001519995276,490.4527728999965,489.45001519995276,490.4527728999965,489.45001519995276,490.4527728999965,489.45001519995276,489.95131689996924,489.45001519995276,489.95131689996924,489.45001519995276,489.95131689996924,489.45001519995276,489.95131689996924,489.45001519995276,None,,,,,,11021,001,2024_Jan_05_1139,nback,2021.2.3,59.95408717337748,
2-back,instructions\back-2.png,conditions\21back-e.xlsx,,,experiment,2,3,stim\gray.png,stim\gray.png,stim\yellow.png,stim\gray.png,left,,,,,,,,,,,,,0,0,0,3,0,13,13,13,,,,,,,,,,,,,,,,,,,,,,,,,,,,,,,,,,,,,,,,,,,,,,,,,,,,,,,,down,0,490.9527342999354,None,490.9527342999354,None,490.9527342999354,491.9544182999525,490.9527342999354,491.9544182999525,490.9527342999354,491.9544182999525,490.9527342999354,491.9544182999525,490.9527342999354,491.45369329990353,490.9527342999354,491.45369329990353,490.9527342999354,491.45369329990353,490.9527342999354,491.45369329990353,490.9527342999354,None,0.1357144999783486,,,,,11021,001,2024_Jan_05_1139,nback,2021.2.3,59.95408717337748,
