backseq,backinstr,backfile,instruction,size_in,Trialtype,back,number,P1,P2,P3,P4,corrAns,trials_practice.thisRepN,trials_practice.thisTrialN,trials_practice.thisN,trials_practice.thisIndex,trials.thisRepN,trials.thisTrialN,trials.thisN,trials.thisIndex,trials_3.thisRepN,trials_3.thisTrialN,trials_3.thisN,trials_3.thisIndex,trials_2.thisRepN,trials_2.thisTrialN,trials_2.thisN,trials_2.thisIndex,trials_4.thisRepN,trials_4.thisTrialN,trials_4.thisN,trials_4.thisIndex,image.started,image.stopped,image_2.started,image_2.stopped,key_resp.keys,key_resp.rt,key_resp.started,key_resp.stopped,image_3.started,image_3.stopped,key_resp_2.keys,key_resp_2.rt,key_resp_2.started,key_resp_2.stopped,image_4.started,image_4.stopped,text.started,text.stopped,H1.started,H1.stopped,H2.started,H2.stopped,H3.started,H3.stopped,H4.started,H4.stopped,key_resp_3.keys,key_resp_3.corr,key_resp_3.rt,key_resp_3.started,key_resp_3.stopped,text_4.started,text_4.stopped,F1.started,F1.stopped,F2.started,F2.stopped,F3.started,F3.stopped,F4.started,F4.stopped,image_7.started,image_7.stopped,text_5.started,text_5.stopped,key_resp_6.keys,key_resp_6.rt,key_resp_6.started,key_resp_6.stopped,image_5.started,image_5.stopped,key_resp_4.keys,key_resp_4.rt,key_resp_4.started,key_resp_4.stopped,key_resp_5.keys,key_resp_5.corr,key_resp_5.started,key_resp_5.stopped,text_3.started,text_3.stopped,H1_2.started,H1_2.stopped,H2_2.started,H2_2.stopped,H3_2.started,H3_2.stopped,H4_2.started,H4_2.stopped,F1_2.started,F1_2.stopped,F2_2.started,F2_2.stopped,F3_2.started,F3_2.stopped,F4_2.started,F4_2.stopped,image_8.started,image_8.stopped,key_resp_5.rt,text_2.started,text_2.stopped,image_6.started,image_6.stopped,participant,session,date,expName,psychopyVersion,frameRate,
,,,,,,,,,,,,,,,,,,,,,,,,,,,,,,,,,9.920074499910697,None,10.821620000060648,None,space,4.400311099831015,10.821620000060648,None,,,,,,,,,,,,,,,,,,,,,,,,,,,,,,,,,,,,,,,,,,,,,,,,,,,,,,,,,,,,,,,,,,,,,,,,,,,,,11029,001,2024_Jan_10_1554,nback,2021.2.3,59.580872352903306,
0-back,instructions\back-0.png,conditions\0back-p.xlsx,instructions\0-BACK.png,"(15, 8)",practice,0,1,stim\yellow.png,stim\gray.png,stim\gray.png,stim\gray.png,up,0,0,0,0,0,0,0,0,0,0,0,0,,,,,,,,,,,,,,,,,15.294102600077167,None,space,4.159928299952298,15.294102600077167,None,19.633954900084063,24.141376900020987,24.090821099933237,None,24.507733199978247,25.509351199958473,24.507733199978247,25.509351199958473,24.507733199978247,25.509351199958473,24.507733199978247,25.509351199958473,up,1,0.39442840008996427,24.507733199978247,None,24.507733199978247,None,24.507733199978247,25.008483299985528,24.507733199978247,25.008483299985528,24.507733199978247,25.008483299985528,24.507733199978247,25.008483299985528,24.507733199978247,None,,,,,,,,,,,,,,,,,,,,,,,,,,,,,,,,,,,,,,,,,,11029,001,2024_Jan_10_1554,nback,2021.2.3,59.580872352903306,
0-back,instructions\back-0.png,conditions\0back-p.xlsx,instructions\0-BACK.png,"(15, 8)",practice,0,2,stim\gray.png,stim\yellow.png,stim\gray.png,stim\gray.png,left,0,0,0,0,0,0,0,0,0,1,1,1,,,,,,,,,,,,,,,,,,,,,,,,,,,25.993209700100124,26.99479359993711,25.993209700100124,26.99479359993711,25.993209700100124,26.99479359993711,25.993209700100124,26.99479359993711,left,1,0.38906430010683835,25.993209700100124,None,25.993209700100124,None,25.993209700100124,26.49401509994641,25.993209700100124,26.49401509994641,25.993209700100124,26.49401509994641,25.993209700100124,26.49401509994641,25.993209700100124,None,,,,,,,,,,,,,,,,,,,,,,,,,,,,,,,,,,,,,,,,,,11029,001,2024_Jan_10_1554,nback,2021.2.3,59.580872352903306,
0-back,instructions\back-0.png,conditions\0back-p.xlsx,instructions\0-BACK.png,"(15, 8)",practice,0,3,stim\gray.png,stim\gray.png,stim\yellow.png,stim\gray.png,right,0,0,0,0,0,0,0,0,0,2,2,2,,,,,,,,,,,,,,,,,,,,,,,,,,,27.495946200098842,28.49679660005495,27.495946200098842,28.49679660005495,27.495946200098842,28.49679660005495,27.495946200098842,28.49679660005495,right,1,0.3260822999291122,27.495946200098842,None,27.495946200098842,None,27.495946200098842,27.996285000117496,27.495946200098842,27.996285000117496,27.495946200098842,27.996285000117496,27.495946200098842,27.996285000117496,27.495946200098842,None,,,,,,,,,,,,,,,,,,,,,,,,,,,,,,,,,,,,,,,,,,11029,001,2024_Jan_10_1554,nback,2021.2.3,59.580872352903306,
0-back,instructions\back-0.png,conditions\0back-p.xlsx,instructions\0-BACK.png,"(15, 8)",practice,0,4,stim\gray.png,stim\gray.png,stim\gray.png,stim\yellow.png,down,0,0,0,0,0,0,0,0,0,3,3,3,,,,,,,,,,,,,,,,,,,,,,,,,,,28.997844299999997,29.999269800027832,28.997844299999997,29.999269800027832,28.997844299999997,29.999269800027832,28.997844299999997,29.999269800027832,down,1,0.376127100083977,28.997844299999997,None,28.997844299999997,None,28.997844299999997,29.49904050002806,28.997844299999997,29.49904050002806,28.997844299999997,29.49904050002806,28.997844299999997,29.49904050002806,28.997844299999997,None,,,,,,,,,,,,,,,,,,,,,,,,,,,,,,,,,,,,,,,,,,11029,001,2024_Jan_10_1554,nback,2021.2.3,59.580872352903306,
0-back,instructions\back-0.png,conditions\0back-p.xlsx,instructions\0-BACK.png,"(15, 8)",practice,0,2,stim\gray.png,stim\yellow.png,stim\gray.png,stim\gray.png,left,0,0,0,0,0,0,0,0,0,4,4,4,,,,,,,,,,,,,,,,,,,,,,,,,,,30.499941000016406,31.501463199965656,30.499941000016406,31.501463199965656,30.499941000016406,31.501463199965656,30.499941000016406,31.501463199965656,left,1,0.33806139999069273,30.499941000016406,None,30.499941000016406,None,30.499941000016406,31.00158890010789,30.499941000016406,31.00158890010789,30.499941000016406,31.00158890010789,30.499941000016406,31.00158890010789,30.499941000016406,None,,,,,,,,,,,,,,,,,,,,,,,,,,,,,,,,,,,,,,,,,,11029,001,2024_Jan_10_1554,nback,2021.2.3,59.580872352903306,
0-back,instructions\back-0.png,conditions\0back-p.xlsx,instructions\0-BACK.png,"(15, 8)",practice,0,1,stim\yellow.png,stim\gray.png,stim\gray.png,stim\gray.png,up,0,0,0,0,0,0,0,0,0,5,5,5,,,,,,,,,,,,,,,,,,,,,,,,,,,32.00228750007227,33.00377660011873,32.00228750007227,33.00377660011873,32.00228750007227,33.00377660011873,32.00228750007227,33.00377660011873,up,1,0.3239295999519527,32.00228750007227,None,32.00228750007227,None,32.00228750007227,32.503361199982464,32.00228750007227,32.503361199982464,32.00228750007227,32.503361199982464,32.00228750007227,32.503361199982464,32.00228750007227,None,,,,,,,,,,,,,,,,,,,,,,,,,,,,,,,,,,,,,,,,,,11029,001,2024_Jan_10_1554,nback,2021.2.3,59.580872352903306,
0-back,instructions\back-0.png,conditions\0back-p.xlsx,instructions\0-BACK.png,"(15, 8)",practice,0,4,stim\gray.png,stim\gray.png,stim\gray.png,stim\yellow.png,down,0,0,0,0,0,0,0,0,0,6,6,6,,,,,,,,,,,,,,,,,,,,,,,,,,,33.5045924000442,34.50711959996261,33.5045924000442,34.50711959996261,33.5045924000442,34.50711959996261,33.5045924000442,34.50711959996261,down,1,0.4933900001924485,33.5045924000442,None,33.5045924000442,None,33.5045924000442,34.0051541000139,33.5045924000442,34.0051541000139,33.5045924000442,34.0051541000139,33.5045924000442,34.0051541000139,33.5045924000442,None,,,,,,,,,,,,,,,,,,,,,,,,,,,,,,,,,,,,,,,,,,11029,001,2024_Jan_10_1554,nback,2021.2.3,59.580872352903306,
0-back,instructions\back-0.png,conditions\0back-p.xlsx,instructions\0-BACK.png,"(15, 8)",practice,0,3,stim\gray.png,stim\gray.png,stim\yellow.png,stim\gray.png,right,0,0,0,0,0,0,0,0,0,7,7,7,,,,,,,,,,,,,,,,,,,,,,,,,,,34.99023290001787,35.992475599981844,34.99023290001787,35.992475599981844,34.99023290001787,35.992475599981844,34.99023290001787,35.992475599981844,right,1,0.29621500009670854,34.99023290001787,None,34.99023290001787,None,34.99023290001787,35.49091110005975,34.99023290001787,35.49091110005975,34.99023290001787,35.49091110005975,34.99023290001787,35.49091110005975,34.99023290001787,None,,,,,,,,,,,,,,,,,,,,,,,,,,,,,,,,,,,,,,,,,,11029,001,2024_Jan_10_1554,nback,2021.2.3,59.580872352903306,
0-back,instructions\back-0.png,conditions\0back-p.xlsx,instructions\0-BACK.png,"(15, 8)",practice,0,3,stim\gray.png,stim\gray.png,stim\yellow.png,stim\gray.png,right,0,0,0,0,0,0,0,0,0,8,8,8,,,,,,,,,,,,,,,,,,,,,,,,,,,36.492684999946505,37.493587400065735,36.492684999946505,37.493587400065735,36.492684999946505,37.493587400065735,36.492684999946505,37.493587400065735,right,1,0.3294003000482917,36.492684999946505,None,36.492684999946505,None,36.492684999946505,36.992927100043744,36.492684999946505,36.992927100043744,36.492684999946505,36.992927100043744,36.492684999946505,36.992927100043744,36.492684999946505,None,,,,,,,,,,,,,,,,,,,,,,,,,,,,,,,,,,,,,,,,,,11029,001,2024_Jan_10_1554,nback,2021.2.3,59.580872352903306,
0-back,instructions\back-0.png,conditions\0back-p.xlsx,instructions\0-BACK.png,"(15, 8)",practice,0,4,stim\gray.png,stim\gray.png,stim\gray.png,stim\yellow.png,down,0,0,0,0,0,0,0,0,0,9,9,9,,,,,,,,,,,,,,,,,,,,,,,,,,,37.99450740008615,38.997304500080645,37.99450740008615,38.997304500080645,37.99450740008615,38.997304500080645,37.99450740008615,38.997304500080645,down,1,0.34819980012252927,37.99450740008615,None,37.99450740008615,None,37.99450740008615,38.49586210004054,37.99450740008615,38.49586210004054,37.99450740008615,38.49586210004054,37.99450740008615,38.49586210004054,37.99450740008615,None,,,,,,,,,,,,,,,,,,,,,,,,,,,,,,,,,,,,,,,,,,11029,001,2024_Jan_10_1554,nback,2021.2.3,59.580872352903306,
0-back,instructions\back-0.png,conditions\0back-p.xlsx,instructions\0-BACK.png,"(15, 8)",practice,0,1,stim\yellow.png,stim\gray.png,stim\gray.png,stim\gray.png,up,0,0,0,0,0,0,0,0,0,10,10,10,,,,,,,,,,,,,,,,,,,,,,,,,,,39.49657849990763,40.49866280006245,39.49657849990763,40.49866280006245,39.49657849990763,40.49866280006245,39.49657849990763,40.49866280006245,up,1,0.46132949995808303,39.49657849990763,None,39.49657849990763,None,39.49657849990763,39.9975610000547,39.49657849990763,39.9975610000547,39.49657849990763,39.9975610000547,39.49657849990763,39.9975610000547,39.49657849990763,None,,,,,,,,,,,,,,,,,,,,,,,,,,,,,,,,,,,,,,,,,,11029,001,2024_Jan_10_1554,nback,2021.2.3,59.580872352903306,
0-back,instructions\back-0.png,conditions\0back-p.xlsx,instructions\0-BACK.png,"(15, 8)",practice,0,2,stim\gray.png,stim\yellow.png,stim\gray.png,stim\gray.png,left,0,0,0,0,0,0,0,0,0,11,11,11,,,,,,,,,,,,,,,,,,,,,,,,,,,40.998857900034636,42.0006083000917,40.998857900034636,42.0006083000917,40.998857900034636,42.0006083000917,40.998857900034636,42.0006083000917,left,1,0.2475383998826146,40.998857900034636,None,40.998857900034636,None,40.998857900034636,41.49979009991512,40.998857900034636,41.49979009991512,40.998857900034636,41.49979009991512,40.998857900034636,41.49979009991512,40.998857900034636,None,,,,,,,,,,,,,,,,,,,,,,,,,,,,,,,,,,,,,,,,,,11029,001,2024_Jan_10_1554,nback,2021.2.3,59.580872352903306,
0-back,instructions\back-0.png,conditions\0back-p.xlsx,instructions\0-BACK.png,"(15, 8)",practice,0,4,stim\gray.png,stim\gray.png,stim\gray.png,stim\yellow.png,down,0,0,0,0,0,0,0,0,0,12,12,12,,,,,,,,,,,,,,,,,,,,,,,,,,,42.50102619989775,43.502696899930015,42.50102619989775,43.502696899930015,42.50102619989775,43.502696899930015,42.50102619989775,43.502696899930015,down,1,0.4181751001160592,42.50102619989775,None,42.50102619989775,None,42.50102619989775,43.00190729997121,42.50102619989775,43.00190729997121,42.50102619989775,43.00190729997121,42.50102619989775,43.00190729997121,42.50102619989775,None,,,,,,,,,,,,,,,,,,,,,,,,,,,,,,,,,,,,,,,,,,11029,001,2024_Jan_10_1554,nback,2021.2.3,59.580872352903306,
0-back,instructions\back-0.png,conditions\0back-p.xlsx,instructions\0-BACK.png,"(15, 8)",practice,0,3,stim\gray.png,stim\gray.png,stim\yellow.png,stim\gray.png,right,0,0,0,0,0,0,0,0,0,13,13,13,,,,,,,,,,,,,,,,,,,,,,,,,,,44.00342390011065,45.004986400017515,44.00342390011065,45.004986400017515,44.00342390011065,45.004986400017515,44.00342390011065,45.004986400017515,right,1,0.19452559994533658,44.00342390011065,None,44.00342390011065,None,44.00342390011065,44.50420770002529,44.00342390011065,44.50420770002529,44.00342390011065,44.50420770002529,44.00342390011065,44.50420770002529,44.00342390011065,None,,,,,,,,,,,,,,,,,,,,,,,,,,,,,,,,,,,,,,,,,,11029,001,2024_Jan_10_1554,nback,2021.2.3,59.580872352903306,
0-back,instructions\back-0.png,conditions\0back-p.xlsx,instructions\0-BACK.png,"(15, 8)",practice,0,1,stim\yellow.png,stim\gray.png,stim\gray.png,stim\gray.png,up,0,0,0,0,0,0,0,0,0,14,14,14,,,,,,,,,,,,,,,,,,,,,,,,,,,45.48898050002754,46.49033679999411,45.48898050002754,46.49033679999411,45.48898050002754,46.49033679999411,45.48898050002754,46.49033679999411,up,1,0.2850220000836998,45.48898050002754,None,45.48898050002754,None,45.48898050002754,45.98961200006306,45.48898050002754,45.98961200006306,45.48898050002754,45.98961200006306,45.48898050002754,45.98961200006306,45.48898050002754,None,,,,,,,,,,,,,,,,,,,,,,,,,,,,,,,,,,,,,,,,,,11029,001,2024_Jan_10_1554,nback,2021.2.3,59.580872352903306,
0-back,instructions\back-0.png,conditions\0back-p.xlsx,instructions\0-BACK.png,"(15, 8)",practice,0,2,stim\gray.png,stim\yellow.png,stim\gray.png,stim\gray.png,left,0,0,0,0,0,0,0,0,0,15,15,15,,,,,,,,,,,,,,,,,,,,,,,,,,,46.99123789998703,47.992713700048625,46.99123789998703,47.992713700048625,46.99123789998703,47.992713700048625,46.99123789998703,47.992713700048625,left,1,0.22287840000353754,46.99123789998703,None,46.99123789998703,None,46.99123789998703,47.49222359992564,46.99123789998703,47.49222359992564,46.99123789998703,47.49222359992564,46.99123789998703,47.49222359992564,46.99123789998703,None,,,,,,,,,,,,,,,,,,,,,,,,,,,,,,,,,,,,,,,,,,11029,001,2024_Jan_10_1554,nback,2021.2.3,59.580872352903306,
0-back,instructions\back-0.png,conditions\0back-p.xlsx,instructions\0-BACK.png,"(15, 8)",practice,0,3,stim\gray.png,stim\gray.png,stim\yellow.png,stim\gray.png,right,0,0,0,0,0,0,0,0,0,16,16,16,,,,,,,,,,,,,,,,,,,,,,,,,,,48.494192000012845,49.494895400013775,48.494192000012845,49.494895400013775,48.494192000012845,49.494895400013775,48.494192000012845,49.494895400013775,right,1,0.2962840998079628,48.494192000012845,None,48.494192000012845,None,48.494192000012845,48.99417879991233,48.494192000012845,48.99417879991233,48.494192000012845,48.99417879991233,48.494192000012845,48.99417879991233,48.494192000012845,None,,,,,,,,,,,,,,,,,,,,,,,,,,,,,,,,,,,,,,,,,,11029,001,2024_Jan_10_1554,nback,2021.2.3,59.580872352903306,
0-back,instructions\back-0.png,conditions\0back-p.xlsx,instructions\0-BACK.png,"(15, 8)",practice,0,1,stim\yellow.png,stim\gray.png,stim\gray.png,stim\gray.png,up,0,0,0,0,0,0,0,0,0,17,17,17,,,,,,,,,,,,,,,,,,,,,,,,,,,49.995505100116134,50.99718270008452,49.995505100116134,50.99718270008452,49.995505100116134,50.99718270008452,49.995505100116134,50.99718270008452,up,1,0.6352345999330282,49.995505100116134,None,49.995505100116134,None,49.995505100116134,50.496195799903944,49.995505100116134,50.496195799903944,49.995505100116134,50.496195799903944,49.995505100116134,50.496195799903944,49.995505100116134,None,,,,,,,,,,,,,,,,,,,,,,,,,,,,,,,,,,,,,,,,,,11029,001,2024_Jan_10_1554,nback,2021.2.3,59.580872352903306,
0-back,instructions\back-0.png,conditions\0back-p.xlsx,instructions\0-BACK.png,"(15, 8)",practice,0,4,stim\gray.png,stim\gray.png,stim\gray.png,stim\yellow.png,down,0,0,0,0,0,0,0,0,0,18,18,18,,,,,,,,,,,,,,,,,,,,,,,,,,,51.49797979998402,52.49968130001798,51.49797979998402,52.49968130001798,51.49797979998402,52.49968130001798,51.49797979998402,52.49968130001798,down,1,0.3165515000000596,51.49797979998402,None,51.49797979998402,None,51.49797979998402,51.998512600082904,51.49797979998402,51.998512600082904,51.49797979998402,51.998512600082904,51.49797979998402,51.998512600082904,51.49797979998402,None,,,,,,,,,,,,,,,,,,,,,,,,,,,,,,,,,,,,,,,,,,11029,001,2024_Jan_10_1554,nback,2021.2.3,59.580872352903306,
0-back,instructions\back-0.png,conditions\0back-p.xlsx,instructions\0-BACK.png,"(15, 8)",practice,0,2,stim\gray.png,stim\yellow.png,stim\gray.png,stim\gray.png,left,0,0,0,0,0,0,0,0,0,19,19,19,,,,,,,,,,,,,,,,,,,,,,,,,,,53.00049429992214,54.00169329997152,53.00049429992214,54.00169329997152,53.00049429992214,54.00169329997152,53.00049429992214,54.00169329997152,left,1,0.33358490001410246,53.00049429992214,None,53.00049429992214,None,53.00049429992214,53.501185399945825,53.00049429992214,53.501185399945825,53.00049429992214,53.501185399945825,53.00049429992214,53.501185399945825,53.00049429992214,None,,,,,,,,,,,,,,,,,,,,,,,,,,,,,,,,,,,,,,,,,,11029,001,2024_Jan_10_1554,nback,2021.2.3,59.580872352903306,
0-back,instructions\back-0.png,conditions\0back-p.xlsx,instructions\0-BACK.png,"(15, 8)",,,,,,,,,0,0,0,0,0,0,0,0,,,,,,,,,,,,,,,,,,,,,,,,,,,,,,,,,,,,,,,,,,,,,,,,,,,,,,,,,,,,,,,,,,,,,,,,,,,,,,,,,,,,,,,,,,,,,,,,,11029,001,2024_Jan_10_1554,nback,2021.2.3,59.580872352903306,
1-back,instructions\back-1.png,conditions\1back-p.xlsx,instructions\1-BACK.png,"(25, 15)",practice,1,1,stim\yellow.png,stim\gray.png,stim\gray.png,stim\gray.png,None,0,0,0,0,0,1,1,1,0,0,0,0,,,,,,,,,,,,,,,,,54.76948320004158,None,space,20.213775099953637,54.76948320004158,None,75.18220139993355,79.68987490003929,79.65621670009568,None,80.02449190011248,81.02501769992523,80.02449190011248,81.02501769992523,80.02449190011248,81.02501769992523,80.02449190011248,81.02501769992523,None,1,,80.02449190011248,None,80.02449190011248,None,80.02449190011248,80.52487500011921,80.02449190011248,80.52487500011921,80.02449190011248,80.52487500011921,80.02449190011248,80.52487500011921,80.02449190011248,None,,,,,,,,,,,,,,,,,,,,,,,,,,,,,,,,,,,,,,,,,,11029,001,2024_Jan_10_1554,nback,2021.2.3,59.580872352903306,
1-back,instructions\back-1.png,conditions\1back-p.xlsx,instructions\1-BACK.png,"(25, 15)",practice,1,2,stim\gray.png,stim\yellow.png,stim\gray.png,stim\gray.png,up,0,0,0,0,0,1,1,1,0,1,1,1,,,,,,,,,,,,,,,,,,,,,,,,,,,81.50915440008976,82.51046669995412,81.50915440008976,82.51046669995412,81.50915440008976,82.51046669995412,81.50915440008976,82.51046669995412,left,0,0.44095439999364316,81.50915440008976,None,81.50915440008976,None,81.50915440008976,82.0097769999411,81.50915440008976,82.0097769999411,81.50915440008976,82.0097769999411,81.50915440008976,82.0097769999411,81.50915440008976,None,,,,,,,,,,,,,,,,,,,,,,,,,,,,,,,,,,,,,,,,,,11029,001,2024_Jan_10_1554,nback,2021.2.3,59.580872352903306,
1-back,instructions\back-1.png,conditions\1back-p.xlsx,instructions\1-BACK.png,"(25, 15)",practice,1,3,stim\gray.png,stim\gray.png,stim\yellow.png,stim\gray.png,left,0,0,0,0,0,1,1,1,0,2,2,2,,,,,,,,,,,,,,,,,,,,,,,,,,,83.0111845000647,84.01317949988879,83.0111845000647,84.01317949988879,83.0111845000647,84.01317949988879,83.0111845000647,84.01317949988879,None,0,,83.0111845000647,None,83.0111845000647,None,83.0111845000647,83.5118929001037,83.0111845000647,83.5118929001037,83.0111845000647,83.5118929001037,83.0111845000647,83.5118929001037,83.0111845000647,None,,,,,,,,,,,,,,,,,,,,,,,,,,,,,,,,,,,,,,,,,,11029,001,2024_Jan_10_1554,nback,2021.2.3,59.580872352903306,
1-back,instructions\back-1.png,conditions\1back-p.xlsx,instructions\1-BACK.png,"(25, 15)",practice,1,4,stim\gray.png,stim\gray.png,stim\gray.png,stim\yellow.png,right,0,0,0,0,0,1,1,1,0,3,3,3,,,,,,,,,,,,,,,,,,,,,,,,,,,84.51336800004356,85.51483120000921,84.51336800004356,85.51483120000921,84.51336800004356,85.51483120000921,84.51336800004356,85.51483120000921,None,0,,84.51336800004356,None,84.51336800004356,None,84.51336800004356,85.01442199992016,84.51336800004356,85.01442199992016,84.51336800004356,85.01442199992016,84.51336800004356,85.01442199992016,84.51336800004356,None,,,,,,,,,,,,,,,,,,,,,,,,,,,,,,,,,,,,,,,,,,11029,001,2024_Jan_10_1554,nback,2021.2.3,59.580872352903306,
1-back,instructions\back-1.png,conditions\1back-p.xlsx,instructions\1-BACK.png,"(25, 15)",practice,1,2,stim\gray.png,stim\yellow.png,stim\gray.png,stim\gray.png,down,0,0,0,0,0,1,1,1,0,4,4,4,,,,,,,,,,,,,,,,,,,,,,,,,,,86.01629050006159,87.01708850008436,86.01629050006159,87.01708850008436,86.01629050006159,87.01708850008436,86.01629050006159,87.01708850008436,left,0,0.4539937998633832,86.01629050006159,None,86.01629050006159,None,86.01629050006159,86.51686679990962,86.01629050006159,86.51686679990962,86.01629050006159,86.51686679990962,86.01629050006159,86.51686679990962,86.01629050006159,None,,,,,,,,,,,,,,,,,,,,,,,,,,,,,,,,,,,,,,,,,,11029,001,2024_Jan_10_1554,nback,2021.2.3,59.580872352903306,
1-back,instructions\back-1.png,conditions\1back-p.xlsx,instructions\1-BACK.png,"(25, 15)",practice,1,1,stim\yellow.png,stim\gray.png,stim\gray.png,stim\gray.png,left,0,0,0,0,0,1,1,1,0,5,5,5,,,,,,,,,,,,,,,,,,,,,,,,,,,87.51785490009934,88.51917460002005,87.51785490009934,88.51917460002005,87.51785490009934,88.51917460002005,87.51785490009934,88.51917460002005,up,0,0.3440400999970734,87.51785490009934,None,87.51785490009934,None,87.51785490009934,88.0190926999785,87.51785490009934,88.0190926999785,87.51785490009934,88.0190926999785,87.51785490009934,88.0190926999785,87.51785490009934,None,,,,,,,,,,,,,,,,,,,,,,,,,,,,,,,,,,,,,,,,,,11029,001,2024_Jan_10_1554,nback,2021.2.3,59.580872352903306,
1-back,instructions\back-1.png,conditions\1back-p.xlsx,instructions\1-BACK.png,"(25, 15)",practice,1,4,stim\gray.png,stim\gray.png,stim\gray.png,stim\yellow.png,up,0,0,0,0,0,1,1,1,0,6,6,6,,,,,,,,,,,,,,,,,,,,,,,,,,,89.02050149999559,90.0217347999569,89.02050149999559,90.0217347999569,89.02050149999559,90.0217347999569,89.02050149999559,90.0217347999569,down,0,0.4255296001210809,89.02050149999559,None,89.02050149999559,None,89.02050149999559,89.52167530008592,89.02050149999559,89.52167530008592,89.02050149999559,89.52167530008592,89.02050149999559,89.52167530008592,89.02050149999559,None,,,,,,,,,,,,,,,,,,,,,,,,,,,,,,,,,,,,,,,,,,11029,001,2024_Jan_10_1554,nback,2021.2.3,59.580872352903306,
1-back,instructions\back-1.png,conditions\1back-p.xlsx,instructions\1-BACK.png,"(25, 15)",practice,1,3,stim\gray.png,stim\gray.png,stim\yellow.png,stim\gray.png,down,0,0,0,0,0,1,1,1,0,7,7,7,,,,,,,,,,,,,,,,,,,,,,,,,,,90.50550159998238,91.50775259989314,90.50550159998238,91.50775259989314,90.50550159998238,91.50775259989314,90.50550159998238,91.50775259989314,None,0,,90.50550159998238,None,90.50550159998238,None,90.50550159998238,91.0064445999451,90.50550159998238,91.0064445999451,90.50550159998238,91.0064445999451,90.50550159998238,91.0064445999451,90.50550159998238,None,,,,,,,,,,,,,,,,,,,,,,,,,,,,,,,,,,,,,,,,,,11029,001,2024_Jan_10_1554,nback,2021.2.3,59.580872352903306,
1-back,instructions\back-1.png,conditions\1back-p.xlsx,instructions\1-BACK.png,"(25, 15)",practice,1,3,stim\gray.png,stim\gray.png,stim\yellow.png,stim\gray.png,right,0,0,0,0,0,1,1,1,0,8,8,8,,,,,,,,,,,,,,,,,,,,,,,,,,,92.0078362999484,93.00938199996017,92.0078362999484,93.00938199996017,92.0078362999484,93.00938199996017,92.0078362999484,93.00938199996017,None,0,,92.0078362999484,None,92.0078362999484,None,92.0078362999484,92.50842089997604,92.0078362999484,92.50842089997604,92.0078362999484,92.50842089997604,92.0078362999484,92.50842089997604,92.0078362999484,None,,,,,,,,,,,,,,,,,,,,,,,,,,,,,,,,,,,,,,,,,,11029,001,2024_Jan_10_1554,nback,2021.2.3,59.580872352903306,
1-back,instructions\back-1.png,conditions\1back-p.xlsx,instructions\1-BACK.png,"(25, 15)",practice,1,4,stim\gray.png,stim\gray.png,stim\gray.png,stim\yellow.png,right,0,0,0,0,0,1,1,1,0,9,9,9,,,,,,,,,,,,,,,,,,,,,,,,,,,93.51001160009764,94.51139230001718,93.51001160009764,94.51139230001718,93.51001160009764,94.51139230001718,93.51001160009764,94.51139230001718,None,0,,93.51001160009764,None,93.51001160009764,None,93.51001160009764,94.01163220009767,93.51001160009764,94.01163220009767,93.51001160009764,94.01163220009767,93.51001160009764,94.01163220009767,93.51001160009764,None,,,,,,,,,,,,,,,,,,,,,,,,,,,,,,,,,,,,,,,,,,11029,001,2024_Jan_10_1554,nback,2021.2.3,59.580872352903306,
1-back,instructions\back-1.png,conditions\1back-p.xlsx,instructions\1-BACK.png,"(25, 15)",practice,1,1,stim\yellow.png,stim\gray.png,stim\gray.png,stim\gray.png,down,0,0,0,0,0,1,1,1,0,10,10,10,,,,,,,,,,,,,,,,,,,,,,,,,,,95.01266160001978,96.01443709991872,95.01266160001978,96.01443709991872,95.01266160001978,96.01443709991872,95.01266160001978,96.01443709991872,None,0,,95.01266160001978,None,95.01266160001978,None,95.01266160001978,95.51296319998801,95.01266160001978,95.51296319998801,95.01266160001978,95.51296319998801,95.01266160001978,95.51296319998801,95.01266160001978,None,,,,,,,,,,,,,,,,,,,,,,,,,,,,,,,,,,,,,,,,,,11029,001,2024_Jan_10_1554,nback,2021.2.3,59.580872352903306,
1-back,instructions\back-1.png,conditions\1back-p.xlsx,instructions\1-BACK.png,"(25, 15)",practice,1,2,stim\gray.png,stim\yellow.png,stim\gray.png,stim\gray.png,up,0,0,0,0,0,1,1,1,0,11,11,11,,,,,,,,,,,,,,,,,,,,,,,,,,,96.51569469994865,97.51668590004556,96.51569469994865,97.51668590004556,96.51569469994865,97.51668590004556,96.51569469994865,97.51668590004556,left,0,1.0664546999614686,96.51569469994865,None,96.51569469994865,None,96.51569469994865,97.01535389991477,96.51569469994865,97.01535389991477,96.51569469994865,97.01535389991477,96.51569469994865,97.01535389991477,96.51569469994865,None,,,,,,,,,,,,,,,,,,,,,,,,,,,,,,,,,,,,,,,,,,11029,001,2024_Jan_10_1554,nback,2021.2.3,59.580872352903306,
1-back,instructions\back-1.png,conditions\1back-p.xlsx,instructions\1-BACK.png,"(25, 15)",practice,1,4,stim\gray.png,stim\gray.png,stim\gray.png,stim\yellow.png,left,0,0,0,0,0,1,1,1,0,12,12,12,,,,,,,,,,,,,,,,,,,,,,,,,,,98.01655709999613,99.01884320005774,98.01655709999613,99.01884320005774,98.01655709999613,99.01884320005774,98.01655709999613,99.01884320005774,None,0,,98.01655709999613,None,98.01655709999613,None,98.01655709999613,98.51757750008255,98.01655709999613,98.51757750008255,98.01655709999613,98.51757750008255,98.01655709999613,98.51757750008255,98.01655709999613,None,,,,,,,,,,,,,,,,,,,,,,,,,,,,,,,,,,,,,,,,,,11029,001,2024_Jan_10_1554,nback,2021.2.3,59.580872352903306,
1-back,instructions\back-1.png,conditions\1back-p.xlsx,instructions\1-BACK.png,"(25, 15)",practice,1,3,stim\gray.png,stim\gray.png,stim\yellow.png,stim\gray.png,down,0,0,0,0,0,1,1,1,0,13,13,13,,,,,,,,,,,,,,,,,,,,,,,,,,,99.52006220002659,100.52272280002944,99.52006220002659,100.52272280002944,99.52006220002659,100.52272280002944,99.52006220002659,100.52272280002944,None,0,,99.52006220002659,None,99.52006220002659,None,99.52006220002659,100.01956590008922,99.52006220002659,100.01956590008922,99.52006220002659,100.01956590008922,99.52006220002659,100.01956590008922,99.52006220002659,None,,,,,,,,,,,,,,,,,,,,,,,,,,,,,,,,,,,,,,,,,,11029,001,2024_Jan_10_1554,nback,2021.2.3,59.580872352903306,
1-back,instructions\back-1.png,conditions\1back-p.xlsx,instructions\1-BACK.png,"(25, 15)",practice,1,1,stim\yellow.png,stim\gray.png,stim\gray.png,stim\gray.png,right,0,0,0,0,0,1,1,1,0,14,14,14,,,,,,,,,,,,,,,,,,,,,,,,,,,101.00470499997027,102.00700949993916,101.00470499997027,102.00700949993916,101.00470499997027,102.00700949993916,101.00470499997027,102.00700949993916,left,0,0.9613793001044542,101.00470499997027,None,101.00470499997027,None,101.00470499997027,101.50617250008509,101.00470499997027,101.50617250008509,101.00470499997027,101.50617250008509,101.00470499997027,101.50617250008509,101.00470499997027,None,,,,,,,,,,,,,,,,,,,,,,,,,,,,,,,,,,,,,,,,,,11029,001,2024_Jan_10_1554,nback,2021.2.3,59.580872352903306,
1-back,instructions\back-1.png,conditions\1back-p.xlsx,instructions\1-BACK.png,"(25, 15)",practice,1,2,stim\gray.png,stim\yellow.png,stim\gray.png,stim\gray.png,up,0,0,0,0,0,1,1,1,0,15,15,15,,,,,,,,,,,,,,,,,,,,,,,,,,,102.50671149999835,103.50803930009715,102.50671149999835,103.50803930009715,102.50671149999835,103.50803930009715,102.50671149999835,103.50803930009715,None,0,,102.50671149999835,None,102.50671149999835,None,102.50671149999835,103.00743600004353,102.50671149999835,103.00743600004353,102.50671149999835,103.00743600004353,102.50671149999835,103.00743600004353,102.50671149999835,None,,,,,,,,,,,,,,,,,,,,,,,,,,,,,,,,,,,,,,,,,,11029,001,2024_Jan_10_1554,nback,2021.2.3,59.580872352903306,
1-back,instructions\back-1.png,conditions\1back-p.xlsx,instructions\1-BACK.png,"(25, 15)",practice,1,3,stim\gray.png,stim\gray.png,stim\yellow.png,stim\gray.png,left,0,0,0,0,0,1,1,1,0,16,16,16,,,,,,,,,,,,,,,,,,,,,,,,,,,104.00945940008387,105.01044109999202,104.00945940008387,105.01044109999202,104.00945940008387,105.01044109999202,104.00945940008387,105.01044109999202,down,0,1.316882599843666,104.00945940008387,None,104.00945940008387,None,104.00945940008387,104.51040500006638,104.00945940008387,104.51040500006638,104.00945940008387,104.51040500006638,104.00945940008387,104.51040500006638,104.00945940008387,None,,,,,,,,,,,,,,,,,,,,,,,,,,,,,,,,,,,,,,,,,,11029,001,2024_Jan_10_1554,nback,2021.2.3,59.580872352903306,
1-back,instructions\back-1.png,conditions\1back-p.xlsx,instructions\1-BACK.png,"(25, 15)",practice,1,1,stim\yellow.png,stim\gray.png,stim\gray.png,stim\gray.png,right,0,0,0,0,0,1,1,1,0,17,17,17,,,,,,,,,,,,,,,,,,,,,,,,,,,105.51131190010346,106.5131292999722,105.51131190010346,106.5131292999722,105.51131190010346,106.5131292999722,105.51131190010346,106.5131292999722,left,0,0.7995085001457483,105.51131190010346,None,105.51131190010346,None,105.51131190010346,106.01235279999673,105.51131190010346,106.01235279999673,105.51131190010346,106.01235279999673,105.51131190010346,106.01235279999673,105.51131190010346,None,,,,,,,,,,,,,,,,,,,,,,,,,,,,,,,,,,,,,,,,,,11029,001,2024_Jan_10_1554,nback,2021.2.3,59.580872352903306,
1-back,instructions\back-1.png,conditions\1back-p.xlsx,instructions\1-BACK.png,"(25, 15)",practice,1,4,stim\gray.png,stim\gray.png,stim\gray.png,stim\yellow.png,up,0,0,0,0,0,1,1,1,0,18,18,18,,,,,,,,,,,,,,,,,,,,,,,,,,,107.01330669992603,108.01530040008947,107.01330669992603,108.01530040008947,107.01330669992603,108.01530040008947,107.01330669992603,108.01530040008947,up,1,0.8249562000855803,107.01330669992603,None,107.01330669992603,None,107.01330669992603,107.51423799991608,107.01330669992603,107.51423799991608,107.01330669992603,107.51423799991608,107.01330669992603,107.51423799991608,107.01330669992603,None,,,,,,,,,,,,,,,,,,,,,,,,,,,,,,,,,,,,,,,,,,11029,001,2024_Jan_10_1554,nback,2021.2.3,59.580872352903306,
1-back,instructions\back-1.png,conditions\1back-p.xlsx,instructions\1-BACK.png,"(25, 15)",practice,1,2,stim\gray.png,stim\yellow.png,stim\gray.png,stim\gray.png,down,0,0,0,0,0,1,1,1,0,19,19,19,,,,,,,,,,,,,,,,,,,,,,,,,,,108.51570219988935,109.51768020004965,108.51570219988935,109.51768020004965,108.51570219988935,109.51768020004965,108.51570219988935,109.51768020004965,right,0,0.6514592000748962,108.51570219988935,None,108.51570219988935,None,108.51570219988935,109.01636609993875,108.51570219988935,109.01636609993875,108.51570219988935,109.01636609993875,108.51570219988935,109.01636609993875,108.51570219988935,None,,,,,,,,,,,,,,,,,,,,,,,,,,,,,,,,,,,,,,,,,,11029,001,2024_Jan_10_1554,nback,2021.2.3,59.580872352903306,
1-back,instructions\back-1.png,conditions\1back-p.xlsx,instructions\1-BACK.png,"(25, 15)",,,,,,,,,0,0,0,0,0,1,1,1,,,,,,,,,,,,,,,,,,,,,,,,,,,,,,,,,,,,,,,,,,,,,,,,,,,,,,,,,,,,,,,,,,,,,,,,,,,,,,,,,,,,,,,,,,,,,,,,,11029,001,2024_Jan_10_1554,nback,2021.2.3,59.580872352903306,
2-back,instructions\back-2.png,conditions\2back-p.xlsx,instructions\2-BACK.png,"(25, 15)",practice,2,1,stim\yellow.png,stim\gray.png,stim\gray.png,stim\gray.png,None,0,0,0,0,0,2,2,2,0,0,0,0,,,,,,,,,,,,,,,,,110.23511400003918,None,space,85.91562399989925,110.23511400003918,None,196.36233550007455,200.87007170007564,200.81968989991583,None,201.20374120003544,202.20496069989167,201.20374120003544,202.20496069989167,201.20374120003544,202.20496069989167,201.20374120003544,202.20496069989167,None,1,,201.20374120003544,None,201.20374120003544,None,201.20374120003544,201.70434519997798,201.20374120003544,201.70434519997798,201.20374120003544,201.70434519997798,201.20374120003544,201.70434519997798,201.20374120003544,None,,,,,,,,,,,,,,,,,,,,,,,,,,,,,,,,,,,,,,,,,,11029,001,2024_Jan_10_1554,nback,2021.2.3,59.580872352903306,
2-back,instructions\back-2.png,conditions\2back-p.xlsx,instructions\2-BACK.png,"(25, 15)",practice,2,2,stim\gray.png,stim\yellow.png,stim\gray.png,stim\gray.png,None,0,0,0,0,0,2,2,2,0,1,1,1,,,,,,,,,,,,,,,,,,,,,,,,,,,202.68920179991983,203.69073610007763,202.68920179991983,203.69073610007763,202.68920179991983,203.69073610007763,202.68920179991983,203.69073610007763,None,1,,202.68920179991983,None,202.68920179991983,None,202.68920179991983,203.18977160006762,202.68920179991983,203.18977160006762,202.68920179991983,203.18977160006762,202.68920179991983,203.18977160006762,202.68920179991983,None,,,,,,,,,,,,,,,,,,,,,,,,,,,,,,,,,,,,,,,,,,11029,001,2024_Jan_10_1554,nback,2021.2.3,59.580872352903306,
2-back,instructions\back-2.png,conditions\2back-p.xlsx,instructions\2-BACK.png,"(25, 15)",practice,2,3,stim\gray.png,stim\gray.png,stim\yellow.png,stim\gray.png,up,0,0,0,0,0,2,2,2,0,2,2,2,,,,,,,,,,,,,,,,,,,,,,,,,,,204.19091579993255,205.19218780007213,204.19091579993255,205.19218780007213,204.19091579993255,205.19218780007213,204.19091579993255,205.19218780007213,up,1,0.17527120001614094,204.19091579993255,None,204.19091579993255,None,204.19091579993255,204.69153840001673,204.19091579993255,204.69153840001673,204.19091579993255,204.69153840001673,204.19091579993255,204.69153840001673,204.19091579993255,None,,,,,,,,,,,,,,,,,,,,,,,,,,,,,,,,,,,,,,,,,,11029,001,2024_Jan_10_1554,nback,2021.2.3,59.580872352903306,
2-back,instructions\back-2.png,conditions\2back-p.xlsx,instructions\2-BACK.png,"(25, 15)",practice,2,4,stim\gray.png,stim\gray.png,stim\gray.png,stim\yellow.png,left,0,0,0,0,0,2,2,2,0,3,3,3,,,,,,,,,,,,,,,,,,,,,,,,,,,205.69280990003608,206.6951345000416,205.69280990003608,206.6951345000416,205.69280990003608,206.6951345000416,205.69280990003608,206.6951345000416,left,1,0.21759569994173944,205.69280990003608,None,205.69280990003608,None,205.69280990003608,206.19406899996102,205.69280990003608,206.19406899996102,205.69280990003608,206.19406899996102,205.69280990003608,206.19406899996102,205.69280990003608,None,,,,,,,,,,,,,,,,,,,,,,,,,,,,,,,,,,,,,,,,,,11029,001,2024_Jan_10_1554,nback,2021.2.3,59.580872352903306,
2-back,instructions\back-2.png,conditions\2back-p.xlsx,instructions\2-BACK.png,"(25, 15)",practice,2,2,stim\gray.png,stim\yellow.png,stim\gray.png,stim\gray.png,right,0,0,0,0,0,2,2,2,0,4,4,4,,,,,,,,,,,,,,,,,,,,,,,,,,,207.19519279990345,208.19736979994923,207.19519279990345,208.19736979994923,207.19519279990345,208.19736979994923,207.19519279990345,208.19736979994923,right,1,0.21092350012622774,207.19519279990345,None,207.19519279990345,None,207.19519279990345,207.69664849992841,207.19519279990345,207.69664849992841,207.19519279990345,207.69664849992841,207.19519279990345,207.69664849992841,207.19519279990345,None,,,,,,,,,,,,,,,,,,,,,,,,,,,,,,,,,,,,,,,,,,11029,001,2024_Jan_10_1554,nback,2021.2.3,59.580872352903306,
2-back,instructions\back-2.png,conditions\2back-p.xlsx,instructions\2-BACK.png,"(25, 15)",practice,2,1,stim\yellow.png,stim\gray.png,stim\gray.png,stim\gray.png,down,0,0,0,0,0,2,2,2,0,5,5,5,,,,,,,,,,,,,,,,,,,,,,,,,,,208.69770010001957,209.6991304999683,208.69770010001957,209.6991304999683,208.69770010001957,209.6991304999683,208.69770010001957,209.6991304999683,down,1,0.165147399995476,208.69770010001957,None,208.69770010001957,None,208.69770010001957,209.19815580011345,208.69770010001957,209.19815580011345,208.69770010001957,209.19815580011345,208.69770010001957,209.19815580011345,208.69770010001957,None,,,,,,,,,,,,,,,,,,,,,,,,,,,,,,,,,,,,,,,,,,11029,001,2024_Jan_10_1554,nback,2021.2.3,59.580872352903306,
2-back,instructions\back-2.png,conditions\2back-p.xlsx,instructions\2-BACK.png,"(25, 15)",practice,2,4,stim\gray.png,stim\gray.png,stim\gray.png,stim\yellow.png,left,0,0,0,0,0,2,2,2,0,6,6,6,,,,,,,,,,,,,,,,,,,,,,,,,,,210.18301489995793,211.18500089994632,210.18301489995793,211.18500089994632,210.18301489995793,211.18500089994632,210.18301489995793,211.18500089994632,left,1,0.13513880013488233,210.18301489995793,None,210.18301489995793,None,210.18301489995793,210.684427900007,210.18301489995793,210.684427900007,210.18301489995793,210.684427900007,210.18301489995793,210.684427900007,210.18301489995793,None,,,,,,,,,,,,,,,,,,,,,,,,,,,,,,,,,,,,,,,,,,11029,001,2024_Jan_10_1554,nback,2021.2.3,59.580872352903306,
2-back,instructions\back-2.png,conditions\2back-p.xlsx,instructions\2-BACK.png,"(25, 15)",practice,2,3,stim\gray.png,stim\gray.png,stim\yellow.png,stim\gray.png,up,0,0,0,0,0,2,2,2,0,7,7,7,,,,,,,,,,,,,,,,,,,,,,,,,,,211.68524140003137,212.687566800043,211.68524140003137,212.687566800043,211.68524140003137,212.687566800043,211.68524140003137,212.687566800043,up,1,0.08151559997349977,211.68524140003137,None,211.68524140003137,None,211.68524140003137,212.18595269997604,211.68524140003137,212.18595269997604,211.68524140003137,212.18595269997604,211.68524140003137,212.18595269997604,211.68524140003137,None,,,,,,,,,,,,,,,,,,,,,,,,,,,,,,,,,,,,,,,,,,11029,001,2024_Jan_10_1554,nback,2021.2.3,59.580872352903306,
2-back,instructions\back-2.png,conditions\2back-p.xlsx,instructions\2-BACK.png,"(25, 15)",practice,2,3,stim\gray.png,stim\gray.png,stim\yellow.png,stim\gray.png,down,0,0,0,0,0,2,2,2,0,8,8,8,,,,,,,,,,,,,,,,,,,,,,,,,,,213.1873180998955,214.18977060006,213.1873180998955,214.18977060006,213.1873180998955,214.18977060006,213.1873180998955,214.18977060006,down,1,0.09931700001470745,213.1873180998955,None,213.1873180998955,None,213.1873180998955,213.68821780011058,213.1873180998955,213.68821780011058,213.1873180998955,213.68821780011058,213.1873180998955,213.68821780011058,213.1873180998955,None,,,,,,,,,,,,,,,,,,,,,,,,,,,,,,,,,,,,,,,,,,11029,001,2024_Jan_10_1554,nback,2021.2.3,59.580872352903306,
2-back,instructions\back-2.png,conditions\2back-p.xlsx,instructions\2-BACK.png,"(25, 15)",practice,2,4,stim\gray.png,stim\gray.png,stim\gray.png,stim\yellow.png,right,0,0,0,0,0,2,2,2,0,9,9,9,,,,,,,,,,,,,,,,,,,,,,,,,,,214.68964209989645,215.69115919992328,214.68964209989645,215.69115919992328,214.68964209989645,215.69115919992328,214.68964209989645,215.69115919992328,right,1,0.03664910001680255,214.68964209989645,None,214.68964209989645,None,214.68964209989645,215.1910677999258,214.68964209989645,215.1910677999258,214.68964209989645,215.1910677999258,214.68964209989645,215.1910677999258,214.68964209989645,None,,,,,,,,,,,,,,,,,,,,,,,,,,,,,,,,,,,,,,,,,,11029,001,2024_Jan_10_1554,nback,2021.2.3,59.580872352903306,
2-back,instructions\back-2.png,conditions\2back-p.xlsx,instructions\2-BACK.png,"(25, 15)",practice,2,1,stim\yellow.png,stim\gray.png,stim\gray.png,stim\gray.png,right,0,0,0,0,0,2,2,2,0,10,10,10,,,,,,,,,,,,,,,,,,,,,,,,,,,216.19211259996518,217.1940115999896,216.19211259996518,217.1940115999896,216.19211259996518,217.1940115999896,216.19211259996518,217.1940115999896,None,0,,216.19211259996518,None,216.19211259996518,None,216.19211259996518,216.69261429994367,216.19211259996518,216.69261429994367,216.19211259996518,216.69261429994367,216.19211259996518,216.69261429994367,216.19211259996518,None,,,,,,,,,,,,,,,,,,,,,,,,,,,,,,,,,,,,,,,,,,11029,001,2024_Jan_10_1554,nback,2021.2.3,59.580872352903306,
2-back,instructions\back-2.png,conditions\2back-p.xlsx,instructions\2-BACK.png,"(25, 15)",practice,2,2,stim\gray.png,stim\yellow.png,stim\gray.png,stim\gray.png,down,0,0,0,0,0,2,2,2,0,11,11,11,,,,,,,,,,,,,,,,,,,,,,,,,,,217.6940419001039,218.6956879000645,217.6940419001039,218.6956879000645,217.6940419001039,218.6956879000645,217.6940419001039,218.6956879000645,down,1,0.07244980009272695,217.6940419001039,None,217.6940419001039,None,217.6940419001039,218.19478869996965,217.6940419001039,218.19478869996965,217.6940419001039,218.19478869996965,217.6940419001039,218.19478869996965,217.6940419001039,None,,,,,,,,,,,,,,,,,,,,,,,,,,,,,,,,,,,,,,,,,,11029,001,2024_Jan_10_1554,nback,2021.2.3,59.580872352903306,
2-back,instructions\back-2.png,conditions\2back-p.xlsx,instructions\2-BACK.png,"(25, 15)",practice,2,4,stim\gray.png,stim\gray.png,stim\gray.png,stim\yellow.png,up,0,0,0,0,0,2,2,2,0,12,12,12,,,,,,,,,,,,,,,,,,,,,,,,,,,219.19638639991172,220.19874299992807,219.19638639991172,220.19874299992807,219.19638639991172,220.19874299992807,219.19638639991172,220.19874299992807,right,0,0.09007199993357062,219.19638639991172,None,219.19638639991172,None,219.19638639991172,219.69713589991443,219.19638639991172,219.69713589991443,219.19638639991172,219.69713589991443,219.19638639991172,219.69713589991443,219.19638639991172,None,,,,,,,,,,,,,,,,,,,,,,,,,,,,,,,,,,,,,,,,,,11029,001,2024_Jan_10_1554,nback,2021.2.3,59.580872352903306,
2-back,instructions\back-2.png,conditions\2back-p.xlsx,instructions\2-BACK.png,"(25, 15)",practice,2,3,stim\gray.png,stim\gray.png,stim\yellow.png,stim\gray.png,left,0,0,0,0,0,2,2,2,0,13,13,13,,,,,,,,,,,,,,,,,,,,,,,,,,,220.6985617999453,221.7001577001065,220.6985617999453,221.7001577001065,220.6985617999453,221.7001577001065,220.6985617999453,221.7001577001065,up,0,0.10770349996164441,220.6985617999453,None,220.6985617999453,None,220.6985617999453,221.1992814000696,220.6985617999453,221.1992814000696,220.6985617999453,221.1992814000696,220.6985617999453,221.1992814000696,220.6985617999453,None,,,,,,,,,,,,,,,,,,,,,,,,,,,,,,,,,,,,,,,,,,11029,001,2024_Jan_10_1554,nback,2021.2.3,59.580872352903306,
2-back,instructions\back-2.png,conditions\2back-p.xlsx,instructions\2-BACK.png,"(25, 15)",practice,2,1,stim\yellow.png,stim\gray.png,stim\gray.png,stim\gray.png,down,0,0,0,0,0,2,2,2,0,14,14,14,,,,,,,,,,,,,,,,,,,,,,,,,,,222.18397679994814,223.1858202998992,222.18397679994814,223.1858202998992,222.18397679994814,223.1858202998992,222.18397679994814,223.1858202998992,left,0,0.07840280001983047,222.18397679994814,None,222.18397679994814,None,222.18397679994814,222.68497229996137,222.18397679994814,222.68497229996137,222.18397679994814,222.68497229996137,222.18397679994814,222.68497229996137,222.18397679994814,None,,,,,,,,,,,,,,,,,,,,,,,,,,,,,,,,,,,,,,,,,,11029,001,2024_Jan_10_1554,nback,2021.2.3,59.580872352903306,
2-back,instructions\back-2.png,conditions\2back-p.xlsx,instructions\2-BACK.png,"(25, 15)",practice,2,2,stim\gray.png,stim\yellow.png,stim\gray.png,stim\gray.png,right,0,0,0,0,0,2,2,2,0,15,15,15,,,,,,,,,,,,,,,,,,,,,,,,,,,223.68648570007645,224.68890989990905,223.68648570007645,224.68890989990905,223.68648570007645,224.68890989990905,223.68648570007645,224.68890989990905,down,0,0.032356000039726496,223.68648570007645,None,223.68648570007645,None,223.68648570007645,224.1870039999485,223.68648570007645,224.1870039999485,223.68648570007645,224.1870039999485,223.68648570007645,224.1870039999485,223.68648570007645,None,,,,,,,,,,,,,,,,,,,,,,,,,,,,,,,,,,,,,,,,,,11029,001,2024_Jan_10_1554,nback,2021.2.3,59.580872352903306,
2-back,instructions\back-2.png,conditions\2back-p.xlsx,instructions\2-BACK.png,"(25, 15)",practice,2,3,stim\gray.png,stim\gray.png,stim\yellow.png,stim\gray.png,up,0,0,0,0,0,2,2,2,0,16,16,16,,,,,,,,,,,,,,,,,,,,,,,,,,,225.18857880006544,226.19070090004243,225.18857880006544,226.19070090004243,225.18857880006544,226.19070090004243,225.18857880006544,226.19070090004243,right,0,0.08985540014691651,225.18857880006544,None,225.18857880006544,None,225.18857880006544,225.68912469991483,225.18857880006544,225.68912469991483,225.18857880006544,225.68912469991483,225.18857880006544,225.68912469991483,225.18857880006544,None,,,,,,,,,,,,,,,,,,,,,,,,,,,,,,,,,,,,,,,,,,11029,001,2024_Jan_10_1554,nback,2021.2.3,59.580872352903306,
2-back,instructions\back-2.png,conditions\2back-p.xlsx,instructions\2-BACK.png,"(25, 15)",practice,2,1,stim\yellow.png,stim\gray.png,stim\gray.png,stim\gray.png,left,0,0,0,0,0,2,2,2,0,17,17,17,,,,,,,,,,,,,,,,,,,,,,,,,,,226.6907256001141,227.69209480006248,226.6907256001141,227.69209480006248,226.6907256001141,227.69209480006248,226.6907256001141,227.69209480006248,up,0,0.051370499888435006,226.6907256001141,None,226.6907256001141,None,226.6907256001141,227.19138469989412,226.6907256001141,227.19138469989412,226.6907256001141,227.19138469989412,226.6907256001141,227.19138469989412,226.6907256001141,None,,,,,,,,,,,,,,,,,,,,,,,,,,,,,,,,,,,,,,,,,,11029,001,2024_Jan_10_1554,nback,2021.2.3,59.580872352903306,
2-back,instructions\back-2.png,conditions\2back-p.xlsx,instructions\2-BACK.png,"(25, 15)",practice,2,4,stim\gray.png,stim\gray.png,stim\gray.png,stim\yellow.png,right,0,0,0,0,0,2,2,2,0,18,18,18,,,,,,,,,,,,,,,,,,,,,,,,,,,228.19313469994813,229.19474920001812,228.19313469994813,229.19474920001812,228.19313469994813,229.19474920001812,228.19313469994813,229.19474920001812,left,0,0.02910439996048808,228.19313469994813,None,228.19313469994813,None,228.19313469994813,228.69457369996235,228.19313469994813,228.69457369996235,228.19313469994813,228.69457369996235,228.19313469994813,228.69457369996235,228.19313469994813,None,,,,,,,,,,,,,,,,,,,,,,,,,,,,,,,,,,,,,,,,,,11029,001,2024_Jan_10_1554,nback,2021.2.3,59.580872352903306,
2-back,instructions\back-2.png,conditions\2back-p.xlsx,instructions\2-BACK.png,"(25, 15)",practice,2,2,stim\gray.png,stim\yellow.png,stim\gray.png,stim\gray.png,up,0,0,0,0,0,2,2,2,0,19,19,19,,,,,,,,,,,,,,,,,,,,,,,,,,,229.69526330009103,230.69677180005237,229.69526330009103,230.69677180005237,229.69526330009103,230.69677180005237,229.69526330009103,230.69677180005237,right,0,1.42299439990893,229.69526330009103,None,229.69526330009103,None,229.69526330009103,230.19655889994465,229.69526330009103,230.19655889994465,229.69526330009103,230.19655889994465,229.69526330009103,230.19655889994465,229.69526330009103,None,,,,,,,,,,,,,,,,,,,,,,,,,,,,,,,,,,,,,,,,,,11029,001,2024_Jan_10_1554,nback,2021.2.3,59.580872352903306,
2-back,instructions\back-2.png,conditions\2back-p.xlsx,instructions\2-BACK.png,"(25, 15)",,,,,,,,,0,0,0,0,0,2,2,2,,,,,,,,,,,,,,,,,,,,,,,,,,,,,,,,,,,,,,,,,,,,,,,,,,,,,,,,,,,,,,,,,,,,,,,,,,,,,,,,,,,,,,,,,,,,,,,,,11029,001,2024_Jan_10_1554,nback,2021.2.3,59.580872352903306,
,,,,,,,,,,,,,0,0,0,0,,,,,,,,,,,,,,,,,,,,,,,,,,,,,,,,,,,,,,,,,,,,,,,,,,,,,,,,,,,,231.19856930011883,None,s,2.911652500042692,231.19856930011883,None,,,,,,,,,,,,,,,,,,,,,,,,,,,,,,,,,,,,11029,001,2024_Jan_10_1554,nback,2021.2.3,59.580872352903306,
0-back,instructions\back-0.png,conditions\0back-p.xlsx,instructions\0-BACK.png,"(15, 8)",practice,0,1,stim\yellow.png,stim\gray.png,stim\gray.png,stim\gray.png,up,1,0,1,0,0,0,0,0,0,0,0,0,,,,,,,,,,,,,,,,,234.25196500006132,None,space,8.69061900000088,234.25196500006132,None,243.14985290006734,247.65649259998463,247.58910240000114,None,247.98926670011133,248.9912107998971,247.98926670011133,248.9912107998971,247.98926670011133,248.9912107998971,247.98926670011133,248.9912107998971,up,1,0.36898119980469346,247.98926670011133,None,247.98926670011133,None,247.98926670011133,248.4896466000937,247.98926670011133,248.4896466000937,247.98926670011133,248.4896466000937,247.98926670011133,248.4896466000937,247.98926670011133,None,,,,,,,,,,,,,,,,,,,,,,,,,,,,,,,,,,,,,,,,,,11029,001,2024_Jan_10_1554,nback,2021.2.3,59.580872352903306,
0-back,instructions\back-0.png,conditions\0back-p.xlsx,instructions\0-BACK.png,"(15, 8)",practice,0,2,stim\gray.png,stim\yellow.png,stim\gray.png,stim\gray.png,left,1,0,1,0,0,0,0,0,0,1,1,1,,,,,,,,,,,,,,,,,,,,,,,,,,,249.47460349998437,250.476715200115,249.47460349998437,250.476715200115,249.47460349998437,250.476715200115,249.47460349998437,250.476715200115,left,1,0.33167209988459945,249.47460349998437,None,249.47460349998437,None,249.47460349998437,249.97582460008562,249.47460349998437,249.97582460008562,249.47460349998437,249.97582460008562,249.47460349998437,249.97582460008562,249.47460349998437,None,,,,,,,,,,,,,,,,,,,,,,,,,,,,,,,,,,,,,,,,,,11029,001,2024_Jan_10_1554,nback,2021.2.3,59.580872352903306,
0-back,instructions\back-0.png,conditions\0back-p.xlsx,instructions\0-BACK.png,"(15, 8)",practice,0,3,stim\gray.png,stim\gray.png,stim\yellow.png,stim\gray.png,right,1,0,1,0,0,0,0,0,0,2,2,2,,,,,,,,,,,,,,,,,,,,,,,,,,,250.9765783001203,251.9782966999337,250.9765783001203,251.9782966999337,250.9765783001203,251.9782966999337,250.9765783001203,251.9782966999337,right,1,0.29362739995121956,250.9765783001203,None,250.9765783001203,None,250.9765783001203,251.47750280005857,250.9765783001203,251.47750280005857,250.9765783001203,251.47750280005857,250.9765783001203,251.47750280005857,250.9765783001203,None,,,,,,,,,,,,,,,,,,,,,,,,,,,,,,,,,,,,,,,,,,11029,001,2024_Jan_10_1554,nback,2021.2.3,59.580872352903306,
0-back,instructions\back-0.png,conditions\0back-p.xlsx,instructions\0-BACK.png,"(15, 8)",practice,0,4,stim\gray.png,stim\gray.png,stim\gray.png,stim\yellow.png,down,1,0,1,0,0,0,0,0,0,3,3,3,,,,,,,,,,,,,,,,,,,,,,,,,,,252.47883430006914,253.48089040000923,252.47883430006914,253.48089040000923,252.47883430006914,253.48089040000923,252.47883430006914,253.48089040000923,down,1,0.27155269985087216,252.47883430006914,None,252.47883430006914,None,252.47883430006914,252.97980990004726,252.47883430006914,252.97980990004726,252.47883430006914,252.97980990004726,252.47883430006914,252.97980990004726,252.47883430006914,None,,,,,,,,,,,,,,,,,,,,,,,,,,,,,,,,,,,,,,,,,,11029,001,2024_Jan_10_1554,nback,2021.2.3,59.580872352903306,
0-back,instructions\back-0.png,conditions\0back-p.xlsx,instructions\0-BACK.png,"(15, 8)",practice,0,2,stim\gray.png,stim\yellow.png,stim\gray.png,stim\gray.png,left,1,0,1,0,0,0,0,0,0,4,4,4,,,,,,,,,,,,,,,,,,,,,,,,,,,253.98147209989838,254.98340500006452,253.98147209989838,254.98340500006452,253.98147209989838,254.98340500006452,253.98147209989838,254.98340500006452,left,1,0.29709460004232824,253.98147209989838,None,253.98147209989838,None,253.98147209989838,254.48181769996881,253.98147209989838,254.48181769996881,253.98147209989838,254.48181769996881,253.98147209989838,254.48181769996881,253.98147209989838,None,,,,,,,,,,,,,,,,,,,,,,,,,,,,,,,,,,,,,,,,,,11029,001,2024_Jan_10_1554,nback,2021.2.3,59.580872352903306,
0-back,instructions\back-0.png,conditions\0back-p.xlsx,instructions\0-BACK.png,"(15, 8)",practice,0,1,stim\yellow.png,stim\gray.png,stim\gray.png,stim\gray.png,up,1,0,1,0,0,0,0,0,0,5,5,5,,,,,,,,,,,,,,,,,,,,,,,,,,,255.48348099994473,256.48522939998657,255.48348099994473,256.48522939998657,255.48348099994473,256.48522939998657,255.48348099994473,256.48522939998657,up,1,0.21112910006195307,255.48348099994473,None,255.48348099994473,None,255.48348099994473,255.98446439998224,255.48348099994473,255.98446439998224,255.48348099994473,255.98446439998224,255.48348099994473,255.98446439998224,255.48348099994473,None,,,,,,,,,,,,,,,,,,,,,,,,,,,,,,,,,,,,,,,,,,11029,001,2024_Jan_10_1554,nback,2021.2.3,59.580872352903306,
0-back,instructions\back-0.png,conditions\0back-p.xlsx,instructions\0-BACK.png,"(15, 8)",practice,0,4,stim\gray.png,stim\gray.png,stim\gray.png,stim\yellow.png,down,1,0,1,0,0,0,0,0,0,6,6,6,,,,,,,,,,,,,,,,,,,,,,,,,,,256.96907839993946,257.9704801000189,256.96907839993946,257.9704801000189,256.96907839993946,257.9704801000189,256.96907839993946,257.9704801000189,down,1,0.42977769998833537,256.96907839993946,None,256.96907839993946,None,256.96907839993946,257.4718693001196,256.96907839993946,257.4718693001196,256.96907839993946,257.4718693001196,256.96907839993946,257.4718693001196,256.96907839993946,None,,,,,,,,,,,,,,,,,,,,,,,,,,,,,,,,,,,,,,,,,,11029,001,2024_Jan_10_1554,nback,2021.2.3,59.580872352903306,
0-back,instructions\back-0.png,conditions\0back-p.xlsx,instructions\0-BACK.png,"(15, 8)",practice,0,3,stim\gray.png,stim\gray.png,stim\yellow.png,stim\gray.png,right,1,0,1,0,0,0,0,0,0,7,7,7,,,,,,,,,,,,,,,,,,,,,,,,,,,258.47126729995944,259.47272769990377,258.47126729995944,259.47272769990377,258.47126729995944,259.47272769990377,258.47126729995944,259.47272769990377,right,1,0.23919310001656413,258.47126729995944,None,258.47126729995944,None,258.47126729995944,258.9725977999624,258.47126729995944,258.9725977999624,258.47126729995944,258.9725977999624,258.47126729995944,258.9725977999624,258.47126729995944,None,,,,,,,,,,,,,,,,,,,,,,,,,,,,,,,,,,,,,,,,,,11029,001,2024_Jan_10_1554,nback,2021.2.3,59.580872352903306,
0-back,instructions\back-0.png,conditions\0back-p.xlsx,instructions\0-BACK.png,"(15, 8)",practice,0,3,stim\gray.png,stim\gray.png,stim\yellow.png,stim\gray.png,right,1,0,1,0,0,0,0,0,0,8,8,8,,,,,,,,,,,,,,,,,,,,,,,,,,,259.97362720011733,260.97498949989676,259.97362720011733,260.97498949989676,259.97362720011733,260.97498949989676,259.97362720011733,260.97498949989676,right,1,0.32071990007534623,259.97362720011733,None,259.97362720011733,None,259.97362720011733,260.4744987001177,259.97362720011733,260.4744987001177,259.97362720011733,260.4744987001177,259.97362720011733,260.4744987001177,259.97362720011733,None,,,,,,,,,,,,,,,,,,,,,,,,,,,,,,,,,,,,,,,,,,11029,001,2024_Jan_10_1554,nback,2021.2.3,59.580872352903306,
0-back,instructions\back-0.png,conditions\0back-p.xlsx,instructions\0-BACK.png,"(15, 8)",practice,0,4,stim\gray.png,stim\gray.png,stim\gray.png,stim\yellow.png,down,1,0,1,0,0,0,0,0,0,9,9,9,,,,,,,,,,,,,,,,,,,,,,,,,,,261.47585560008883,262.47753909998573,261.47585560008883,262.47753909998573,261.47585560008883,262.47753909998573,261.47585560008883,262.47753909998573,down,1,0.4424329998437315,261.47585560008883,None,261.47585560008883,None,261.47585560008883,261.97666870011017,261.47585560008883,261.97666870011017,261.47585560008883,261.97666870011017,261.47585560008883,261.97666870011017,261.47585560008883,None,,,,,,,,,,,,,,,,,,,,,,,,,,,,,,,,,,,,,,,,,,11029,001,2024_Jan_10_1554,nback,2021.2.3,59.580872352903306,
0-back,instructions\back-0.png,conditions\0back-p.xlsx,instructions\0-BACK.png,"(15, 8)",practice,0,1,stim\yellow.png,stim\gray.png,stim\gray.png,stim\gray.png,up,1,0,1,0,0,0,0,0,0,10,10,10,,,,,,,,,,,,,,,,,,,,,,,,,,,262.9778805000242,263.97945179999806,262.9778805000242,263.97945179999806,262.9778805000242,263.97945179999806,262.9778805000242,263.97945179999806,up,1,0.5246762000024319,262.9778805000242,None,262.9778805000242,None,262.9778805000242,263.478543800069,262.9778805000242,263.478543800069,262.9778805000242,263.478543800069,262.9778805000242,263.478543800069,262.9778805000242,None,,,,,,,,,,,,,,,,,,,,,,,,,,,,,,,,,,,,,,,,,,11029,001,2024_Jan_10_1554,nback,2021.2.3,59.580872352903306,
0-back,instructions\back-0.png,conditions\0back-p.xlsx,instructions\0-BACK.png,"(15, 8)",practice,0,2,stim\gray.png,stim\yellow.png,stim\gray.png,stim\gray.png,left,1,0,1,0,0,0,0,0,0,11,11,11,,,,,,,,,,,,,,,,,,,,,,,,,,,264.480769299902,265.4814204000868,264.480769299902,265.4814204000868,264.480769299902,265.4814204000868,264.480769299902,265.4814204000868,left,1,0.24562820000573993,264.480769299902,None,264.480769299902,None,264.480769299902,264.9808199000545,264.480769299902,264.9808199000545,264.480769299902,264.9808199000545,264.480769299902,264.9808199000545,264.480769299902,None,,,,,,,,,,,,,,,,,,,,,,,,,,,,,,,,,,,,,,,,,,11029,001,2024_Jan_10_1554,nback,2021.2.3,59.580872352903306,
0-back,instructions\back-0.png,conditions\0back-p.xlsx,instructions\0-BACK.png,"(15, 8)",practice,0,4,stim\gray.png,stim\gray.png,stim\gray.png,stim\yellow.png,down,1,0,1,0,0,0,0,0,0,12,12,12,,,,,,,,,,,,,,,,,,,,,,,,,,,265.98240730003454,266.98501159995794,265.98240730003454,266.98501159995794,265.98240730003454,266.98501159995794,265.98240730003454,266.98501159995794,down,1,0.416129499906674,265.98240730003454,None,265.98240730003454,None,265.98240730003454,266.48349960008636,265.98240730003454,266.48349960008636,265.98240730003454,266.48349960008636,265.98240730003454,266.48349960008636,265.98240730003454,None,,,,,,,,,,,,,,,,,,,,,,,,,,,,,,,,,,,,,,,,,,11029,001,2024_Jan_10_1554,nback,2021.2.3,59.580872352903306,
0-back,instructions\back-0.png,conditions\0back-p.xlsx,instructions\0-BACK.png,"(15, 8)",practice,0,3,stim\gray.png,stim\gray.png,stim\yellow.png,stim\gray.png,right,1,0,1,0,0,0,0,0,0,13,13,13,,,,,,,,,,,,,,,,,,,,,,,,,,,267.48438080004416,268.4862873000093,267.48438080004416,268.4862873000093,267.48438080004416,268.4862873000093,267.48438080004416,268.4862873000093,right,1,0.27429940016008914,267.48438080004416,None,267.48438080004416,None,267.48438080004416,267.98541829991154,267.48438080004416,267.98541829991154,267.48438080004416,267.98541829991154,267.48438080004416,267.98541829991154,267.48438080004416,None,,,,,,,,,,,,,,,,,,,,,,,,,,,,,,,,,,,,,,,,,,11029,001,2024_Jan_10_1554,nback,2021.2.3,59.580872352903306,
0-back,instructions\back-0.png,conditions\0back-p.xlsx,instructions\0-BACK.png,"(15, 8)",practice,0,1,stim\yellow.png,stim\gray.png,stim\gray.png,stim\gray.png,up,1,0,1,0,0,0,0,0,0,14,14,14,,,,,,,,,,,,,,,,,,,,,,,,,,,268.9699901000131,269.97199820005335,268.9699901000131,269.97199820005335,268.9699901000131,269.97199820005335,268.9699901000131,269.97199820005335,up,1,0.2682665998581797,268.9699901000131,None,268.9699901000131,None,268.9699901000131,269.4709507001098,268.9699901000131,269.4709507001098,268.9699901000131,269.4709507001098,268.9699901000131,269.4709507001098,268.9699901000131,None,,,,,,,,,,,,,,,,,,,,,,,,,,,,,,,,,,,,,,,,,,11029,001,2024_Jan_10_1554,nback,2021.2.3,59.580872352903306,
0-back,instructions\back-0.png,conditions\0back-p.xlsx,instructions\0-BACK.png,"(15, 8)",practice,0,2,stim\gray.png,stim\yellow.png,stim\gray.png,stim\gray.png,left,1,0,1,0,0,0,0,0,0,15,15,15,,,,,,,,,,,,,,,,,,,,,,,,,,,270.47222119988874,271.4740319000557,270.47222119988874,271.4740319000557,270.47222119988874,271.4740319000557,270.47222119988874,271.4740319000557,left,1,0.23844149988144636,270.47222119988874,None,270.47222119988874,None,270.47222119988874,270.9730018998962,270.47222119988874,270.9730018998962,270.47222119988874,270.9730018998962,270.47222119988874,270.9730018998962,270.47222119988874,None,,,,,,,,,,,,,,,,,,,,,,,,,,,,,,,,,,,,,,,,,,11029,001,2024_Jan_10_1554,nback,2021.2.3,59.580872352903306,
0-back,instructions\back-0.png,conditions\0back-p.xlsx,instructions\0-BACK.png,"(15, 8)",practice,0,3,stim\gray.png,stim\gray.png,stim\yellow.png,stim\gray.png,right,1,0,1,0,0,0,0,0,0,16,16,16,,,,,,,,,,,,,,,,,,,,,,,,,,,271.9745827000588,272.9761063999031,271.9745827000588,272.9761063999031,271.9745827000588,272.9761063999031,271.9745827000588,272.9761063999031,right,1,0.3437042001169175,271.9745827000588,None,271.9745827000588,None,271.9745827000588,272.4759728999343,271.9745827000588,272.4759728999343,271.9745827000588,272.4759728999343,271.9745827000588,272.4759728999343,271.9745827000588,None,,,,,,,,,,,,,,,,,,,,,,,,,,,,,,,,,,,,,,,,,,11029,001,2024_Jan_10_1554,nback,2021.2.3,59.580872352903306,
0-back,instructions\back-0.png,conditions\0back-p.xlsx,instructions\0-BACK.png,"(15, 8)",practice,0,1,stim\yellow.png,stim\gray.png,stim\gray.png,stim\gray.png,up,1,0,1,0,0,0,0,0,0,17,17,17,,,,,,,,,,,,,,,,,,,,,,,,,,,273.4768276999239,274.4783465000801,273.4768276999239,274.4783465000801,273.4768276999239,274.4783465000801,273.4768276999239,274.4783465000801,up,1,0.40947280009277165,273.4768276999239,None,273.4768276999239,None,273.4768276999239,273.9782112000976,273.4768276999239,273.9782112000976,273.4768276999239,273.9782112000976,273.4768276999239,273.9782112000976,273.4768276999239,None,,,,,,,,,,,,,,,,,,,,,,,,,,,,,,,,,,,,,,,,,,11029,001,2024_Jan_10_1554,nback,2021.2.3,59.580872352903306,
0-back,instructions\back-0.png,conditions\0back-p.xlsx,instructions\0-BACK.png,"(15, 8)",practice,0,4,stim\gray.png,stim\gray.png,stim\gray.png,stim\yellow.png,down,1,0,1,0,0,0,0,0,0,18,18,18,,,,,,,,,,,,,,,,,,,,,,,,,,,274.9790376999881,275.9804831999354,274.9790376999881,275.9804831999354,274.9790376999881,275.9804831999354,274.9790376999881,275.9804831999354,down,1,0.3158186001237482,274.9790376999881,None,274.9790376999881,None,274.9790376999881,275.4800329999998,274.9790376999881,275.4800329999998,274.9790376999881,275.4800329999998,274.9790376999881,275.4800329999998,274.9790376999881,None,,,,,,,,,,,,,,,,,,,,,,,,,,,,,,,,,,,,,,,,,,11029,001,2024_Jan_10_1554,nback,2021.2.3,59.580872352903306,
0-back,instructions\back-0.png,conditions\0back-p.xlsx,instructions\0-BACK.png,"(15, 8)",practice,0,2,stim\gray.png,stim\yellow.png,stim\gray.png,stim\gray.png,left,1,0,1,0,0,0,0,0,0,19,19,19,,,,,,,,,,,,,,,,,,,,,,,,,,,276.4810271000024,277.4827117000241,276.4810271000024,277.4827117000241,276.4810271000024,277.4827117000241,276.4810271000024,277.4827117000241,left,1,0.25318909995257854,276.4810271000024,None,276.4810271000024,None,276.4810271000024,276.9820624999702,276.4810271000024,276.9820624999702,276.4810271000024,276.9820624999702,276.4810271000024,276.9820624999702,276.4810271000024,None,,,,,,,,,,,,,,,,,,,,,,,,,,,,,,,,,,,,,,,,,,11029,001,2024_Jan_10_1554,nback,2021.2.3,59.580872352903306,
0-back,instructions\back-0.png,conditions\0back-p.xlsx,instructions\0-BACK.png,"(15, 8)",,,,,,,,,1,0,1,0,0,0,0,0,,,,,,,,,,,,,,,,,,,,,,,,,,,,,,,,,,,,,,,,,,,,,,,,,,,,,,,,,,,,,,,,,,,,,,,,,,,,,,,,,,,,,,,,,,,,,,,,,11029,001,2024_Jan_10_1554,nback,2021.2.3,59.580872352903306,
1-back,instructions\back-1.png,conditions\1back-p.xlsx,instructions\1-BACK.png,"(25, 15)",practice,1,1,stim\yellow.png,stim\gray.png,stim\gray.png,stim\gray.png,None,1,0,1,0,0,1,1,1,0,0,0,0,,,,,,,,,,,,,,,,,278.18372659990564,None,space,2.071112399920821,278.18372659990564,None,280.3867802999448,284.89464779989794,284.8608508000616,None,285.29440980008803,286.2959926999174,285.29440980008803,286.2959926999174,285.29440980008803,286.2959926999174,285.29440980008803,286.2959926999174,None,1,,285.29440980008803,None,285.29440980008803,None,285.29440980008803,285.7951680999249,285.29440980008803,285.7951680999249,285.29440980008803,285.7951680999249,285.29440980008803,285.7951680999249,285.29440980008803,None,,,,,,,,,,,,,,,,,,,,,,,,,,,,,,,,,,,,,,,,,,11029,001,2024_Jan_10_1554,nback,2021.2.3,59.580872352903306,
1-back,instructions\back-1.png,conditions\1back-p.xlsx,instructions\1-BACK.png,"(25, 15)",practice,1,2,stim\gray.png,stim\yellow.png,stim\gray.png,stim\gray.png,up,1,0,1,0,0,1,1,1,0,1,1,1,,,,,,,,,,,,,,,,,,,,,,,,,,,286.77970300009474,287.7814184001181,286.77970300009474,287.7814184001181,286.77970300009474,287.7814184001181,286.77970300009474,287.7814184001181,up,1,0.18660149979405105,286.77970300009474,None,286.77970300009474,None,286.77970300009474,287.2806212999858,286.77970300009474,287.2806212999858,286.77970300009474,287.2806212999858,286.77970300009474,287.2806212999858,286.77970300009474,None,,,,,,,,,,,,,,,,,,,,,,,,,,,,,,,,,,,,,,,,,,11029,001,2024_Jan_10_1554,nback,2021.2.3,59.580872352903306,
1-back,instructions\back-1.png,conditions\1back-p.xlsx,instructions\1-BACK.png,"(25, 15)",practice,1,3,stim\gray.png,stim\gray.png,stim\yellow.png,stim\gray.png,left,1,0,1,0,0,1,1,1,0,2,2,2,,,,,,,,,,,,,,,,,,,,,,,,,,,288.2819622999523,289.28413080004975,288.2819622999523,289.28413080004975,288.2819622999523,289.28413080004975,288.2819622999523,289.28413080004975,left,1,0.036322199972346425,288.2819622999523,None,288.2819622999523,None,288.2819622999523,288.78281689994037,288.2819622999523,288.78281689994037,288.2819622999523,288.78281689994037,288.2819622999523,288.78281689994037,288.2819622999523,None,,,,,,,,,,,,,,,,,,,,,,,,,,,,,,,,,,,,,,,,,,11029,001,2024_Jan_10_1554,nback,2021.2.3,59.580872352903306,
1-back,instructions\back-1.png,conditions\1back-p.xlsx,instructions\1-BACK.png,"(25, 15)",practice,1,4,stim\gray.png,stim\gray.png,stim\gray.png,stim\yellow.png,right,1,0,1,0,0,1,1,1,0,3,3,3,,,,,,,,,,,,,,,,,,,,,,,,,,,289.7845163999591,290.78642700007185,289.7845163999591,290.78642700007185,289.7845163999591,290.78642700007185,289.7845163999591,290.78642700007185,right,1,0.17390749999321997,289.7845163999591,None,289.7845163999591,None,289.7845163999591,290.2857186999172,289.7845163999591,290.2857186999172,289.7845163999591,290.2857186999172,289.7845163999591,290.2857186999172,289.7845163999591,None,,,,,,,,,,,,,,,,,,,,,,,,,,,,,,,,,,,,,,,,,,11029,001,2024_Jan_10_1554,nback,2021.2.3,59.580872352903306,
1-back,instructions\back-1.png,conditions\1back-p.xlsx,instructions\1-BACK.png,"(25, 15)",practice,1,2,stim\gray.png,stim\yellow.png,stim\gray.png,stim\gray.png,down,1,0,1,0,0,1,1,1,0,4,4,4,,,,,,,,,,,,,,,,,,,,,,,,,,,291.2866891999729,292.28807449992746,291.2866891999729,292.28807449992746,291.2866891999729,292.28807449992746,291.2866891999729,292.28807449992746,down,1,0.17563099996186793,291.2866891999729,None,291.2866891999729,None,291.2866891999729,291.7874886998907,291.2866891999729,291.7874886998907,291.2866891999729,291.7874886998907,291.2866891999729,291.7874886998907,291.2866891999729,None,,,,,,,,,,,,,,,,,,,,,,,,,,,,,,,,,,,,,,,,,,11029,001,2024_Jan_10_1554,nback,2021.2.3,59.580872352903306,
1-back,instructions\back-1.png,conditions\1back-p.xlsx,instructions\1-BACK.png,"(25, 15)",practice,1,1,stim\yellow.png,stim\gray.png,stim\gray.png,stim\gray.png,left,1,0,1,0,0,1,1,1,0,5,5,5,,,,,,,,,,,,,,,,,,,,,,,,,,,292.7890558000654,293.79021989996545,292.7890558000654,293.79021989996545,292.7890558000654,293.79021989996545,292.7890558000654,293.79021989996545,left,1,0.2012434999924153,292.7890558000654,None,292.7890558000654,None,292.7890558000654,293.28947820002213,292.7890558000654,293.28947820002213,292.7890558000654,293.28947820002213,292.7890558000654,293.28947820002213,292.7890558000654,None,,,,,,,,,,,,,,,,,,,,,,,,,,,,,,,,,,,,,,,,,,11029,001,2024_Jan_10_1554,nback,2021.2.3,59.580872352903306,
1-back,instructions\back-1.png,conditions\1back-p.xlsx,instructions\1-BACK.png,"(25, 15)",practice,1,4,stim\gray.png,stim\gray.png,stim\gray.png,stim\yellow.png,up,1,0,1,0,0,1,1,1,0,6,6,6,,,,,,,,,,,,,,,,,,,,,,,,,,,294.27421150007285,295.27566469996236,294.27421150007285,295.27566469996236,294.27421150007285,295.27566469996236,294.27421150007285,295.27566469996236,up,1,0.14036080008372664,294.27421150007285,None,294.27421150007285,None,294.27421150007285,294.77564839995466,294.27421150007285,294.77564839995466,294.27421150007285,294.77564839995466,294.27421150007285,294.77564839995466,294.27421150007285,None,,,,,,,,,,,,,,,,,,,,,,,,,,,,,,,,,,,,,,,,,,11029,001,2024_Jan_10_1554,nback,2021.2.3,59.580872352903306,
1-back,instructions\back-1.png,conditions\1back-p.xlsx,instructions\1-BACK.png,"(25, 15)",practice,1,3,stim\gray.png,stim\gray.png,stim\yellow.png,stim\gray.png,down,1,0,1,0,0,1,1,1,0,7,7,7,,,,,,,,,,,,,,,,,,,,,,,,,,,295.77639069990255,296.77874540002085,295.77639069990255,296.77874540002085,295.77639069990255,296.77874540002085,295.77639069990255,296.77874540002085,down,1,0.18197689997032285,295.77639069990255,None,295.77639069990255,None,295.77639069990255,296.27727319998667,295.77639069990255,296.27727319998667,295.77639069990255,296.27727319998667,295.77639069990255,296.27727319998667,295.77639069990255,None,,,,,,,,,,,,,,,,,,,,,,,,,,,,,,,,,,,,,,,,,,11029,001,2024_Jan_10_1554,nback,2021.2.3,59.580872352903306,
1-back,instructions\back-1.png,conditions\1back-p.xlsx,instructions\1-BACK.png,"(25, 15)",practice,1,3,stim\gray.png,stim\gray.png,stim\yellow.png,stim\gray.png,right,1,0,1,0,0,1,1,1,0,8,8,8,,,,,,,,,,,,,,,,,,,,,,,,,,,297.2787101001013,298.2802359999623,297.2787101001013,298.2802359999623,297.2787101001013,298.2802359999623,297.2787101001013,298.2802359999623,right,1,0.19177409983240068,297.2787101001013,None,297.2787101001013,None,297.2787101001013,297.78060670010746,297.2787101001013,297.78060670010746,297.2787101001013,297.78060670010746,297.2787101001013,297.78060670010746,297.2787101001013,None,,,,,,,,,,,,,,,,,,,,,,,,,,,,,,,,,,,,,,,,,,11029,001,2024_Jan_10_1554,nback,2021.2.3,59.580872352903306,
1-back,instructions\back-1.png,conditions\1back-p.xlsx,instructions\1-BACK.png,"(25, 15)",practice,1,4,stim\gray.png,stim\gray.png,stim\gray.png,stim\yellow.png,right,1,0,1,0,0,1,1,1,0,9,9,9,,,,,,,,,,,,,,,,,,,,,,,,,,,298.7809631000273,299.7830791999586,298.7809631000273,299.7830791999586,298.7809631000273,299.7830791999586,298.7809631000273,299.7830791999586,right,1,0.15325010009109974,298.7809631000273,None,298.7809631000273,None,298.7809631000273,299.2816389000509,298.7809631000273,299.2816389000509,298.7809631000273,299.2816389000509,298.7809631000273,299.2816389000509,298.7809631000273,None,,,,,,,,,,,,,,,,,,,,,,,,,,,,,,,,,,,,,,,,,,11029,001,2024_Jan_10_1554,nback,2021.2.3,59.580872352903306,
1-back,instructions\back-1.png,conditions\1back-p.xlsx,instructions\1-BACK.png,"(25, 15)",practice,1,1,stim\yellow.png,stim\gray.png,stim\gray.png,stim\gray.png,down,1,0,1,0,0,1,1,1,0,10,10,10,,,,,,,,,,,,,,,,,,,,,,,,,,,300.28323750011623,301.28471649996936,300.28323750011623,301.28471649996936,300.28323750011623,301.28471649996936,300.28323750011623,301.28471649996936,down,1,0.22713469993323088,300.28323750011623,None,300.28323750011623,None,300.28323750011623,300.7845580999274,300.28323750011623,300.7845580999274,300.28323750011623,300.7845580999274,300.28323750011623,300.7845580999274,300.28323750011623,None,,,,,,,,,,,,,,,,,,,,,,,,,,,,,,,,,,,,,,,,,,11029,001,2024_Jan_10_1554,nback,2021.2.3,59.580872352903306,
1-back,instructions\back-1.png,conditions\1back-p.xlsx,instructions\1-BACK.png,"(25, 15)",practice,1,2,stim\gray.png,stim\yellow.png,stim\gray.png,stim\gray.png,up,1,0,1,0,0,1,1,1,0,11,11,11,,,,,,,,,,,,,,,,,,,,,,,,,,,301.78588830004446,302.7872156999074,301.78588830004446,302.7872156999074,301.78588830004446,302.7872156999074,301.78588830004446,302.7872156999074,up,1,0.17258330015465617,301.78588830004446,None,301.78588830004446,None,301.78588830004446,302.28675709990785,301.78588830004446,302.28675709990785,301.78588830004446,302.28675709990785,301.78588830004446,302.28675709990785,301.78588830004446,None,,,,,,,,,,,,,,,,,,,,,,,,,,,,,,,,,,,,,,,,,,11029,001,2024_Jan_10_1554,nback,2021.2.3,59.580872352903306,
1-back,instructions\back-1.png,conditions\1back-p.xlsx,instructions\1-BACK.png,"(25, 15)",practice,1,4,stim\gray.png,stim\gray.png,stim\gray.png,stim\yellow.png,left,1,0,1,0,0,1,1,1,0,12,12,12,,,,,,,,,,,,,,,,,,,,,,,,,,,303.2875101000536,304.28936620010063,303.2875101000536,304.28936620010063,303.2875101000536,304.28936620010063,303.2875101000536,304.28936620010063,left,1,0.01480409991927445,303.2875101000536,None,303.2875101000536,None,303.2875101000536,303.7882260000333,303.2875101000536,303.7882260000333,303.2875101000536,303.7882260000333,303.2875101000536,303.7882260000333,303.2875101000536,None,,,,,,,,,,,,,,,,,,,,,,,,,,,,,,,,,,,,,,,,,,11029,001,2024_Jan_10_1554,nback,2021.2.3,59.580872352903306,
1-back,instructions\back-1.png,conditions\1back-p.xlsx,instructions\1-BACK.png,"(25, 15)",practice,1,3,stim\gray.png,stim\gray.png,stim\yellow.png,stim\gray.png,down,1,0,1,0,0,1,1,1,0,13,13,13,,,,,,,,,,,,,,,,,,,,,,,,,,,304.7732168000657,305.775197400013,304.7732168000657,305.775197400013,304.7732168000657,305.775197400013,304.7732168000657,305.775197400013,right,0,1.3611841001547873,304.7732168000657,None,304.7732168000657,None,304.7732168000657,305.27450309996493,304.7732168000657,305.27450309996493,304.7732168000657,305.27450309996493,304.7732168000657,305.27450309996493,304.7732168000657,None,,,,,,,,,,,,,,,,,,,,,,,,,,,,,,,,,,,,,,,,,,11029,001,2024_Jan_10_1554,nback,2021.2.3,59.580872352903306,
1-back,instructions\back-1.png,conditions\1back-p.xlsx,instructions\1-BACK.png,"(25, 15)",practice,1,1,stim\yellow.png,stim\gray.png,stim\gray.png,stim\gray.png,right,1,0,1,0,0,1,1,1,0,14,14,14,,,,,,,,,,,,,,,,,,,,,,,,,,,306.2753582999576,307.27792209992185,306.2753582999576,307.27792209992185,306.2753582999576,307.27792209992185,306.2753582999576,307.27792209992185,None,0,,306.2753582999576,None,306.2753582999576,None,306.2753582999576,306.77620159997605,306.2753582999576,306.77620159997605,306.2753582999576,306.77620159997605,306.2753582999576,306.77620159997605,306.2753582999576,None,,,,,,,,,,,,,,,,,,,,,,,,,,,,,,,,,,,,,,,,,,11029,001,2024_Jan_10_1554,nback,2021.2.3,59.580872352903306,
1-back,instructions\back-1.png,conditions\1back-p.xlsx,instructions\1-BACK.png,"(25, 15)",practice,1,2,stim\gray.png,stim\yellow.png,stim\gray.png,stim\gray.png,up,1,0,1,0,0,1,1,1,0,15,15,15,,,,,,,,,,,,,,,,,,,,,,,,,,,307.7776913000271,308.778977900045,307.7776913000271,308.778977900045,307.7776913000271,308.778977900045,307.7776913000271,308.778977900045,up,1,0.036656999960541725,307.7776913000271,None,307.7776913000271,None,307.7776913000271,308.2786121000536,307.7776913000271,308.2786121000536,307.7776913000271,308.2786121000536,307.7776913000271,308.2786121000536,307.7776913000271,None,,,,,,,,,,,,,,,,,,,,,,,,,,,,,,,,,,,,,,,,,,11029,001,2024_Jan_10_1554,nback,2021.2.3,59.580872352903306,
1-back,instructions\back-1.png,conditions\1back-p.xlsx,instructions\1-BACK.png,"(25, 15)",practice,1,3,stim\gray.png,stim\gray.png,stim\yellow.png,stim\gray.png,left,1,0,1,0,0,1,1,1,0,16,16,16,,,,,,,,,,,,,,,,,,,,,,,,,,,309.2798486999236,310.28154090000317,309.2798486999236,310.28154090000317,309.2798486999236,310.28154090000317,309.2798486999236,310.28154090000317,left,1,0.07852550013922155,309.2798486999236,None,309.2798486999236,None,309.2798486999236,309.7812572000548,309.2798486999236,309.7812572000548,309.2798486999236,309.7812572000548,309.2798486999236,309.7812572000548,309.2798486999236,None,,,,,,,,,,,,,,,,,,,,,,,,,,,,,,,,,,,,,,,,,,11029,001,2024_Jan_10_1554,nback,2021.2.3,59.580872352903306,
1-back,instructions\back-1.png,conditions\1back-p.xlsx,instructions\1-BACK.png,"(25, 15)",practice,1,1,stim\yellow.png,stim\gray.png,stim\gray.png,stim\gray.png,right,1,0,1,0,0,1,1,1,0,17,17,17,,,,,,,,,,,,,,,,,,,,,,,,,,,310.7819477999583,311.7841437999159,310.7819477999583,311.7841437999159,310.7819477999583,311.7841437999159,310.7819477999583,311.7841437999159,right,1,0.04838509997352958,310.7819477999583,None,310.7819477999583,None,310.7819477999583,311.2829003999941,310.7819477999583,311.2829003999941,310.7819477999583,311.2829003999941,310.7819477999583,311.2829003999941,310.7819477999583,None,,,,,,,,,,,,,,,,,,,,,,,,,,,,,,,,,,,,,,,,,,11029,001,2024_Jan_10_1554,nback,2021.2.3,59.580872352903306,
1-back,instructions\back-1.png,conditions\1back-p.xlsx,instructions\1-BACK.png,"(25, 15)",practice,1,4,stim\gray.png,stim\gray.png,stim\gray.png,stim\yellow.png,up,1,0,1,0,0,1,1,1,0,18,18,18,,,,,,,,,,,,,,,,,,,,,,,,,,,312.2847390000243,313.28660389990546,312.2847390000243,313.28660389990546,312.2847390000243,313.28660389990546,312.2847390000243,313.28660389990546,up,1,0.07350200018845499,312.2847390000243,None,312.2847390000243,None,312.2847390000243,312.78568010008894,312.2847390000243,312.78568010008894,312.2847390000243,312.78568010008894,312.2847390000243,312.78568010008894,312.2847390000243,None,,,,,,,,,,,,,,,,,,,,,,,,,,,,,,,,,,,,,,,,,,11029,001,2024_Jan_10_1554,nback,2021.2.3,59.580872352903306,
1-back,instructions\back-1.png,conditions\1back-p.xlsx,instructions\1-BACK.png,"(25, 15)",practice,1,2,stim\gray.png,stim\yellow.png,stim\gray.png,stim\gray.png,down,1,0,1,0,0,1,1,1,0,19,19,19,,,,,,,,,,,,,,,,,,,,,,,,,,,313.78661300009117,314.788112499984,313.78661300009117,314.788112499984,313.78661300009117,314.788112499984,313.78661300009117,314.788112499984,down,1,0.05176389985717833,313.78661300009117,None,313.78661300009117,None,313.78661300009117,314.28745490009896,313.78661300009117,314.28745490009896,313.78661300009117,314.28745490009896,313.78661300009117,314.28745490009896,313.78661300009117,None,,,,,,,,,,,,,,,,,,,,,,,,,,,,,,,,,,,,,,,,,,11029,001,2024_Jan_10_1554,nback,2021.2.3,59.580872352903306,
1-back,instructions\back-1.png,conditions\1back-p.xlsx,instructions\1-BACK.png,"(25, 15)",,,,,,,,,1,0,1,0,0,1,1,1,,,,,,,,,,,,,,,,,,,,,,,,,,,,,,,,,,,,,,,,,,,,,,,,,,,,,,,,,,,,,,,,,,,,,,,,,,,,,,,,,,,,,,,,,,,,,,,,,11029,001,2024_Jan_10_1554,nback,2021.2.3,59.580872352903306,
2-back,instructions\back-2.png,conditions\2back-p.xlsx,instructions\2-BACK.png,"(25, 15)",practice,2,1,stim\yellow.png,stim\gray.png,stim\gray.png,stim\gray.png,None,1,0,1,0,0,2,2,2,0,0,0,0,,,,,,,,,,,,,,,,,315.43890399998054,None,space,2.343434400158003,315.43890399998054,None,317.94340320001356,322.44984839996323,322.3999799999874,None,322.8345059999265,323.8353677999694,322.8345059999265,323.8353677999694,322.8345059999265,323.8353677999694,322.8345059999265,323.8353677999694,None,1,,322.8345059999265,None,322.8345059999265,None,322.8345059999265,323.334543999983,322.8345059999265,323.334543999983,322.8345059999265,323.334543999983,322.8345059999265,323.334543999983,322.8345059999265,None,,,,,,,,,,,,,,,,,,,,,,,,,,,,,,,,,,,,,,,,,,11029,001,2024_Jan_10_1554,nback,2021.2.3,59.580872352903306,
2-back,instructions\back-2.png,conditions\2back-p.xlsx,instructions\2-BACK.png,"(25, 15)",practice,2,2,stim\gray.png,stim\yellow.png,stim\gray.png,stim\gray.png,None,1,0,1,0,0,2,2,2,0,1,1,1,,,,,,,,,,,,,,,,,,,,,,,,,,,324.3188368000556,325.3202818999998,324.3188368000556,325.3202818999998,324.3188368000556,325.3202818999998,324.3188368000556,325.3202818999998,None,1,,324.3188368000556,None,324.3188368000556,None,324.3188368000556,324.8201065999456,324.3188368000556,324.8201065999456,324.3188368000556,324.8201065999456,324.3188368000556,324.8201065999456,324.3188368000556,None,,,,,,,,,,,,,,,,,,,,,,,,,,,,,,,,,,,,,,,,,,11029,001,2024_Jan_10_1554,nback,2021.2.3,59.580872352903306,
2-back,instructions\back-2.png,conditions\2back-p.xlsx,instructions\2-BACK.png,"(25, 15)",practice,2,3,stim\gray.png,stim\gray.png,stim\yellow.png,stim\gray.png,up,1,0,1,0,0,2,2,2,0,2,2,2,,,,,,,,,,,,,,,,,,,,,,,,,,,325.82081820000894,326.82271929993294,325.82081820000894,326.82271929993294,325.82081820000894,326.82271929993294,325.82081820000894,326.82271929993294,up,1,0.16954319993965328,325.82081820000894,None,325.82081820000894,None,325.82081820000894,326.3224309999496,325.82081820000894,326.3224309999496,325.82081820000894,326.3224309999496,325.82081820000894,326.3224309999496,325.82081820000894,None,,,,,,,,,,,,,,,,,,,,,,,,,,,,,,,,,,,,,,,,,,11029,001,2024_Jan_10_1554,nback,2021.2.3,59.580872352903306,
2-back,instructions\back-2.png,conditions\2back-p.xlsx,instructions\2-BACK.png,"(25, 15)",practice,2,4,stim\gray.png,stim\gray.png,stim\gray.png,stim\yellow.png,left,1,0,1,0,0,2,2,2,0,3,3,3,,,,,,,,,,,,,,,,,,,,,,,,,,,327.32312369998544,328.3254929999821,327.32312369998544,328.3254929999821,327.32312369998544,328.3254929999821,327.32312369998544,328.3254929999821,left,1,0.17114949994720519,327.32312369998544,None,327.32312369998544,None,327.32312369998544,327.8243247999344,327.32312369998544,327.8243247999344,327.32312369998544,327.8243247999344,327.32312369998544,327.8243247999344,327.32312369998544,None,,,,,,,,,,,,,,,,,,,,,,,,,,,,,,,,,,,,,,,,,,11029,001,2024_Jan_10_1554,nback,2021.2.3,59.580872352903306,
2-back,instructions\back-2.png,conditions\2back-p.xlsx,instructions\2-BACK.png,"(25, 15)",practice,2,2,stim\gray.png,stim\yellow.png,stim\gray.png,stim\gray.png,right,1,0,1,0,0,2,2,2,0,4,4,4,,,,,,,,,,,,,,,,,,,,,,,,,,,328.825810899958,329.8270278000273,328.825810899958,329.8270278000273,328.825810899958,329.8270278000273,328.825810899958,329.8270278000273,right,1,0.17262420011684299,328.825810899958,None,328.825810899958,None,328.825810899958,329.3260836999398,328.825810899958,329.3260836999398,328.825810899958,329.3260836999398,328.825810899958,329.3260836999398,328.825810899958,None,,,,,,,,,,,,,,,,,,,,,,,,,,,,,,,,,,,,,,,,,,11029,001,2024_Jan_10_1554,nback,2021.2.3,59.580872352903306,
2-back,instructions\back-2.png,conditions\2back-p.xlsx,instructions\2-BACK.png,"(25, 15)",practice,2,1,stim\yellow.png,stim\gray.png,stim\gray.png,stim\gray.png,down,1,0,1,0,0,2,2,2,0,5,5,5,,,,,,,,,,,,,,,,,,,,,,,,,,,330.3282532999292,331.3290939000435,330.3282532999292,331.3290939000435,330.3282532999292,331.3290939000435,330.3282532999292,331.3290939000435,down,1,0.16615110007114708,330.3282532999292,None,330.3282532999292,None,330.3282532999292,330.82851890008897,330.3282532999292,330.82851890008897,330.3282532999292,330.82851890008897,330.3282532999292,330.82851890008897,330.3282532999292,None,,,,,,,,,,,,,,,,,,,,,,,,,,,,,,,,,,,,,,,,,,11029,001,2024_Jan_10_1554,nback,2021.2.3,59.580872352903306,
2-back,instructions\back-2.png,conditions\2back-p.xlsx,instructions\2-BACK.png,"(25, 15)",practice,2,4,stim\gray.png,stim\gray.png,stim\gray.png,stim\yellow.png,left,1,0,1,0,0,2,2,2,0,6,6,6,,,,,,,,,,,,,,,,,,,,,,,,,,,331.81329769990407,332.81474360008724,331.81329769990407,332.81474360008724,331.81329769990407,332.81474360008724,331.81329769990407,332.81474360008724,up,0,1.4571105998475105,331.81329769990407,None,331.81329769990407,None,331.81329769990407,332.3139613000676,331.81329769990407,332.3139613000676,331.81329769990407,332.3139613000676,331.81329769990407,332.3139613000676,331.81329769990407,None,,,,,,,,,,,,,,,,,,,,,,,,,,,,,,,,,,,,,,,,,,11029,001,2024_Jan_10_1554,nback,2021.2.3,59.580872352903306,
2-back,instructions\back-2.png,conditions\2back-p.xlsx,instructions\2-BACK.png,"(25, 15)",practice,2,3,stim\gray.png,stim\gray.png,stim\yellow.png,stim\gray.png,up,1,0,1,0,0,2,2,2,0,7,7,7,,,,,,,,,,,,,,,,,,,,,,,,,,,333.3155350999441,334.316945400089,333.3155350999441,334.316945400089,333.3155350999441,334.316945400089,333.3155350999441,334.316945400089,None,0,,333.3155350999441,None,333.3155350999441,None,333.3155350999441,333.81668839999475,333.3155350999441,333.81668839999475,333.3155350999441,333.81668839999475,333.3155350999441,333.81668839999475,333.3155350999441,None,,,,,,,,,,,,,,,,,,,,,,,,,,,,,,,,,,,,,,,,,,11029,001,2024_Jan_10_1554,nback,2021.2.3,59.580872352903306,
2-back,instructions\back-2.png,conditions\2back-p.xlsx,instructions\2-BACK.png,"(25, 15)",practice,2,3,stim\gray.png,stim\gray.png,stim\yellow.png,stim\gray.png,down,1,0,1,0,0,2,2,2,0,8,8,8,,,,,,,,,,,,,,,,,,,,,,,,,,,334.8175673999358,335.81921819993295,334.8175673999358,335.81921819993295,334.8175673999358,335.81921819993295,334.8175673999358,335.81921819993295,right,0,1.4288141999859363,334.8175673999358,None,334.8175673999358,None,334.8175673999358,335.3185173999518,334.8175673999358,335.3185173999518,334.8175673999358,335.3185173999518,334.8175673999358,335.3185173999518,334.8175673999358,None,,,,,,,,,,,,,,,,,,,,,,,,,,,,,,,,,,,,,,,,,,11029,001,2024_Jan_10_1554,nback,2021.2.3,59.580872352903306,
2-back,instructions\back-2.png,conditions\2back-p.xlsx,instructions\2-BACK.png,"(25, 15)",practice,2,4,stim\gray.png,stim\gray.png,stim\gray.png,stim\yellow.png,right,1,0,1,0,0,2,2,2,0,9,9,9,,,,,,,,,,,,,,,,,,,,,,,,,,,336.3200997998938,337.3218624999281,336.3200997998938,337.3218624999281,336.3200997998938,337.3218624999281,336.3200997998938,337.3218624999281,None,0,,336.3200997998938,None,336.3200997998938,None,336.3200997998938,336.8206130999606,336.3200997998938,336.8206130999606,336.3200997998938,336.8206130999606,336.3200997998938,336.8206130999606,336.3200997998938,None,,,,,,,,,,,,,,,,,,,,,,,,,,,,,,,,,,,,,,,,,,11029,001,2024_Jan_10_1554,nback,2021.2.3,59.580872352903306,
2-back,instructions\back-2.png,conditions\2back-p.xlsx,instructions\2-BACK.png,"(25, 15)",practice,2,1,stim\yellow.png,stim\gray.png,stim\gray.png,stim\gray.png,right,1,0,1,0,0,2,2,2,0,10,10,10,,,,,,,,,,,,,,,,,,,,,,,,,,,337.8220810999628,338.82446700008586,337.8220810999628,338.82446700008586,337.8220810999628,338.82446700008586,337.8220810999628,338.82446700008586,down,0,1.3923312998376787,337.8220810999628,None,337.8220810999628,None,337.8220810999628,338.3238576001022,337.8220810999628,338.3238576001022,337.8220810999628,338.3238576001022,337.8220810999628,338.3238576001022,337.8220810999628,None,,,,,,,,,,,,,,,,,,,,,,,,,,,,,,,,,,,,,,,,,,11029,001,2024_Jan_10_1554,nback,2021.2.3,59.580872352903306,
2-back,instructions\back-2.png,conditions\2back-p.xlsx,instructions\2-BACK.png,"(25, 15)",practice,2,2,stim\gray.png,stim\yellow.png,stim\gray.png,stim\gray.png,down,1,0,1,0,0,2,2,2,0,11,11,11,,,,,,,,,,,,,,,,,,,,,,,,,,,339.32443960011005,340.32643330004066,339.32443960011005,340.32643330004066,339.32443960011005,340.32643330004066,339.32443960011005,340.32643330004066,up,0,1.3939596998970956,339.32443960011005,None,339.32443960011005,None,339.32443960011005,339.82503130007535,339.32443960011005,339.82503130007535,339.32443960011005,339.82503130007535,339.32443960011005,339.82503130007535,339.32443960011005,None,,,,,,,,,,,,,,,,,,,,,,,,,,,,,,,,,,,,,,,,,,11029,001,2024_Jan_10_1554,nback,2021.2.3,59.580872352903306,
2-back,instructions\back-2.png,conditions\2back-p.xlsx,instructions\2-BACK.png,"(25, 15)",practice,2,4,stim\gray.png,stim\gray.png,stim\gray.png,stim\yellow.png,up,1,0,1,0,0,2,2,2,0,12,12,12,,,,,,,,,,,,,,,,,,,,,,,,,,,340.8265996000264,341.8280527999159,340.8265996000264,341.8280527999159,340.8265996000264,341.8280527999159,340.8265996000264,341.8280527999159,left,0,1.4598992001265287,340.8265996000264,None,340.8265996000264,None,340.8265996000264,341.32745909993537,340.8265996000264,341.32745909993537,340.8265996000264,341.32745909993537,340.8265996000264,341.32745909993537,340.8265996000264,None,,,,,,,,,,,,,,,,,,,,,,,,,,,,,,,,,,,,,,,,,,11029,001,2024_Jan_10_1554,nback,2021.2.3,59.580872352903306,
2-back,instructions\back-2.png,conditions\2back-p.xlsx,instructions\2-BACK.png,"(25, 15)",practice,2,3,stim\gray.png,stim\gray.png,stim\yellow.png,stim\gray.png,left,1,0,1,0,0,2,2,2,0,13,13,13,,,,,,,,,,,,,,,,,,,,,,,,,,,342.32930539990775,343.3304236999247,342.32930539990775,343.3304236999247,342.32930539990775,343.3304236999247,342.32930539990775,343.3304236999247,None,0,,342.32930539990775,None,342.32930539990775,None,342.32930539990775,342.82959500001743,342.32930539990775,342.82959500001743,342.32930539990775,342.82959500001743,342.32930539990775,342.82959500001743,342.32930539990775,None,,,,,,,,,,,,,,,,,,,,,,,,,,,,,,,,,,,,,,,,,,11029,001,2024_Jan_10_1554,nback,2021.2.3,59.580872352903306,
2-back,instructions\back-2.png,conditions\2back-p.xlsx,instructions\2-BACK.png,"(25, 15)",practice,2,1,stim\yellow.png,stim\gray.png,stim\gray.png,stim\gray.png,down,1,0,1,0,0,2,2,2,0,14,14,14,,,,,,,,,,,,,,,,,,,,,,,,,,,343.81417199992575,344.8162456001155,343.81417199992575,344.8162456001155,343.81417199992575,344.8162456001155,343.81417199992575,344.8162456001155,right,0,1.2967051998712122,343.81417199992575,None,343.81417199992575,None,343.81417199992575,344.31712280004285,343.81417199992575,344.31712280004285,343.81417199992575,344.31712280004285,343.81417199992575,344.31712280004285,343.81417199992575,None,,,,,,,,,,,,,,,,,,,,,,,,,,,,,,,,,,,,,,,,,,11029,001,2024_Jan_10_1554,nback,2021.2.3,59.580872352903306,
2-back,instructions\back-2.png,conditions\2back-p.xlsx,instructions\2-BACK.png,"(25, 15)",practice,2,2,stim\gray.png,stim\yellow.png,stim\gray.png,stim\gray.png,right,1,0,1,0,0,2,2,2,0,15,15,15,,,,,,,,,,,,,,,,,,,,,,,,,,,345.3165059001185,346.3181710001081,345.3165059001185,346.3181710001081,345.3165059001185,346.3181710001081,345.3165059001185,346.3181710001081,up,0,1.418399500194937,345.3165059001185,None,345.3165059001185,None,345.3165059001185,345.8172816000879,345.3165059001185,345.8172816000879,345.3165059001185,345.8172816000879,345.3165059001185,345.8172816000879,345.3165059001185,None,,,,,,,,,,,,,,,,,,,,,,,,,,,,,,,,,,,,,,,,,,11029,001,2024_Jan_10_1554,nback,2021.2.3,59.580872352903306,
2-back,instructions\back-2.png,conditions\2back-p.xlsx,instructions\2-BACK.png,"(25, 15)",practice,2,3,stim\gray.png,stim\gray.png,stim\yellow.png,stim\gray.png,up,1,0,1,0,0,2,2,2,0,16,16,16,,,,,,,,,,,,,,,,,,,,,,,,,,,346.81880369991995,347.82072170008905,346.81880369991995,347.82072170008905,346.81880369991995,347.82072170008905,346.81880369991995,347.82072170008905,left,0,1.4358277001883835,346.81880369991995,None,346.81880369991995,None,346.81880369991995,347.31943770009093,346.81880369991995,347.31943770009093,346.81880369991995,347.31943770009093,346.81880369991995,347.31943770009093,346.81880369991995,None,,,,,,,,,,,,,,,,,,,,,,,,,,,,,,,,,,,,,,,,,,11029,001,2024_Jan_10_1554,nback,2021.2.3,59.580872352903306,
2-back,instructions\back-2.png,conditions\2back-p.xlsx,instructions\2-BACK.png,"(25, 15)",practice,2,1,stim\yellow.png,stim\gray.png,stim\gray.png,stim\gray.png,left,1,0,1,0,0,2,2,2,0,17,17,17,,,,,,,,,,,,,,,,,,,,,,,,,,,348.3210674999282,349.3224168999586,348.3210674999282,349.3224168999586,348.3210674999282,349.3224168999586,348.3210674999282,349.3224168999586,None,0,,348.3210674999282,None,348.3210674999282,None,348.3210674999282,348.8223542000633,348.3210674999282,348.8223542000633,348.3210674999282,348.8223542000633,348.3210674999282,348.8223542000633,348.3210674999282,None,,,,,,,,,,,,,,,,,,,,,,,,,,,,,,,,,,,,,,,,,,11029,001,2024_Jan_10_1554,nback,2021.2.3,59.580872352903306,
2-back,instructions\back-2.png,conditions\2back-p.xlsx,instructions\2-BACK.png,"(25, 15)",practice,2,4,stim\gray.png,stim\gray.png,stim\gray.png,stim\yellow.png,right,1,0,1,0,0,2,2,2,0,18,18,18,,,,,,,,,,,,,,,,,,,,,,,,,,,349.8231045999564,350.8254176999908,349.8231045999564,350.8254176999908,349.8231045999564,350.8254176999908,349.8231045999564,350.8254176999908,up,0,1.4474830999970436,349.8231045999564,None,349.8231045999564,None,349.8231045999564,350.32509599998593,349.8231045999564,350.32509599998593,349.8231045999564,350.32509599998593,349.8231045999564,350.32509599998593,349.8231045999564,None,,,,,,,,,,,,,,,,,,,,,,,,,,,,,,,,,,,,,,,,,,11029,001,2024_Jan_10_1554,nback,2021.2.3,59.580872352903306,
2-back,instructions\back-2.png,conditions\2back-p.xlsx,instructions\2-BACK.png,"(25, 15)",practice,2,2,stim\gray.png,stim\yellow.png,stim\gray.png,stim\gray.png,up,1,0,1,0,0,2,2,2,0,19,19,19,,,,,,,,,,,,,,,,,,,,,,,,,,,351.32593269995414,352.32697269995697,351.32593269995414,352.32697269995697,351.32593269995414,352.32697269995697,351.32593269995414,352.32697269995697,None,0,,351.32593269995414,None,351.32593269995414,None,351.32593269995414,351.82631639996544,351.32593269995414,351.82631639996544,351.32593269995414,351.82631639996544,351.32593269995414,351.82631639996544,351.32593269995414,None,,,,,,,,,,,,,,,,,,,,,,,,,,,,,,,,,,,,,,,,,,11029,001,2024_Jan_10_1554,nback,2021.2.3,59.580872352903306,
2-back,instructions\back-2.png,conditions\2back-p.xlsx,instructions\2-BACK.png,"(25, 15)",,,,,,,,,1,0,1,0,0,2,2,2,,,,,,,,,,,,,,,,,,,,,,,,,,,,,,,,,,,,,,,,,,,,,,,,,,,,,,,,,,,,,,,,,,,,,,,,,,,,,,,,,,,,,,,,,,,,,,,,,11029,001,2024_Jan_10_1554,nback,2021.2.3,59.580872352903306,
,,,,,,,,,,,,,1,0,1,0,,,,,,,,,,,,,,,,,,,,,,,,,,,,,,,,,,,,,,,,,,,,,,,,,,,,,,,,,,,,352.8277084999718,None,space,5.802837600000203,352.8277084999718,None,,,,,,,,,,,,,,,,,,,,,,,,,,,,,,,,,,,,11029,001,2024_Jan_10_1554,nback,2021.2.3,59.580872352903306,
,,,,,,,,,,,,,,,,,,,,,,,,,,,,,,,,,,,,,,,,,,,,,,,,,,,,,,,,,,,,,,,,,,,,,,,,,,,,,,,,,,358.6528710999992,None,space,55.08194659999572,358.6528710999992,None,,,,,,,,,,,,,,,,,,,,,,,,,,,,,,11029,001,2024_Jan_10_1554,nback,2021.2.3,59.580872352903306,
2-back,instructions\back-2.png,conditions\24back-e.xlsx,,,experiment,2,1,stim\yellow.png,stim\gray.png,stim\gray.png,stim\gray.png,None,,,,,,,,,,,,,0,0,0,12,0,0,0,0,,,,,,,,,,,,,,,413.90145100001246,418.4091628000606,418.37483399990015,None,,,,,,,,,,,,,,,,,,,,,,,,,,,,,,,,,,,,,,None,1,418.77555679995567,None,418.77555679995567,None,418.77555679995567,419.7775163000915,418.77555679995567,419.7775163000915,418.77555679995567,419.7775163000915,418.77555679995567,419.7775163000915,418.77555679995567,419.27639249991626,418.77555679995567,419.27639249991626,418.77555679995567,419.27639249991626,418.77555679995567,419.27639249991626,418.77555679995567,None,,,,,,11029,001,2024_Jan_10_1554,nback,2021.2.3,59.580872352903306,
2-back,instructions\back-2.png,conditions\24back-e.xlsx,,,experiment,2,2,stim\gray.png,stim\yellow.png,stim\gray.png,stim\gray.png,None,,,,,,,,,,,,,0,0,0,12,0,1,1,1,,,,,,,,,,,,,,,,,,,,,,,,,,,,,,,,,,,,,,,,,,,,,,,,,,,,,,,,up,0,420.2610329000745,None,420.2610329000745,None,420.2610329000745,421.2624774000142,420.2610329000745,421.2624774000142,420.2610329000745,421.2624774000142,420.2610329000745,421.2624774000142,420.2610329000745,420.76244609989226,420.2610329000745,420.76244609989226,420.2610329000745,420.76244609989226,420.2610329000745,420.76244609989226,420.2610329000745,None,1.4415029999800026,,,,,11029,001,2024_Jan_10_1554,nback,2021.2.3,59.580872352903306,
2-back,instructions\back-2.png,conditions\24back-e.xlsx,,,experiment,2,1,stim\yellow.png,stim\gray.png,stim\gray.png,stim\gray.png,up,,,,,,,,,,,,,0,0,0,12,0,2,2,2,,,,,,,,,,,,,,,,,,,,,,,,,,,,,,,,,,,,,,,,,,,,,,,,,,,,,,,,None,0,421.76344639994204,None,421.76344639994204,None,421.76344639994204,422.76467279996723,421.76344639994204,422.76467279996723,421.76344639994204,422.76467279996723,421.76344639994204,422.76467279996723,421.76344639994204,422.2640418999363,421.76344639994204,422.2640418999363,421.76344639994204,422.2640418999363,421.76344639994204,422.2640418999363,421.76344639994204,None,,,,,,11029,001,2024_Jan_10_1554,nback,2021.2.3,59.580872352903306,
2-back,instructions\back-2.png,conditions\24back-e.xlsx,,,experiment,2,4,stim\gray.png,stim\gray.png,stim\gray.png,stim\yellow.png,left,,,,,,,,,,,,,0,0,0,12,0,3,3,3,,,,,,,,,,,,,,,,,,,,,,,,,,,,,,,,,,,,,,,,,,,,,,,,,,,,,,,,None,0,423.2654667000752,None,423.2654667000752,None,423.2654667000752,424.2671743000392,423.2654667000752,424.2671743000392,423.2654667000752,424.2671743000392,423.2654667000752,424.2671743000392,423.2654667000752,423.7664379000198,423.2654667000752,423.7664379000198,423.2654667000752,423.7664379000198,423.2654667000752,423.7664379000198,423.2654667000752,None,,,,,,11029,001,2024_Jan_10_1554,nback,2021.2.3,59.580872352903306,
2-back,instructions\back-2.png,conditions\24back-e.xlsx,,,experiment,2,3,stim\gray.png,stim\gray.png,stim\yellow.png,stim\gray.png,up,,,,,,,,,,,,,0,0,0,12,0,4,4,4,,,,,,,,,,,,,,,,,,,,,,,,,,,,,,,,,,,,,,,,,,,,,,,,,,,,,,,,up,1,424.7677116000559,None,424.7677116000559,None,424.7677116000559,425.76954620005563,424.7677116000559,425.76954620005563,424.7677116000559,425.76954620005563,424.7677116000559,425.76954620005563,424.7677116000559,425.2692797000054,424.7677116000559,425.2692797000054,424.7677116000559,425.2692797000054,424.7677116000559,425.2692797000054,424.7677116000559,None,0.18328359979204834,,,,,11029,001,2024_Jan_10_1554,nback,2021.2.3,59.580872352903306,
2-back,instructions\back-2.png,conditions\24back-e.xlsx,,,experiment,2,4,stim\gray.png,stim\gray.png,stim\gray.png,stim\yellow.png,down,,,,,,,,,,,,,0,0,0,12,0,5,5,5,,,,,,,,,,,,,,,,,,,,,,,,,,,,,,,,,,,,,,,,,,,,,,,,,,,,,,,,down,1,426.26983250002377,None,426.26983250002377,None,426.26983250002377,427.2715497999452,426.26983250002377,427.2715497999452,426.26983250002377,427.2715497999452,426.26983250002377,427.2715497999452,426.26983250002377,426.7708030999638,426.26983250002377,426.7708030999638,426.26983250002377,426.7708030999638,426.26983250002377,426.7708030999638,426.26983250002377,None,0.2011581000406295,,,,,11029,001,2024_Jan_10_1554,nback,2021.2.3,59.580872352903306,
2-back,instructions\back-2.png,conditions\24back-e.xlsx,,,experiment,2,3,stim\gray.png,stim\gray.png,stim\yellow.png,stim\gray.png,right,,,,,,,,,,,,,0,0,0,12,0,6,6,6,,,,,,,,,,,,,,,,,,,,,,,,,,,,,,,,,,,,,,,,,,,,,,,,,,,,,,,,right,1,427.7553942000959,None,427.7553942000959,None,427.7553942000959,428.75680329999886,427.7553942000959,428.75680329999886,427.7553942000959,428.75680329999886,427.7553942000959,428.75680329999886,427.7553942000959,428.2560632999521,427.7553942000959,428.2560632999521,427.7553942000959,428.2560632999521,427.7553942000959,428.2560632999521,427.7553942000959,None,0.28463139990344644,,,,,11029,001,2024_Jan_10_1554,nback,2021.2.3,59.580872352903306,
2-back,instructions\back-2.png,conditions\24back-e.xlsx,,,experiment,2,2,stim\gray.png,stim\yellow.png,stim\gray.png,stim\gray.png,down,,,,,,,,,,,,,0,0,0,12,0,7,7,7,,,,,,,,,,,,,,,,,,,,,,,,,,,,,,,,,,,,,,,,,,,,,,,,,,,,,,,,down,1,429.25775000010617,None,429.25775000010617,None,429.25775000010617,430.2591180000454,429.25775000010617,430.2591180000454,429.25775000010617,430.2591180000454,429.25775000010617,430.2591180000454,429.25775000010617,429.7589523999486,429.25775000010617,429.7589523999486,429.25775000010617,429.7589523999486,429.25775000010617,429.7589523999486,429.25775000010617,None,0.19728259998373687,,,,,11029,001,2024_Jan_10_1554,nback,2021.2.3,59.580872352903306,
2-back,instructions\back-2.png,conditions\24back-e.xlsx,,,experiment,2,4,stim\gray.png,stim\gray.png,stim\gray.png,stim\yellow.png,right,,,,,,,,,,,,,0,0,0,12,0,8,8,8,,,,,,,,,,,,,,,,,,,,,,,,,,,,,,,,,,,,,,,,,,,,,,,,,,,,,,,,right,1,430.75977919995785,None,430.75977919995785,None,430.75977919995785,431.7614408999216,430.75977919995785,431.7614408999216,430.75977919995785,431.7614408999216,430.75977919995785,431.7614408999216,430.75977919995785,431.26055769994855,430.75977919995785,431.26055769994855,430.75977919995785,431.26055769994855,430.75977919995785,431.26055769994855,430.75977919995785,None,0.19074660004116595,,,,,11029,001,2024_Jan_10_1554,nback,2021.2.3,59.580872352903306,
2-back,instructions\back-2.png,conditions\24back-e.xlsx,,,experiment,2,1,stim\yellow.png,stim\gray.png,stim\gray.png,stim\gray.png,left,,,,,,,,,,,,,0,0,0,12,0,9,9,9,,,,,,,,,,,,,,,,,,,,,,,,,,,,,,,,,,,,,,,,,,,,,,,,,,,,,,,,left,1,432.26266549993306,None,432.26266549993306,None,432.26266549993306,433.26365029998124,432.26266549993306,433.26365029998124,432.26266549993306,433.26365029998124,432.26266549993306,433.26365029998124,432.26266549993306,432.7627197999973,432.26266549993306,432.7627197999973,432.26266549993306,432.7627197999973,432.26266549993306,432.7627197999973,432.26266549993306,None,0.22423329995945096,,,,,11029,001,2024_Jan_10_1554,nback,2021.2.3,59.580872352903306,
2-back,instructions\back-2.png,conditions\24back-e.xlsx,,,experiment,2,3,stim\gray.png,stim\gray.png,stim\yellow.png,stim\gray.png,down,,,,,,,,,,,,,0,0,0,12,0,10,10,10,,,,,,,,,,,,,,,,,,,,,,,,,,,,,,,,,,,,,,,,,,,,,,,,,,,,,,,,down,1,433.76475189998746,None,433.76475189998746,None,433.76475189998746,434.76580730010755,433.76475189998746,434.76580730010755,433.76475189998746,434.76580730010755,433.76475189998746,434.76580730010755,433.76475189998746,434.2649628999643,433.76475189998746,434.2649628999643,433.76475189998746,434.2649628999643,433.76475189998746,434.2649628999643,433.76475189998746,None,0.20170870004221797,,,,,11029,001,2024_Jan_10_1554,nback,2021.2.3,59.580872352903306,
2-back,instructions\back-2.png,conditions\24back-e.xlsx,,,experiment,2,1,stim\yellow.png,stim\gray.png,stim\gray.png,stim\gray.png,up,,,,,,,,,,,,,0,0,0,12,0,11,11,11,,,,,,,,,,,,,,,,,,,,,,,,,,,,,,,,,,,,,,,,,,,,,,,,,,,,,,,,down,0,435.2669377999846,None,435.2669377999846,None,435.2669377999846,436.26789849996567,435.2669377999846,436.26789849996567,435.2669377999846,436.26789849996567,435.2669377999846,436.26789849996567,435.2669377999846,435.7683065000456,435.2669377999846,435.7683065000456,435.2669377999846,435.7683065000456,435.2669377999846,435.7683065000456,435.2669377999846,None,0.3561293000821024,,,,,11029,001,2024_Jan_10_1554,nback,2021.2.3,59.580872352903306,
2-back,instructions\back-2.png,conditions\24back-e.xlsx,,,experiment,2,2,stim\gray.png,stim\yellow.png,stim\gray.png,stim\gray.png,right,,,,,,,,,,,,,0,0,0,12,0,12,12,12,,,,,,,,,,,,,,,,,,,,,,,,,,,,,,,,,,,,,,,,,,,,,,,,,,,,,,,,up,0,436.7688563999254,None,436.7688563999254,None,436.7688563999254,437.77106670010835,436.7688563999254,437.77106670010835,436.7688563999254,437.77106670010835,436.7688563999254,437.77106670010835,436.7688563999254,437.26973189995624,436.7688563999254,437.26973189995624,436.7688563999254,437.26973189995624,436.7688563999254,437.26973189995624,436.7688563999254,None,0.19793609995394945,,,,,11029,001,2024_Jan_10_1554,nback,2021.2.3,59.580872352903306,
2-back,instructions\back-2.png,conditions\24back-e.xlsx,,,experiment,2,4,stim\gray.png,stim\gray.png,stim\gray.png,stim\yellow.png,up,,,,,,,,,,,,,0,0,0,12,0,13,13,13,,,,,,,,,,,,,,,,,,,,,,,,,,,,,,,,,,,,,,,,,,,,,,,,,,,,,,,,right,0,438.25405310001224,None,438.25405310001224,None,438.25405310001224,439.2557200998999,438.25405310001224,439.2557200998999,438.25405310001224,439.2557200998999,438.25405310001224,439.2557200998999,438.25405310001224,438.7555980999023,438.25405310001224,438.7555980999023,438.25405310001224,438.7555980999023,438.25405310001224,438.7555980999023,438.25405310001224,None,0.08847620012238622,,,,,11029,001,2024_Jan_10_1554,nback,2021.2.3,59.580872352903306,
