backseq,backinstr,backfile,instruction,size_in,Trialtype,back,number,P1,P2,P3,P4,corrAns,trials_practice.thisRepN,trials_practice.thisTrialN,trials_practice.thisN,trials_practice.thisIndex,trials.thisRepN,trials.thisTrialN,trials.thisN,trials.thisIndex,trials_3.thisRepN,trials_3.thisTrialN,trials_3.thisN,trials_3.thisIndex,trials_2.thisRepN,trials_2.thisTrialN,trials_2.thisN,trials_2.thisIndex,trials_4.thisRepN,trials_4.thisTrialN,trials_4.thisN,trials_4.thisIndex,image.started,image.stopped,image_2.started,image_2.stopped,key_resp.keys,key_resp.rt,key_resp.started,key_resp.stopped,image_3.started,image_3.stopped,key_resp_2.keys,key_resp_2.rt,key_resp_2.started,key_resp_2.stopped,image_4.started,image_4.stopped,text.started,text.stopped,H1.started,H1.stopped,H2.started,H2.stopped,H3.started,H3.stopped,H4.started,H4.stopped,key_resp_3.keys,key_resp_3.corr,key_resp_3.rt,key_resp_3.started,key_resp_3.stopped,text_4.started,text_4.stopped,F1.started,F1.stopped,F2.started,F2.stopped,F3.started,F3.stopped,F4.started,F4.stopped,image_7.started,image_7.stopped,text_5.started,text_5.stopped,key_resp_6.keys,key_resp_6.rt,key_resp_6.started,key_resp_6.stopped,image_5.started,image_5.stopped,key_resp_4.keys,key_resp_4.rt,key_resp_4.started,key_resp_4.stopped,key_resp_5.keys,key_resp_5.corr,key_resp_5.started,key_resp_5.stopped,text_3.started,text_3.stopped,H1_2.started,H1_2.stopped,H2_2.started,H2_2.stopped,H3_2.started,H3_2.stopped,H4_2.started,H4_2.stopped,F1_2.started,F1_2.stopped,F2_2.started,F2_2.stopped,F3_2.started,F3_2.stopped,F4_2.started,F4_2.stopped,image_8.started,image_8.stopped,key_resp_5.rt,text_2.started,text_2.stopped,image_6.started,image_6.stopped,participant,session,date,expName,psychopyVersion,frameRate,
,,,,,,,,,,,,,,,,,,,,,,,,,,,,,,,,,10.635860899928957,None,11.604882700019516,None,space,9.157883199979551,11.604882700019516,None,,,,,,,,,,,,,,,,,,,,,,,,,,,,,,,,,,,,,,,,,,,,,,,,,,,,,,,,,,,,,,,,,,,,,,,,,,,,,11020,001,2024_Jan_05_1046,nback,2021.2.3,59.82746955288984,
0-back,instructions\back-0.png,conditions\0back-p.xlsx,instructions\0-BACK.png,"(15, 8)",practice,0,1,stim\yellow.png,stim\gray.png,stim\gray.png,stim\gray.png,up,0,0,0,0,0,0,0,0,0,0,0,0,,,,,,,,,,,,,,,,,20.817256800015457,None,space,66.66583760001231,20.817256800015457,None,87.61582309997175,92.1246515000239,92.08976709994022,None,92.52479950000998,93.52565910003614,92.52479950000998,93.52565910003614,92.52479950000998,93.52565910003614,92.52479950000998,93.52565910003614,up,1,0.5576049999799579,92.52479950000998,None,92.52479950000998,None,92.52479950000998,93.02483559993561,92.52479950000998,93.02483559993561,92.52479950000998,93.02483559993561,92.52479950000998,93.02483559993561,92.52479950000998,None,,,,,,,,,,,,,,,,,,,,,,,,,,,,,,,,,,,,,,,,,,11020,001,2024_Jan_05_1046,nback,2021.2.3,59.82746955288984,
0-back,instructions\back-0.png,conditions\0back-p.xlsx,instructions\0-BACK.png,"(15, 8)",practice,0,2,stim\gray.png,stim\yellow.png,stim\gray.png,stim\gray.png,left,0,0,0,0,0,0,0,0,0,1,1,1,,,,,,,,,,,,,,,,,,,,,,,,,,,94.00863099994604,95.01074769999832,94.00863099994604,95.01074769999832,94.00863099994604,95.01074769999832,94.00863099994604,95.01074769999832,left,1,0.4340764000080526,94.00863099994604,None,94.00863099994604,None,94.00863099994604,94.51040579995606,94.00863099994604,94.51040579995606,94.00863099994604,94.51040579995606,94.00863099994604,94.51040579995606,94.00863099994604,None,,,,,,,,,,,,,,,,,,,,,,,,,,,,,,,,,,,,,,,,,,11020,001,2024_Jan_05_1046,nback,2021.2.3,59.82746955288984,
0-back,instructions\back-0.png,conditions\0back-p.xlsx,instructions\0-BACK.png,"(15, 8)",practice,0,3,stim\gray.png,stim\gray.png,stim\yellow.png,stim\gray.png,right,0,0,0,0,0,0,0,0,0,2,2,2,,,,,,,,,,,,,,,,,,,,,,,,,,,95.51145859993994,96.51276429998688,95.51145859993994,96.51276429998688,95.51145859993994,96.51276429998688,95.51145859993994,96.51276429998688,right,1,0.3868796000024304,95.51145859993994,None,95.51145859993994,None,95.51145859993994,96.01274799997918,95.51145859993994,96.01274799997918,95.51145859993994,96.01274799997918,95.51145859993994,96.01274799997918,95.51145859993994,None,,,,,,,,,,,,,,,,,,,,,,,,,,,,,,,,,,,,,,,,,,11020,001,2024_Jan_05_1046,nback,2021.2.3,59.82746955288984,
0-back,instructions\back-0.png,conditions\0back-p.xlsx,instructions\0-BACK.png,"(15, 8)",practice,0,4,stim\gray.png,stim\gray.png,stim\gray.png,stim\yellow.png,down,0,0,0,0,0,0,0,0,0,3,3,3,,,,,,,,,,,,,,,,,,,,,,,,,,,97.01385099999607,98.01648540003225,97.01385099999607,98.01648540003225,97.01385099999607,98.01648540003225,97.01385099999607,98.01648540003225,down,1,0.33326450001914054,97.01385099999607,None,97.01385099999607,None,97.01385099999607,97.51520289992914,97.01385099999607,97.51520289992914,97.01385099999607,97.51520289992914,97.01385099999607,97.51520289992914,97.01385099999607,None,,,,,,,,,,,,,,,,,,,,,,,,,,,,,,,,,,,,,,,,,,11020,001,2024_Jan_05_1046,nback,2021.2.3,59.82746955288984,
0-back,instructions\back-0.png,conditions\0back-p.xlsx,instructions\0-BACK.png,"(15, 8)",practice,0,2,stim\gray.png,stim\yellow.png,stim\gray.png,stim\gray.png,left,0,0,0,0,0,0,0,0,0,4,4,4,,,,,,,,,,,,,,,,,,,,,,,,,,,98.5165656999452,99.51746569992974,98.5165656999452,99.51746569992974,98.5165656999452,99.51746569992974,98.5165656999452,99.51746569992974,left,1,0.358057799981907,98.5165656999452,None,98.5165656999452,None,98.5165656999452,99.0167977999663,98.5165656999452,99.0167977999663,98.5165656999452,99.0167977999663,98.5165656999452,99.0167977999663,98.5165656999452,None,,,,,,,,,,,,,,,,,,,,,,,,,,,,,,,,,,,,,,,,,,11020,001,2024_Jan_05_1046,nback,2021.2.3,59.82746955288984,
0-back,instructions\back-0.png,conditions\0back-p.xlsx,instructions\0-BACK.png,"(15, 8)",practice,0,1,stim\yellow.png,stim\gray.png,stim\gray.png,stim\gray.png,up,0,0,0,0,0,0,0,0,0,5,5,5,,,,,,,,,,,,,,,,,,,,,,,,,,,100.01816470001359,101.0201685000211,100.01816470001359,101.0201685000211,100.01816470001359,101.0201685000211,100.01816470001359,101.0201685000211,None,0,,100.01816470001359,None,100.01816470001359,None,100.01816470001359,100.52009360003285,100.01816470001359,100.52009360003285,100.01816470001359,100.52009360003285,100.01816470001359,100.52009360003285,100.01816470001359,None,,,,,,,,,,,,,,,,,,,,,,,,,,,,,,,,,,,,,,,,,,11020,001,2024_Jan_05_1046,nback,2021.2.3,59.82746955288984,
0-back,instructions\back-0.png,conditions\0back-p.xlsx,instructions\0-BACK.png,"(15, 8)",practice,0,4,stim\gray.png,stim\gray.png,stim\gray.png,stim\yellow.png,down,0,0,0,0,0,0,0,0,0,6,6,6,,,,,,,,,,,,,,,,,,,,,,,,,,,101.52075130003504,102.52375029993709,101.52075130003504,102.52375029993709,101.52075130003504,102.52375029993709,101.52075130003504,102.52375029993709,down,1,0.4658032999141142,101.52075130003504,None,101.52075130003504,None,101.52075130003504,102.02237529994454,101.52075130003504,102.02237529994454,101.52075130003504,102.02237529994454,101.52075130003504,102.02237529994454,101.52075130003504,None,,,,,,,,,,,,,,,,,,,,,,,,,,,,,,,,,,,,,,,,,,11020,001,2024_Jan_05_1046,nback,2021.2.3,59.82746955288984,
0-back,instructions\back-0.png,conditions\0back-p.xlsx,instructions\0-BACK.png,"(15, 8)",practice,0,3,stim\gray.png,stim\gray.png,stim\yellow.png,stim\gray.png,right,0,0,0,0,0,0,0,0,0,7,7,7,,,,,,,,,,,,,,,,,,,,,,,,,,,103.0060784999514,104.00731080002151,103.0060784999514,104.00731080002151,103.0060784999514,104.00731080002151,103.0060784999514,104.00731080002151,right,1,0.6685050000669435,103.0060784999514,None,103.0060784999514,None,103.0060784999514,103.50751639995724,103.0060784999514,103.50751639995724,103.0060784999514,103.50751639995724,103.0060784999514,103.50751639995724,103.0060784999514,None,,,,,,,,,,,,,,,,,,,,,,,,,,,,,,,,,,,,,,,,,,11020,001,2024_Jan_05_1046,nback,2021.2.3,59.82746955288984,
0-back,instructions\back-0.png,conditions\0back-p.xlsx,instructions\0-BACK.png,"(15, 8)",practice,0,3,stim\gray.png,stim\gray.png,stim\yellow.png,stim\gray.png,right,0,0,0,0,0,0,0,0,0,8,8,8,,,,,,,,,,,,,,,,,,,,,,,,,,,104.50835739995819,105.51017589995172,104.50835739995819,105.51017589995172,104.50835739995819,105.51017589995172,104.50835739995819,105.51017589995172,right,1,0.3901975000044331,104.50835739995819,None,104.50835739995819,None,104.50835739995819,105.00897039996926,104.50835739995819,105.00897039996926,104.50835739995819,105.00897039996926,104.50835739995819,105.00897039996926,104.50835739995819,None,,,,,,,,,,,,,,,,,,,,,,,,,,,,,,,,,,,,,,,,,,11020,001,2024_Jan_05_1046,nback,2021.2.3,59.82746955288984,
0-back,instructions\back-0.png,conditions\0back-p.xlsx,instructions\0-BACK.png,"(15, 8)",practice,0,4,stim\gray.png,stim\gray.png,stim\gray.png,stim\yellow.png,down,0,0,0,0,0,0,0,0,0,9,9,9,,,,,,,,,,,,,,,,,,,,,,,,,,,106.01114119996782,107.01187389995903,106.01114119996782,107.01187389995903,106.01114119996782,107.01187389995903,106.01114119996782,107.01187389995903,down,1,0.40734310005791485,106.01114119996782,None,106.01114119996782,None,106.01114119996782,106.51119400002062,106.01114119996782,106.51119400002062,106.01114119996782,106.51119400002062,106.01114119996782,106.51119400002062,106.01114119996782,None,,,,,,,,,,,,,,,,,,,,,,,,,,,,,,,,,,,,,,,,,,11020,001,2024_Jan_05_1046,nback,2021.2.3,59.82746955288984,
0-back,instructions\back-0.png,conditions\0back-p.xlsx,instructions\0-BACK.png,"(15, 8)",practice,0,1,stim\yellow.png,stim\gray.png,stim\gray.png,stim\gray.png,up,0,0,0,0,0,0,0,0,0,10,10,10,,,,,,,,,,,,,,,,,,,,,,,,,,,107.51276049995795,108.51481299998704,107.51276049995795,108.51481299998704,107.51276049995795,108.51481299998704,107.51276049995795,108.51481299998704,up,1,0.30623470002319664,107.51276049995795,None,107.51276049995795,None,107.51276049995795,108.013442400028,107.51276049995795,108.013442400028,107.51276049995795,108.013442400028,107.51276049995795,108.013442400028,107.51276049995795,None,,,,,,,,,,,,,,,,,,,,,,,,,,,,,,,,,,,,,,,,,,11020,001,2024_Jan_05_1046,nback,2021.2.3,59.82746955288984,
0-back,instructions\back-0.png,conditions\0back-p.xlsx,instructions\0-BACK.png,"(15, 8)",practice,0,2,stim\gray.png,stim\yellow.png,stim\gray.png,stim\gray.png,left,0,0,0,0,0,0,0,0,0,11,11,11,,,,,,,,,,,,,,,,,,,,,,,,,,,109.01489550003316,110.01629309996497,109.01489550003316,110.01629309996497,109.01489550003316,110.01629309996497,109.01489550003316,110.01629309996497,left,1,0.26772210001945496,109.01489550003316,None,109.01489550003316,None,109.01489550003316,109.5160192999756,109.01489550003316,109.5160192999756,109.01489550003316,109.5160192999756,109.01489550003316,109.5160192999756,109.01489550003316,None,,,,,,,,,,,,,,,,,,,,,,,,,,,,,,,,,,,,,,,,,,11020,001,2024_Jan_05_1046,nback,2021.2.3,59.82746955288984,
0-back,instructions\back-0.png,conditions\0back-p.xlsx,instructions\0-BACK.png,"(15, 8)",practice,0,4,stim\gray.png,stim\gray.png,stim\gray.png,stim\yellow.png,down,0,0,0,0,0,0,0,0,0,12,12,12,,,,,,,,,,,,,,,,,,,,,,,,,,,110.51704429998063,111.51925020001363,110.51704429998063,111.51925020001363,110.51704429998063,111.51925020001363,110.51704429998063,111.51925020001363,down,1,0.3176543000154197,110.51704429998063,None,110.51704429998063,None,110.51704429998063,111.01878949999809,110.51704429998063,111.01878949999809,110.51704429998063,111.01878949999809,110.51704429998063,111.01878949999809,110.51704429998063,None,,,,,,,,,,,,,,,,,,,,,,,,,,,,,,,,,,,,,,,,,,11020,001,2024_Jan_05_1046,nback,2021.2.3,59.82746955288984,
0-back,instructions\back-0.png,conditions\0back-p.xlsx,instructions\0-BACK.png,"(15, 8)",practice,0,3,stim\gray.png,stim\gray.png,stim\yellow.png,stim\gray.png,right,0,0,0,0,0,0,0,0,0,13,13,13,,,,,,,,,,,,,,,,,,,,,,,,,,,112.01946560002398,113.02153289993294,112.01946560002398,113.02153289993294,112.01946560002398,113.02153289993294,112.01946560002398,113.02153289993294,right,1,0.3110827000346035,112.01946560002398,None,112.01946560002398,None,112.01946560002398,112.52111540001351,112.01946560002398,112.52111540001351,112.01946560002398,112.52111540001351,112.01946560002398,112.52111540001351,112.01946560002398,None,,,,,,,,,,,,,,,,,,,,,,,,,,,,,,,,,,,,,,,,,,11020,001,2024_Jan_05_1046,nback,2021.2.3,59.82746955288984,
0-back,instructions\back-0.png,conditions\0back-p.xlsx,instructions\0-BACK.png,"(15, 8)",practice,0,1,stim\yellow.png,stim\gray.png,stim\gray.png,stim\gray.png,up,0,0,0,0,0,0,0,0,0,14,14,14,,,,,,,,,,,,,,,,,,,,,,,,,,,113.50484559999313,114.50612709997222,113.50484559999313,114.50612709997222,113.50484559999313,114.50612709997222,113.50484559999313,114.50612709997222,up,1,0.3375367000699043,113.50484559999313,None,113.50484559999313,None,113.50484559999313,114.00586249993648,113.50484559999313,114.00586249993648,113.50484559999313,114.00586249993648,113.50484559999313,114.00586249993648,113.50484559999313,None,,,,,,,,,,,,,,,,,,,,,,,,,,,,,,,,,,,,,,,,,,11020,001,2024_Jan_05_1046,nback,2021.2.3,59.82746955288984,
0-back,instructions\back-0.png,conditions\0back-p.xlsx,instructions\0-BACK.png,"(15, 8)",practice,0,2,stim\gray.png,stim\yellow.png,stim\gray.png,stim\gray.png,left,0,0,0,0,0,0,0,0,0,15,15,15,,,,,,,,,,,,,,,,,,,,,,,,,,,115.00741039996501,116.01027339999564,115.00741039996501,116.01027339999564,115.00741039996501,116.01027339999564,115.00741039996501,116.01027339999564,left,1,0.29103030008263886,115.00741039996501,None,115.00741039996501,None,115.00741039996501,115.50788319995627,115.00741039996501,115.50788319995627,115.00741039996501,115.50788319995627,115.00741039996501,115.50788319995627,115.00741039996501,None,,,,,,,,,,,,,,,,,,,,,,,,,,,,,,,,,,,,,,,,,,11020,001,2024_Jan_05_1046,nback,2021.2.3,59.82746955288984,
0-back,instructions\back-0.png,conditions\0back-p.xlsx,instructions\0-BACK.png,"(15, 8)",practice,0,3,stim\gray.png,stim\gray.png,stim\yellow.png,stim\gray.png,right,0,0,0,0,0,0,0,0,0,16,16,16,,,,,,,,,,,,,,,,,,,,,,,,,,,116.50941359996796,117.51122169999871,116.50941359996796,117.51122169999871,116.50941359996796,117.51122169999871,116.50941359996796,117.51122169999871,None,0,,116.50941359996796,None,116.50941359996796,None,116.50941359996796,117.01065159996506,116.50941359996796,117.01065159996506,116.50941359996796,117.01065159996506,116.50941359996796,117.01065159996506,116.50941359996796,None,,,,,,,,,,,,,,,,,,,,,,,,,,,,,,,,,,,,,,,,,,11020,001,2024_Jan_05_1046,nback,2021.2.3,59.82746955288984,
0-back,instructions\back-0.png,conditions\0back-p.xlsx,instructions\0-BACK.png,"(15, 8)",practice,0,1,stim\yellow.png,stim\gray.png,stim\gray.png,stim\gray.png,up,0,0,0,0,0,0,0,0,0,17,17,17,,,,,,,,,,,,,,,,,,,,,,,,,,,118.01148430001922,119.01308669999707,118.01148430001922,119.01308669999707,118.01148430001922,119.01308669999707,118.01148430001922,119.01308669999707,up,1,0.3029736999887973,118.01148430001922,None,118.01148430001922,None,118.01148430001922,118.51312280003913,118.01148430001922,118.51312280003913,118.01148430001922,118.51312280003913,118.01148430001922,118.51312280003913,118.01148430001922,None,,,,,,,,,,,,,,,,,,,,,,,,,,,,,,,,,,,,,,,,,,11020,001,2024_Jan_05_1046,nback,2021.2.3,59.82746955288984,
0-back,instructions\back-0.png,conditions\0back-p.xlsx,instructions\0-BACK.png,"(15, 8)",practice,0,4,stim\gray.png,stim\gray.png,stim\gray.png,stim\yellow.png,down,0,0,0,0,0,0,0,0,0,18,18,18,,,,,,,,,,,,,,,,,,,,,,,,,,,119.51508109993301,120.51522229996044,119.51508109993301,120.51522229996044,119.51508109993301,120.51522229996044,119.51508109993301,120.51522229996044,down,1,0.4556994999293238,119.51508109993301,None,119.51508109993301,None,119.51508109993301,120.01451939996332,119.51508109993301,120.01451939996332,119.51508109993301,120.01451939996332,119.51508109993301,120.01451939996332,119.51508109993301,None,,,,,,,,,,,,,,,,,,,,,,,,,,,,,,,,,,,,,,,,,,11020,001,2024_Jan_05_1046,nback,2021.2.3,59.82746955288984,
0-back,instructions\back-0.png,conditions\0back-p.xlsx,instructions\0-BACK.png,"(15, 8)",practice,0,2,stim\gray.png,stim\yellow.png,stim\gray.png,stim\gray.png,left,0,0,0,0,0,0,0,0,0,19,19,19,,,,,,,,,,,,,,,,,,,,,,,,,,,121.01598140003625,122.01827260002028,121.01598140003625,122.01827260002028,121.01598140003625,122.01827260002028,121.01598140003625,122.01827260002028,left,1,0.3308000999968499,121.01598140003625,None,121.01598140003625,None,121.01598140003625,121.51671719993465,121.01598140003625,121.51671719993465,121.01598140003625,121.51671719993465,121.01598140003625,121.51671719993465,121.01598140003625,None,,,,,,,,,,,,,,,,,,,,,,,,,,,,,,,,,,,,,,,,,,11020,001,2024_Jan_05_1046,nback,2021.2.3,59.82746955288984,
0-back,instructions\back-0.png,conditions\0back-p.xlsx,instructions\0-BACK.png,"(15, 8)",,,,,,,,,0,0,0,0,0,0,0,0,,,,,,,,,,,,,,,,,,,,,,,,,,,,,,,,,,,,,,,,,,,,,,,,,,,,,,,,,,,,,,,,,,,,,,,,,,,,,,,,,,,,,,,,,,,,,,,,,11020,001,2024_Jan_05_1046,nback,2021.2.3,59.82746955288984,
1-back,instructions\back-1.png,conditions\1back-p.xlsx,instructions\1-BACK.png,"(25, 15)",practice,1,1,stim\yellow.png,stim\gray.png,stim\gray.png,stim\gray.png,None,0,0,0,0,0,1,1,1,0,0,0,0,,,,,,,,,,,,,,,,,122.63586539996322,None,space,4.207006399985403,122.63586539996322,None,126.9590465000365,131.46705989993643,131.43193239998072,None,131.8832401999971,132.88446780003142,131.8832401999971,132.88446780003142,131.8832401999971,132.88446780003142,131.8832401999971,132.88446780003142,None,1,,131.8832401999971,None,131.8832401999971,None,131.8832401999971,132.38309130002744,131.8832401999971,132.38309130002744,131.8832401999971,132.38309130002744,131.8832401999971,132.38309130002744,131.8832401999971,None,,,,,,,,,,,,,,,,,,,,,,,,,,,,,,,,,,,,,,,,,,11020,001,2024_Jan_05_1046,nback,2021.2.3,59.82746955288984,
1-back,instructions\back-1.png,conditions\1back-p.xlsx,instructions\1-BACK.png,"(25, 15)",practice,1,2,stim\gray.png,stim\yellow.png,stim\gray.png,stim\gray.png,up,0,0,0,0,0,1,1,1,0,1,1,1,,,,,,,,,,,,,,,,,,,,,,,,,,,133.36756000004243,134.36924859997816,133.36756000004243,134.36924859997816,133.36756000004243,134.36924859997816,133.36756000004243,134.36924859997816,up,1,0.3228619999717921,133.36756000004243,None,133.36756000004243,None,133.36756000004243,133.86860259994864,133.36756000004243,133.86860259994864,133.36756000004243,133.86860259994864,133.36756000004243,133.86860259994864,133.36756000004243,None,,,,,,,,,,,,,,,,,,,,,,,,,,,,,,,,,,,,,,,,,,11020,001,2024_Jan_05_1046,nback,2021.2.3,59.82746955288984,
1-back,instructions\back-1.png,conditions\1back-p.xlsx,instructions\1-BACK.png,"(25, 15)",practice,1,3,stim\gray.png,stim\gray.png,stim\yellow.png,stim\gray.png,left,0,0,0,0,0,1,1,1,0,2,2,2,,,,,,,,,,,,,,,,,,,,,,,,,,,134.8697009999305,135.87199689995032,134.8697009999305,135.87199689995032,134.8697009999305,135.87199689995032,134.8697009999305,135.87199689995032,left,1,0.30090809997636825,134.8697009999305,None,134.8697009999305,None,134.8697009999305,135.37089469993953,134.8697009999305,135.37089469993953,134.8697009999305,135.37089469993953,134.8697009999305,135.37089469993953,134.8697009999305,None,,,,,,,,,,,,,,,,,,,,,,,,,,,,,,,,,,,,,,,,,,11020,001,2024_Jan_05_1046,nback,2021.2.3,59.82746955288984,
1-back,instructions\back-1.png,conditions\1back-p.xlsx,instructions\1-BACK.png,"(25, 15)",practice,1,4,stim\gray.png,stim\gray.png,stim\gray.png,stim\yellow.png,right,0,0,0,0,0,1,1,1,0,3,3,3,,,,,,,,,,,,,,,,,,,,,,,,,,,136.37197580002248,137.3737175000133,136.37197580002248,137.3737175000133,136.37197580002248,137.3737175000133,136.37197580002248,137.3737175000133,None,0,,136.37197580002248,None,136.37197580002248,None,136.37197580002248,136.87267810001504,136.37197580002248,136.87267810001504,136.37197580002248,136.87267810001504,136.37197580002248,136.87267810001504,136.37197580002248,None,,,,,,,,,,,,,,,,,,,,,,,,,,,,,,,,,,,,,,,,,,11020,001,2024_Jan_05_1046,nback,2021.2.3,59.82746955288984,
1-back,instructions\back-1.png,conditions\1back-p.xlsx,instructions\1-BACK.png,"(25, 15)",practice,1,2,stim\gray.png,stim\yellow.png,stim\gray.png,stim\gray.png,down,0,0,0,0,0,1,1,1,0,4,4,4,,,,,,,,,,,,,,,,,,,,,,,,,,,137.8743844999699,138.87594790000003,137.8743844999699,138.87594790000003,137.8743844999699,138.87594790000003,137.8743844999699,138.87594790000003,down,1,0.2961712999967858,137.8743844999699,None,137.8743844999699,None,137.8743844999699,138.37566220003646,137.8743844999699,138.37566220003646,137.8743844999699,138.37566220003646,137.8743844999699,138.37566220003646,137.8743844999699,None,,,,,,,,,,,,,,,,,,,,,,,,,,,,,,,,,,,,,,,,,,11020,001,2024_Jan_05_1046,nback,2021.2.3,59.82746955288984,
1-back,instructions\back-1.png,conditions\1back-p.xlsx,instructions\1-BACK.png,"(25, 15)",practice,1,1,stim\yellow.png,stim\gray.png,stim\gray.png,stim\gray.png,left,0,0,0,0,0,1,1,1,0,5,5,5,,,,,,,,,,,,,,,,,,,,,,,,,,,139.3771833999781,140.37792739993893,139.3771833999781,140.37792739993893,139.3771833999781,140.37792739993893,139.3771833999781,140.37792739993893,left,1,0.22537630004808307,139.3771833999781,None,139.3771833999781,None,139.3771833999781,139.87739869998768,139.3771833999781,139.87739869998768,139.3771833999781,139.87739869998768,139.3771833999781,139.87739869998768,139.3771833999781,None,,,,,,,,,,,,,,,,,,,,,,,,,,,,,,,,,,,,,,,,,,11020,001,2024_Jan_05_1046,nback,2021.2.3,59.82746955288984,
1-back,instructions\back-1.png,conditions\1back-p.xlsx,instructions\1-BACK.png,"(25, 15)",practice,1,4,stim\gray.png,stim\gray.png,stim\gray.png,stim\yellow.png,up,0,0,0,0,0,1,1,1,0,6,6,6,,,,,,,,,,,,,,,,,,,,,,,,,,,140.87878599995747,141.88055839994922,140.87878599995747,141.88055839994922,140.87878599995747,141.88055839994922,140.87878599995747,141.88055839994922,up,1,0.20373040006961673,140.87878599995747,None,140.87878599995747,None,140.87878599995747,141.37953949999064,140.87878599995747,141.37953949999064,140.87878599995747,141.37953949999064,140.87878599995747,141.37953949999064,140.87878599995747,None,,,,,,,,,,,,,,,,,,,,,,,,,,,,,,,,,,,,,,,,,,11020,001,2024_Jan_05_1046,nback,2021.2.3,59.82746955288984,
1-back,instructions\back-1.png,conditions\1back-p.xlsx,instructions\1-BACK.png,"(25, 15)",practice,1,3,stim\gray.png,stim\gray.png,stim\yellow.png,stim\gray.png,down,0,0,0,0,0,1,1,1,0,7,7,7,,,,,,,,,,,,,,,,,,,,,,,,,,,142.36438699997962,143.3661111999536,142.36438699997962,143.3661111999536,142.36438699997962,143.3661111999536,142.36438699997962,143.3661111999536,down,1,0.23854240006767213,142.36438699997962,None,142.36438699997962,None,142.36438699997962,142.8650604999857,142.36438699997962,142.8650604999857,142.36438699997962,142.8650604999857,142.36438699997962,142.8650604999857,142.36438699997962,None,,,,,,,,,,,,,,,,,,,,,,,,,,,,,,,,,,,,,,,,,,11020,001,2024_Jan_05_1046,nback,2021.2.3,59.82746955288984,
1-back,instructions\back-1.png,conditions\1back-p.xlsx,instructions\1-BACK.png,"(25, 15)",practice,1,3,stim\gray.png,stim\gray.png,stim\yellow.png,stim\gray.png,right,0,0,0,0,0,1,1,1,0,8,8,8,,,,,,,,,,,,,,,,,,,,,,,,,,,143.86647539993282,144.86800599994604,143.86647539993282,144.86800599994604,143.86647539993282,144.86800599994604,143.86647539993282,144.86800599994604,right,1,0.19206830009352416,143.86647539993282,None,143.86647539993282,None,143.86647539993282,144.3674020000035,143.86647539993282,144.3674020000035,143.86647539993282,144.3674020000035,143.86647539993282,144.3674020000035,143.86647539993282,None,,,,,,,,,,,,,,,,,,,,,,,,,,,,,,,,,,,,,,,,,,11020,001,2024_Jan_05_1046,nback,2021.2.3,59.82746955288984,
1-back,instructions\back-1.png,conditions\1back-p.xlsx,instructions\1-BACK.png,"(25, 15)",practice,1,4,stim\gray.png,stim\gray.png,stim\gray.png,stim\yellow.png,right,0,0,0,0,0,1,1,1,0,9,9,9,,,,,,,,,,,,,,,,,,,,,,,,,,,145.3687434999738,146.37225789995864,145.3687434999738,146.37225789995864,145.3687434999738,146.37225789995864,145.3687434999738,146.37225789995864,right,1,0.2737407000968233,145.3687434999738,None,145.3687434999738,None,145.3687434999738,145.8694797999924,145.3687434999738,145.8694797999924,145.3687434999738,145.8694797999924,145.3687434999738,145.8694797999924,145.3687434999738,None,,,,,,,,,,,,,,,,,,,,,,,,,,,,,,,,,,,,,,,,,,11020,001,2024_Jan_05_1046,nback,2021.2.3,59.82746955288984,
1-back,instructions\back-1.png,conditions\1back-p.xlsx,instructions\1-BACK.png,"(25, 15)",practice,1,1,stim\yellow.png,stim\gray.png,stim\gray.png,stim\gray.png,down,0,0,0,0,0,1,1,1,0,10,10,10,,,,,,,,,,,,,,,,,,,,,,,,,,,146.8710538999876,147.87336129997857,146.8710538999876,147.87336129997857,146.8710538999876,147.87336129997857,146.8710538999876,147.87336129997857,down,1,0.17136550007853657,146.8710538999876,None,146.8710538999876,None,146.8710538999876,147.37165109999478,146.8710538999876,147.37165109999478,146.8710538999876,147.37165109999478,146.8710538999876,147.37165109999478,146.8710538999876,None,,,,,,,,,,,,,,,,,,,,,,,,,,,,,,,,,,,,,,,,,,11020,001,2024_Jan_05_1046,nback,2021.2.3,59.82746955288984,
1-back,instructions\back-1.png,conditions\1back-p.xlsx,instructions\1-BACK.png,"(25, 15)",practice,1,2,stim\gray.png,stim\yellow.png,stim\gray.png,stim\gray.png,up,0,0,0,0,0,1,1,1,0,11,11,11,,,,,,,,,,,,,,,,,,,,,,,,,,,148.37322319997475,149.37506590003613,148.37322319997475,149.37506590003613,148.37322319997475,149.37506590003613,148.37322319997475,149.37506590003613,up,1,0.16529470006935298,148.37322319997475,None,148.37322319997475,None,148.37322319997475,148.8739762000041,148.37322319997475,148.8739762000041,148.37322319997475,148.8739762000041,148.37322319997475,148.8739762000041,148.37322319997475,None,,,,,,,,,,,,,,,,,,,,,,,,,,,,,,,,,,,,,,,,,,11020,001,2024_Jan_05_1046,nback,2021.2.3,59.82746955288984,
1-back,instructions\back-1.png,conditions\1back-p.xlsx,instructions\1-BACK.png,"(25, 15)",practice,1,4,stim\gray.png,stim\gray.png,stim\gray.png,stim\yellow.png,left,0,0,0,0,0,1,1,1,0,12,12,12,,,,,,,,,,,,,,,,,,,,,,,,,,,149.8752316000173,150.8793056999566,149.8752316000173,150.8793056999566,149.8752316000173,150.8793056999566,149.8752316000173,150.8793056999566,left,1,0.17529439995996654,149.8752316000173,None,149.8752316000173,None,149.8752316000173,150.3768035999965,149.8752316000173,150.3768035999965,149.8752316000173,150.3768035999965,149.8752316000173,150.3768035999965,149.8752316000173,None,,,,,,,,,,,,,,,,,,,,,,,,,,,,,,,,,,,,,,,,,,11020,001,2024_Jan_05_1046,nback,2021.2.3,59.82746955288984,
1-back,instructions\back-1.png,conditions\1back-p.xlsx,instructions\1-BACK.png,"(25, 15)",practice,1,3,stim\gray.png,stim\gray.png,stim\yellow.png,stim\gray.png,down,0,0,0,0,0,1,1,1,0,13,13,13,,,,,,,,,,,,,,,,,,,,,,,,,,,151.377490999992,152.3793998999754,151.377490999992,152.3793998999754,151.377490999992,152.3793998999754,151.377490999992,152.3793998999754,down,1,0.09756150003522635,151.377490999992,None,151.377490999992,None,151.377490999992,151.87921339995228,151.377490999992,151.87921339995228,151.377490999992,151.87921339995228,151.377490999992,151.87921339995228,151.377490999992,None,,,,,,,,,,,,,,,,,,,,,,,,,,,,,,,,,,,,,,,,,,11020,001,2024_Jan_05_1046,nback,2021.2.3,59.82746955288984,
1-back,instructions\back-1.png,conditions\1back-p.xlsx,instructions\1-BACK.png,"(25, 15)",practice,1,1,stim\yellow.png,stim\gray.png,stim\gray.png,stim\gray.png,right,0,0,0,0,0,1,1,1,0,14,14,14,,,,,,,,,,,,,,,,,,,,,,,,,,,152.8633598999586,153.86475169996265,152.8633598999586,153.86475169996265,152.8633598999586,153.86475169996265,152.8633598999586,153.86475169996265,right,1,0.10009710001759231,152.8633598999586,None,152.8633598999586,None,152.8633598999586,153.36462799995206,152.8633598999586,153.36462799995206,152.8633598999586,153.36462799995206,152.8633598999586,153.36462799995206,152.8633598999586,None,,,,,,,,,,,,,,,,,,,,,,,,,,,,,,,,,,,,,,,,,,11020,001,2024_Jan_05_1046,nback,2021.2.3,59.82746955288984,
1-back,instructions\back-1.png,conditions\1back-p.xlsx,instructions\1-BACK.png,"(25, 15)",practice,1,2,stim\gray.png,stim\yellow.png,stim\gray.png,stim\gray.png,up,0,0,0,0,0,1,1,1,0,15,15,15,,,,,,,,,,,,,,,,,,,,,,,,,,,154.36548809998203,155.36710449995007,154.36548809998203,155.36710449995007,154.36548809998203,155.36710449995007,154.36548809998203,155.36710449995007,up,1,0.20520840003155172,154.36548809998203,None,154.36548809998203,None,154.36548809998203,154.86609030002728,154.36548809998203,154.86609030002728,154.36548809998203,154.86609030002728,154.36548809998203,154.86609030002728,154.36548809998203,None,,,,,,,,,,,,,,,,,,,,,,,,,,,,,,,,,,,,,,,,,,11020,001,2024_Jan_05_1046,nback,2021.2.3,59.82746955288984,
1-back,instructions\back-1.png,conditions\1back-p.xlsx,instructions\1-BACK.png,"(25, 15)",practice,1,3,stim\gray.png,stim\gray.png,stim\yellow.png,stim\gray.png,left,0,0,0,0,0,1,1,1,0,16,16,16,,,,,,,,,,,,,,,,,,,,,,,,,,,155.86762409994844,156.8691568999784,155.86762409994844,156.8691568999784,155.86762409994844,156.8691568999784,155.86762409994844,156.8691568999784,left,1,0.1991470999782905,155.86762409994844,None,155.86762409994844,None,155.86762409994844,156.36845049995463,155.86762409994844,156.36845049995463,155.86762409994844,156.36845049995463,155.86762409994844,156.36845049995463,155.86762409994844,None,,,,,,,,,,,,,,,,,,,,,,,,,,,,,,,,,,,,,,,,,,11020,001,2024_Jan_05_1046,nback,2021.2.3,59.82746955288984,
1-back,instructions\back-1.png,conditions\1back-p.xlsx,instructions\1-BACK.png,"(25, 15)",practice,1,1,stim\yellow.png,stim\gray.png,stim\gray.png,stim\gray.png,right,0,0,0,0,0,1,1,1,0,17,17,17,,,,,,,,,,,,,,,,,,,,,,,,,,,157.36986710003112,158.37152129993774,157.36986710003112,158.37152129993774,157.36986710003112,158.37152129993774,157.36986710003112,158.37152129993774,right,1,0.27309689996764064,157.36986710003112,None,157.36986710003112,None,157.36986710003112,157.8706414999906,157.36986710003112,157.8706414999906,157.36986710003112,157.8706414999906,157.36986710003112,157.8706414999906,157.36986710003112,None,,,,,,,,,,,,,,,,,,,,,,,,,,,,,,,,,,,,,,,,,,11020,001,2024_Jan_05_1046,nback,2021.2.3,59.82746955288984,
1-back,instructions\back-1.png,conditions\1back-p.xlsx,instructions\1-BACK.png,"(25, 15)",practice,1,4,stim\gray.png,stim\gray.png,stim\gray.png,stim\yellow.png,up,0,0,0,0,0,1,1,1,0,18,18,18,,,,,,,,,,,,,,,,,,,,,,,,,,,158.87219449994154,159.87346889998298,158.87219449994154,159.87346889998298,158.87219449994154,159.87346889998298,158.87219449994154,159.87346889998298,up,1,0.19423649995587766,158.87219449994154,None,158.87219449994154,None,158.87219449994154,159.37352479994297,158.87219449994154,159.37352479994297,158.87219449994154,159.37352479994297,158.87219449994154,159.37352479994297,158.87219449994154,None,,,,,,,,,,,,,,,,,,,,,,,,,,,,,,,,,,,,,,,,,,11020,001,2024_Jan_05_1046,nback,2021.2.3,59.82746955288984,
1-back,instructions\back-1.png,conditions\1back-p.xlsx,instructions\1-BACK.png,"(25, 15)",practice,1,2,stim\gray.png,stim\yellow.png,stim\gray.png,stim\gray.png,down,0,0,0,0,0,1,1,1,0,19,19,19,,,,,,,,,,,,,,,,,,,,,,,,,,,160.37420720001683,161.37664949998725,160.37420720001683,161.37664949998725,160.37420720001683,161.37664949998725,160.37420720001683,161.37664949998725,down,1,0.13265240006148815,160.37420720001683,None,160.37420720001683,None,160.37420720001683,160.87506460002623,160.37420720001683,160.87506460002623,160.37420720001683,160.87506460002623,160.37420720001683,160.87506460002623,160.37420720001683,None,,,,,,,,,,,,,,,,,,,,,,,,,,,,,,,,,,,,,,,,,,11020,001,2024_Jan_05_1046,nback,2021.2.3,59.82746955288984,
1-back,instructions\back-1.png,conditions\1back-p.xlsx,instructions\1-BACK.png,"(25, 15)",,,,,,,,,0,0,0,0,0,1,1,1,,,,,,,,,,,,,,,,,,,,,,,,,,,,,,,,,,,,,,,,,,,,,,,,,,,,,,,,,,,,,,,,,,,,,,,,,,,,,,,,,,,,,,,,,,,,,,,,,11020,001,2024_Jan_05_1046,nback,2021.2.3,59.82746955288984,
2-back,instructions\back-2.png,conditions\2back-p.xlsx,instructions\2-BACK.png,"(25, 15)",practice,2,1,stim\yellow.png,stim\gray.png,stim\gray.png,stim\gray.png,None,0,0,0,0,0,2,2,2,0,0,0,0,,,,,,,,,,,,,,,,,161.99365429999307,None,space,4.625014999997802,161.99365429999307,None,166.75110160000622,171.25782009994145,171.2071179000195,None,171.65952640003525,172.65902499994263,171.65952640003525,172.65902499994263,171.65952640003525,172.65902499994263,171.65952640003525,172.65902499994263,None,1,,171.65952640003525,None,171.65952640003525,None,171.65952640003525,172.15854059997946,171.65952640003525,172.15854059997946,171.65952640003525,172.15854059997946,171.65952640003525,172.15854059997946,171.65952640003525,None,,,,,,,,,,,,,,,,,,,,,,,,,,,,,,,,,,,,,,,,,,11020,001,2024_Jan_05_1046,nback,2021.2.3,59.82746955288984,
2-back,instructions\back-2.png,conditions\2back-p.xlsx,instructions\2-BACK.png,"(25, 15)",practice,2,2,stim\gray.png,stim\yellow.png,stim\gray.png,stim\gray.png,None,0,0,0,0,0,2,2,2,0,1,1,1,,,,,,,,,,,,,,,,,,,,,,,,,,,173.14326929999515,174.1450256999815,173.14326929999515,174.1450256999815,173.14326929999515,174.1450256999815,173.14326929999515,174.1450256999815,None,1,,173.14326929999515,None,173.14326929999515,None,173.14326929999515,173.64452209998854,173.14326929999515,173.64452209998854,173.14326929999515,173.64452209998854,173.14326929999515,173.64452209998854,173.14326929999515,None,,,,,,,,,,,,,,,,,,,,,,,,,,,,,,,,,,,,,,,,,,11020,001,2024_Jan_05_1046,nback,2021.2.3,59.82746955288984,
2-back,instructions\back-2.png,conditions\2back-p.xlsx,instructions\2-BACK.png,"(25, 15)",practice,2,3,stim\gray.png,stim\gray.png,stim\yellow.png,stim\gray.png,up,0,0,0,0,0,2,2,2,0,2,2,2,,,,,,,,,,,,,,,,,,,,,,,,,,,174.64580349996686,175.64688290003687,174.64580349996686,175.64688290003687,174.64580349996686,175.64688290003687,174.64580349996686,175.64688290003687,up,1,0.30065240000840276,174.64580349996686,None,174.64580349996686,None,174.64580349996686,175.14629609999247,174.64580349996686,175.14629609999247,174.64580349996686,175.14629609999247,174.64580349996686,175.14629609999247,174.64580349996686,None,,,,,,,,,,,,,,,,,,,,,,,,,,,,,,,,,,,,,,,,,,11020,001,2024_Jan_05_1046,nback,2021.2.3,59.82746955288984,
2-back,instructions\back-2.png,conditions\2back-p.xlsx,instructions\2-BACK.png,"(25, 15)",practice,2,4,stim\gray.png,stim\gray.png,stim\gray.png,stim\yellow.png,left,0,0,0,0,0,2,2,2,0,3,3,3,,,,,,,,,,,,,,,,,,,,,,,,,,,176.14801490004174,177.149185199989,176.14801490004174,177.149185199989,176.14801490004174,177.149185199989,176.14801490004174,177.149185199989,left,1,0.27057039993815124,176.14801490004174,None,176.14801490004174,None,176.14801490004174,176.64928290003445,176.14801490004174,176.64928290003445,176.14801490004174,176.64928290003445,176.14801490004174,176.64928290003445,176.14801490004174,None,,,,,,,,,,,,,,,,,,,,,,,,,,,,,,,,,,,,,,,,,,11020,001,2024_Jan_05_1046,nback,2021.2.3,59.82746955288984,
2-back,instructions\back-2.png,conditions\2back-p.xlsx,instructions\2-BACK.png,"(25, 15)",practice,2,2,stim\gray.png,stim\yellow.png,stim\gray.png,stim\gray.png,right,0,0,0,0,0,2,2,2,0,4,4,4,,,,,,,,,,,,,,,,,,,,,,,,,,,177.64983789995313,178.65222879999783,177.64983789995313,178.65222879999783,177.64983789995313,178.65222879999783,177.64983789995313,178.65222879999783,right,1,0.2648291999939829,177.64983789995313,None,177.64983789995313,None,177.64983789995313,178.1508205999853,177.64983789995313,178.1508205999853,177.64983789995313,178.1508205999853,177.64983789995313,178.1508205999853,177.64983789995313,None,,,,,,,,,,,,,,,,,,,,,,,,,,,,,,,,,,,,,,,,,,11020,001,2024_Jan_05_1046,nback,2021.2.3,59.82746955288984,
2-back,instructions\back-2.png,conditions\2back-p.xlsx,instructions\2-BACK.png,"(25, 15)",practice,2,1,stim\yellow.png,stim\gray.png,stim\gray.png,stim\gray.png,down,0,0,0,0,0,2,2,2,0,5,5,5,,,,,,,,,,,,,,,,,,,,,,,,,,,179.15209190000314,180.15366910002194,179.15209190000314,180.15366910002194,179.15209190000314,180.15366910002194,179.15209190000314,180.15366910002194,down,1,0.21839110006112605,179.15209190000314,None,179.15209190000314,None,179.15209190000314,179.65282740001567,179.15209190000314,179.65282740001567,179.15209190000314,179.65282740001567,179.15209190000314,179.65282740001567,179.15209190000314,None,,,,,,,,,,,,,,,,,,,,,,,,,,,,,,,,,,,,,,,,,,11020,001,2024_Jan_05_1046,nback,2021.2.3,59.82746955288984,
2-back,instructions\back-2.png,conditions\2back-p.xlsx,instructions\2-BACK.png,"(25, 15)",practice,2,4,stim\gray.png,stim\gray.png,stim\gray.png,stim\yellow.png,left,0,0,0,0,0,2,2,2,0,6,6,6,,,,,,,,,,,,,,,,,,,,,,,,,,,180.63771419995464,181.63920909992885,180.63771419995464,181.63920909992885,180.63771419995464,181.63920909992885,180.63771419995464,181.63920909992885,left,1,0.19724520004820079,180.63771419995464,None,180.63771419995464,None,180.63771419995464,181.1387227999512,180.63771419995464,181.1387227999512,180.63771419995464,181.1387227999512,180.63771419995464,181.1387227999512,180.63771419995464,None,,,,,,,,,,,,,,,,,,,,,,,,,,,,,,,,,,,,,,,,,,11020,001,2024_Jan_05_1046,nback,2021.2.3,59.82746955288984,
2-back,instructions\back-2.png,conditions\2back-p.xlsx,instructions\2-BACK.png,"(25, 15)",practice,2,3,stim\gray.png,stim\gray.png,stim\yellow.png,stim\gray.png,up,0,0,0,0,0,2,2,2,0,7,7,7,,,,,,,,,,,,,,,,,,,,,,,,,,,182.14047889993526,183.14137910003774,182.14047889993526,183.14137910003774,182.14047889993526,183.14137910003774,182.14047889993526,183.14137910003774,up,1,0.1828088000183925,182.14047889993526,None,182.14047889993526,None,182.14047889993526,182.64065509999637,182.14047889993526,182.64065509999637,182.14047889993526,182.64065509999637,182.14047889993526,182.64065509999637,182.14047889993526,None,,,,,,,,,,,,,,,,,,,,,,,,,,,,,,,,,,,,,,,,,,11020,001,2024_Jan_05_1046,nback,2021.2.3,59.82746955288984,
2-back,instructions\back-2.png,conditions\2back-p.xlsx,instructions\2-BACK.png,"(25, 15)",practice,2,3,stim\gray.png,stim\gray.png,stim\yellow.png,stim\gray.png,down,0,0,0,0,0,2,2,2,0,8,8,8,,,,,,,,,,,,,,,,,,,,,,,,,,,183.6425573999295,184.64401369995903,183.6425573999295,184.64401369995903,183.6425573999295,184.64401369995903,183.6425573999295,184.64401369995903,right,0,1.4565606999676675,183.6425573999295,None,183.6425573999295,None,183.6425573999295,184.14301160001196,183.6425573999295,184.14301160001196,183.6425573999295,184.14301160001196,183.6425573999295,184.14301160001196,183.6425573999295,None,,,,,,,,,,,,,,,,,,,,,,,,,,,,,,,,,,,,,,,,,,11020,001,2024_Jan_05_1046,nback,2021.2.3,59.82746955288984,
2-back,instructions\back-2.png,conditions\2back-p.xlsx,instructions\2-BACK.png,"(25, 15)",practice,2,4,stim\gray.png,stim\gray.png,stim\gray.png,stim\yellow.png,right,0,0,0,0,0,2,2,2,0,9,9,9,,,,,,,,,,,,,,,,,,,,,,,,,,,185.14442759996746,186.1460209999932,185.14442759996746,186.1460209999932,185.14442759996746,186.1460209999932,185.14442759996746,186.1460209999932,right,1,1.3300305999582633,185.14442759996746,None,185.14442759996746,None,185.14442759996746,185.64566789998207,185.14442759996746,185.64566789998207,185.14442759996746,185.64566789998207,185.14442759996746,185.64566789998207,185.14442759996746,None,,,,,,,,,,,,,,,,,,,,,,,,,,,,,,,,,,,,,,,,,,11020,001,2024_Jan_05_1046,nback,2021.2.3,59.82746955288984,
2-back,instructions\back-2.png,conditions\2back-p.xlsx,instructions\2-BACK.png,"(25, 15)",practice,2,1,stim\yellow.png,stim\gray.png,stim\gray.png,stim\gray.png,right,0,0,0,0,0,2,2,2,0,10,10,10,,,,,,,,,,,,,,,,,,,,,,,,,,,186.64653799997177,187.64878789999057,186.64653799997177,187.64878789999057,186.64653799997177,187.64878789999057,186.64653799997177,187.64878789999057,None,0,,186.64653799997177,None,186.64653799997177,None,186.64653799997177,187.1472082999535,186.64653799997177,187.1472082999535,186.64653799997177,187.1472082999535,186.64653799997177,187.1472082999535,186.64653799997177,None,,,,,,,,,,,,,,,,,,,,,,,,,,,,,,,,,,,,,,,,,,11020,001,2024_Jan_05_1046,nback,2021.2.3,59.82746955288984,
2-back,instructions\back-2.png,conditions\2back-p.xlsx,instructions\2-BACK.png,"(25, 15)",practice,2,2,stim\gray.png,stim\yellow.png,stim\gray.png,stim\gray.png,down,0,0,0,0,0,2,2,2,0,11,11,11,,,,,,,,,,,,,,,,,,,,,,,,,,,188.14876000001095,189.1503481999971,188.14876000001095,189.1503481999971,188.14876000001095,189.1503481999971,188.14876000001095,189.1503481999971,None,0,,188.14876000001095,None,188.14876000001095,None,188.14876000001095,188.64950079994742,188.14876000001095,188.64950079994742,188.14876000001095,188.64950079994742,188.14876000001095,188.64950079994742,188.14876000001095,None,,,,,,,,,,,,,,,,,,,,,,,,,,,,,,,,,,,,,,,,,,11020,001,2024_Jan_05_1046,nback,2021.2.3,59.82746955288984,
2-back,instructions\back-2.png,conditions\2back-p.xlsx,instructions\2-BACK.png,"(25, 15)",practice,2,4,stim\gray.png,stim\gray.png,stim\gray.png,stim\yellow.png,up,0,0,0,0,0,2,2,2,0,12,12,12,,,,,,,,,,,,,,,,,,,,,,,,,,,189.65096430003177,190.65432079997845,189.65096430003177,190.65432079997845,189.65096430003177,190.65432079997845,189.65096430003177,190.65432079997845,None,0,,189.65096430003177,None,189.65096430003177,None,189.65096430003177,190.15219849999994,189.65096430003177,190.15219849999994,189.65096430003177,190.15219849999994,189.65096430003177,190.15219849999994,189.65096430003177,None,,,,,,,,,,,,,,,,,,,,,,,,,,,,,,,,,,,,,,,,,,11020,001,2024_Jan_05_1046,nback,2021.2.3,59.82746955288984,
2-back,instructions\back-2.png,conditions\2back-p.xlsx,instructions\2-BACK.png,"(25, 15)",practice,2,3,stim\gray.png,stim\gray.png,stim\yellow.png,stim\gray.png,left,0,0,0,0,0,2,2,2,0,13,13,13,,,,,,,,,,,,,,,,,,,,,,,,,,,191.15326199994888,192.1548004000215,191.15326199994888,192.1548004000215,191.15326199994888,192.1548004000215,191.15326199994888,192.1548004000215,None,0,,191.15326199994888,None,191.15326199994888,None,191.15326199994888,191.6546953000361,191.15326199994888,191.6546953000361,191.15326199994888,191.6546953000361,191.15326199994888,191.6546953000361,191.15326199994888,None,,,,,,,,,,,,,,,,,,,,,,,,,,,,,,,,,,,,,,,,,,11020,001,2024_Jan_05_1046,nback,2021.2.3,59.82746955288984,
2-back,instructions\back-2.png,conditions\2back-p.xlsx,instructions\2-BACK.png,"(25, 15)",practice,2,1,stim\yellow.png,stim\gray.png,stim\gray.png,stim\gray.png,down,0,0,0,0,0,2,2,2,0,14,14,14,,,,,,,,,,,,,,,,,,,,,,,,,,,192.63944559998345,193.6403808000032,192.63944559998345,193.6403808000032,192.63944559998345,193.6403808000032,192.63944559998345,193.6403808000032,down,1,0.1712913999799639,192.63944559998345,None,192.63944559998345,None,192.63944559998345,193.14024370000698,192.63944559998345,193.14024370000698,192.63944559998345,193.14024370000698,192.63944559998345,193.14024370000698,192.63944559998345,None,,,,,,,,,,,,,,,,,,,,,,,,,,,,,,,,,,,,,,,,,,11020,001,2024_Jan_05_1046,nback,2021.2.3,59.82746955288984,
2-back,instructions\back-2.png,conditions\2back-p.xlsx,instructions\2-BACK.png,"(25, 15)",practice,2,2,stim\gray.png,stim\yellow.png,stim\gray.png,stim\gray.png,right,0,0,0,0,0,2,2,2,0,15,15,15,,,,,,,,,,,,,,,,,,,,,,,,,,,194.1412515999982,195.1434173999587,194.1412515999982,195.1434173999587,194.1412515999982,195.1434173999587,194.1412515999982,195.1434173999587,right,1,0.16562740004155785,194.1412515999982,None,194.1412515999982,None,194.1412515999982,194.64248889998998,194.1412515999982,194.64248889998998,194.1412515999982,194.64248889998998,194.1412515999982,194.64248889998998,194.1412515999982,None,,,,,,,,,,,,,,,,,,,,,,,,,,,,,,,,,,,,,,,,,,11020,001,2024_Jan_05_1046,nback,2021.2.3,59.82746955288984,
2-back,instructions\back-2.png,conditions\2back-p.xlsx,instructions\2-BACK.png,"(25, 15)",practice,2,3,stim\gray.png,stim\gray.png,stim\yellow.png,stim\gray.png,up,0,0,0,0,0,2,2,2,0,16,16,16,,,,,,,,,,,,,,,,,,,,,,,,,,,195.64321549993474,196.64545780001208,195.64321549993474,196.64545780001208,195.64321549993474,196.64545780001208,195.64321549993474,196.64545780001208,left,0,1.4076473999302834,195.64321549993474,None,195.64321549993474,None,195.64321549993474,196.14533860003576,195.64321549993474,196.14533860003576,195.64321549993474,196.14533860003576,195.64321549993474,196.14533860003576,195.64321549993474,None,,,,,,,,,,,,,,,,,,,,,,,,,,,,,,,,,,,,,,,,,,11020,001,2024_Jan_05_1046,nback,2021.2.3,59.82746955288984,
2-back,instructions\back-2.png,conditions\2back-p.xlsx,instructions\2-BACK.png,"(25, 15)",practice,2,1,stim\yellow.png,stim\gray.png,stim\gray.png,stim\gray.png,left,0,0,0,0,0,2,2,2,0,17,17,17,,,,,,,,,,,,,,,,,,,,,,,,,,,197.1454633999383,198.14772250002716,197.1454633999383,198.14772250002716,197.1454633999383,198.14772250002716,197.1454633999383,198.14772250002716,right,0,1.3293955000117421,197.1454633999383,None,197.1454633999383,None,197.1454633999383,197.646177800023,197.1454633999383,197.646177800023,197.1454633999383,197.646177800023,197.1454633999383,197.646177800023,197.1454633999383,None,,,,,,,,,,,,,,,,,,,,,,,,,,,,,,,,,,,,,,,,,,11020,001,2024_Jan_05_1046,nback,2021.2.3,59.82746955288984,
2-back,instructions\back-2.png,conditions\2back-p.xlsx,instructions\2-BACK.png,"(25, 15)",practice,2,4,stim\gray.png,stim\gray.png,stim\gray.png,stim\yellow.png,right,0,0,0,0,0,2,2,2,0,18,18,18,,,,,,,,,,,,,,,,,,,,,,,,,,,198.64824789995328,199.65023599995766,198.64824789995328,199.65023599995766,198.64824789995328,199.65023599995766,198.64824789995328,199.65023599995766,up,0,1.3145158000988886,198.64824789995328,None,198.64824789995328,None,198.64824789995328,199.14841180003714,198.64824789995328,199.14841180003714,198.64824789995328,199.14841180003714,198.64824789995328,199.14841180003714,198.64824789995328,None,,,,,,,,,,,,,,,,,,,,,,,,,,,,,,,,,,,,,,,,,,11020,001,2024_Jan_05_1046,nback,2021.2.3,59.82746955288984,
2-back,instructions\back-2.png,conditions\2back-p.xlsx,instructions\2-BACK.png,"(25, 15)",practice,2,2,stim\gray.png,stim\yellow.png,stim\gray.png,stim\gray.png,up,0,0,0,0,0,2,2,2,0,19,19,19,,,,,,,,,,,,,,,,,,,,,,,,,,,200.15000839997083,201.1526417999994,200.15000839997083,201.1526417999994,200.15000839997083,201.1526417999994,200.15000839997083,201.1526417999994,down,0,1.2529408000409603,200.15000839997083,None,200.15000839997083,None,200.15000839997083,200.65127949998714,200.15000839997083,200.65127949998714,200.15000839997083,200.65127949998714,200.15000839997083,200.65127949998714,200.15000839997083,None,,,,,,,,,,,,,,,,,,,,,,,,,,,,,,,,,,,,,,,,,,11020,001,2024_Jan_05_1046,nback,2021.2.3,59.82746955288984,
2-back,instructions\back-2.png,conditions\2back-p.xlsx,instructions\2-BACK.png,"(25, 15)",,,,,,,,,0,0,0,0,0,2,2,2,,,,,,,,,,,,,,,,,,,,,,,,,,,,,,,,,,,,,,,,,,,,,,,,,,,,,,,,,,,,,,,,,,,,,,,,,,,,,,,,,,,,,,,,,,,,,,,,,11020,001,2024_Jan_05_1046,nback,2021.2.3,59.82746955288984,
,,,,,,,,,,,,,0,0,0,0,,,,,,,,,,,,,,,,,,,,,,,,,,,,,,,,,,,,,,,,,,,,,,,,,,,,,,,,,,,,201.6538666000124,None,space,13.549041600083001,201.6538666000124,None,,,,,,,,,,,,,,,,,,,,,,,,,,,,,,,,,,,,11020,001,2024_Jan_05_1046,nback,2021.2.3,59.82746955288984,
,,,,,,,,,,,,,,,,,,,,,,,,,,,,,,,,,,,,,,,,,,,,,,,,,,,,,,,,,,,,,,,,,,,,,,,,,,,,,,,,,,215.2225577000063,None,space,84.43672840006184,215.2225577000063,None,,,,,,,,,,,,,,,,,,,,,,,,,,,,,,11020,001,2024_Jan_05_1046,nback,2021.2.3,59.82746955288984,
1-back,instructions\back-1.png,conditions\12back-e.xlsx,,,experiment,1,2,stim\gray.png,stim\yellow.png,stim\gray.png,stim\gray.png,None,,,,,,,,,,,,,0,0,0,6,0,0,0,0,,,,,,,,,,,,,,,299.8146140000317,304.32482969993725,304.27101050002966,None,,,,,,,,,,,,,,,,,,,,,,,,,,,,,,,,,,,,,,None,1,304.70688940002583,None,304.70688940002583,None,304.70688940002583,305.70784089993685,304.70688940002583,305.70784089993685,304.70688940002583,305.70784089993685,304.70688940002583,305.70784089993685,304.70688940002583,305.2230993999401,304.70688940002583,305.2230993999401,304.70688940002583,305.2230993999401,304.70688940002583,305.2230993999401,304.70688940002583,None,,,,,,11020,001,2024_Jan_05_1046,nback,2021.2.3,59.82746955288984,
1-back,instructions\back-1.png,conditions\12back-e.xlsx,,,experiment,1,3,stim\gray.png,stim\gray.png,stim\yellow.png,stim\gray.png,left,,,,,,,,,,,,,0,0,0,6,0,1,1,1,,,,,,,,,,,,,,,,,,,,,,,,,,,,,,,,,,,,,,,,,,,,,,,,,,,,,,,,left,1,306.1902339999797,None,306.1902339999797,None,306.1902339999797,307.1921496000141,306.1902339999797,307.1921496000141,306.1902339999797,307.1921496000141,306.1902339999797,307.1921496000141,306.1902339999797,306.6916969999438,306.1902339999797,306.6916969999438,306.1902339999797,306.6916969999438,306.1902339999797,306.6916969999438,306.1902339999797,None,0.2845864000264555,,,,,11020,001,2024_Jan_05_1046,nback,2021.2.3,59.82746955288984,
1-back,instructions\back-1.png,conditions\12back-e.xlsx,,,experiment,1,4,stim\gray.png,stim\gray.png,stim\gray.png,stim\yellow.png,right,,,,,,,,,,,,,0,0,0,6,0,2,2,2,,,,,,,,,,,,,,,,,,,,,,,,,,,,,,,,,,,,,,,,,,,,,,,,,,,,,,,,right,1,307.69268269999884,None,307.69268269999884,None,307.69268269999884,308.6941781999776,307.69268269999884,308.6941781999776,307.69268269999884,308.6941781999776,307.69268269999884,308.6941781999776,307.69268269999884,308.19346270000096,307.69268269999884,308.19346270000096,307.69268269999884,308.19346270000096,307.69268269999884,308.19346270000096,307.69268269999884,None,0.23810710001271218,,,,,11020,001,2024_Jan_05_1046,nback,2021.2.3,59.82746955288984,
1-back,instructions\back-1.png,conditions\12back-e.xlsx,,,experiment,1,3,stim\gray.png,stim\gray.png,stim\yellow.png,stim\gray.png,down,,,,,,,,,,,,,0,0,0,6,0,3,3,3,,,,,,,,,,,,,,,,,,,,,,,,,,,,,,,,,,,,,,,,,,,,,,,,,,,,,,,,down,1,309.1947774,None,309.1947774,None,309.1947774,310.1970477999421,309.1947774,310.1970477999421,309.1947774,310.1970477999421,309.1947774,310.1970477999421,309.1947774,309.6955688999733,309.1947774,309.6955688999733,309.1947774,309.6955688999733,309.1947774,309.6955688999733,309.1947774,None,0.17596600006800145,,,,,11020,001,2024_Jan_05_1046,nback,2021.2.3,59.82746955288984,
1-back,instructions\back-1.png,conditions\12back-e.xlsx,,,experiment,1,1,stim\yellow.png,stim\gray.png,stim\gray.png,stim\gray.png,right,,,,,,,,,,,,,0,0,0,6,0,4,4,4,,,,,,,,,,,,,,,,,,,,,,,,,,,,,,,,,,,,,,,,,,,,,,,,,,,,,,,,right,1,310.69731960003264,None,310.69731960003264,None,310.69731960003264,311.699737799936,310.69731960003264,311.699737799936,310.69731960003264,311.699737799936,310.69731960003264,311.699737799936,310.69731960003264,311.19839299994055,310.69731960003264,311.19839299994055,310.69731960003264,311.19839299994055,310.69731960003264,311.19839299994055,310.69731960003264,None,0.16940290003549308,,,,,11020,001,2024_Jan_05_1046,nback,2021.2.3,59.82746955288984,
1-back,instructions\back-1.png,conditions\12back-e.xlsx,,,experiment,1,2,stim\gray.png,stim\yellow.png,stim\gray.png,stim\gray.png,up,,,,,,,,,,,,,0,0,0,6,0,5,5,5,,,,,,,,,,,,,,,,,,,,,,,,,,,,,,,,,,,,,,,,,,,,,,,,,,,,,,,,up,1,312.1991296999622,None,312.1991296999622,None,312.1991296999622,313.20103749993723,312.1991296999622,313.20103749993723,312.1991296999622,313.20103749993723,312.1991296999622,313.20103749993723,312.1991296999622,312.70008800004143,312.1991296999622,312.70008800004143,312.1991296999622,312.70008800004143,312.1991296999622,312.70008800004143,312.1991296999622,None,0.09170420002192259,,,,,11020,001,2024_Jan_05_1046,nback,2021.2.3,59.82746955288984,
1-back,instructions\back-1.png,conditions\12back-e.xlsx,,,experiment,1,2,stim\gray.png,stim\yellow.png,stim\gray.png,stim\gray.png,left,,,,,,,,,,,,,0,0,0,6,0,6,6,6,,,,,,,,,,,,,,,,,,,,,,,,,,,,,,,,,,,,,,,,,,,,,,,,,,,,,,,,left,1,313.68488600000273,None,313.68488600000273,None,313.68488600000273,314.687114499975,313.68488600000273,314.687114499975,313.68488600000273,314.687114499975,313.68488600000273,314.687114499975,313.68488600000273,314.18574959994294,313.68488600000273,314.18574959994294,313.68488600000273,314.18574959994294,313.68488600000273,314.18574959994294,313.68488600000273,None,0.134210400050506,,,,,11020,001,2024_Jan_05_1046,nback,2021.2.3,59.82746955288984,
1-back,instructions\back-1.png,conditions\12back-e.xlsx,,,experiment,1,4,stim\gray.png,stim\gray.png,stim\gray.png,stim\yellow.png,left,,,,,,,,,,,,,0,0,0,6,0,7,7,7,,,,,,,,,,,,,,,,,,,,,,,,,,,,,,,,,,,,,,,,,,,,,,,,,,,,,,,,left,1,315.1869818000123,None,315.1869818000123,None,315.1869818000123,316.1885887000244,315.1869818000123,316.1885887000244,315.1869818000123,316.1885887000244,315.1869818000123,316.1885887000244,315.1869818000123,315.6880924999714,315.1869818000123,315.6880924999714,315.1869818000123,315.6880924999714,315.1869818000123,315.6880924999714,315.1869818000123,None,0.17575549997854978,,,,,11020,001,2024_Jan_05_1046,nback,2021.2.3,59.82746955288984,
1-back,instructions\back-1.png,conditions\12back-e.xlsx,,,experiment,1,1,stim\yellow.png,stim\gray.png,stim\gray.png,stim\gray.png,down,,,,,,,,,,,,,0,0,0,6,0,8,8,8,,,,,,,,,,,,,,,,,,,,,,,,,,,,,,,,,,,,,,,,,,,,,,,,,,,,,,,,down,1,316.68973610003013,None,316.68973610003013,None,316.68973610003013,317.69118650001474,316.68973610003013,317.69118650001474,316.68973610003013,317.69118650001474,316.68973610003013,317.69118650001474,316.68973610003013,317.1910063000396,316.68973610003013,317.1910063000396,316.68973610003013,317.1910063000396,316.68973610003013,317.1910063000396,316.68973610003013,None,0.2011198999825865,,,,,11020,001,2024_Jan_05_1046,nback,2021.2.3,59.82746955288984,
1-back,instructions\back-1.png,conditions\12back-e.xlsx,,,experiment,1,3,stim\gray.png,stim\gray.png,stim\yellow.png,stim\gray.png,up,,,,,,,,,,,,,0,0,0,6,0,9,9,9,,,,,,,,,,,,,,,,,,,,,,,,,,,,,,,,,,,,,,,,,,,,,,,,,,,,,,,,up,1,318.19167309999466,None,318.19167309999466,None,318.19167309999466,319.19312479998916,318.19167309999466,319.19312479998916,318.19167309999466,319.19312479998916,318.19167309999466,319.19312479998916,318.19167309999466,318.69324749999214,318.19167309999466,318.69324749999214,318.19167309999466,318.69324749999214,318.19167309999466,318.69324749999214,318.19167309999466,None,0.18716089997906238,,,,,11020,001,2024_Jan_05_1046,nback,2021.2.3,59.82746955288984,
1-back,instructions\back-1.png,conditions\12back-e.xlsx,,,experiment,1,4,stim\gray.png,stim\gray.png,stim\gray.png,stim\yellow.png,right,,,,,,,,,,,,,0,0,0,6,0,10,10,10,,,,,,,,,,,,,,,,,,,,,,,,,,,,,,,,,,,,,,,,,,,,,,,,,,,,,,,,right,1,319.6937463999493,None,319.6937463999493,None,319.6937463999493,320.6950358999893,319.6937463999493,320.6950358999893,319.6937463999493,320.6950358999893,319.6937463999493,320.6950358999893,319.6937463999493,320.19470260001253,319.6937463999493,320.19470260001253,319.6937463999493,320.19470260001253,319.6937463999493,320.19470260001253,319.6937463999493,None,0.1335576999699697,,,,,11020,001,2024_Jan_05_1046,nback,2021.2.3,59.82746955288984,
1-back,instructions\back-1.png,conditions\12back-e.xlsx,,,experiment,1,3,stim\gray.png,stim\gray.png,stim\yellow.png,stim\gray.png,down,,,,,,,,,,,,,0,0,0,6,0,11,11,11,,,,,,,,,,,,,,,,,,,,,,,,,,,,,,,,,,,,,,,,,,,,,,,,,,,,,,,,down,1,321.1969075000379,None,321.1969075000379,None,321.1969075000379,322.1975013000192,321.1969075000379,322.1975013000192,321.1969075000379,322.1975013000192,321.1969075000379,322.1975013000192,321.1969075000379,321.6965600999538,321.1969075000379,321.6965600999538,321.1969075000379,321.6965600999538,321.1969075000379,321.6965600999538,321.1969075000379,None,0.08576809999067336,,,,,11020,001,2024_Jan_05_1046,nback,2021.2.3,59.82746955288984,
1-back,instructions\back-1.png,conditions\12back-e.xlsx,,,experiment,1,1,stim\yellow.png,stim\gray.png,stim\gray.png,stim\gray.png,left,,,,,,,,,,,,,0,0,0,6,0,12,12,12,,,,,,,,,,,,,,,,,,,,,,,,,,,,,,,,,,,,,,,,,,,,,,,,,,,,,,,,right,0,322.69865819998085,None,322.69865819998085,None,322.69865819998085,323.69978649995755,322.69865819998085,323.69978649995755,322.69865819998085,323.69978649995755,322.69865819998085,323.69978649995755,322.69865819998085,323.19945590000134,322.69865819998085,323.19945590000134,322.69865819998085,323.19945590000134,322.69865819998085,323.19945590000134,322.69865819998085,None,0.1847935999976471,,,,,11020,001,2024_Jan_05_1046,nback,2021.2.3,59.82746955288984,
1-back,instructions\back-1.png,conditions\12back-e.xlsx,,,experiment,1,4,stim\gray.png,stim\gray.png,stim\gray.png,stim\yellow.png,up,,,,,,,,,,,,,0,0,0,6,0,13,13,13,,,,,,,,,,,,,,,,,,,,,,,,,,,,,,,,,,,,,,,,,,,,,,,,,,,,,,,,up,1,324.1836815000279,None,324.1836815000279,None,324.1836815000279,325.18600500002503,324.1836815000279,325.18600500002503,324.1836815000279,325.18600500002503,324.1836815000279,325.18600500002503,324.1836815000279,324.6851647000294,324.1836815000279,324.6851647000294,324.1836815000279,324.6851647000294,324.1836815000279,324.6851647000294,324.1836815000279,None,0.22717590001411736,,,,,11020,001,2024_Jan_05_1046,nback,2021.2.3,59.82746955288984,
1-back,instructions\back-1.png,conditions\12back-e.xlsx,,,experiment,1,1,stim\yellow.png,stim\gray.png,stim\gray.png,stim\gray.png,down,,,,,,,,,,,,,0,0,0,6,0,14,14,14,,,,,,,,,,,,,,,,,,,,,,,,,,,,,,,,,,,,,,,,,,,,,,,,,,,,,,,,down,1,325.6862231999403,None,325.6862231999403,None,325.6862231999403,326.6876076000044,325.6862231999403,326.6876076000044,325.6862231999403,326.6876076000044,325.6862231999403,326.6876076000044,325.6862231999403,326.1867709000362,325.6862231999403,326.1867709000362,325.6862231999403,326.1867709000362,325.6862231999403,326.1867709000362,325.6862231999403,None,0.24449299997650087,,,,,11020,001,2024_Jan_05_1046,nback,2021.2.3,59.82746955288984,
1-back,instructions\back-1.png,conditions\12back-e.xlsx,,,experiment,1,2,stim\gray.png,stim\yellow.png,stim\gray.png,stim\gray.png,up,,,,,,,,,,,,,0,0,0,6,0,15,15,15,,,,,,,,,,,,,,,,,,,,,,,,,,,,,,,,,,,,,,,,,,,,,,,,,,,,,,,,up,1,327.18895780004095,None,327.18895780004095,None,327.18895780004095,328.1905211999547,327.18895780004095,328.1905211999547,327.18895780004095,328.1905211999547,327.18895780004095,328.1905211999547,327.18895780004095,327.68901959992945,327.18895780004095,327.68901959992945,327.18895780004095,327.68901959992945,327.18895780004095,327.68901959992945,327.18895780004095,None,0.29380660003516823,,,,,11020,001,2024_Jan_05_1046,nback,2021.2.3,59.82746955288984,
1-back,instructions\back-1.png,conditions\12back-e.xlsx,,,experiment,1,1,stim\yellow.png,stim\gray.png,stim\gray.png,stim\gray.png,left,,,,,,,,,,,,,0,0,0,6,0,16,16,16,,,,,,,,,,,,,,,,,,,,,,,,,,,,,,,,,,,,,,,,,,,,,,,,,,,,,,,,left,1,328.6908786999993,None,328.6908786999993,None,328.6908786999993,329.6918367999606,328.6908786999993,329.6918367999606,328.6908786999993,329.6918367999606,328.6908786999993,329.6918367999606,328.6908786999993,329.19178540003486,328.6908786999993,329.19178540003486,328.6908786999993,329.19178540003486,328.6908786999993,329.19178540003486,328.6908786999993,None,0.18416109995450824,,,,,11020,001,2024_Jan_05_1046,nback,2021.2.3,59.82746955288984,
1-back,instructions\back-1.png,conditions\12back-e.xlsx,,,experiment,1,3,stim\gray.png,stim\gray.png,stim\yellow.png,stim\gray.png,up,,,,,,,,,,,,,0,0,0,6,0,17,17,17,,,,,,,,,,,,,,,,,,,,,,,,,,,,,,,,,,,,,,,,,,,,,,,,,,,,,,,,up,1,330.19352119998075,None,330.19352119998075,None,330.19352119998075,331.1943981000222,330.19352119998075,331.1943981000222,330.19352119998075,331.1943981000222,330.19352119998075,331.1943981000222,330.19352119998075,330.6934283999726,330.19352119998075,330.6934283999726,330.19352119998075,330.6934283999726,330.19352119998075,330.6934283999726,330.19352119998075,None,0.282095699920319,,,,,11020,001,2024_Jan_05_1046,nback,2021.2.3,59.82746955288984,
1-back,instructions\back-1.png,conditions\12back-e.xlsx,,,experiment,1,2,stim\gray.png,stim\yellow.png,stim\gray.png,stim\gray.png,right,,,,,,,,,,,,,0,0,0,6,0,18,18,18,,,,,,,,,,,,,,,,,,,,,,,,,,,,,,,,,,,,,,,,,,,,,,,,,,,,,,,,right,1,331.695134999929,None,331.695134999929,None,331.695134999929,332.69646240002476,331.695134999929,332.69646240002476,331.695134999929,332.69646240002476,331.695134999929,332.69646240002476,331.695134999929,332.1956612999784,331.695134999929,332.1956612999784,331.695134999929,332.1956612999784,331.695134999929,332.1956612999784,331.695134999929,None,0.33974169997964054,,,,,11020,001,2024_Jan_05_1046,nback,2021.2.3,59.82746955288984,
1-back,instructions\back-1.png,conditions\12back-e.xlsx,,,experiment,1,4,stim\gray.png,stim\gray.png,stim\gray.png,stim\yellow.png,left,,,,,,,,,,,,,0,0,0,6,0,19,19,19,,,,,,,,,,,,,,,,,,,,,,,,,,,,,,,,,,,,,,,,,,,,,,,,,,,,,,,,left,1,333.19741299992893,None,333.19741299992893,None,333.19741299992893,334.1986701999558,333.19741299992893,334.1986701999558,333.19741299992893,334.1986701999558,333.19741299992893,334.1986701999558,333.19741299992893,333.6982514000265,333.19741299992893,333.6982514000265,333.19741299992893,333.6982514000265,333.19741299992893,333.6982514000265,333.19741299992893,None,0.1979375999653712,,,,,11020,001,2024_Jan_05_1046,nback,2021.2.3,59.82746955288984,
1-back,instructions\back-1.png,conditions\12back-e.xlsx,,,,,,,,,,,,,,,,,,,,,,,0,0,0,6,,,,,,,,,,,,,,,,,,,,,,,,,,,,,,,,,,,,,,,,,,,,,,,,,,,,,,,,,,,,,,,,,,,,,,,,,,,,,,,,,,,,,334.68284120003227,None,,,11020,001,2024_Jan_05_1046,nback,2021.2.3,59.82746955288984,
2-back,instructions\back-2.png,conditions\20back-e.xlsx,,,experiment,2,2,stim\gray.png,stim\yellow.png,stim\gray.png,stim\gray.png,None,,,,,,,,,,,,,0,1,1,2,0,0,0,0,,,,,,,,,,,,,,,335.78340820001904,340.2921462999657,340.2743970999727,None,,,,,,,,,,,,,,,,,,,,,,,,,,,,,,,,,,,,,,left,0,340.7094700000016,None,340.7094700000016,None,340.7094700000016,341.71003700001165,340.7094700000016,341.71003700001165,340.7094700000016,341.71003700001165,340.7094700000016,341.71003700001165,340.7094700000016,341.20980800001416,340.7094700000016,341.20980800001416,340.7094700000016,341.20980800001416,340.7094700000016,341.20980800001416,340.7094700000016,None,0.4614317000377923,,,,,11020,001,2024_Jan_05_1046,nback,2021.2.3,59.82746955288984,
2-back,instructions\back-2.png,conditions\20back-e.xlsx,,,experiment,2,1,stim\yellow.png,stim\gray.png,stim\gray.png,stim\gray.png,None,,,,,,,,,,,,,0,1,1,2,0,1,1,1,,,,,,,,,,,,,,,,,,,,,,,,,,,,,,,,,,,,,,,,,,,,,,,,,,,,,,,,None,1,342.19382929999847,None,342.19382929999847,None,342.19382929999847,343.1952395000262,342.19382929999847,343.1952395000262,342.19382929999847,343.1952395000262,342.19382929999847,343.1952395000262,342.19382929999847,342.6948279000353,342.19382929999847,342.6948279000353,342.19382929999847,342.6948279000353,342.19382929999847,342.6948279000353,342.19382929999847,None,,,,,,11020,001,2024_Jan_05_1046,nback,2021.2.3,59.82746955288984,
2-back,instructions\back-2.png,conditions\20back-e.xlsx,,,experiment,2,4,stim\gray.png,stim\gray.png,stim\gray.png,stim\yellow.png,left,,,,,,,,,,,,,0,1,1,2,0,2,2,2,,,,,,,,,,,,,,,,,,,,,,,,,,,,,,,,,,,,,,,,,,,,,,,,,,,,,,,,left,1,343.695976399933,None,343.695976399933,None,343.695976399933,344.6973807000322,343.695976399933,344.6973807000322,343.695976399933,344.6973807000322,343.695976399933,344.6973807000322,343.695976399933,344.1974213999929,343.695976399933,344.1974213999929,343.695976399933,344.1974213999929,343.695976399933,344.1974213999929,343.695976399933,None,0.2749197999946773,,,,,11020,001,2024_Jan_05_1046,nback,2021.2.3,59.82746955288984,
2-back,instructions\back-2.png,conditions\20back-e.xlsx,,,experiment,2,3,stim\gray.png,stim\gray.png,stim\yellow.png,stim\gray.png,up,,,,,,,,,,,,,0,1,1,2,0,3,3,3,,,,,,,,,,,,,,,,,,,,,,,,,,,,,,,,,,,,,,,,,,,,,,,,,,,,,,,,up,1,345.19829520001076,None,345.19829520001076,None,345.19829520001076,346.2003760000225,345.19829520001076,346.2003760000225,345.19829520001076,346.2003760000225,345.19829520001076,346.2003760000225,345.19829520001076,345.69896009995136,345.19829520001076,345.69896009995136,345.19829520001076,345.69896009995136,345.19829520001076,345.69896009995136,345.19829520001076,None,0.2365100000752136,,,,,11020,001,2024_Jan_05_1046,nback,2021.2.3,59.82746955288984,
2-back,instructions\back-2.png,conditions\20back-e.xlsx,,,experiment,2,1,stim\yellow.png,stim\gray.png,stim\gray.png,stim\gray.png,down,,,,,,,,,,,,,0,1,1,2,0,4,4,4,,,,,,,,,,,,,,,,,,,,,,,,,,,,,,,,,,,,,,,,,,,,,,,,,,,,,,,,down,1,346.683724100003,None,346.683724100003,None,346.683724100003,347.68529679998755,346.683724100003,347.68529679998755,346.683724100003,347.68529679998755,346.683724100003,347.68529679998755,346.683724100003,347.18566519999877,346.683724100003,347.18566519999877,346.683724100003,347.18566519999877,346.683724100003,347.18566519999877,346.683724100003,None,0.20714169996790588,,,,,11020,001,2024_Jan_05_1046,nback,2021.2.3,59.82746955288984,
2-back,instructions\back-2.png,conditions\20back-e.xlsx,,,experiment,2,2,stim\gray.png,stim\yellow.png,stim\gray.png,stim\gray.png,right,,,,,,,,,,,,,0,1,1,2,0,5,5,5,,,,,,,,,,,,,,,,,,,,,,,,,,,,,,,,,,,,,,,,,,,,,,,,,,,,,,,,right,1,348.1858086999273,None,348.1858086999273,None,348.1858086999273,349.18760339997243,348.1858086999273,349.18760339997243,348.1858086999273,349.18760339997243,348.1858086999273,349.18760339997243,348.1858086999273,348.68686599994544,348.1858086999273,348.68686599994544,348.1858086999273,348.68686599994544,348.1858086999273,348.68686599994544,348.1858086999273,None,0.23324430000502616,,,,,11020,001,2024_Jan_05_1046,nback,2021.2.3,59.82746955288984,
2-back,instructions\back-2.png,conditions\20back-e.xlsx,,,experiment,2,3,stim\gray.png,stim\gray.png,stim\yellow.png,stim\gray.png,up,,,,,,,,,,,,,0,1,1,2,0,6,6,6,,,,,,,,,,,,,,,,,,,,,,,,,,,,,,,,,,,,,,,,,,,,,,,,,,,,,,,,up,1,349.6882419999456,None,349.6882419999456,None,349.6882419999456,350.6897960000206,349.6882419999456,350.6897960000206,349.6882419999456,350.6897960000206,349.6882419999456,350.6897960000206,349.6882419999456,350.18998389993794,349.6882419999456,350.18998389993794,349.6882419999456,350.18998389993794,349.6882419999456,350.18998389993794,349.6882419999456,None,0.19445950002409518,,,,,11020,001,2024_Jan_05_1046,nback,2021.2.3,59.82746955288984,
2-back,instructions\back-2.png,conditions\20back-e.xlsx,,,experiment,2,4,stim\gray.png,stim\gray.png,stim\gray.png,stim\yellow.png,left,,,,,,,,,,,,,0,1,1,2,0,7,7,7,,,,,,,,,,,,,,,,,,,,,,,,,,,,,,,,,,,,,,,,,,,,,,,,,,,,,,,,left,1,351.1903656999348,None,351.1903656999348,None,351.1903656999348,352.19237239996437,351.1903656999348,352.19237239996437,351.1903656999348,352.19237239996437,351.1903656999348,352.19237239996437,351.1903656999348,351.69104469998274,351.1903656999348,351.69104469998274,351.1903656999348,351.69104469998274,351.1903656999348,351.69104469998274,351.1903656999348,None,0.18102939997334033,,,,,11020,001,2024_Jan_05_1046,nback,2021.2.3,59.82746955288984,
2-back,instructions\back-2.png,conditions\20back-e.xlsx,,,experiment,2,3,stim\gray.png,stim\gray.png,stim\yellow.png,stim\gray.png,right,,,,,,,,,,,,,0,1,1,2,0,8,8,8,,,,,,,,,,,,,,,,,,,,,,,,,,,,,,,,,,,,,,,,,,,,,,,,,,,,,,,,right,1,352.69263199996203,None,352.69263199996203,None,352.69263199996203,353.69533999997657,352.69263199996203,353.69533999997657,352.69263199996203,353.69533999997657,352.69263199996203,353.69533999997657,352.69263199996203,353.1940086999675,352.69263199996203,353.1940086999675,352.69263199996203,353.1940086999675,352.69263199996203,353.1940086999675,352.69263199996203,None,0.08613419998437166,,,,,11020,001,2024_Jan_05_1046,nback,2021.2.3,59.82746955288984,
2-back,instructions\back-2.png,conditions\20back-e.xlsx,,,experiment,2,4,stim\gray.png,stim\gray.png,stim\gray.png,stim\yellow.png,down,,,,,,,,,,,,,0,1,1,2,0,9,9,9,,,,,,,,,,,,,,,,,,,,,,,,,,,,,,,,,,,,,,,,,,,,,,,,,,,,,,,,down,1,354.19577809993643,None,354.19577809993643,None,354.19577809993643,355.19746860000305,354.19577809993643,355.19746860000305,354.19577809993643,355.19746860000305,354.19577809993643,355.19746860000305,354.19577809993643,354.6964185000397,354.19577809993643,354.6964185000397,354.19577809993643,354.6964185000397,354.19577809993643,354.6964185000397,354.19577809993643,None,0.12743019999470562,,,,,11020,001,2024_Jan_05_1046,nback,2021.2.3,59.82746955288984,
2-back,instructions\back-2.png,conditions\20back-e.xlsx,,,experiment,2,1,stim\yellow.png,stim\gray.png,stim\gray.png,stim\gray.png,right,,,,,,,,,,,,,0,1,1,2,0,10,10,10,,,,,,,,,,,,,,,,,,,,,,,,,,,,,,,,,,,,,,,,,,,,,,,,,,,,,,,,None,0,355.6969390999293,None,355.6969390999293,None,355.6969390999293,356.6987009999575,355.6969390999293,356.6987009999575,355.6969390999293,356.6987009999575,355.6969390999293,356.6987009999575,355.6969390999293,356.19850169995334,355.6969390999293,356.19850169995334,355.6969390999293,356.19850169995334,355.6969390999293,356.19850169995334,355.6969390999293,None,,,,,,11020,001,2024_Jan_05_1046,nback,2021.2.3,59.82746955288984,
2-back,instructions\back-2.png,conditions\20back-e.xlsx,,,experiment,2,2,stim\gray.png,stim\yellow.png,stim\gray.png,stim\gray.png,down,,,,,,,,,,,,,0,1,1,2,0,11,11,11,,,,,,,,,,,,,,,,,,,,,,,,,,,,,,,,,,,,,,,,,,,,,,,,,,,,,,,,down,1,357.1998913999414,None,357.1998913999414,None,357.1998913999414,358.2011058999924,357.1998913999414,358.2011058999924,357.1998913999414,358.2011058999924,357.1998913999414,358.2011058999924,357.1998913999414,357.70016090001445,357.1998913999414,357.70016090001445,357.1998913999414,357.70016090001445,357.1998913999414,357.70016090001445,357.1998913999414,None,0.02686139999423176,,,,,11020,001,2024_Jan_05_1046,nback,2021.2.3,59.82746955288984,
2-back,instructions\back-2.png,conditions\20back-e.xlsx,,,experiment,2,3,stim\gray.png,stim\gray.png,stim\yellow.png,stim\gray.png,up,,,,,,,,,,,,,0,1,1,2,0,12,12,12,,,,,,,,,,,,,,,,,,,,,,,,,,,,,,,,,,,,,,,,,,,,,,,,,,,,,,,,left,0,358.6855909000151,None,358.6855909000151,None,358.6855909000151,359.68621499999426,358.6855909000151,359.68621499999426,358.6855909000151,359.68621499999426,358.6855909000151,359.68621499999426,358.6855909000151,359.1857023999328,358.6855909000151,359.1857023999328,358.6855909000151,359.1857023999328,358.6855909000151,359.1857023999328,358.6855909000151,None,1.4612860000925139,,,,,11020,001,2024_Jan_05_1046,nback,2021.2.3,59.82746955288984,
2-back,instructions\back-2.png,conditions\20back-e.xlsx,,,experiment,2,1,stim\yellow.png,stim\gray.png,stim\gray.png,stim\gray.png,left,,,,,,,,,,,,,0,1,1,2,0,13,13,13,,,,,,,,,,,,,,,,,,,,,,,,,,,,,,,,,,,,,,,,,,,,,,,,,,,,,,,,None,0,360.18719770002645,None,360.18719770002645,None,360.18719770002645,361.1901060999371,360.18719770002645,361.1901060999371,360.18719770002645,361.1901060999371,360.18719770002645,361.1901060999371,360.18719770002645,360.68874979997054,360.18719770002645,360.68874979997054,360.18719770002645,360.68874979997054,360.18719770002645,360.68874979997054,360.18719770002645,None,,,,,,11020,001,2024_Jan_05_1046,nback,2021.2.3,59.82746955288984,
2-back,instructions\back-2.png,conditions\20back-e.xlsx,,,experiment,2,4,stim\gray.png,stim\gray.png,stim\gray.png,stim\yellow.png,right,,,,,,,,,,,,,0,1,1,2,0,14,14,14,,,,,,,,,,,,,,,,,,,,,,,,,,,,,,,,,,,,,,,,,,,,,,,,,,,,,,,,right,1,361.6894743000157,None,361.6894743000157,None,361.6894743000157,362.69229429995175,361.6894743000157,362.69229429995175,361.6894743000157,362.69229429995175,361.6894743000157,362.69229429995175,361.6894743000157,362.19014920003247,361.6894743000157,362.19014920003247,361.6894743000157,362.19014920003247,361.6894743000157,362.19014920003247,361.6894743000157,None,0.1693578000413254,,,,,11020,001,2024_Jan_05_1046,nback,2021.2.3,59.82746955288984,
2-back,instructions\back-2.png,conditions\20back-e.xlsx,,,experiment,2,2,stim\gray.png,stim\yellow.png,stim\gray.png,stim\gray.png,up,,,,,,,,,,,,,0,1,1,2,0,15,15,15,,,,,,,,,,,,,,,,,,,,,,,,,,,,,,,,,,,,,,,,,,,,,,,,,,,,,,,,up,1,363.1916077999631,None,363.1916077999631,None,363.1916077999631,364.1937107000267,363.1916077999631,364.1937107000267,363.1916077999631,364.1937107000267,363.1916077999631,364.1937107000267,363.1916077999631,363.6927496000426,363.1916077999631,363.6927496000426,363.1916077999631,363.6927496000426,363.1916077999631,363.6927496000426,363.1916077999631,None,0.05918019998352975,,,,,11020,001,2024_Jan_05_1046,nback,2021.2.3,59.82746955288984,
2-back,instructions\back-2.png,conditions\20back-e.xlsx,,,experiment,2,4,stim\gray.png,stim\gray.png,stim\gray.png,stim\yellow.png,down,,,,,,,,,,,,,0,1,1,2,0,16,16,16,,,,,,,,,,,,,,,,,,,,,,,,,,,,,,,,,,,,,,,,,,,,,,,,,,,,,,,,down,1,364.69371220003814,None,364.69371220003814,None,364.69371220003814,365.69538819999434,364.69371220003814,365.69538819999434,364.69371220003814,365.69538819999434,364.69371220003814,365.69538819999434,364.69371220003814,365.19462570000906,364.69371220003814,365.19462570000906,364.69371220003814,365.19462570000906,364.69371220003814,365.19462570000906,364.69371220003814,None,0.10927110002376139,,,,,11020,001,2024_Jan_05_1046,nback,2021.2.3,59.82746955288984,
2-back,instructions\back-2.png,conditions\20back-e.xlsx,,,experiment,2,3,stim\gray.png,stim\gray.png,stim\yellow.png,stim\gray.png,left,,,,,,,,,,,,,0,1,1,2,0,17,17,17,,,,,,,,,,,,,,,,,,,,,,,,,,,,,,,,,,,,,,,,,,,,,,,,,,,,,,,,left,1,366.19608569995034,None,366.19608569995034,None,366.19608569995034,367.19852269999683,366.19608569995034,367.19852269999683,366.19608569995034,367.19852269999683,366.19608569995034,367.19852269999683,366.19608569995034,366.69745510001667,366.19608569995034,366.69745510001667,366.19608569995034,366.69745510001667,366.19608569995034,366.69745510001667,366.19608569995034,None,0.11890369991306216,,,,,11020,001,2024_Jan_05_1046,nback,2021.2.3,59.82746955288984,
2-back,instructions\back-2.png,conditions\20back-e.xlsx,,,experiment,2,1,stim\yellow.png,stim\gray.png,stim\gray.png,stim\gray.png,down,,,,,,,,,,,,,0,1,1,2,0,18,18,18,,,,,,,,,,,,,,,,,,,,,,,,,,,,,,,,,,,,,,,,,,,,,,,,,,,,,,,,down,1,367.6983361999737,None,367.6983361999737,None,367.6983361999737,368.70046620001085,367.6983361999737,368.70046620001085,367.6983361999737,368.70046620001085,367.6983361999737,368.70046620001085,367.6983361999737,368.19880899996497,367.6983361999737,368.19880899996497,367.6983361999737,368.19880899996497,367.6983361999737,368.19880899996497,367.6983361999737,None,0.09664860006887466,,,,,11020,001,2024_Jan_05_1046,nback,2021.2.3,59.82746955288984,
2-back,instructions\back-2.png,conditions\20back-e.xlsx,,,experiment,2,2,stim\gray.png,stim\yellow.png,stim\gray.png,stim\gray.png,right,,,,,,,,,,,,,0,1,1,2,0,19,19,19,,,,,,,,,,,,,,,,,,,,,,,,,,,,,,,,,,,,,,,,,,,,,,,,,,,,,,,,right,1,369.1840819999343,None,369.1840819999343,None,369.1840819999343,370.18600650003646,369.1840819999343,370.18600650003646,369.1840819999343,370.18600650003646,369.1840819999343,370.18600650003646,369.1840819999343,369.68547869997565,369.1840819999343,369.68547869997565,369.1840819999343,369.68547869997565,369.1840819999343,369.68547869997565,369.1840819999343,None,0.17094799992628396,,,,,11020,001,2024_Jan_05_1046,nback,2021.2.3,59.82746955288984,
2-back,instructions\back-2.png,conditions\20back-e.xlsx,,,,,,,,,,,,,,,,,,,,,,,0,1,1,2,,,,,,,,,,,,,,,,,,,,,,,,,,,,,,,,,,,,,,,,,,,,,,,,,,,,,,,,,,,,,,,,,,,,,,,,,,,,,,,,,,,,,370.6882152999751,None,,,11020,001,2024_Jan_05_1046,nback,2021.2.3,59.82746955288984,
0-back,instructions\back-0.png,conditions\02back-e.xlsx,,,experiment,0,4,stim\gray.png,stim\gray.png,stim\gray.png,stim\yellow.png,down,,,,,,,,,,,,,0,2,2,7,0,0,0,0,,,,,,,,,,,,,,,371.7868255999638,376.2951040000189,376.2617189999437,None,,,,,,,,,,,,,,,,,,,,,,,,,,,,,,,,,,,,,,down,1,376.7124144999543,None,376.7124144999543,None,376.7124144999543,377.71319209993817,376.7124144999543,377.71319209993817,376.7124144999543,377.71319209993817,376.7124144999543,377.71319209993817,376.7124144999543,377.2124189999886,376.7124144999543,377.2124189999886,376.7124144999543,377.2124189999886,376.7124144999543,377.2124189999886,376.7124144999543,None,0.6422736999811605,,,,,11020,001,2024_Jan_05_1046,nback,2021.2.3,59.82746955288984,
0-back,instructions\back-0.png,conditions\02back-e.xlsx,,,experiment,0,2,stim\gray.png,stim\yellow.png,stim\gray.png,stim\gray.png,left,,,,,,,,,,,,,0,2,2,7,0,1,1,1,,,,,,,,,,,,,,,,,,,,,,,,,,,,,,,,,,,,,,,,,,,,,,,,,,,,,,,,left,1,378.1976998000173,None,378.1976998000173,None,378.1976998000173,379.1993260999443,378.1976998000173,379.1993260999443,378.1976998000173,379.1993260999443,378.1976998000173,379.1993260999443,378.1976998000173,378.6991486999905,378.1976998000173,378.6991486999905,378.1976998000173,378.6991486999905,378.1976998000173,378.6991486999905,378.1976998000173,None,0.33367109997197986,,,,,11020,001,2024_Jan_05_1046,nback,2021.2.3,59.82746955288984,
0-back,instructions\back-0.png,conditions\02back-e.xlsx,,,experiment,0,1,stim\yellow.png,stim\gray.png,stim\gray.png,stim\gray.png,up,,,,,,,,,,,,,0,2,2,7,0,2,2,2,,,,,,,,,,,,,,,,,,,,,,,,,,,,,,,,,,,,,,,,,,,,,,,,,,,,,,,,up,1,379.6998652999755,None,379.6998652999755,None,379.6998652999755,380.70182499999646,379.6998652999755,380.70182499999646,379.6998652999755,380.70182499999646,379.6998652999755,380.70182499999646,379.6998652999755,380.2009834999917,379.6998652999755,380.2009834999917,379.6998652999755,380.2009834999917,379.6998652999755,380.2009834999917,379.6998652999755,None,0.3520077000139281,,,,,11020,001,2024_Jan_05_1046,nback,2021.2.3,59.82746955288984,
0-back,instructions\back-0.png,conditions\02back-e.xlsx,,,experiment,0,2,stim\gray.png,stim\yellow.png,stim\gray.png,stim\gray.png,left,,,,,,,,,,,,,0,2,2,7,0,3,3,3,,,,,,,,,,,,,,,,,,,,,,,,,,,,,,,,,,,,,,,,,,,,,,,,,,,,,,,,left,1,381.18518449994735,None,381.18518449994735,None,381.18518449994735,382.1871139999712,381.18518449994735,382.1871139999712,381.18518449994735,382.1871139999712,381.18518449994735,382.1871139999712,381.18518449994735,381.6865279999329,381.18518449994735,381.6865279999329,381.18518449994735,381.6865279999329,381.18518449994735,381.6865279999329,381.18518449994735,None,0.34596760000567883,,,,,11020,001,2024_Jan_05_1046,nback,2021.2.3,59.82746955288984,
0-back,instructions\back-0.png,conditions\02back-e.xlsx,,,experiment,0,3,stim\gray.png,stim\gray.png,stim\yellow.png,stim\gray.png,right,,,,,,,,,,,,,0,2,2,7,0,4,4,4,,,,,,,,,,,,,,,,,,,,,,,,,,,,,,,,,,,,,,,,,,,,,,,,,,,,,,,,right,1,382.6869004999753,None,382.6869004999753,None,382.6869004999753,383.68866129999515,382.6869004999753,383.68866129999515,382.6869004999753,383.68866129999515,382.6869004999753,383.68866129999515,382.6869004999753,383.1886671000393,382.6869004999753,383.1886671000393,382.6869004999753,383.1886671000393,382.6869004999753,383.1886671000393,382.6869004999753,None,0.29194460005965084,,,,,11020,001,2024_Jan_05_1046,nback,2021.2.3,59.82746955288984,
0-back,instructions\back-0.png,conditions\02back-e.xlsx,,,experiment,0,1,stim\yellow.png,stim\gray.png,stim\gray.png,stim\gray.png,up,,,,,,,,,,,,,0,2,2,7,0,5,5,5,,,,,,,,,,,,,,,,,,,,,,,,,,,,,,,,,,,,,,,,,,,,,,,,,,,,,,,,up,1,384.1895589999622,None,384.1895589999622,None,384.1895589999622,385.1909571000142,384.1895589999622,385.1909571000142,384.1895589999622,385.1909571000142,384.1895589999622,385.1909571000142,384.1895589999622,384.6909189999569,384.1895589999622,384.6909189999569,384.1895589999622,384.6909189999569,384.1895589999622,384.6909189999569,384.1895589999622,None,0.30148139991797507,,,,,11020,001,2024_Jan_05_1046,nback,2021.2.3,59.82746955288984,
0-back,instructions\back-0.png,conditions\02back-e.xlsx,,,experiment,0,2,stim\gray.png,stim\yellow.png,stim\gray.png,stim\gray.png,left,,,,,,,,,,,,,0,2,2,7,0,6,6,6,,,,,,,,,,,,,,,,,,,,,,,,,,,,,,,,,,,,,,,,,,,,,,,,,,,,,,,,left,1,385.69147750001866,None,385.69147750001866,None,385.69147750001866,386.69377449993044,385.69147750001866,386.69377449993044,385.69147750001866,386.69377449993044,385.69147750001866,386.69377449993044,385.69147750001866,386.1936604999937,385.69147750001866,386.1936604999937,385.69147750001866,386.1936604999937,385.69147750001866,386.1936604999937,385.69147750001866,None,0.3273334000259638,,,,,11020,001,2024_Jan_05_1046,nback,2021.2.3,59.82746955288984,
0-back,instructions\back-0.png,conditions\02back-e.xlsx,,,experiment,0,3,stim\gray.png,stim\gray.png,stim\yellow.png,stim\gray.png,right,,,,,,,,,,,,,0,2,2,7,0,7,7,7,,,,,,,,,,,,,,,,,,,,,,,,,,,,,,,,,,,,,,,,,,,,,,,,,,,,,,,,right,1,387.1948495999677,None,387.1948495999677,None,387.1948495999677,388.19631879997905,387.1948495999677,388.19631879997905,387.1948495999677,388.19631879997905,387.1948495999677,388.19631879997905,387.1948495999677,387.6951154000126,387.1948495999677,387.6951154000126,387.1948495999677,387.6951154000126,387.1948495999677,387.6951154000126,387.1948495999677,None,0.40058989997487515,,,,,11020,001,2024_Jan_05_1046,nback,2021.2.3,59.82746955288984,
0-back,instructions\back-0.png,conditions\02back-e.xlsx,,,experiment,0,4,stim\gray.png,stim\gray.png,stim\gray.png,stim\yellow.png,down,,,,,,,,,,,,,0,2,2,7,0,8,8,8,,,,,,,,,,,,,,,,,,,,,,,,,,,,,,,,,,,,,,,,,,,,,,,,,,,,,,,,down,1,388.6960546999471,None,388.6960546999471,None,388.6960546999471,389.6981662999606,388.6960546999471,389.6981662999606,388.6960546999471,389.6981662999606,388.6960546999471,389.6981662999606,388.6960546999471,389.1967566999374,388.6960546999471,389.1967566999374,388.6960546999471,389.1967566999374,388.6960546999471,389.1967566999374,388.6960546999471,None,0.3393000999931246,,,,,11020,001,2024_Jan_05_1046,nback,2021.2.3,59.82746955288984,
0-back,instructions\back-0.png,conditions\02back-e.xlsx,,,experiment,0,3,stim\gray.png,stim\gray.png,stim\yellow.png,stim\gray.png,right,,,,,,,,,,,,,0,2,2,7,0,9,9,9,,,,,,,,,,,,,,,,,,,,,,,,,,,,,,,,,,,,,,,,,,,,,,,,,,,,,,,,right,1,390.19804089993704,None,390.19804089993704,None,390.19804089993704,391.2000176999718,390.19804089993704,391.2000176999718,390.19804089993704,391.2000176999718,390.19804089993704,391.2000176999718,390.19804089993704,390.6997178000165,390.19804089993704,390.6997178000165,390.19804089993704,390.6997178000165,390.19804089993704,390.6997178000165,390.19804089993704,None,0.39685549994464964,,,,,11020,001,2024_Jan_05_1046,nback,2021.2.3,59.82746955288984,
0-back,instructions\back-0.png,conditions\02back-e.xlsx,,,experiment,0,1,stim\yellow.png,stim\gray.png,stim\gray.png,stim\gray.png,up,,,,,,,,,,,,,0,2,2,7,0,10,10,10,,,,,,,,,,,,,,,,,,,,,,,,,,,,,,,,,,,,,,,,,,,,,,,,,,,,,,,,up,1,391.68358429998625,None,391.68358429998625,None,391.68358429998625,392.6866167000262,391.68358429998625,392.6866167000262,391.68358429998625,392.6866167000262,391.68358429998625,392.6866167000262,391.68358429998625,392.1845121999504,391.68358429998625,392.1845121999504,391.68358429998625,392.1845121999504,391.68358429998625,392.1845121999504,391.68358429998625,None,0.2961428000126034,,,,,11020,001,2024_Jan_05_1046,nback,2021.2.3,59.82746955288984,
0-back,instructions\back-0.png,conditions\02back-e.xlsx,,,experiment,0,4,stim\gray.png,stim\gray.png,stim\gray.png,stim\yellow.png,down,,,,,,,,,,,,,0,2,2,7,0,11,11,11,,,,,,,,,,,,,,,,,,,,,,,,,,,,,,,,,,,,,,,,,,,,,,,,,,,,,,,,down,1,393.18600029998925,None,393.18600029998925,None,393.18600029998925,394.1875341000268,393.18600029998925,394.1875341000268,393.18600029998925,394.1875341000268,393.18600029998925,394.1875341000268,393.18600029998925,393.68835049995687,393.18600029998925,393.68835049995687,393.18600029998925,393.68835049995687,393.18600029998925,393.68835049995687,393.18600029998925,None,0.30548179999459535,,,,,11020,001,2024_Jan_05_1046,nback,2021.2.3,59.82746955288984,
0-back,instructions\back-0.png,conditions\02back-e.xlsx,,,experiment,0,3,stim\gray.png,stim\gray.png,stim\yellow.png,stim\gray.png,right,,,,,,,,,,,,,0,2,2,7,0,12,12,12,,,,,,,,,,,,,,,,,,,,,,,,,,,,,,,,,,,,,,,,,,,,,,,,,,,,,,,,right,1,394.6887716000201,None,394.6887716000201,None,394.6887716000201,395.6896010999335,394.6887716000201,395.6896010999335,394.6887716000201,395.6896010999335,394.6887716000201,395.6896010999335,394.6887716000201,395.1889801999787,394.6887716000201,395.1889801999787,394.6887716000201,395.1889801999787,394.6887716000201,395.1889801999787,394.6887716000201,None,0.34638620004989207,,,,,11020,001,2024_Jan_05_1046,nback,2021.2.3,59.82746955288984,
0-back,instructions\back-0.png,conditions\02back-e.xlsx,,,experiment,0,1,stim\yellow.png,stim\gray.png,stim\gray.png,stim\gray.png,up,,,,,,,,,,,,,0,2,2,7,0,13,13,13,,,,,,,,,,,,,,,,,,,,,,,,,,,,,,,,,,,,,,,,,,,,,,,,,,,,,,,,up,1,396.1909174999455,None,396.1909174999455,None,396.1909174999455,397.1919125999557,396.1909174999455,397.1919125999557,396.1909174999455,397.1919125999557,396.1909174999455,397.1919125999557,396.1909174999455,396.691586800036,396.1909174999455,396.691586800036,396.1909174999455,396.691586800036,396.1909174999455,396.691586800036,396.1909174999455,None,0.356116299983114,,,,,11020,001,2024_Jan_05_1046,nback,2021.2.3,59.82746955288984,
0-back,instructions\back-0.png,conditions\02back-e.xlsx,,,experiment,0,2,stim\gray.png,stim\yellow.png,stim\gray.png,stim\gray.png,left,,,,,,,,,,,,,0,2,2,7,0,14,14,14,,,,,,,,,,,,,,,,,,,,,,,,,,,,,,,,,,,,,,,,,,,,,,,,,,,,,,,,left,1,397.6926401000237,None,397.6926401000237,None,397.6926401000237,398.6957149000373,397.6926401000237,398.6957149000373,397.6926401000237,398.6957149000373,397.6926401000237,398.6957149000373,397.6926401000237,398.1941292999545,397.6926401000237,398.1941292999545,397.6926401000237,398.1941292999545,397.6926401000237,398.1941292999545,397.6926401000237,None,0.27005329995881766,,,,,11020,001,2024_Jan_05_1046,nback,2021.2.3,59.82746955288984,
0-back,instructions\back-0.png,conditions\02back-e.xlsx,,,experiment,0,1,stim\yellow.png,stim\gray.png,stim\gray.png,stim\gray.png,up,,,,,,,,,,,,,0,2,2,7,0,15,15,15,,,,,,,,,,,,,,,,,,,,,,,,,,,,,,,,,,,,,,,,,,,,,,,,,,,,,,,,up,1,399.19478349993005,None,399.19478349993005,None,399.19478349993005,400.1964868999785,399.19478349993005,400.1964868999785,399.19478349993005,400.1964868999785,399.19478349993005,400.1964868999785,399.19478349993005,399.69566550001036,399.19478349993005,399.69566550001036,399.19478349993005,399.69566550001036,399.19478349993005,399.69566550001036,399.19478349993005,None,0.3684056999627501,,,,,11020,001,2024_Jan_05_1046,nback,2021.2.3,59.82746955288984,
0-back,instructions\back-0.png,conditions\02back-e.xlsx,,,experiment,0,3,stim\gray.png,stim\gray.png,stim\yellow.png,stim\gray.png,right,,,,,,,,,,,,,0,2,2,7,0,16,16,16,,,,,,,,,,,,,,,,,,,,,,,,,,,,,,,,,,,,,,,,,,,,,,,,,,,,,,,,right,1,400.69722590001766,None,400.69722590001766,None,400.69722590001766,401.69953450001776,400.69722590001766,401.69953450001776,400.69722590001766,401.69953450001776,400.69722590001766,401.69953450001776,400.69722590001766,401.19774149998557,400.69722590001766,401.19774149998557,400.69722590001766,401.19774149998557,400.69722590001766,401.19774149998557,400.69722590001766,None,0.3136654000263661,,,,,11020,001,2024_Jan_05_1046,nback,2021.2.3,59.82746955288984,
0-back,instructions\back-0.png,conditions\02back-e.xlsx,,,experiment,0,4,stim\gray.png,stim\gray.png,stim\gray.png,stim\yellow.png,down,,,,,,,,,,,,,0,2,2,7,0,17,17,17,,,,,,,,,,,,,,,,,,,,,,,,,,,,,,,,,,,,,,,,,,,,,,,,,,,,,,,,down,1,402.19984090002254,None,402.19984090002254,None,402.19984090002254,403.20154819998425,402.19984090002254,403.20154819998425,402.19984090002254,403.20154819998425,402.19984090002254,403.20154819998425,402.19984090002254,402.7003257999895,402.19984090002254,402.7003257999895,402.19984090002254,402.7003257999895,402.19984090002254,402.7003257999895,402.19984090002254,None,0.2993096000282094,,,,,11020,001,2024_Jan_05_1046,nback,2021.2.3,59.82746955288984,
0-back,instructions\back-0.png,conditions\02back-e.xlsx,,,experiment,0,4,stim\gray.png,stim\gray.png,stim\gray.png,stim\yellow.png,down,,,,,,,,,,,,,0,2,2,7,0,18,18,18,,,,,,,,,,,,,,,,,,,,,,,,,,,,,,,,,,,,,,,,,,,,,,,,,,,,,,,,down,1,403.6848648999585,None,403.6848648999585,None,403.6848648999585,404.6864383999491,403.6848648999585,404.6864383999491,403.6848648999585,404.6864383999491,403.6848648999585,404.6864383999491,403.6848648999585,404.18564020004123,403.6848648999585,404.18564020004123,403.6848648999585,404.18564020004123,403.6848648999585,404.18564020004123,403.6848648999585,None,0.3981677999254316,,,,,11020,001,2024_Jan_05_1046,nback,2021.2.3,59.82746955288984,
0-back,instructions\back-0.png,conditions\02back-e.xlsx,,,experiment,0,2,stim\gray.png,stim\yellow.png,stim\gray.png,stim\gray.png,left,,,,,,,,,,,,,0,2,2,7,0,19,19,19,,,,,,,,,,,,,,,,,,,,,,,,,,,,,,,,,,,,,,,,,,,,,,,,,,,,,,,,left,1,405.18711309996434,None,405.18711309996434,None,405.18711309996434,406.18870810000226,405.18711309996434,406.18870810000226,405.18711309996434,406.18870810000226,405.18711309996434,406.18870810000226,405.18711309996434,405.6878255000338,405.18711309996434,405.6878255000338,405.18711309996434,405.6878255000338,405.18711309996434,405.6878255000338,405.18711309996434,None,0.29588049999438226,,,,,11020,001,2024_Jan_05_1046,nback,2021.2.3,59.82746955288984,
0-back,instructions\back-0.png,conditions\02back-e.xlsx,,,,,,,,,,,,,,,,,,,,,,,0,2,2,7,,,,,,,,,,,,,,,,,,,,,,,,,,,,,,,,,,,,,,,,,,,,,,,,,,,,,,,,,,,,,,,,,,,,,,,,,,,,,,,,,,,,,406.68993550003506,None,,,11020,001,2024_Jan_05_1046,nback,2021.2.3,59.82746955288984,
1-back,instructions\back-1.png,conditions\14back-e.xlsx,,,experiment,1,3,stim\gray.png,stim\gray.png,stim\yellow.png,stim\gray.png,None,,,,,,,,,,,,,0,3,3,14,0,0,0,0,,,,,,,,,,,,,,,407.7910636999877,412.299534699996,412.26528649998363,None,,,,,,,,,,,,,,,,,,,,,,,,,,,,,,,,,,,,,,right,0,412.71511580003425,None,412.71511580003425,None,412.71511580003425,413.7166317999363,412.71511580003425,413.7166317999363,412.71511580003425,413.7166317999363,412.71511580003425,413.7166317999363,412.71511580003425,413.2164674999658,412.71511580003425,413.2164674999658,412.71511580003425,413.2164674999658,412.71511580003425,413.2164674999658,412.71511580003425,None,0.47208500001579523,,,,,11020,001,2024_Jan_05_1046,nback,2021.2.3,59.82746955288984,
1-back,instructions\back-1.png,conditions\14back-e.xlsx,,,experiment,1,2,stim\gray.png,stim\yellow.png,stim\gray.png,stim\gray.png,right,,,,,,,,,,,,,0,3,3,14,0,1,1,1,,,,,,,,,,,,,,,,,,,,,,,,,,,,,,,,,,,,,,,,,,,,,,,,,,,,,,,,right,1,414.18391679995693,None,414.18391679995693,None,414.18391679995693,415.18759530002717,414.18391679995693,415.18759530002717,414.18391679995693,415.18759530002717,414.18391679995693,415.18759530002717,414.18391679995693,414.68453279999085,414.18391679995693,414.68453279999085,414.18391679995693,414.68453279999085,414.18391679995693,414.68453279999085,414.18391679995693,None,0.3788765000645071,,,,,11020,001,2024_Jan_05_1046,nback,2021.2.3,59.82746955288984,
1-back,instructions\back-1.png,conditions\14back-e.xlsx,,,experiment,1,3,stim\gray.png,stim\gray.png,stim\yellow.png,stim\gray.png,left,,,,,,,,,,,,,0,3,3,14,0,2,2,2,,,,,,,,,,,,,,,,,,,,,,,,,,,,,,,,,,,,,,,,,,,,,,,,,,,,,,,,left,1,415.68590589996893,None,415.68590589996893,None,415.68590589996893,416.6880290999543,415.68590589996893,416.6880290999543,415.68590589996893,416.6880290999543,415.68590589996893,416.6880290999543,415.68590589996893,416.186954600038,415.68590589996893,416.186954600038,415.68590589996893,416.186954600038,415.68590589996893,416.186954600038,415.68590589996893,None,0.22901779995299876,,,,,11020,001,2024_Jan_05_1046,nback,2021.2.3,59.82746955288984,
1-back,instructions\back-1.png,conditions\14back-e.xlsx,,,experiment,1,1,stim\yellow.png,stim\gray.png,stim\gray.png,stim\gray.png,right,,,,,,,,,,,,,0,3,3,14,0,3,3,3,,,,,,,,,,,,,,,,,,,,,,,,,,,,,,,,,,,,,,,,,,,,,,,,,,,,,,,,right,1,417.18818109994754,None,417.18818109994754,None,417.18818109994754,418.19039809994865,417.18818109994754,418.19039809994865,417.18818109994754,418.19039809994865,417.18818109994754,418.19039809994865,417.18818109994754,417.6896607000381,417.18818109994754,417.6896607000381,417.18818109994754,417.6896607000381,417.18818109994754,417.6896607000381,417.18818109994754,None,0.20679259998723865,,,,,11020,001,2024_Jan_05_1046,nback,2021.2.3,59.82746955288984,
1-back,instructions\back-1.png,conditions\14back-e.xlsx,,,experiment,1,2,stim\gray.png,stim\yellow.png,stim\gray.png,stim\gray.png,up,,,,,,,,,,,,,0,3,3,14,0,4,4,4,,,,,,,,,,,,,,,,,,,,,,,,,,,,,,,,,,,,,,,,,,,,,,,,,,,,,,,,up,1,418.6906771999784,None,418.6906771999784,None,418.6906771999784,419.69206120003946,418.6906771999784,419.69206120003946,418.6906771999784,419.69206120003946,418.6906771999784,419.69206120003946,418.6906771999784,419.19120100000873,418.6906771999784,419.19120100000873,418.6906771999784,419.19120100000873,418.6906771999784,419.19120100000873,418.6906771999784,None,0.12816530000418425,,,,,11020,001,2024_Jan_05_1046,nback,2021.2.3,59.82746955288984,
1-back,instructions\back-1.png,conditions\14back-e.xlsx,,,experiment,1,4,stim\gray.png,stim\gray.png,stim\gray.png,stim\yellow.png,left,,,,,,,,,,,,,0,3,3,14,0,5,5,5,,,,,,,,,,,,,,,,,,,,,,,,,,,,,,,,,,,,,,,,,,,,,,,,,,,,,,,,left,1,420.19281299994327,None,420.19281299994327,None,420.19281299994327,421.19512839999516,420.19281299994327,421.19512839999516,420.19281299994327,421.19512839999516,420.19281299994327,421.19512839999516,420.19281299994327,420.69343789992854,420.19281299994327,420.69343789992854,420.19281299994327,420.69343789992854,420.19281299994327,420.69343789992854,420.19281299994327,None,0.08197719999589026,,,,,11020,001,2024_Jan_05_1046,nback,2021.2.3,59.82746955288984,
1-back,instructions\back-1.png,conditions\14back-e.xlsx,,,experiment,1,3,stim\gray.png,stim\gray.png,stim\yellow.png,stim\gray.png,down,,,,,,,,,,,,,0,3,3,14,0,6,6,6,,,,,,,,,,,,,,,,,,,,,,,,,,,,,,,,,,,,,,,,,,,,,,,,,,,,,,,,down,1,421.6950492999749,None,421.6950492999749,None,421.6950492999749,422.6970302000409,421.6950492999749,422.6970302000409,421.6950492999749,422.6970302000409,421.6950492999749,422.6970302000409,421.6950492999749,422.19577260001097,421.6950492999749,422.19577260001097,421.6950492999749,422.19577260001097,421.6950492999749,422.19577260001097,421.6950492999749,None,0.13174340000841767,,,,,11020,001,2024_Jan_05_1046,nback,2021.2.3,59.82746955288984,
1-back,instructions\back-1.png,conditions\14back-e.xlsx,,,experiment,1,1,stim\yellow.png,stim\gray.png,stim\gray.png,stim\gray.png,right,,,,,,,,,,,,,0,3,3,14,0,7,7,7,,,,,,,,,,,,,,,,,,,,,,,,,,,,,,,,,,,,,,,,,,,,,,,,,,,,,,,,right,1,423.1970187999541,None,423.1970187999541,None,423.1970187999541,424.19882769999094,423.1970187999541,424.19882769999094,423.1970187999541,424.19882769999094,423.1970187999541,424.19882769999094,423.1970187999541,423.69832520000637,423.1970187999541,423.69832520000637,423.1970187999541,423.69832520000637,423.1970187999541,423.69832520000637,423.1970187999541,None,0.17394859995692968,,,,,11020,001,2024_Jan_05_1046,nback,2021.2.3,59.82746955288984,
1-back,instructions\back-1.png,conditions\14back-e.xlsx,,,experiment,1,3,stim\gray.png,stim\gray.png,stim\yellow.png,stim\gray.png,up,,,,,,,,,,,,,0,3,3,14,0,8,8,8,,,,,,,,,,,,,,,,,,,,,,,,,,,,,,,,,,,,,,,,,,,,,,,,,,,,,,,,right,0,424.6993917999789,None,424.6993917999789,None,424.6993917999789,425.7021298999898,424.6993917999789,425.7021298999898,424.6993917999789,425.7021298999898,424.6993917999789,425.7021298999898,424.6993917999789,425.2008971000323,424.6993917999789,425.2008971000323,424.6993917999789,425.2008971000323,424.6993917999789,425.2008971000323,424.6993917999789,None,1.407530500087887,,,,,11020,001,2024_Jan_05_1046,nback,2021.2.3,59.82746955288984,
1-back,instructions\back-1.png,conditions\14back-e.xlsx,,,experiment,1,2,stim\gray.png,stim\yellow.png,stim\gray.png,stim\gray.png,right,,,,,,,,,,,,,0,3,3,14,0,9,9,9,,,,,,,,,,,,,,,,,,,,,,,,,,,,,,,,,,,,,,,,,,,,,,,,,,,,,,,,left,0,426.1849581999704,None,426.1849581999704,None,426.1849581999704,427.1865511999931,426.1849581999704,427.1865511999931,426.1849581999704,427.1865511999931,426.1849581999704,427.1865511999931,426.1849581999704,426.68658730003517,426.1849581999704,426.68658730003517,426.1849581999704,426.68658730003517,426.1849581999704,426.68658730003517,426.1849581999704,None,1.2660831999965012,,,,,11020,001,2024_Jan_05_1046,nback,2021.2.3,59.82746955288984,
1-back,instructions\back-1.png,conditions\14back-e.xlsx,,,experiment,1,4,stim\gray.png,stim\gray.png,stim\gray.png,stim\yellow.png,left,,,,,,,,,,,,,0,3,3,14,0,10,10,10,,,,,,,,,,,,,,,,,,,,,,,,,,,,,,,,,,,,,,,,,,,,,,,,,,,,,,,,None,0,427.68692889995873,None,427.68692889995873,None,427.68692889995873,428.6894502999494,427.68692889995873,428.6894502999494,427.68692889995873,428.6894502999494,427.68692889995873,428.6894502999494,427.68692889995873,428.1895914999768,427.68692889995873,428.1895914999768,427.68692889995873,428.1895914999768,427.68692889995873,428.1895914999768,427.68692889995873,None,,,,,,11020,001,2024_Jan_05_1046,nback,2021.2.3,59.82746955288984,
1-back,instructions\back-1.png,conditions\14back-e.xlsx,,,experiment,1,2,stim\gray.png,stim\yellow.png,stim\gray.png,stim\gray.png,down,,,,,,,,,,,,,0,3,3,14,0,11,11,11,,,,,,,,,,,,,,,,,,,,,,,,,,,,,,,,,,,,,,,,,,,,,,,,,,,,,,,,down,1,429.1894138000207,None,429.1894138000207,None,429.1894138000207,430.19078930001706,429.1894138000207,430.19078930001706,429.1894138000207,430.19078930001706,429.1894138000207,430.19078930001706,429.1894138000207,429.69013679993805,429.1894138000207,429.69013679993805,429.1894138000207,429.69013679993805,429.1894138000207,429.69013679993805,429.1894138000207,None,0.03752590005751699,,,,,11020,001,2024_Jan_05_1046,nback,2021.2.3,59.82746955288984,
1-back,instructions\back-1.png,conditions\14back-e.xlsx,,,experiment,1,4,stim\gray.png,stim\gray.png,stim\gray.png,stim\yellow.png,left,,,,,,,,,,,,,0,3,3,14,0,12,12,12,,,,,,,,,,,,,,,,,,,,,,,,,,,,,,,,,,,,,,,,,,,,,,,,,,,,,,,,left,1,430.69171889999416,None,430.69171889999416,None,430.69171889999416,431.6930760999676,430.69171889999416,431.6930760999676,430.69171889999416,431.6930760999676,430.69171889999416,431.6930760999676,430.69171889999416,431.1930335999932,430.69171889999416,431.1930335999932,430.69171889999416,431.1930335999932,430.69171889999416,431.1930335999932,430.69171889999416,None,0.2637220999458805,,,,,11020,001,2024_Jan_05_1046,nback,2021.2.3,59.82746955288984,
1-back,instructions\back-1.png,conditions\14back-e.xlsx,,,experiment,1,1,stim\yellow.png,stim\gray.png,stim\gray.png,stim\gray.png,down,,,,,,,,,,,,,0,3,3,14,0,13,13,13,,,,,,,,,,,,,,,,,,,,,,,,,,,,,,,,,,,,,,,,,,,,,,,,,,,,,,,,down,1,432.19359309994616,None,432.19359309994616,None,432.19359309994616,433.1953659999417,432.19359309994616,433.1953659999417,432.19359309994616,433.1953659999417,432.19359309994616,433.1953659999417,432.19359309994616,432.6953044999391,432.19359309994616,432.6953044999391,432.19359309994616,432.6953044999391,432.19359309994616,432.6953044999391,432.19359309994616,None,0.2413042999105528,,,,,11020,001,2024_Jan_05_1046,nback,2021.2.3,59.82746955288984,
1-back,instructions\back-1.png,conditions\14back-e.xlsx,,,experiment,1,1,stim\yellow.png,stim\gray.png,stim\gray.png,stim\gray.png,up,,,,,,,,,,,,,0,3,3,14,0,14,14,14,,,,,,,,,,,,,,,,,,,,,,,,,,,,,,,,,,,,,,,,,,,,,,,,,,,,,,,,up,1,433.69603699992876,None,433.69603699992876,None,433.69603699992876,434.69768979994114,433.69603699992876,434.69768979994114,433.69603699992876,434.69768979994114,433.69603699992876,434.69768979994114,433.69603699992876,434.1973045000341,433.69603699992876,434.1973045000341,433.69603699992876,434.1973045000341,433.69603699992876,434.1973045000341,433.69603699992876,None,0.2428008000133559,,,,,11020,001,2024_Jan_05_1046,nback,2021.2.3,59.82746955288984,
1-back,instructions\back-1.png,conditions\14back-e.xlsx,,,experiment,1,4,stim\gray.png,stim\gray.png,stim\gray.png,stim\yellow.png,up,,,,,,,,,,,,,0,3,3,14,0,15,15,15,,,,,,,,,,,,,,,,,,,,,,,,,,,,,,,,,,,,,,,,,,,,,,,,,,,,,,,,up,1,435.19834589993116,None,435.19834589993116,None,435.19834589993116,436.19978210004047,435.19834589993116,436.19978210004047,435.19834589993116,436.19978210004047,435.19834589993116,436.19978210004047,435.19834589993116,435.6989346999908,435.19834589993116,435.6989346999908,435.19834589993116,435.6989346999908,435.19834589993116,435.6989346999908,435.19834589993116,None,0.14860469999257475,,,,,11020,001,2024_Jan_05_1046,nback,2021.2.3,59.82746955288984,
1-back,instructions\back-1.png,conditions\14back-e.xlsx,,,experiment,1,1,stim\yellow.png,stim\gray.png,stim\gray.png,stim\gray.png,down,,,,,,,,,,,,,0,3,3,14,0,16,16,16,,,,,,,,,,,,,,,,,,,,,,,,,,,,,,,,,,,,,,,,,,,,,,,,,,,,,,,,down,1,436.6837818999775,None,436.6837818999775,None,436.6837818999775,437.686456299969,436.6837818999775,437.686456299969,436.6837818999775,437.686456299969,436.6837818999775,437.686456299969,436.6837818999775,437.18502149998676,436.6837818999775,437.18502149998676,436.6837818999775,437.18502149998676,436.6837818999775,437.18502149998676,436.6837818999775,None,0.1031811999855563,,,,,11020,001,2024_Jan_05_1046,nback,2021.2.3,59.82746955288984,
