backseq,backinstr,backfile,instruction,size_in,Trialtype,back,number,P1,P2,P3,P4,corrAns,trials_practice.thisRepN,trials_practice.thisTrialN,trials_practice.thisN,trials_practice.thisIndex,trials.thisRepN,trials.thisTrialN,trials.thisN,trials.thisIndex,trials_3.thisRepN,trials_3.thisTrialN,trials_3.thisN,trials_3.thisIndex,trials_2.thisRepN,trials_2.thisTrialN,trials_2.thisN,trials_2.thisIndex,trials_4.thisRepN,trials_4.thisTrialN,trials_4.thisN,trials_4.thisIndex,image.started,image.stopped,image_2.started,image_2.stopped,key_resp.keys,key_resp.rt,key_resp.started,key_resp.stopped,image_3.started,image_3.stopped,key_resp_2.keys,key_resp_2.rt,key_resp_2.started,key_resp_2.stopped,image_4.started,image_4.stopped,text.started,text.stopped,H1.started,H1.stopped,H2.started,H2.stopped,H3.started,H3.stopped,H4.started,H4.stopped,key_resp_3.keys,key_resp_3.corr,key_resp_3.rt,key_resp_3.started,key_resp_3.stopped,text_4.started,text_4.stopped,F1.started,F1.stopped,F2.started,F2.stopped,F3.started,F3.stopped,F4.started,F4.stopped,image_7.started,image_7.stopped,text_5.started,text_5.stopped,key_resp_6.keys,key_resp_6.rt,key_resp_6.started,key_resp_6.stopped,image_5.started,image_5.stopped,key_resp_4.keys,key_resp_4.rt,key_resp_4.started,key_resp_4.stopped,key_resp_5.keys,key_resp_5.corr,key_resp_5.started,key_resp_5.stopped,text_3.started,text_3.stopped,H1_2.started,H1_2.stopped,H2_2.started,H2_2.stopped,H3_2.started,H3_2.stopped,H4_2.started,H4_2.stopped,F1_2.started,F1_2.stopped,F2_2.started,F2_2.stopped,F3_2.started,F3_2.stopped,F4_2.started,F4_2.stopped,image_8.started,image_8.stopped,key_resp_5.rt,text_2.started,text_2.stopped,image_6.started,image_6.stopped,participant,session,date,expName,psychopyVersion,frameRate,
,,,,,,,,,,,,,,,,,,,,,,,,,,,,,,,,,12.173592299921438,None,13.125693499925546,None,space,5.170537999947555,13.125693499925546,None,,,,,,,,,,,,,,,,,,,,,,,,,,,,,,,,,,,,,,,,,,,,,,,,,,,,,,,,,,,,,,,,,,,,,,,,,,,,,11024,002,2024_Jan_07_1556,nback,2021.2.3,60.18867946566937,
0-back,instructions\back-0.png,conditions\0back-p.xlsx,instructions\0-BACK.png,"(15, 8)",practice,0,1,stim\yellow.png,stim\gray.png,stim\gray.png,stim\gray.png,up,0,0,0,0,0,0,0,0,0,0,0,0,,,,,,,,,,,,,,,,,18.36670629994478,None,space,1.7525762999430299,18.36670629994478,None,20.2688952999888,24.776601299992763,24.742883599945344,None,25.16083919990342,26.161241599940695,25.16083919990342,26.161241599940695,25.16083919990342,26.161241599940695,25.16083919990342,26.161241599940695,up,1,0.550468200002797,25.16083919990342,None,25.16083919990342,None,25.16083919990342,25.661451799911447,25.16083919990342,25.661451799911447,25.16083919990342,25.661451799911447,25.16083919990342,25.661451799911447,25.16083919990342,None,,,,,,,,,,,,,,,,,,,,,,,,,,,,,,,,,,,,,,,,,,11024,002,2024_Jan_07_1556,nback,2021.2.3,60.18867946566937,
0-back,instructions\back-0.png,conditions\0back-p.xlsx,instructions\0-BACK.png,"(15, 8)",practice,0,2,stim\gray.png,stim\yellow.png,stim\gray.png,stim\gray.png,left,0,0,0,0,0,0,0,0,0,1,1,1,,,,,,,,,,,,,,,,,,,,,,,,,,,26.64509169990197,27.64680669992231,26.64509169990197,27.64680669992231,26.64509169990197,27.64680669992231,26.64509169990197,27.64680669992231,left,1,0.3862745000515133,26.64509169990197,None,26.64509169990197,None,26.64509169990197,27.145627299905755,26.64509169990197,27.145627299905755,26.64509169990197,27.145627299905755,26.64509169990197,27.145627299905755,26.64509169990197,None,,,,,,,,,,,,,,,,,,,,,,,,,,,,,,,,,,,,,,,,,,11024,002,2024_Jan_07_1556,nback,2021.2.3,60.18867946566937,
0-back,instructions\back-0.png,conditions\0back-p.xlsx,instructions\0-BACK.png,"(15, 8)",practice,0,3,stim\gray.png,stim\gray.png,stim\yellow.png,stim\gray.png,right,0,0,0,0,0,0,0,0,0,2,2,2,,,,,,,,,,,,,,,,,,,,,,,,,,,28.147318599978462,29.149116899934597,28.147318599978462,29.149116899934597,28.147318599978462,29.149116899934597,28.147318599978462,29.149116899934597,right,1,0.7879704999504611,28.147318599978462,None,28.147318599978462,None,28.147318599978462,28.648310599965043,28.147318599978462,28.648310599965043,28.147318599978462,28.648310599965043,28.147318599978462,28.648310599965043,28.147318599978462,None,,,,,,,,,,,,,,,,,,,,,,,,,,,,,,,,,,,,,,,,,,11024,002,2024_Jan_07_1556,nback,2021.2.3,60.18867946566937,
0-back,instructions\back-0.png,conditions\0back-p.xlsx,instructions\0-BACK.png,"(15, 8)",practice,0,4,stim\gray.png,stim\gray.png,stim\gray.png,stim\yellow.png,down,0,0,0,0,0,0,0,0,0,3,3,3,,,,,,,,,,,,,,,,,,,,,,,,,,,29.65028199995868,30.652070099953562,29.65028199995868,30.652070099953562,29.65028199995868,30.652070099953562,29.65028199995868,30.652070099953562,down,1,0.3092570999870077,29.65028199995868,None,29.65028199995868,None,29.65028199995868,30.15036909992341,29.65028199995868,30.15036909992341,29.65028199995868,30.15036909992341,29.65028199995868,30.15036909992341,29.65028199995868,None,,,,,,,,,,,,,,,,,,,,,,,,,,,,,,,,,,,,,,,,,,11024,002,2024_Jan_07_1556,nback,2021.2.3,60.18867946566937,
0-back,instructions\back-0.png,conditions\0back-p.xlsx,instructions\0-BACK.png,"(15, 8)",practice,0,2,stim\gray.png,stim\yellow.png,stim\gray.png,stim\gray.png,left,0,0,0,0,0,0,0,0,0,4,4,4,,,,,,,,,,,,,,,,,,,,,,,,,,,31.15185219992418,32.15325249999296,31.15185219992418,32.15325249999296,31.15185219992418,32.15325249999296,31.15185219992418,32.15325249999296,left,1,0.32744739996269345,31.15185219992418,None,31.15185219992418,None,31.15185219992418,31.65308359998744,31.15185219992418,31.65308359998744,31.15185219992418,31.65308359998744,31.15185219992418,31.65308359998744,31.15185219992418,None,,,,,,,,,,,,,,,,,,,,,,,,,,,,,,,,,,,,,,,,,,11024,002,2024_Jan_07_1556,nback,2021.2.3,60.18867946566937,
0-back,instructions\back-0.png,conditions\0back-p.xlsx,instructions\0-BACK.png,"(15, 8)",practice,0,1,stim\yellow.png,stim\gray.png,stim\gray.png,stim\gray.png,up,0,0,0,0,0,0,0,0,0,5,5,5,,,,,,,,,,,,,,,,,,,,,,,,,,,32.65402599994559,33.656064499984495,32.65402599994559,33.656064499984495,32.65402599994559,33.656064499984495,32.65402599994559,33.656064499984495,up,1,0.36939370003528893,32.65402599994559,None,32.65402599994559,None,32.65402599994559,33.155489999917336,32.65402599994559,33.155489999917336,32.65402599994559,33.155489999917336,32.65402599994559,33.155489999917336,32.65402599994559,None,,,,,,,,,,,,,,,,,,,,,,,,,,,,,,,,,,,,,,,,,,11024,002,2024_Jan_07_1556,nback,2021.2.3,60.18867946566937,
0-back,instructions\back-0.png,conditions\0back-p.xlsx,instructions\0-BACK.png,"(15, 8)",practice,0,4,stim\gray.png,stim\gray.png,stim\gray.png,stim\yellow.png,down,0,0,0,0,0,0,0,0,0,6,6,6,,,,,,,,,,,,,,,,,,,,,,,,,,,34.156279299990274,35.15790599992033,34.156279299990274,35.15790599992033,34.156279299990274,35.15790599992033,34.156279299990274,35.15790599992033,down,1,0.5794273000210524,34.156279299990274,None,34.156279299990274,None,34.156279299990274,34.65786809998099,34.156279299990274,34.65786809998099,34.156279299990274,34.65786809998099,34.156279299990274,34.65786809998099,34.156279299990274,None,,,,,,,,,,,,,,,,,,,,,,,,,,,,,,,,,,,,,,,,,,11024,002,2024_Jan_07_1556,nback,2021.2.3,60.18867946566937,
0-back,instructions\back-0.png,conditions\0back-p.xlsx,instructions\0-BACK.png,"(15, 8)",practice,0,3,stim\gray.png,stim\gray.png,stim\yellow.png,stim\gray.png,right,0,0,0,0,0,0,0,0,0,7,7,7,,,,,,,,,,,,,,,,,,,,,,,,,,,35.642140300013125,36.64448909997009,35.642140300013125,36.64448909997009,35.642140300013125,36.64448909997009,35.642140300013125,36.64448909997009,right,1,0.4212854999350384,35.642140300013125,None,35.642140300013125,None,35.642140300013125,36.14346639998257,35.642140300013125,36.14346639998257,35.642140300013125,36.14346639998257,35.642140300013125,36.14346639998257,35.642140300013125,None,,,,,,,,,,,,,,,,,,,,,,,,,,,,,,,,,,,,,,,,,,11024,002,2024_Jan_07_1556,nback,2021.2.3,60.18867946566937,
0-back,instructions\back-0.png,conditions\0back-p.xlsx,instructions\0-BACK.png,"(15, 8)",practice,0,3,stim\gray.png,stim\gray.png,stim\yellow.png,stim\gray.png,right,0,0,0,0,0,0,0,0,0,8,8,8,,,,,,,,,,,,,,,,,,,,,,,,,,,37.14398319995962,38.145719899912365,37.14398319995962,38.145719899912365,37.14398319995962,38.145719899912365,37.14398319995962,38.145719899912365,right,1,0.3994609999936074,37.14398319995962,None,37.14398319995962,None,37.14398319995962,37.64480259991251,37.14398319995962,37.64480259991251,37.14398319995962,37.64480259991251,37.14398319995962,37.64480259991251,37.14398319995962,None,,,,,,,,,,,,,,,,,,,,,,,,,,,,,,,,,,,,,,,,,,11024,002,2024_Jan_07_1556,nback,2021.2.3,60.18867946566937,
0-back,instructions\back-0.png,conditions\0back-p.xlsx,instructions\0-BACK.png,"(15, 8)",practice,0,4,stim\gray.png,stim\gray.png,stim\gray.png,stim\yellow.png,down,0,0,0,0,0,0,0,0,0,9,9,9,,,,,,,,,,,,,,,,,,,,,,,,,,,38.64627559995279,39.648701799917035,38.64627559995279,39.648701799917035,38.64627559995279,39.648701799917035,38.64627559995279,39.648701799917035,down,1,0.4811477999901399,38.64627559995279,None,38.64627559995279,None,38.64627559995279,39.19794769992586,38.64627559995279,39.19794769992586,38.64627559995279,39.19794769992586,38.64627559995279,39.19794769992586,38.64627559995279,None,,,,,,,,,,,,,,,,,,,,,,,,,,,,,,,,,,,,,,,,,,11024,002,2024_Jan_07_1556,nback,2021.2.3,60.18867946566937,
0-back,instructions\back-0.png,conditions\0back-p.xlsx,instructions\0-BACK.png,"(15, 8)",practice,0,1,stim\yellow.png,stim\gray.png,stim\gray.png,stim\gray.png,up,0,0,0,0,0,0,0,0,0,10,10,10,,,,,,,,,,,,,,,,,,,,,,,,,,,40.148230999941006,41.150039199972525,40.148230999941006,41.150039199972525,40.148230999941006,41.150039199972525,40.148230999941006,41.150039199972525,up,1,0.44321560009848326,40.148230999941006,None,40.148230999941006,None,40.148230999941006,40.6501129999524,40.148230999941006,40.6501129999524,40.148230999941006,40.6501129999524,40.148230999941006,40.6501129999524,40.148230999941006,None,,,,,,,,,,,,,,,,,,,,,,,,,,,,,,,,,,,,,,,,,,11024,002,2024_Jan_07_1556,nback,2021.2.3,60.18867946566937,
0-back,instructions\back-0.png,conditions\0back-p.xlsx,instructions\0-BACK.png,"(15, 8)",practice,0,2,stim\gray.png,stim\yellow.png,stim\gray.png,stim\gray.png,left,0,0,0,0,0,0,0,0,0,11,11,11,,,,,,,,,,,,,,,,,,,,,,,,,,,41.65063679998275,42.652763599995524,41.65063679998275,42.652763599995524,41.65063679998275,42.652763599995524,41.65063679998275,42.652763599995524,left,1,0.3893439000239596,41.65063679998275,None,41.65063679998275,None,41.65063679998275,42.15191309992224,41.65063679998275,42.15191309992224,41.65063679998275,42.15191309992224,41.65063679998275,42.15191309992224,41.65063679998275,None,,,,,,,,,,,,,,,,,,,,,,,,,,,,,,,,,,,,,,,,,,11024,002,2024_Jan_07_1556,nback,2021.2.3,60.18867946566937,
0-back,instructions\back-0.png,conditions\0back-p.xlsx,instructions\0-BACK.png,"(15, 8)",practice,0,4,stim\gray.png,stim\gray.png,stim\gray.png,stim\yellow.png,down,0,0,0,0,0,0,0,0,0,12,12,12,,,,,,,,,,,,,,,,,,,,,,,,,,,43.153062799945474,44.155125199933536,43.153062799945474,44.155125199933536,43.153062799945474,44.155125199933536,43.153062799945474,44.155125199933536,down,1,0.31837250001262873,43.153062799945474,None,43.153062799945474,None,43.153062799945474,43.65371939993929,43.153062799945474,43.65371939993929,43.153062799945474,43.65371939993929,43.153062799945474,43.65371939993929,43.153062799945474,None,,,,,,,,,,,,,,,,,,,,,,,,,,,,,,,,,,,,,,,,,,11024,002,2024_Jan_07_1556,nback,2021.2.3,60.18867946566937,
0-back,instructions\back-0.png,conditions\0back-p.xlsx,instructions\0-BACK.png,"(15, 8)",practice,0,3,stim\gray.png,stim\gray.png,stim\yellow.png,stim\gray.png,right,0,0,0,0,0,0,0,0,0,13,13,13,,,,,,,,,,,,,,,,,,,,,,,,,,,44.65515149990097,45.65796449990012,44.65515149990097,45.65796449990012,44.65515149990097,45.65796449990012,44.65515149990097,45.65796449990012,right,1,0.4007040999131277,44.65515149990097,None,44.65515149990097,None,44.65515149990097,45.15591480000876,44.65515149990097,45.15591480000876,44.65515149990097,45.15591480000876,44.65515149990097,45.15591480000876,44.65515149990097,None,,,,,,,,,,,,,,,,,,,,,,,,,,,,,,,,,,,,,,,,,,11024,002,2024_Jan_07_1556,nback,2021.2.3,60.18867946566937,
0-back,instructions\back-0.png,conditions\0back-p.xlsx,instructions\0-BACK.png,"(15, 8)",practice,0,1,stim\yellow.png,stim\gray.png,stim\gray.png,stim\gray.png,up,0,0,0,0,0,0,0,0,0,14,14,14,,,,,,,,,,,,,,,,,,,,,,,,,,,46.14090060000308,47.1434520999901,46.14090060000308,47.1434520999901,46.14090060000308,47.1434520999901,46.14090060000308,47.1434520999901,up,1,0.4505256999982521,46.14090060000308,None,46.14090060000308,None,46.14090060000308,46.643679399974644,46.14090060000308,46.643679399974644,46.14090060000308,46.643679399974644,46.14090060000308,46.643679399974644,46.14090060000308,None,,,,,,,,,,,,,,,,,,,,,,,,,,,,,,,,,,,,,,,,,,11024,002,2024_Jan_07_1556,nback,2021.2.3,60.18867946566937,
0-back,instructions\back-0.png,conditions\0back-p.xlsx,instructions\0-BACK.png,"(15, 8)",practice,0,2,stim\gray.png,stim\yellow.png,stim\gray.png,stim\gray.png,left,0,0,0,0,0,0,0,0,0,15,15,15,,,,,,,,,,,,,,,,,,,,,,,,,,,47.64296550001018,48.64503359992523,47.64296550001018,48.64503359992523,47.64296550001018,48.64503359992523,47.64296550001018,48.64503359992523,left,1,0.3567059999331832,47.64296550001018,None,47.64296550001018,None,47.64296550001018,48.14376769994851,47.64296550001018,48.14376769994851,47.64296550001018,48.14376769994851,47.64296550001018,48.14376769994851,47.64296550001018,None,,,,,,,,,,,,,,,,,,,,,,,,,,,,,,,,,,,,,,,,,,11024,002,2024_Jan_07_1556,nback,2021.2.3,60.18867946566937,
0-back,instructions\back-0.png,conditions\0back-p.xlsx,instructions\0-BACK.png,"(15, 8)",practice,0,3,stim\gray.png,stim\gray.png,stim\yellow.png,stim\gray.png,right,0,0,0,0,0,0,0,0,0,16,16,16,,,,,,,,,,,,,,,,,,,,,,,,,,,49.14494099991862,50.14650909998454,49.14494099991862,50.14650909998454,49.14494099991862,50.14650909998454,49.14494099991862,50.14650909998454,right,1,0.27041690004989505,49.14494099991862,None,49.14494099991862,None,49.14494099991862,49.64590429991949,49.14494099991862,49.64590429991949,49.14494099991862,49.64590429991949,49.14494099991862,49.64590429991949,49.14494099991862,None,,,,,,,,,,,,,,,,,,,,,,,,,,,,,,,,,,,,,,,,,,11024,002,2024_Jan_07_1556,nback,2021.2.3,60.18867946566937,
0-back,instructions\back-0.png,conditions\0back-p.xlsx,instructions\0-BACK.png,"(15, 8)",practice,0,1,stim\yellow.png,stim\gray.png,stim\gray.png,stim\gray.png,up,0,0,0,0,0,0,0,0,0,17,17,17,,,,,,,,,,,,,,,,,,,,,,,,,,,50.647404599934816,51.648853899911046,50.647404599934816,51.648853899911046,50.647404599934816,51.648853899911046,50.647404599934816,51.648853899911046,up,1,0.4079296999843791,50.647404599934816,None,50.647404599934816,None,50.647404599934816,51.1480899999151,50.647404599934816,51.1480899999151,50.647404599934816,51.1480899999151,50.647404599934816,51.1480899999151,50.647404599934816,None,,,,,,,,,,,,,,,,,,,,,,,,,,,,,,,,,,,,,,,,,,11024,002,2024_Jan_07_1556,nback,2021.2.3,60.18867946566937,
0-back,instructions\back-0.png,conditions\0back-p.xlsx,instructions\0-BACK.png,"(15, 8)",practice,0,4,stim\gray.png,stim\gray.png,stim\gray.png,stim\yellow.png,down,0,0,0,0,0,0,0,0,0,18,18,18,,,,,,,,,,,,,,,,,,,,,,,,,,,52.14958279998973,53.151041099918075,52.14958279998973,53.151041099918075,52.14958279998973,53.151041099918075,52.14958279998973,53.151041099918075,down,1,0.7220531000057235,52.14958279998973,None,52.14958279998973,None,52.14958279998973,52.65032199991401,52.14958279998973,52.65032199991401,52.14958279998973,52.65032199991401,52.14958279998973,52.65032199991401,52.14958279998973,None,,,,,,,,,,,,,,,,,,,,,,,,,,,,,,,,,,,,,,,,,,11024,002,2024_Jan_07_1556,nback,2021.2.3,60.18867946566937,
0-back,instructions\back-0.png,conditions\0back-p.xlsx,instructions\0-BACK.png,"(15, 8)",practice,0,2,stim\gray.png,stim\yellow.png,stim\gray.png,stim\gray.png,left,0,0,0,0,0,0,0,0,0,19,19,19,,,,,,,,,,,,,,,,,,,,,,,,,,,53.651806699926965,54.65451549994759,53.651806699926965,54.65451549994759,53.651806699926965,54.65451549994759,53.651806699926965,54.65451549994759,left,1,0.4035031000385061,53.651806699926965,None,53.651806699926965,None,53.651806699926965,54.153016199939884,53.651806699926965,54.153016199939884,53.651806699926965,54.153016199939884,53.651806699926965,54.153016199939884,53.651806699926965,None,,,,,,,,,,,,,,,,,,,,,,,,,,,,,,,,,,,,,,,,,,11024,002,2024_Jan_07_1556,nback,2021.2.3,60.18867946566937,
0-back,instructions\back-0.png,conditions\0back-p.xlsx,instructions\0-BACK.png,"(15, 8)",,,,,,,,,0,0,0,0,0,0,0,0,,,,,,,,,,,,,,,,,,,,,,,,,,,,,,,,,,,,,,,,,,,,,,,,,,,,,,,,,,,,,,,,,,,,,,,,,,,,,,,,,,,,,,,,,,,,,,,,,11024,002,2024_Jan_07_1556,nback,2021.2.3,60.18867946566937,
1-back,instructions\back-1.png,conditions\1back-p.xlsx,instructions\1-BACK.png,"(25, 15)",practice,1,1,stim\yellow.png,stim\gray.png,stim\gray.png,stim\gray.png,None,0,0,0,0,0,1,1,1,0,0,0,0,,,,,,,,,,,,,,,,,55.28743729996495,None,space,2.1362924999557436,55.28743729996495,None,57.54076499992516,62.0478557999013,62.03077640000265,None,62.46577519993298,63.467719699954614,62.46577519993298,63.467719699954614,62.46577519993298,63.467719699954614,62.46577519993298,63.467719699954614,None,1,,62.46577519993298,None,62.46577519993298,None,62.46577519993298,62.965622999938205,62.46577519993298,62.965622999938205,62.46577519993298,62.965622999938205,62.46577519993298,62.965622999938205,62.46577519993298,None,,,,,,,,,,,,,,,,,,,,,,,,,,,,,,,,,,,,,,,,,,11024,002,2024_Jan_07_1556,nback,2021.2.3,60.18867946566937,
1-back,instructions\back-1.png,conditions\1back-p.xlsx,instructions\1-BACK.png,"(25, 15)",practice,1,2,stim\gray.png,stim\yellow.png,stim\gray.png,stim\gray.png,up,0,0,0,0,0,1,1,1,0,1,1,1,,,,,,,,,,,,,,,,,,,,,,,,,,,63.950416399980895,64.95302929996978,63.950416399980895,64.95302929996978,63.950416399980895,64.95302929996978,63.950416399980895,64.95302929996978,up,1,0.5611046999692917,63.950416399980895,None,63.950416399980895,None,63.950416399980895,64.45186509995256,63.950416399980895,64.45186509995256,63.950416399980895,64.45186509995256,63.950416399980895,64.45186509995256,63.950416399980895,None,,,,,,,,,,,,,,,,,,,,,,,,,,,,,,,,,,,,,,,,,,11024,002,2024_Jan_07_1556,nback,2021.2.3,60.18867946566937,
1-back,instructions\back-1.png,conditions\1back-p.xlsx,instructions\1-BACK.png,"(25, 15)",practice,1,3,stim\gray.png,stim\gray.png,stim\yellow.png,stim\gray.png,left,0,0,0,0,0,1,1,1,0,2,2,2,,,,,,,,,,,,,,,,,,,,,,,,,,,65.45266329997685,66.45472659997176,65.45266329997685,66.45472659997176,65.45266329997685,66.45472659997176,65.45266329997685,66.45472659997176,up,0,0.786878600018099,65.45266329997685,None,65.45266329997685,None,65.45266329997685,65.95343009999488,65.45266329997685,65.95343009999488,65.45266329997685,65.95343009999488,65.45266329997685,65.95343009999488,65.45266329997685,None,,,,,,,,,,,,,,,,,,,,,,,,,,,,,,,,,,,,,,,,,,11024,002,2024_Jan_07_1556,nback,2021.2.3,60.18867946566937,
1-back,instructions\back-1.png,conditions\1back-p.xlsx,instructions\1-BACK.png,"(25, 15)",practice,1,4,stim\gray.png,stim\gray.png,stim\gray.png,stim\yellow.png,right,0,0,0,0,0,1,1,1,0,3,3,3,,,,,,,,,,,,,,,,,,,,,,,,,,,66.95466189994477,67.95626729994547,66.95466189994477,67.95626729994547,66.95466189994477,67.95626729994547,66.95466189994477,67.95626729994547,right,1,0.9410717999562621,66.95466189994477,None,66.95466189994477,None,66.95466189994477,67.45597449992783,66.95466189994477,67.45597449992783,66.95466189994477,67.45597449992783,66.95466189994477,67.45597449992783,66.95466189994477,None,,,,,,,,,,,,,,,,,,,,,,,,,,,,,,,,,,,,,,,,,,11024,002,2024_Jan_07_1556,nback,2021.2.3,60.18867946566937,
1-back,instructions\back-1.png,conditions\1back-p.xlsx,instructions\1-BACK.png,"(25, 15)",practice,1,2,stim\gray.png,stim\yellow.png,stim\gray.png,stim\gray.png,down,0,0,0,0,0,1,1,1,0,4,4,4,,,,,,,,,,,,,,,,,,,,,,,,,,,68.45728979993146,69.4587509999983,68.45728979993146,69.4587509999983,68.45728979993146,69.4587509999983,68.45728979993146,69.4587509999983,down,1,0.742172300000675,68.45728979993146,None,68.45728979993146,None,68.45728979993146,68.95779599994421,68.45728979993146,68.95779599994421,68.45728979993146,68.95779599994421,68.45728979993146,68.95779599994421,68.45728979993146,None,,,,,,,,,,,,,,,,,,,,,,,,,,,,,,,,,,,,,,,,,,11024,002,2024_Jan_07_1556,nback,2021.2.3,60.18867946566937,
1-back,instructions\back-1.png,conditions\1back-p.xlsx,instructions\1-BACK.png,"(25, 15)",practice,1,1,stim\yellow.png,stim\gray.png,stim\gray.png,stim\gray.png,left,0,0,0,0,0,1,1,1,0,5,5,5,,,,,,,,,,,,,,,,,,,,,,,,,,,69.95932929997798,70.9607824999839,69.95932929997798,70.9607824999839,69.95932929997798,70.9607824999839,69.95932929997798,70.9607824999839,up,0,0.5361722999950871,69.95932929997798,None,69.95932929997798,None,69.95932929997798,70.46005100000184,69.95932929997798,70.46005100000184,69.95932929997798,70.46005100000184,69.95932929997798,70.46005100000184,69.95932929997798,None,,,,,,,,,,,,,,,,,,,,,,,,,,,,,,,,,,,,,,,,,,11024,002,2024_Jan_07_1556,nback,2021.2.3,60.18867946566937,
1-back,instructions\back-1.png,conditions\1back-p.xlsx,instructions\1-BACK.png,"(25, 15)",practice,1,4,stim\gray.png,stim\gray.png,stim\gray.png,stim\yellow.png,up,0,0,0,0,0,1,1,1,0,6,6,6,,,,,,,,,,,,,,,,,,,,,,,,,,,71.46157359995414,72.46304189995863,71.46157359995414,72.46304189995863,71.46157359995414,72.46304189995863,71.46157359995414,72.46304189995863,right,0,0.8182752999709919,71.46157359995414,None,71.46157359995414,None,71.46157359995414,71.96233579993714,71.46157359995414,71.96233579993714,71.46157359995414,71.96233579993714,71.46157359995414,71.96233579993714,71.46157359995414,None,,,,,,,,,,,,,,,,,,,,,,,,,,,,,,,,,,,,,,,,,,11024,002,2024_Jan_07_1556,nback,2021.2.3,60.18867946566937,
1-back,instructions\back-1.png,conditions\1back-p.xlsx,instructions\1-BACK.png,"(25, 15)",practice,1,3,stim\gray.png,stim\gray.png,stim\yellow.png,stim\gray.png,down,0,0,0,0,0,1,1,1,0,7,7,7,,,,,,,,,,,,,,,,,,,,,,,,,,,72.947147400002,73.94865199993365,72.947147400002,73.94865199993365,72.947147400002,73.94865199993365,72.947147400002,73.94865199993365,up,0,0.8202436999417841,72.947147400002,None,72.947147400002,None,72.947147400002,73.44869569991715,72.947147400002,73.44869569991715,72.947147400002,73.44869569991715,72.947147400002,73.44869569991715,72.947147400002,None,,,,,,,,,,,,,,,,,,,,,,,,,,,,,,,,,,,,,,,,,,11024,002,2024_Jan_07_1556,nback,2021.2.3,60.18867946566937,
1-back,instructions\back-1.png,conditions\1back-p.xlsx,instructions\1-BACK.png,"(25, 15)",practice,1,3,stim\gray.png,stim\gray.png,stim\yellow.png,stim\gray.png,right,0,0,0,0,0,1,1,1,0,8,8,8,,,,,,,,,,,,,,,,,,,,,,,,,,,74.44944619992748,75.45116629998665,74.44944619992748,75.45116629998665,74.44944619992748,75.45116629998665,74.44944619992748,75.45116629998665,up,0,1.0058890000218526,74.44944619992748,None,74.44944619992748,None,74.44944619992748,74.95010879996698,74.44944619992748,74.95010879996698,74.44944619992748,74.95010879996698,74.44944619992748,74.95010879996698,74.44944619992748,None,,,,,,,,,,,,,,,,,,,,,,,,,,,,,,,,,,,,,,,,,,11024,002,2024_Jan_07_1556,nback,2021.2.3,60.18867946566937,
1-back,instructions\back-1.png,conditions\1back-p.xlsx,instructions\1-BACK.png,"(25, 15)",practice,1,4,stim\gray.png,stim\gray.png,stim\gray.png,stim\yellow.png,right,0,0,0,0,0,1,1,1,0,9,9,9,,,,,,,,,,,,,,,,,,,,,,,,,,,75.95152379991487,76.95307019993197,75.95152379991487,76.95307019993197,75.95152379991487,76.95307019993197,75.95152379991487,76.95307019993197,right,1,0.6962835999438539,75.95152379991487,None,75.95152379991487,None,75.95152379991487,76.45318919990677,75.95152379991487,76.45318919990677,75.95152379991487,76.45318919990677,75.95152379991487,76.45318919990677,75.95152379991487,None,,,,,,,,,,,,,,,,,,,,,,,,,,,,,,,,,,,,,,,,,,11024,002,2024_Jan_07_1556,nback,2021.2.3,60.18867946566937,
1-back,instructions\back-1.png,conditions\1back-p.xlsx,instructions\1-BACK.png,"(25, 15)",practice,1,1,stim\yellow.png,stim\gray.png,stim\gray.png,stim\gray.png,down,0,0,0,0,0,1,1,1,0,10,10,10,,,,,,,,,,,,,,,,,,,,,,,,,,,77.45381119998638,78.45537799992599,77.45381119998638,78.45537799992599,77.45381119998638,78.45537799992599,77.45381119998638,78.45537799992599,left,0,0.7299876000033692,77.45381119998638,None,77.45381119998638,None,77.45381119998638,77.95439719990827,77.45381119998638,77.95439719990827,77.45381119998638,77.95439719990827,77.45381119998638,77.95439719990827,77.45381119998638,None,,,,,,,,,,,,,,,,,,,,,,,,,,,,,,,,,,,,,,,,,,11024,002,2024_Jan_07_1556,nback,2021.2.3,60.18867946566937,
1-back,instructions\back-1.png,conditions\1back-p.xlsx,instructions\1-BACK.png,"(25, 15)",practice,1,2,stim\gray.png,stim\yellow.png,stim\gray.png,stim\gray.png,up,0,0,0,0,0,1,1,1,0,11,11,11,,,,,,,,,,,,,,,,,,,,,,,,,,,78.9559124999214,79.95783749991097,78.9559124999214,79.95783749991097,78.9559124999214,79.95783749991097,78.9559124999214,79.95783749991097,up,1,1.1476288998965174,78.9559124999214,None,78.9559124999214,None,78.9559124999214,79.45807379996404,78.9559124999214,79.45807379996404,78.9559124999214,79.45807379996404,78.9559124999214,79.45807379996404,78.9559124999214,None,,,,,,,,,,,,,,,,,,,,,,,,,,,,,,,,,,,,,,,,,,11024,002,2024_Jan_07_1556,nback,2021.2.3,60.18867946566937,
1-back,instructions\back-1.png,conditions\1back-p.xlsx,instructions\1-BACK.png,"(25, 15)",practice,1,4,stim\gray.png,stim\gray.png,stim\gray.png,stim\yellow.png,left,0,0,0,0,0,1,1,1,0,12,12,12,,,,,,,,,,,,,,,,,,,,,,,,,,,80.45825749996584,81.46076940000057,80.45825749996584,81.46076940000057,80.45825749996584,81.46076940000057,80.45825749996584,81.46076940000057,left,1,0.8691490000346676,80.45825749996584,None,80.45825749996584,None,80.45825749996584,80.95987559994683,80.45825749996584,80.95987559994683,80.45825749996584,80.95987559994683,80.45825749996584,80.95987559994683,80.45825749996584,None,,,,,,,,,,,,,,,,,,,,,,,,,,,,,,,,,,,,,,,,,,11024,002,2024_Jan_07_1556,nback,2021.2.3,60.18867946566937,
1-back,instructions\back-1.png,conditions\1back-p.xlsx,instructions\1-BACK.png,"(25, 15)",practice,1,3,stim\gray.png,stim\gray.png,stim\yellow.png,stim\gray.png,down,0,0,0,0,0,1,1,1,0,13,13,13,,,,,,,,,,,,,,,,,,,,,,,,,,,81.96031399990898,82.96197099995334,81.96031399990898,82.96197099995334,81.96031399990898,82.96197099995334,81.96031399990898,82.96197099995334,down,1,0.7751465999754146,81.96031399990898,None,81.96031399990898,None,81.96031399990898,82.46148169995286,81.96031399990898,82.46148169995286,81.96031399990898,82.46148169995286,81.96031399990898,82.46148169995286,81.96031399990898,None,,,,,,,,,,,,,,,,,,,,,,,,,,,,,,,,,,,,,,,,,,11024,002,2024_Jan_07_1556,nback,2021.2.3,60.18867946566937,
1-back,instructions\back-1.png,conditions\1back-p.xlsx,instructions\1-BACK.png,"(25, 15)",practice,1,1,stim\yellow.png,stim\gray.png,stim\gray.png,stim\gray.png,right,0,0,0,0,0,1,1,1,0,14,14,14,,,,,,,,,,,,,,,,,,,,,,,,,,,83.44585439993534,84.44800370000303,83.44585439993534,84.44800370000303,83.44585439993534,84.44800370000303,83.44585439993534,84.44800370000303,right,1,0.9054675000952557,83.44585439993534,None,83.44585439993534,None,83.44585439993534,83.94677669997327,83.44585439993534,83.94677669997327,83.44585439993534,83.94677669997327,83.44585439993534,83.94677669997327,83.44585439993534,None,,,,,,,,,,,,,,,,,,,,,,,,,,,,,,,,,,,,,,,,,,11024,002,2024_Jan_07_1556,nback,2021.2.3,60.18867946566937,
1-back,instructions\back-1.png,conditions\1back-p.xlsx,instructions\1-BACK.png,"(25, 15)",practice,1,2,stim\gray.png,stim\yellow.png,stim\gray.png,stim\gray.png,up,0,0,0,0,0,1,1,1,0,15,15,15,,,,,,,,,,,,,,,,,,,,,,,,,,,84.94821239996236,85.94960109994281,84.94821239996236,85.94960109994281,84.94821239996236,85.94960109994281,84.94821239996236,85.94960109994281,up,1,0.7471564000006765,84.94821239996236,None,84.94821239996236,None,84.94821239996236,85.44898749992717,84.94821239996236,85.44898749992717,84.94821239996236,85.44898749992717,84.94821239996236,85.44898749992717,84.94821239996236,None,,,,,,,,,,,,,,,,,,,,,,,,,,,,,,,,,,,,,,,,,,11024,002,2024_Jan_07_1556,nback,2021.2.3,60.18867946566937,
1-back,instructions\back-1.png,conditions\1back-p.xlsx,instructions\1-BACK.png,"(25, 15)",practice,1,3,stim\gray.png,stim\gray.png,stim\yellow.png,stim\gray.png,left,0,0,0,0,0,1,1,1,0,16,16,16,,,,,,,,,,,,,,,,,,,,,,,,,,,86.45026169996709,87.45243279996794,86.45026169996709,87.45243279996794,86.45026169996709,87.45243279996794,86.45026169996709,87.45243279996794,up,0,0.7176029999973252,86.45026169996709,None,86.45026169996709,None,86.45026169996709,86.95197880000342,86.45026169996709,86.95197880000342,86.45026169996709,86.95197880000342,86.45026169996709,86.95197880000342,86.45026169996709,None,,,,,,,,,,,,,,,,,,,,,,,,,,,,,,,,,,,,,,,,,,11024,002,2024_Jan_07_1556,nback,2021.2.3,60.18867946566937,
1-back,instructions\back-1.png,conditions\1back-p.xlsx,instructions\1-BACK.png,"(25, 15)",practice,1,1,stim\yellow.png,stim\gray.png,stim\gray.png,stim\gray.png,right,0,0,0,0,0,1,1,1,0,17,17,17,,,,,,,,,,,,,,,,,,,,,,,,,,,87.9526690999046,88.95446459995583,87.9526690999046,88.95446459995583,87.9526690999046,88.95446459995583,87.9526690999046,88.95446459995583,right,1,1.1266813999973238,87.9526690999046,None,87.9526690999046,None,87.9526690999046,88.45403649995569,87.9526690999046,88.45403649995569,87.9526690999046,88.45403649995569,87.9526690999046,88.45403649995569,87.9526690999046,None,,,,,,,,,,,,,,,,,,,,,,,,,,,,,,,,,,,,,,,,,,11024,002,2024_Jan_07_1556,nback,2021.2.3,60.18867946566937,
1-back,instructions\back-1.png,conditions\1back-p.xlsx,instructions\1-BACK.png,"(25, 15)",practice,1,4,stim\gray.png,stim\gray.png,stim\gray.png,stim\yellow.png,up,0,0,0,0,0,1,1,1,0,18,18,18,,,,,,,,,,,,,,,,,,,,,,,,,,,89.45501039992087,90.45681559992954,89.45501039992087,90.45681559992954,89.45501039992087,90.45681559992954,89.45501039992087,90.45681559992954,right,0,0.8964059998979792,89.45501039992087,None,89.45501039992087,None,89.45501039992087,89.95563069998752,89.45501039992087,89.95563069998752,89.45501039992087,89.95563069998752,89.45501039992087,89.95563069998752,89.45501039992087,None,,,,,,,,,,,,,,,,,,,,,,,,,,,,,,,,,,,,,,,,,,11024,002,2024_Jan_07_1556,nback,2021.2.3,60.18867946566937,
1-back,instructions\back-1.png,conditions\1back-p.xlsx,instructions\1-BACK.png,"(25, 15)",practice,1,2,stim\gray.png,stim\yellow.png,stim\gray.png,stim\gray.png,down,0,0,0,0,0,1,1,1,0,19,19,19,,,,,,,,,,,,,,,,,,,,,,,,,,,90.95694329997059,91.95854279992636,90.95694329997059,91.95854279992636,90.95694329997059,91.95854279992636,90.95694329997059,91.95854279992636,None,0,,90.95694329997059,None,90.95694329997059,None,90.95694329997059,91.45802869996987,90.95694329997059,91.45802869996987,90.95694329997059,91.45802869996987,90.95694329997059,91.45802869996987,90.95694329997059,None,,,,,,,,,,,,,,,,,,,,,,,,,,,,,,,,,,,,,,,,,,11024,002,2024_Jan_07_1556,nback,2021.2.3,60.18867946566937,
1-back,instructions\back-1.png,conditions\1back-p.xlsx,instructions\1-BACK.png,"(25, 15)",,,,,,,,,0,0,0,0,0,1,1,1,,,,,,,,,,,,,,,,,,,,,,,,,,,,,,,,,,,,,,,,,,,,,,,,,,,,,,,,,,,,,,,,,,,,,,,,,,,,,,,,,,,,,,,,,,,,,,,,,11024,002,2024_Jan_07_1556,nback,2021.2.3,60.18867946566937,
2-back,instructions\back-2.png,conditions\2back-p.xlsx,instructions\2-BACK.png,"(25, 15)",practice,2,1,stim\yellow.png,stim\gray.png,stim\gray.png,stim\gray.png,None,0,0,0,0,0,2,2,2,0,0,0,0,,,,,,,,,,,,,,,,,92.62592799996492,None,space,43.509613800095394,92.62592799996492,None,136.32415759994183,140.8329755999148,140.7813260999974,None,141.18294079997577,142.18291269999463,141.18294079997577,142.18291269999463,141.18294079997577,142.18291269999463,141.18294079997577,142.18291269999463,None,1,,141.18294079997577,None,141.18294079997577,None,141.18294079997577,141.6826907999348,141.18294079997577,141.6826907999348,141.18294079997577,141.6826907999348,141.18294079997577,141.6826907999348,141.18294079997577,None,,,,,,,,,,,,,,,,,,,,,,,,,,,,,,,,,,,,,,,,,,11024,002,2024_Jan_07_1556,nback,2021.2.3,60.18867946566937,
2-back,instructions\back-2.png,conditions\2back-p.xlsx,instructions\2-BACK.png,"(25, 15)",practice,2,2,stim\gray.png,stim\yellow.png,stim\gray.png,stim\gray.png,None,0,0,0,0,0,2,2,2,0,1,1,1,,,,,,,,,,,,,,,,,,,,,,,,,,,142.66705529997125,143.66850989998784,142.66705529997125,143.66850989998784,142.66705529997125,143.66850989998784,142.66705529997125,143.66850989998784,None,1,,142.66705529997125,None,142.66705529997125,None,142.66705529997125,143.16830209991895,142.66705529997125,143.16830209991895,142.66705529997125,143.16830209991895,142.66705529997125,143.16830209991895,142.66705529997125,None,,,,,,,,,,,,,,,,,,,,,,,,,,,,,,,,,,,,,,,,,,11024,002,2024_Jan_07_1556,nback,2021.2.3,60.18867946566937,
2-back,instructions\back-2.png,conditions\2back-p.xlsx,instructions\2-BACK.png,"(25, 15)",practice,2,3,stim\gray.png,stim\gray.png,stim\yellow.png,stim\gray.png,up,0,0,0,0,0,2,2,2,0,2,2,2,,,,,,,,,,,,,,,,,,,,,,,,,,,144.16912089998368,145.17164299997967,144.16912089998368,145.17164299997967,144.16912089998368,145.17164299997967,144.16912089998368,145.17164299997967,None,0,,144.16912089998368,None,144.16912089998368,None,144.16912089998368,144.6708374998998,144.16912089998368,144.6708374998998,144.16912089998368,144.6708374998998,144.16912089998368,144.6708374998998,144.16912089998368,None,,,,,,,,,,,,,,,,,,,,,,,,,,,,,,,,,,,,,,,,,,11024,002,2024_Jan_07_1556,nback,2021.2.3,60.18867946566937,
2-back,instructions\back-2.png,conditions\2back-p.xlsx,instructions\2-BACK.png,"(25, 15)",practice,2,4,stim\gray.png,stim\gray.png,stim\gray.png,stim\yellow.png,left,0,0,0,0,0,2,2,2,0,3,3,3,,,,,,,,,,,,,,,,,,,,,,,,,,,145.67158859991468,146.6733341999352,145.67158859991468,146.6733341999352,145.67158859991468,146.6733341999352,145.67158859991468,146.6733341999352,up,0,0.4804269999731332,145.67158859991468,None,145.67158859991468,None,145.67158859991468,146.1726861000061,145.67158859991468,146.1726861000061,145.67158859991468,146.1726861000061,145.67158859991468,146.1726861000061,145.67158859991468,None,,,,,,,,,,,,,,,,,,,,,,,,,,,,,,,,,,,,,,,,,,11024,002,2024_Jan_07_1556,nback,2021.2.3,60.18867946566937,
2-back,instructions\back-2.png,conditions\2back-p.xlsx,instructions\2-BACK.png,"(25, 15)",practice,2,2,stim\gray.png,stim\yellow.png,stim\gray.png,stim\gray.png,right,0,0,0,0,0,2,2,2,0,4,4,4,,,,,,,,,,,,,,,,,,,,,,,,,,,147.17365439992864,148.1752906999318,147.17365439992864,148.1752906999318,147.17365439992864,148.1752906999318,147.17365439992864,148.1752906999318,right,1,0.49805900000501424,147.17365439992864,None,147.17365439992864,None,147.17365439992864,147.6744055999443,147.17365439992864,147.6744055999443,147.17365439992864,147.6744055999443,147.17365439992864,147.6744055999443,147.17365439992864,None,,,,,,,,,,,,,,,,,,,,,,,,,,,,,,,,,,,,,,,,,,11024,002,2024_Jan_07_1556,nback,2021.2.3,60.18867946566937,
2-back,instructions\back-2.png,conditions\2back-p.xlsx,instructions\2-BACK.png,"(25, 15)",practice,2,1,stim\yellow.png,stim\gray.png,stim\gray.png,stim\gray.png,down,0,0,0,0,0,2,2,2,0,5,5,5,,,,,,,,,,,,,,,,,,,,,,,,,,,148.67589859990403,149.6794367999537,148.67589859990403,149.6794367999537,148.67589859990403,149.6794367999537,148.67589859990403,149.6794367999537,down,1,0.49149769998621196,148.67589859990403,None,148.67589859990403,None,148.67589859990403,149.17683649994433,148.67589859990403,149.17683649994433,148.67589859990403,149.17683649994433,148.67589859990403,149.17683649994433,148.67589859990403,None,,,,,,,,,,,,,,,,,,,,,,,,,,,,,,,,,,,,,,,,,,11024,002,2024_Jan_07_1556,nback,2021.2.3,60.18867946566937,
2-back,instructions\back-2.png,conditions\2back-p.xlsx,instructions\2-BACK.png,"(25, 15)",practice,2,4,stim\gray.png,stim\gray.png,stim\gray.png,stim\yellow.png,left,0,0,0,0,0,2,2,2,0,6,6,6,,,,,,,,,,,,,,,,,,,,,,,,,,,150.1788364999229,151.18078729999252,150.1788364999229,151.18078729999252,150.1788364999229,151.18078729999252,150.1788364999229,151.18078729999252,up,0,0.5653664999408647,150.1788364999229,None,150.1788364999229,None,150.1788364999229,150.67978779994883,150.1788364999229,150.67978779994883,150.1788364999229,150.67978779994883,150.1788364999229,150.67978779994883,150.1788364999229,None,,,,,,,,,,,,,,,,,,,,,,,,,,,,,,,,,,,,,,,,,,11024,002,2024_Jan_07_1556,nback,2021.2.3,60.18867946566937,
2-back,instructions\back-2.png,conditions\2back-p.xlsx,instructions\2-BACK.png,"(25, 15)",practice,2,3,stim\gray.png,stim\gray.png,stim\yellow.png,stim\gray.png,up,0,0,0,0,0,2,2,2,0,7,7,7,,,,,,,,,,,,,,,,,,,,,,,,,,,151.66442869999446,152.66520329995546,151.66442869999446,152.66520329995546,151.66442869999446,152.66520329995546,151.66442869999446,152.66520329995546,left,0,0.6391976999584585,151.66442869999446,None,151.66442869999446,None,151.66442869999446,152.16504619992338,151.66442869999446,152.16504619992338,151.66442869999446,152.16504619992338,151.66442869999446,152.16504619992338,151.66442869999446,None,,,,,,,,,,,,,,,,,,,,,,,,,,,,,,,,,,,,,,,,,,11024,002,2024_Jan_07_1556,nback,2021.2.3,60.18867946566937,
2-back,instructions\back-2.png,conditions\2back-p.xlsx,instructions\2-BACK.png,"(25, 15)",practice,2,3,stim\gray.png,stim\gray.png,stim\yellow.png,stim\gray.png,down,0,0,0,0,0,2,2,2,0,8,8,8,,,,,,,,,,,,,,,,,,,,,,,,,,,153.16584619996138,154.1679715999635,153.16584619996138,154.1679715999635,153.16584619996138,154.1679715999635,153.16584619996138,154.1679715999635,left,0,0.9863632000051439,153.16584619996138,None,153.16584619996138,None,153.16584619996138,153.66729689994827,153.16584619996138,153.66729689994827,153.16584619996138,153.66729689994827,153.16584619996138,153.66729689994827,153.16584619996138,None,,,,,,,,,,,,,,,,,,,,,,,,,,,,,,,,,,,,,,,,,,11024,002,2024_Jan_07_1556,nback,2021.2.3,60.18867946566937,
2-back,instructions\back-2.png,conditions\2back-p.xlsx,instructions\2-BACK.png,"(25, 15)",practice,2,4,stim\gray.png,stim\gray.png,stim\gray.png,stim\yellow.png,right,0,0,0,0,0,2,2,2,0,9,9,9,,,,,,,,,,,,,,,,,,,,,,,,,,,154.66928249993362,155.67031740001403,154.66928249993362,155.67031740001403,154.66928249993362,155.67031740001403,154.66928249993362,155.67031740001403,up,0,0.6343498000642285,154.66928249993362,None,154.66928249993362,None,154.66928249993362,155.16983889997937,154.66928249993362,155.16983889997937,154.66928249993362,155.16983889997937,154.66928249993362,155.16983889997937,154.66928249993362,None,,,,,,,,,,,,,,,,,,,,,,,,,,,,,,,,,,,,,,,,,,11024,002,2024_Jan_07_1556,nback,2021.2.3,60.18867946566937,
2-back,instructions\back-2.png,conditions\2back-p.xlsx,instructions\2-BACK.png,"(25, 15)",practice,2,1,stim\yellow.png,stim\gray.png,stim\gray.png,stim\gray.png,right,0,0,0,0,0,2,2,2,0,10,10,10,,,,,,,,,,,,,,,,,,,,,,,,,,,156.17044099990744,157.17178119998425,156.17044099990744,157.17178119998425,156.17044099990744,157.17178119998425,156.17044099990744,157.17178119998425,down,0,0.6611687999684364,156.17044099990744,None,156.17044099990744,None,156.17044099990744,156.67139819997828,156.17044099990744,156.67139819997828,156.17044099990744,156.67139819997828,156.17044099990744,156.67139819997828,156.17044099990744,None,,,,,,,,,,,,,,,,,,,,,,,,,,,,,,,,,,,,,,,,,,11024,002,2024_Jan_07_1556,nback,2021.2.3,60.18867946566937,
2-back,instructions\back-2.png,conditions\2back-p.xlsx,instructions\2-BACK.png,"(25, 15)",practice,2,2,stim\gray.png,stim\yellow.png,stim\gray.png,stim\gray.png,down,0,0,0,0,0,2,2,2,0,11,11,11,,,,,,,,,,,,,,,,,,,,,,,,,,,157.67270869994536,158.67417439993005,157.67270869994536,158.67417439993005,157.67270869994536,158.67417439993005,157.67270869994536,158.67417439993005,right,0,0.5748083000071347,157.67270869994536,None,157.67270869994536,None,157.67270869994536,158.17518269992433,157.67270869994536,158.17518269992433,157.67270869994536,158.17518269992433,157.67270869994536,158.17518269992433,157.67270869994536,None,,,,,,,,,,,,,,,,,,,,,,,,,,,,,,,,,,,,,,,,,,11024,002,2024_Jan_07_1556,nback,2021.2.3,60.18867946566937,
2-back,instructions\back-2.png,conditions\2back-p.xlsx,instructions\2-BACK.png,"(25, 15)",practice,2,4,stim\gray.png,stim\gray.png,stim\gray.png,stim\yellow.png,up,0,0,0,0,0,2,2,2,0,12,12,12,,,,,,,,,,,,,,,,,,,,,,,,,,,159.17492309992667,160.17710450000595,159.17492309992667,160.17710450000595,159.17492309992667,160.17710450000595,159.17492309992667,160.17710450000595,up,1,0.5864668000722304,159.17492309992667,None,159.17492309992667,None,159.17492309992667,159.67624229996,159.17492309992667,159.67624229996,159.17492309992667,159.67624229996,159.17492309992667,159.67624229996,159.17492309992667,None,,,,,,,,,,,,,,,,,,,,,,,,,,,,,,,,,,,,,,,,,,11024,002,2024_Jan_07_1556,nback,2021.2.3,60.18867946566937,
2-back,instructions\back-2.png,conditions\2back-p.xlsx,instructions\2-BACK.png,"(25, 15)",practice,2,3,stim\gray.png,stim\gray.png,stim\yellow.png,stim\gray.png,left,0,0,0,0,0,2,2,2,0,13,13,13,,,,,,,,,,,,,,,,,,,,,,,,,,,160.67704789992422,161.67888949997723,160.67704789992422,161.67888949997723,160.67704789992422,161.67888949997723,160.67704789992422,161.67888949997723,left,1,0.46692670008633286,160.67704789992422,None,160.67704789992422,None,160.67704789992422,161.17790909996256,160.67704789992422,161.17790909996256,160.67704789992422,161.17790909996256,160.67704789992422,161.17790909996256,160.67704789992422,None,,,,,,,,,,,,,,,,,,,,,,,,,,,,,,,,,,,,,,,,,,11024,002,2024_Jan_07_1556,nback,2021.2.3,60.18867946566937,
2-back,instructions\back-2.png,conditions\2back-p.xlsx,instructions\2-BACK.png,"(25, 15)",practice,2,1,stim\yellow.png,stim\gray.png,stim\gray.png,stim\gray.png,down,0,0,0,0,0,2,2,2,0,14,14,14,,,,,,,,,,,,,,,,,,,,,,,,,,,162.1625398999313,163.1641102998983,162.1625398999313,163.1641102998983,162.1625398999313,163.1641102998983,162.1625398999313,163.1641102998983,down,1,0.4847874001134187,162.1625398999313,None,162.1625398999313,None,162.1625398999313,162.66340319998562,162.1625398999313,162.66340319998562,162.1625398999313,162.66340319998562,162.1625398999313,162.66340319998562,162.1625398999313,None,,,,,,,,,,,,,,,,,,,,,,,,,,,,,,,,,,,,,,,,,,11024,002,2024_Jan_07_1556,nback,2021.2.3,60.18867946566937,
2-back,instructions\back-2.png,conditions\2back-p.xlsx,instructions\2-BACK.png,"(25, 15)",practice,2,2,stim\gray.png,stim\yellow.png,stim\gray.png,stim\gray.png,right,0,0,0,0,0,2,2,2,0,15,15,15,,,,,,,,,,,,,,,,,,,,,,,,,,,163.66482089995407,164.66700869996566,163.66482089995407,164.66700869996566,163.66482089995407,164.66700869996566,163.66482089995407,164.66700869996566,right,1,0.5358114000409842,163.66482089995407,None,163.66482089995407,None,163.66482089995407,164.16638019995298,163.66482089995407,164.16638019995298,163.66482089995407,164.16638019995298,163.66482089995407,164.16638019995298,163.66482089995407,None,,,,,,,,,,,,,,,,,,,,,,,,,,,,,,,,,,,,,,,,,,11024,002,2024_Jan_07_1556,nback,2021.2.3,60.18867946566937,
2-back,instructions\back-2.png,conditions\2back-p.xlsx,instructions\2-BACK.png,"(25, 15)",practice,2,3,stim\gray.png,stim\gray.png,stim\yellow.png,stim\gray.png,up,0,0,0,0,0,2,2,2,0,16,16,16,,,,,,,,,,,,,,,,,,,,,,,,,,,165.16770459990948,166.16934739996213,165.16770459990948,166.16934739996213,165.16770459990948,166.16934739996213,165.16770459990948,166.16934739996213,left,0,0.664208099944517,165.16770459990948,None,165.16770459990948,None,165.16770459990948,165.6680812999839,165.16770459990948,165.6680812999839,165.16770459990948,165.6680812999839,165.16770459990948,165.6680812999839,165.16770459990948,None,,,,,,,,,,,,,,,,,,,,,,,,,,,,,,,,,,,,,,,,,,11024,002,2024_Jan_07_1556,nback,2021.2.3,60.18867946566937,
2-back,instructions\back-2.png,conditions\2back-p.xlsx,instructions\2-BACK.png,"(25, 15)",practice,2,1,stim\yellow.png,stim\gray.png,stim\gray.png,stim\gray.png,left,0,0,0,0,0,2,2,2,0,17,17,17,,,,,,,,,,,,,,,,,,,,,,,,,,,166.6703704999527,167.67081879999023,166.6703704999527,167.67081879999023,166.6703704999527,167.67081879999023,166.6703704999527,167.67081879999023,down,0,1.144970600027591,166.6703704999527,None,166.6703704999527,None,166.6703704999527,167.17054919991642,166.6703704999527,167.17054919991642,166.6703704999527,167.17054919991642,166.6703704999527,167.17054919991642,166.6703704999527,None,,,,,,,,,,,,,,,,,,,,,,,,,,,,,,,,,,,,,,,,,,11024,002,2024_Jan_07_1556,nback,2021.2.3,60.18867946566937,
2-back,instructions\back-2.png,conditions\2back-p.xlsx,instructions\2-BACK.png,"(25, 15)",practice,2,4,stim\gray.png,stim\gray.png,stim\gray.png,stim\yellow.png,right,0,0,0,0,0,2,2,2,0,18,18,18,,,,,,,,,,,,,,,,,,,,,,,,,,,168.1716221999377,169.17324379994534,168.1716221999377,169.17324379994534,168.1716221999377,169.17324379994534,168.1716221999377,169.17324379994534,up,0,1.07584200007841,168.1716221999377,None,168.1716221999377,None,168.1716221999377,168.67282989993691,168.1716221999377,168.67282989993691,168.1716221999377,168.67282989993691,168.1716221999377,168.67282989993691,168.1716221999377,None,,,,,,,,,,,,,,,,,,,,,,,,,,,,,,,,,,,,,,,,,,11024,002,2024_Jan_07_1556,nback,2021.2.3,60.18867946566937,
2-back,instructions\back-2.png,conditions\2back-p.xlsx,instructions\2-BACK.png,"(25, 15)",practice,2,2,stim\gray.png,stim\yellow.png,stim\gray.png,stim\gray.png,up,0,0,0,0,0,2,2,2,0,19,19,19,,,,,,,,,,,,,,,,,,,,,,,,,,,169.67413429997396,170.67599039990455,169.67413429997396,170.67599039990455,169.67413429997396,170.67599039990455,169.67413429997396,170.67599039990455,right,0,0.5896454000612721,169.67413429997396,None,169.67413429997396,None,169.67413429997396,170.17526409996208,169.67413429997396,170.17526409996208,169.67413429997396,170.17526409996208,169.67413429997396,170.17526409996208,169.67413429997396,None,,,,,,,,,,,,,,,,,,,,,,,,,,,,,,,,,,,,,,,,,,11024,002,2024_Jan_07_1556,nback,2021.2.3,60.18867946566937,
2-back,instructions\back-2.png,conditions\2back-p.xlsx,instructions\2-BACK.png,"(25, 15)",,,,,,,,,0,0,0,0,0,2,2,2,,,,,,,,,,,,,,,,,,,,,,,,,,,,,,,,,,,,,,,,,,,,,,,,,,,,,,,,,,,,,,,,,,,,,,,,,,,,,,,,,,,,,,,,,,,,,,,,,11024,002,2024_Jan_07_1556,nback,2021.2.3,60.18867946566937,
,,,,,,,,,,,,,0,0,0,0,,,,,,,,,,,,,,,,,,,,,,,,,,,,,,,,,,,,,,,,,,,,,,,,,,,,,,,,,,,,171.17631269991398,None,space,24.37565160007216,171.17631269991398,None,,,,,,,,,,,,,,,,,,,,,,,,,,,,,,,,,,,,11024,002,2024_Jan_07_1556,nback,2021.2.3,60.18867946566937,
,,,,,,,,,,,,,,,,,,,,,,,,,,,,,,,,,,,,,,,,,,,,,,,,,,,,,,,,,,,,,,,,,,,,,,,,,,,,,,,,,,195.5789187999908,None,space,1.6689671999774873,195.5789187999908,None,,,,,,,,,,,,,,,,,,,,,,,,,,,,,,11024,002,2024_Jan_07_1556,nback,2021.2.3,60.18867946566937,
2-back,instructions\back-2.png,conditions\22back-e.xlsx,,,experiment,2,2,stim\gray.png,stim\yellow.png,stim\gray.png,stim\gray.png,None,,,,,,,,,,,,,0,0,0,8,0,0,0,0,,,,,,,,,,,,,,,197.41473839990795,201.9226063999813,201.90529049991164,None,,,,,,,,,,,,,,,,,,,,,,,,,,,,,,,,,,,,,,None,1,202.28900109999813,None,202.28900109999813,None,202.28900109999813,203.29029859998263,202.28900109999813,203.29029859998263,202.28900109999813,203.29029859998263,202.28900109999813,203.29029859998263,202.28900109999813,202.7899793999968,202.28900109999813,202.7899793999968,202.28900109999813,202.7899793999968,202.28900109999813,202.7899793999968,202.28900109999813,None,,,,,,11024,002,2024_Jan_07_1556,nback,2021.2.3,60.18867946566937,
2-back,instructions\back-2.png,conditions\22back-e.xlsx,,,experiment,2,3,stim\gray.png,stim\gray.png,stim\yellow.png,stim\gray.png,None,,,,,,,,,,,,,0,0,0,8,0,1,1,1,,,,,,,,,,,,,,,,,,,,,,,,,,,,,,,,,,,,,,,,,,,,,,,,,,,,,,,,None,1,203.77426809992176,None,203.77426809992176,None,203.77426809992176,204.7765382999787,203.77426809992176,204.7765382999787,203.77426809992176,204.7765382999787,203.77426809992176,204.7765382999787,203.77426809992176,204.27583489997778,203.77426809992176,204.27583489997778,203.77426809992176,204.27583489997778,203.77426809992176,204.27583489997778,203.77426809992176,None,,,,,,11024,002,2024_Jan_07_1556,nback,2021.2.3,60.18867946566937,
2-back,instructions\back-2.png,conditions\22back-e.xlsx,,,experiment,2,1,stim\yellow.png,stim\gray.png,stim\gray.png,stim\gray.png,left,,,,,,,,,,,,,0,0,0,8,0,2,2,2,,,,,,,,,,,,,,,,,,,,,,,,,,,,,,,,,,,,,,,,,,,,,,,,,,,,,,,,down,0,205.27646839991212,None,205.27646839991212,None,205.27646839991212,206.2780885999091,205.27646839991212,206.2780885999091,205.27646839991212,206.2780885999091,205.27646839991212,206.2780885999091,205.27646839991212,205.77786759997252,205.27646839991212,205.77786759997252,205.27646839991212,205.77786759997252,205.27646839991212,205.77786759997252,205.27646839991212,None,0.43518259993288666,,,,,11024,002,2024_Jan_07_1556,nback,2021.2.3,60.18867946566937,
2-back,instructions\back-2.png,conditions\22back-e.xlsx,,,experiment,2,2,stim\gray.png,stim\yellow.png,stim\gray.png,stim\gray.png,right,,,,,,,,,,,,,0,0,0,8,0,3,3,3,,,,,,,,,,,,,,,,,,,,,,,,,,,,,,,,,,,,,,,,,,,,,,,,,,,,,,,,right,1,206.77931699994951,None,206.77931699994951,None,206.77931699994951,207.78011589997914,206.77931699994951,207.78011589997914,206.77931699994951,207.78011589997914,206.77931699994951,207.78011589997914,206.77931699994951,207.2803641000064,206.77931699994951,207.2803641000064,206.77931699994951,207.2803641000064,206.77931699994951,207.2803641000064,206.77931699994951,None,0.5806861000601202,,,,,11024,002,2024_Jan_07_1556,nback,2021.2.3,60.18867946566937,
2-back,instructions\back-2.png,conditions\22back-e.xlsx,,,experiment,2,1,stim\yellow.png,stim\gray.png,stim\gray.png,stim\gray.png,up,,,,,,,,,,,,,0,0,0,8,0,4,4,4,,,,,,,,,,,,,,,,,,,,,,,,,,,,,,,,,,,,,,,,,,,,,,,,,,,,,,,,down,0,208.28097199997865,None,208.28097199997865,None,208.28097199997865,209.28332139994018,208.28097199997865,209.28332139994018,208.28097199997865,209.28332139994018,208.28097199997865,209.28332139994018,208.28097199997865,208.7815971999662,208.28097199997865,208.7815971999662,208.28097199997865,208.7815971999662,208.28097199997865,208.7815971999662,208.28097199997865,None,0.4865252000745386,,,,,11024,002,2024_Jan_07_1556,nback,2021.2.3,60.18867946566937,
2-back,instructions\back-2.png,conditions\22back-e.xlsx,,,experiment,2,4,stim\gray.png,stim\gray.png,stim\gray.png,stim\yellow.png,left,,,,,,,,,,,,,0,0,0,8,0,5,5,5,,,,,,,,,,,,,,,,,,,,,,,,,,,,,,,,,,,,,,,,,,,,,,,,,,,,,,,,up,0,209.78334189997986,None,209.78334189997986,None,209.78334189997986,210.78583700000308,209.78334189997986,210.78583700000308,209.78334189997986,210.78583700000308,209.78334189997986,210.78583700000308,209.78334189997986,210.28467979992274,209.78334189997986,210.28467979992274,209.78334189997986,210.28467979992274,209.78334189997986,210.28467979992274,209.78334189997986,None,0.7528606000123546,,,,,11024,002,2024_Jan_07_1556,nback,2021.2.3,60.18867946566937,
2-back,instructions\back-2.png,conditions\22back-e.xlsx,,,experiment,2,3,stim\gray.png,stim\gray.png,stim\yellow.png,stim\gray.png,up,,,,,,,,,,,,,0,0,0,8,0,6,6,6,,,,,,,,,,,,,,,,,,,,,,,,,,,,,,,,,,,,,,,,,,,,,,,,,,,,,,,,left,0,211.26925010001287,None,211.26925010001287,None,211.26925010001287,212.27015519991983,211.26925010001287,212.27015519991983,211.26925010001287,212.27015519991983,211.26925010001287,212.27015519991983,211.26925010001287,211.77026569994632,211.26925010001287,211.77026569994632,211.26925010001287,211.77026569994632,211.26925010001287,211.77026569994632,211.26925010001287,None,0.514966499991715,,,,,11024,002,2024_Jan_07_1556,nback,2021.2.3,60.18867946566937,
2-back,instructions\back-2.png,conditions\22back-e.xlsx,,,experiment,2,1,stim\yellow.png,stim\gray.png,stim\gray.png,stim\gray.png,down,,,,,,,,,,,,,0,0,0,8,0,7,7,7,,,,,,,,,,,,,,,,,,,,,,,,,,,,,,,,,,,,,,,,,,,,,,,,,,,,,,,,down,1,212.77074059995357,None,212.77074059995357,None,212.77074059995357,213.77307619992644,212.77074059995357,213.77307619992644,212.77074059995357,213.77307619992644,212.77074059995357,213.77307619992644,212.77074059995357,213.27170319994912,212.77074059995357,213.27170319994912,212.77074059995357,213.27170319994912,212.77074059995357,213.27170319994912,212.77074059995357,None,0.46890480001457036,,,,,11024,002,2024_Jan_07_1556,nback,2021.2.3,60.18867946566937,
2-back,instructions\back-2.png,conditions\22back-e.xlsx,,,experiment,2,2,stim\gray.png,stim\yellow.png,stim\gray.png,stim\gray.png,right,,,,,,,,,,,,,0,0,0,8,0,8,8,8,,,,,,,,,,,,,,,,,,,,,,,,,,,,,,,,,,,,,,,,,,,,,,,,,,,,,,,,right,1,214.27386710001156,None,214.27386710001156,None,214.27386710001156,215.27547899994534,214.27386710001156,215.27547899994534,214.27386710001156,215.27547899994534,214.27386710001156,215.27547899994534,214.27386710001156,214.77383650001138,214.27386710001156,214.77383650001138,214.27386710001156,214.77383650001138,214.27386710001156,214.77383650001138,214.27386710001156,None,0.5176757000153884,,,,,11024,002,2024_Jan_07_1556,nback,2021.2.3,60.18867946566937,
2-back,instructions\back-2.png,conditions\22back-e.xlsx,,,experiment,2,1,stim\yellow.png,stim\gray.png,stim\gray.png,stim\gray.png,up,,,,,,,,,,,,,0,0,0,8,0,9,9,9,,,,,,,,,,,,,,,,,,,,,,,,,,,,,,,,,,,,,,,,,,,,,,,,,,,,,,,,down,0,215.77537189994473,None,215.77537189994473,None,215.77537189994473,216.7767742999131,215.77537189994473,216.7767742999131,215.77537189994473,216.7767742999131,215.77537189994473,216.7767742999131,215.77537189994473,216.2761941999197,215.77537189994473,216.2761941999197,215.77537189994473,216.2761941999197,215.77537189994473,216.2761941999197,215.77537189994473,None,0.5041785000357777,,,,,11024,002,2024_Jan_07_1556,nback,2021.2.3,60.18867946566937,
2-back,instructions\back-2.png,conditions\22back-e.xlsx,,,experiment,2,4,stim\gray.png,stim\gray.png,stim\gray.png,stim\yellow.png,left,,,,,,,,,,,,,0,0,0,8,0,10,10,10,,,,,,,,,,,,,,,,,,,,,,,,,,,,,,,,,,,,,,,,,,,,,,,,,,,,,,,,up,0,217.27837999991607,None,217.27837999991607,None,217.27837999991607,218.27903069998138,217.27837999991607,218.27903069998138,217.27837999991607,218.27903069998138,217.27837999991607,218.27903069998138,217.27837999991607,217.77854440000374,217.27837999991607,217.77854440000374,217.27837999991607,217.77854440000374,217.27837999991607,217.77854440000374,217.27837999991607,None,0.5216234000399709,,,,,11024,002,2024_Jan_07_1556,nback,2021.2.3,60.18867946566937,
2-back,instructions\back-2.png,conditions\22back-e.xlsx,,,experiment,2,2,stim\gray.png,stim\yellow.png,stim\gray.png,stim\gray.png,up,,,,,,,,,,,,,0,0,0,8,0,11,11,11,,,,,,,,,,,,,,,,,,,,,,,,,,,,,,,,,,,,,,,,,,,,,,,,,,,,,,,,right,0,218.78026649996173,None,218.78026649996173,None,218.78026649996173,219.78248169994913,218.78026649996173,219.78248169994913,218.78026649996173,219.78248169994913,218.78026649996173,219.78248169994913,218.78026649996173,219.28064229991287,218.78026649996173,219.28064229991287,218.78026649996173,219.28064229991287,218.78026649996173,219.28064229991287,218.78026649996173,None,0.45138829993084073,,,,,11024,002,2024_Jan_07_1556,nback,2021.2.3,60.18867946566937,
2-back,instructions\back-2.png,conditions\22back-e.xlsx,,,experiment,2,4,stim\gray.png,stim\gray.png,stim\gray.png,stim\yellow.png,down,,,,,,,,,,,,,0,0,0,8,0,12,12,12,,,,,,,,,,,,,,,,,,,,,,,,,,,,,,,,,,,,,,,,,,,,,,,,,,,,,,,,up,0,220.28230369999073,None,220.28230369999073,None,220.28230369999073,221.28417949995492,220.28230369999073,221.28417949995492,220.28230369999073,221.28417949995492,220.28230369999073,221.28417949995492,220.28230369999073,220.78284439991694,220.28230369999073,220.78284439991694,220.28230369999073,220.78284439991694,220.28230369999073,220.78284439991694,220.28230369999073,None,0.48518369998782873,,,,,11024,002,2024_Jan_07_1556,nback,2021.2.3,60.18867946566937,
2-back,instructions\back-2.png,conditions\22back-e.xlsx,,,experiment,2,3,stim\gray.png,stim\gray.png,stim\yellow.png,stim\gray.png,left,,,,,,,,,,,,,0,0,0,8,0,13,13,13,,,,,,,,,,,,,,,,,,,,,,,,,,,,,,,,,,,,,,,,,,,,,,,,,,,,,,,,left,1,221.7842845999403,None,221.7842845999403,None,221.7842845999403,222.78627149993554,221.7842845999403,222.78627149993554,221.7842845999403,222.78627149993554,221.7842845999403,222.78627149993554,221.7842845999403,222.28497839998454,221.7842845999403,222.28497839998454,221.7842845999403,222.28497839998454,221.7842845999403,222.28497839998454,221.7842845999403,None,0.4712929999222979,,,,,11024,002,2024_Jan_07_1556,nback,2021.2.3,60.18867946566937,
2-back,instructions\back-2.png,conditions\22back-e.xlsx,,,experiment,2,3,stim\gray.png,stim\gray.png,stim\yellow.png,stim\gray.png,down,,,,,,,,,,,,,0,0,0,8,0,14,14,14,,,,,,,,,,,,,,,,,,,,,,,,,,,,,,,,,,,,,,,,,,,,,,,,,,,,,,,,right,0,223.27011629997287,None,223.27011629997287,None,223.27011629997287,224.27232889994048,223.27011629997287,224.27232889994048,223.27011629997287,224.27232889994048,223.27011629997287,224.27232889994048,223.27011629997287,223.77133229991887,223.27011629997287,223.77133229991887,223.27011629997287,223.77133229991887,223.27011629997287,223.77133229991887,223.27011629997287,None,0.6499046999961138,,,,,11024,002,2024_Jan_07_1556,nback,2021.2.3,60.18867946566937,
2-back,instructions\back-2.png,conditions\22back-e.xlsx,,,experiment,2,4,stim\gray.png,stim\gray.png,stim\gray.png,stim\yellow.png,right,,,,,,,,,,,,,0,0,0,8,0,15,15,15,,,,,,,,,,,,,,,,,,,,,,,,,,,,,,,,,,,,,,,,,,,,,,,,,,,,,,,,up,0,224.7720237999456,None,224.7720237999456,None,224.7720237999456,225.7739215999609,224.7720237999456,225.7739215999609,224.7720237999456,225.7739215999609,224.7720237999456,225.7739215999609,224.7720237999456,225.27287290000822,224.7720237999456,225.27287290000822,224.7720237999456,225.27287290000822,224.7720237999456,225.27287290000822,224.7720237999456,None,0.5075093999039382,,,,,11024,002,2024_Jan_07_1556,nback,2021.2.3,60.18867946566937,
2-back,instructions\back-2.png,conditions\22back-e.xlsx,,,experiment,2,2,stim\gray.png,stim\yellow.png,stim\gray.png,stim\gray.png,right,,,,,,,,,,,,,0,0,0,8,0,16,16,16,,,,,,,,,,,,,,,,,,,,,,,,,,,,,,,,,,,,,,,,,,,,,,,,,,,,,,,,right,1,226.2749269999331,None,226.2749269999331,None,226.2749269999331,227.2759747999953,226.2749269999331,227.2759747999953,226.2749269999331,227.2759747999953,226.2749269999331,227.2759747999953,226.2749269999331,226.77556609991007,226.2749269999331,226.77556609991007,226.2749269999331,226.77556609991007,226.2749269999331,226.77556609991007,226.2749269999331,None,0.48469770001247525,,,,,11024,002,2024_Jan_07_1556,nback,2021.2.3,60.18867946566937,
2-back,instructions\back-2.png,conditions\22back-e.xlsx,,,experiment,2,1,stim\yellow.png,stim\gray.png,stim\gray.png,stim\gray.png,down,,,,,,,,,,,,,0,0,0,8,0,17,17,17,,,,,,,,,,,,,,,,,,,,,,,,,,,,,,,,,,,,,,,,,,,,,,,,,,,,,,,,down,1,227.77659379993565,None,227.77659379993565,None,227.77659379993565,228.7794059999287,227.77659379993565,228.7794059999287,227.77659379993565,228.7794059999287,227.77659379993565,228.7794059999287,227.77659379993565,228.27790869993623,227.77659379993565,228.27790869993623,227.77659379993565,228.27790869993623,227.77659379993565,228.27790869993623,227.77659379993565,None,0.487036099890247,,,,,11024,002,2024_Jan_07_1556,nback,2021.2.3,60.18867946566937,
2-back,instructions\back-2.png,conditions\22back-e.xlsx,,,experiment,2,4,stim\gray.png,stim\gray.png,stim\gray.png,stim\yellow.png,left,,,,,,,,,,,,,0,0,0,8,0,18,18,18,,,,,,,,,,,,,,,,,,,,,,,,,,,,,,,,,,,,,,,,,,,,,,,,,,,,,,,,up,0,229.2786158999661,None,229.2786158999661,None,229.2786158999661,230.28093889995944,229.2786158999661,230.28093889995944,229.2786158999661,230.28093889995944,229.2786158999661,230.28093889995944,229.2786158999661,229.78055779996794,229.2786158999661,229.78055779996794,229.2786158999661,229.78055779996794,229.2786158999661,229.78055779996794,229.2786158999661,None,0.4489027999807149,,,,,11024,002,2024_Jan_07_1556,nback,2021.2.3,60.18867946566937,
2-back,instructions\back-2.png,conditions\22back-e.xlsx,,,experiment,2,3,stim\gray.png,stim\gray.png,stim\yellow.png,stim\gray.png,up,,,,,,,,,,,,,0,0,0,8,0,19,19,19,,,,,,,,,,,,,,,,,,,,,,,,,,,,,,,,,,,,,,,,,,,,,,,,,,,,,,,,left,0,230.78105190000497,None,230.78105190000497,None,230.78105190000497,231.78275359992404,230.78105190000497,231.78275359992404,230.78105190000497,231.78275359992404,230.78105190000497,231.78275359992404,230.78105190000497,231.28172649990302,230.78105190000497,231.28172649990302,230.78105190000497,231.28172649990302,230.78105190000497,231.28172649990302,230.78105190000497,None,0.442509499960579,,,,,11024,002,2024_Jan_07_1556,nback,2021.2.3,60.18867946566937,
2-back,instructions\back-2.png,conditions\22back-e.xlsx,,,,,,,,,,,,,,,,,,,,,,,0,0,0,8,,,,,,,,,,,,,,,,,,,,,,,,,,,,,,,,,,,,,,,,,,,,,,,,,,,,,,,,,,,,,,,,,,,,,,,,,,,,,,,,,,,,,232.28330389992334,None,,,11024,002,2024_Jan_07_1556,nback,2021.2.3,60.18867946566937,
0-back,instructions\back-0.png,conditions\04back-e.xlsx,,,experiment,0,3,stim\gray.png,stim\gray.png,stim\yellow.png,stim\gray.png,right,,,,,,,,,,,,,0,1,1,13,0,0,0,0,,,,,,,,,,,,,,,233.43504409992602,237.942744400003,237.8759750999743,None,,,,,,,,,,,,,,,,,,,,,,,,,,,,,,,,,,,,,,right,1,238.29292989999522,None,238.29292989999522,None,238.29292989999522,239.29391629993916,238.29292989999522,239.29391629993916,238.29292989999522,239.29391629993916,238.29292989999522,239.29391629993916,238.29292989999522,238.79290269990452,238.29292989999522,238.79290269990452,238.29292989999522,238.79290269990452,238.29292989999522,238.79290269990452,238.29292989999522,None,0.5145105000119656,,,,,11024,002,2024_Jan_07_1556,nback,2021.2.3,60.18867946566937,
0-back,instructions\back-0.png,conditions\04back-e.xlsx,,,experiment,0,1,stim\yellow.png,stim\gray.png,stim\gray.png,stim\gray.png,up,,,,,,,,,,,,,0,1,1,13,0,1,1,1,,,,,,,,,,,,,,,,,,,,,,,,,,,,,,,,,,,,,,,,,,,,,,,,,,,,,,,,up,1,239.77781309990678,None,239.77781309990678,None,239.77781309990678,240.7799348999979,239.77781309990678,240.7799348999979,239.77781309990678,240.7799348999979,239.77781309990678,240.7799348999979,239.77781309990678,240.2789855999872,239.77781309990678,240.2789855999872,239.77781309990678,240.2789855999872,239.77781309990678,240.2789855999872,239.77781309990678,None,0.40610700007528067,,,,,11024,002,2024_Jan_07_1556,nback,2021.2.3,60.18867946566937,
0-back,instructions\back-0.png,conditions\04back-e.xlsx,,,experiment,0,2,stim\gray.png,stim\yellow.png,stim\gray.png,stim\gray.png,left,,,,,,,,,,,,,0,1,1,13,0,2,2,2,,,,,,,,,,,,,,,,,,,,,,,,,,,,,,,,,,,,,,,,,,,,,,,,,,,,,,,,left,1,241.279808399966,None,241.279808399966,None,241.279808399966,242.2821156999562,241.279808399966,242.2821156999562,241.279808399966,242.2821156999562,241.279808399966,242.2821156999562,241.279808399966,241.78130209993105,241.279808399966,241.78130209993105,241.279808399966,241.78130209993105,241.279808399966,241.78130209993105,241.279808399966,None,0.3598563000559807,,,,,11024,002,2024_Jan_07_1556,nback,2021.2.3,60.18867946566937,
0-back,instructions\back-0.png,conditions\04back-e.xlsx,,,experiment,0,3,stim\gray.png,stim\gray.png,stim\yellow.png,stim\gray.png,right,,,,,,,,,,,,,0,1,1,13,0,3,3,3,,,,,,,,,,,,,,,,,,,,,,,,,,,,,,,,,,,,,,,,,,,,,,,,,,,,,,,,right,1,242.7826856999891,None,242.7826856999891,None,242.7826856999891,243.78359699994326,242.7826856999891,243.78359699994326,242.7826856999891,243.78359699994326,242.7826856999891,243.78359699994326,242.7826856999891,243.28361219994258,242.7826856999891,243.28361219994258,242.7826856999891,243.28361219994258,242.7826856999891,243.28361219994258,242.7826856999891,None,0.43342890008352697,,,,,11024,002,2024_Jan_07_1556,nback,2021.2.3,60.18867946566937,
0-back,instructions\back-0.png,conditions\04back-e.xlsx,,,experiment,0,3,stim\gray.png,stim\gray.png,stim\yellow.png,stim\gray.png,right,,,,,,,,,,,,,0,1,1,13,0,4,4,4,,,,,,,,,,,,,,,,,,,,,,,,,,,,,,,,,,,,,,,,,,,,,,,,,,,,,,,,right,1,244.28437579993624,None,244.28437579993624,None,244.28437579993624,245.28735689993482,244.28437579993624,245.28735689993482,244.28437579993624,245.28735689993482,244.28437579993624,245.28735689993482,244.28437579993624,244.7854309999384,244.28437579993624,244.7854309999384,244.28437579993624,244.7854309999384,244.28437579993624,244.7854309999384,244.28437579993624,None,0.45146009989548475,,,,,11024,002,2024_Jan_07_1556,nback,2021.2.3,60.18867946566937,
0-back,instructions\back-0.png,conditions\04back-e.xlsx,,,experiment,0,2,stim\gray.png,stim\yellow.png,stim\gray.png,stim\gray.png,left,,,,,,,,,,,,,0,1,1,13,0,5,5,5,,,,,,,,,,,,,,,,,,,,,,,,,,,,,,,,,,,,,,,,,,,,,,,,,,,,,,,,left,1,245.76963100000285,None,245.76963100000285,None,245.76963100000285,246.77195979992393,245.76963100000285,246.77195979992393,245.76963100000285,246.77195979992393,245.76963100000285,246.77195979992393,245.76963100000285,246.27068789990153,245.76963100000285,246.27068789990153,245.76963100000285,246.27068789990153,245.76963100000285,246.27068789990153,245.76963100000285,None,0.6300721999723464,,,,,11024,002,2024_Jan_07_1556,nback,2021.2.3,60.18867946566937,
0-back,instructions\back-0.png,conditions\04back-e.xlsx,,,experiment,0,2,stim\gray.png,stim\yellow.png,stim\gray.png,stim\gray.png,left,,,,,,,,,,,,,0,1,1,13,0,6,6,6,,,,,,,,,,,,,,,,,,,,,,,,,,,,,,,,,,,,,,,,,,,,,,,,,,,,,,,,left,1,247.27302389999386,None,247.27302389999386,None,247.27302389999386,248.27447569998913,247.27302389999386,248.27447569998913,247.27302389999386,248.27447569998913,247.27302389999386,248.27447569998913,247.27302389999386,247.77389630000107,247.27302389999386,247.77389630000107,247.27302389999386,247.77389630000107,247.27302389999386,247.77389630000107,247.27302389999386,None,0.5265289000235498,,,,,11024,002,2024_Jan_07_1556,nback,2021.2.3,60.18867946566937,
0-back,instructions\back-0.png,conditions\04back-e.xlsx,,,experiment,0,1,stim\yellow.png,stim\gray.png,stim\gray.png,stim\gray.png,up,,,,,,,,,,,,,0,1,1,13,0,7,7,7,,,,,,,,,,,,,,,,,,,,,,,,,,,,,,,,,,,,,,,,,,,,,,,,,,,,,,,,up,1,248.77489739994053,None,248.77489739994053,None,248.77489739994053,249.77610809996258,248.77489739994053,249.77610809996258,248.77489739994053,249.77610809996258,248.77489739994053,249.77610809996258,248.77489739994053,249.27507019997574,248.77489739994053,249.27507019997574,248.77489739994053,249.27507019997574,248.77489739994053,249.27507019997574,248.77489739994053,None,0.4089013999328017,,,,,11024,002,2024_Jan_07_1556,nback,2021.2.3,60.18867946566937,
0-back,instructions\back-0.png,conditions\04back-e.xlsx,,,experiment,0,4,stim\gray.png,stim\gray.png,stim\gray.png,stim\yellow.png,down,,,,,,,,,,,,,0,1,1,13,0,8,8,8,,,,,,,,,,,,,,,,,,,,,,,,,,,,,,,,,,,,,,,,,,,,,,,,,,,,,,,,down,1,250.2771830999991,None,250.2771830999991,None,250.2771830999991,251.2779198999051,250.2771830999991,251.2779198999051,250.2771830999991,251.2779198999051,250.2771830999991,251.2779198999051,250.2771830999991,250.7779069999233,250.2771830999991,250.7779069999233,250.2771830999991,250.7779069999233,250.2771830999991,250.7779069999233,250.2771830999991,None,0.4264303999952972,,,,,11024,002,2024_Jan_07_1556,nback,2021.2.3,60.18867946566937,
0-back,instructions\back-0.png,conditions\04back-e.xlsx,,,experiment,0,4,stim\gray.png,stim\gray.png,stim\gray.png,stim\yellow.png,down,,,,,,,,,,,,,0,1,1,13,0,9,9,9,,,,,,,,,,,,,,,,,,,,,,,,,,,,,,,,,,,,,,,,,,,,,,,,,,,,,,,,down,1,251.77881549997255,None,251.77881549997255,None,251.77881549997255,252.78139189991634,251.77881549997255,252.78139189991634,251.77881549997255,252.78139189991634,251.77881549997255,252.78139189991634,251.77881549997255,252.27962939999998,251.77881549997255,252.27962939999998,251.77881549997255,252.27962939999998,251.77881549997255,252.27962939999998,251.77881549997255,None,0.5492881999816746,,,,,11024,002,2024_Jan_07_1556,nback,2021.2.3,60.18867946566937,
0-back,instructions\back-0.png,conditions\04back-e.xlsx,,,experiment,0,1,stim\yellow.png,stim\gray.png,stim\gray.png,stim\gray.png,up,,,,,,,,,,,,,0,1,1,13,0,10,10,10,,,,,,,,,,,,,,,,,,,,,,,,,,,,,,,,,,,,,,,,,,,,,,,,,,,,,,,,up,1,253.28085330000613,None,253.28085330000613,None,253.28085330000613,254.28254919999745,253.28085330000613,254.28254919999745,253.28085330000613,254.28254919999745,253.28085330000613,254.28254919999745,253.28085330000613,253.7818941998994,253.28085330000613,253.7818941998994,253.28085330000613,253.7818941998994,253.28085330000613,253.7818941998994,253.28085330000613,None,0.4548597000539303,,,,,11024,002,2024_Jan_07_1556,nback,2021.2.3,60.18867946566937,
0-back,instructions\back-0.png,conditions\04back-e.xlsx,,,experiment,0,4,stim\gray.png,stim\gray.png,stim\gray.png,stim\yellow.png,down,,,,,,,,,,,,,0,1,1,13,0,11,11,11,,,,,,,,,,,,,,,,,,,,,,,,,,,,,,,,,,,,,,,,,,,,,,,,,,,,,,,,down,1,254.78310589992907,None,254.78310589992907,None,254.78310589992907,255.78507949993946,254.78310589992907,255.78507949993946,254.78310589992907,255.78507949993946,254.78310589992907,255.78507949993946,254.78310589992907,255.28473259997554,254.78310589992907,255.28473259997554,254.78310589992907,255.28473259997554,254.78310589992907,255.28473259997554,254.78310589992907,None,0.5133613999933004,,,,,11024,002,2024_Jan_07_1556,nback,2021.2.3,60.18867946566937,
0-back,instructions\back-0.png,conditions\04back-e.xlsx,,,experiment,0,1,stim\yellow.png,stim\gray.png,stim\gray.png,stim\gray.png,up,,,,,,,,,,,,,0,1,1,13,0,12,12,12,,,,,,,,,,,,,,,,,,,,,,,,,,,,,,,,,,,,,,,,,,,,,,,,,,,,,,,,up,1,256.28534840000793,None,256.28534840000793,None,256.28534840000793,257.2871529000113,256.28534840000793,257.2871529000113,256.28534840000793,257.2871529000113,256.28534840000793,257.2871529000113,256.28534840000793,256.7870612000115,256.28534840000793,256.7870612000115,256.28534840000793,256.7870612000115,256.28534840000793,256.7870612000115,256.28534840000793,None,0.5861779999686405,,,,,11024,002,2024_Jan_07_1556,nback,2021.2.3,60.18867946566937,
0-back,instructions\back-0.png,conditions\04back-e.xlsx,,,experiment,0,3,stim\gray.png,stim\gray.png,stim\yellow.png,stim\gray.png,right,,,,,,,,,,,,,0,1,1,13,0,13,13,13,,,,,,,,,,,,,,,,,,,,,,,,,,,,,,,,,,,,,,,,,,,,,,,,,,,,,,,,right,1,257.7710384000093,None,257.7710384000093,None,257.7710384000093,258.773037499981,257.7710384000093,258.773037499981,257.7710384000093,258.773037499981,257.7710384000093,258.773037499981,257.7710384000093,258.2717318999348,257.7710384000093,258.2717318999348,257.7710384000093,258.2717318999348,257.7710384000093,258.2717318999348,257.7710384000093,None,0.3808586000232026,,,,,11024,002,2024_Jan_07_1556,nback,2021.2.3,60.18867946566937,
0-back,instructions\back-0.png,conditions\04back-e.xlsx,,,experiment,0,4,stim\gray.png,stim\gray.png,stim\gray.png,stim\yellow.png,down,,,,,,,,,,,,,0,1,1,13,0,14,14,14,,,,,,,,,,,,,,,,,,,,,,,,,,,,,,,,,,,,,,,,,,,,,,,,,,,,,,,,down,1,259.2736695999047,None,259.2736695999047,None,259.2736695999047,260.2747221000027,259.2736695999047,260.2747221000027,259.2736695999047,260.2747221000027,259.2736695999047,260.2747221000027,259.2736695999047,259.77389119996224,259.2736695999047,259.77389119996224,259.2736695999047,259.77389119996224,259.2736695999047,259.77389119996224,259.2736695999047,None,0.509781900094822,,,,,11024,002,2024_Jan_07_1556,nback,2021.2.3,60.18867946566937,
0-back,instructions\back-0.png,conditions\04back-e.xlsx,,,experiment,0,1,stim\yellow.png,stim\gray.png,stim\gray.png,stim\gray.png,up,,,,,,,,,,,,,0,1,1,13,0,15,15,15,,,,,,,,,,,,,,,,,,,,,,,,,,,,,,,,,,,,,,,,,,,,,,,,,,,,,,,,up,1,260.77554309996776,None,260.77554309996776,None,260.77554309996776,261.77681579999626,260.77554309996776,261.77681579999626,260.77554309996776,261.77681579999626,260.77554309996776,261.77681579999626,260.77554309996776,261.27675189997535,260.77554309996776,261.27675189997535,260.77554309996776,261.27675189997535,260.77554309996776,261.27675189997535,260.77554309996776,None,0.6169554999796674,,,,,11024,002,2024_Jan_07_1556,nback,2021.2.3,60.18867946566937,
0-back,instructions\back-0.png,conditions\04back-e.xlsx,,,experiment,0,2,stim\gray.png,stim\yellow.png,stim\gray.png,stim\gray.png,left,,,,,,,,,,,,,0,1,1,13,0,16,16,16,,,,,,,,,,,,,,,,,,,,,,,,,,,,,,,,,,,,,,,,,,,,,,,,,,,,,,,,left,1,262.27837199997157,None,262.27837199997157,None,262.27837199997157,263.27919689996634,262.27837199997157,263.27919689996634,262.27837199997157,263.27919689996634,262.27837199997157,263.27919689996634,262.27837199997157,262.7784660999896,262.27837199997157,262.7784660999896,262.27837199997157,262.7784660999896,262.27837199997157,262.7784660999896,262.27837199997157,None,0.3852263999870047,,,,,11024,002,2024_Jan_07_1556,nback,2021.2.3,60.18867946566937,
0-back,instructions\back-0.png,conditions\04back-e.xlsx,,,experiment,0,3,stim\gray.png,stim\gray.png,stim\yellow.png,stim\gray.png,right,,,,,,,,,,,,,0,1,1,13,0,17,17,17,,,,,,,,,,,,,,,,,,,,,,,,,,,,,,,,,,,,,,,,,,,,,,,,,,,,,,,,right,1,263.77988139993977,None,263.77988139993977,None,263.77988139993977,264.7813819999574,263.77988139993977,264.7813819999574,263.77988139993977,264.7813819999574,263.77988139993977,264.7813819999574,263.77988139993977,264.2807715999661,263.77988139993977,264.2807715999661,263.77988139993977,264.2807715999661,263.77988139993977,264.2807715999661,263.77988139993977,None,0.4121856999117881,,,,,11024,002,2024_Jan_07_1556,nback,2021.2.3,60.18867946566937,
0-back,instructions\back-0.png,conditions\04back-e.xlsx,,,experiment,0,2,stim\gray.png,stim\yellow.png,stim\gray.png,stim\gray.png,left,,,,,,,,,,,,,0,1,1,13,0,18,18,18,,,,,,,,,,,,,,,,,,,,,,,,,,,,,,,,,,,,,,,,,,,,,,,,,,,,,,,,left,1,265.2820621000137,None,265.2820621000137,None,265.2820621000137,266.2841708000051,265.2820621000137,266.2841708000051,265.2820621000137,266.2841708000051,265.2820621000137,266.2841708000051,265.2820621000137,265.7842707999516,265.2820621000137,265.7842707999516,265.2820621000137,265.7842707999516,265.2820621000137,265.7842707999516,265.2820621000137,None,0.4298468999331817,,,,,11024,002,2024_Jan_07_1556,nback,2021.2.3,60.18867946566937,
0-back,instructions\back-0.png,conditions\04back-e.xlsx,,,experiment,0,4,stim\gray.png,stim\gray.png,stim\gray.png,stim\yellow.png,down,,,,,,,,,,,,,0,1,1,13,0,19,19,19,,,,,,,,,,,,,,,,,,,,,,,,,,,,,,,,,,,,,,,,,,,,,,,,,,,,,,,,down,1,266.78430910001043,None,266.78430910001043,None,266.78430910001043,267.7865188999567,266.78430910001043,267.7865188999567,266.78430910001043,267.7865188999567,266.78430910001043,267.7865188999567,266.78430910001043,267.28518299991265,266.78430910001043,267.28518299991265,266.78430910001043,267.28518299991265,266.78430910001043,267.28518299991265,266.78430910001043,None,0.5432684000115842,,,,,11024,002,2024_Jan_07_1556,nback,2021.2.3,60.18867946566937,
0-back,instructions\back-0.png,conditions\04back-e.xlsx,,,,,,,,,,,,,,,,,,,,,,,0,1,1,13,,,,,,,,,,,,,,,,,,,,,,,,,,,,,,,,,,,,,,,,,,,,,,,,,,,,,,,,,,,,,,,,,,,,,,,,,,,,,,,,,,,,,268.27039059996605,None,,,11024,002,2024_Jan_07_1556,nback,2021.2.3,60.18867946566937,
1-back,instructions\back-1.png,conditions\10back-e.xlsx,,,experiment,1,3,stim\gray.png,stim\gray.png,stim\yellow.png,stim\gray.png,None,,,,,,,,,,,,,0,2,2,1,0,0,0,0,,,,,,,,,,,,,,,269.40482769999653,273.91191259992775,273.8961536999559,None,,,,,,,,,,,,,,,,,,,,,,,,,,,,,,,,,,,,,,None,1,274.29637449991424,None,274.29637449991424,None,274.29637449991424,275.29700989997946,274.29637449991424,275.29700989997946,274.29637449991424,275.29700989997946,274.29637449991424,275.29700989997946,274.29637449991424,274.79571159998886,274.29637449991424,274.79571159998886,274.29637449991424,274.79571159998886,274.29637449991424,274.79571159998886,274.29637449991424,None,,,,,,11024,002,2024_Jan_07_1556,nback,2021.2.3,60.18867946566937,
1-back,instructions\back-1.png,conditions\10back-e.xlsx,,,experiment,1,4,stim\gray.png,stim\gray.png,stim\gray.png,stim\yellow.png,right,,,,,,,,,,,,,0,2,2,1,0,1,1,1,,,,,,,,,,,,,,,,,,,,,,,,,,,,,,,,,,,,,,,,,,,,,,,,,,,,,,,,left,0,275.78080429998226,None,275.78080429998226,None,275.78080429998226,276.78269949997775,275.78080429998226,276.78269949997775,275.78080429998226,276.78269949997775,275.78080429998226,276.78269949997775,275.78080429998226,276.2823972000042,275.78080429998226,276.2823972000042,275.78080429998226,276.2823972000042,275.78080429998226,276.2823972000042,275.78080429998226,None,1.051774900057353,,,,,11024,002,2024_Jan_07_1556,nback,2021.2.3,60.18867946566937,
1-back,instructions\back-1.png,conditions\10back-e.xlsx,,,experiment,1,4,stim\gray.png,stim\gray.png,stim\gray.png,stim\yellow.png,down,,,,,,,,,,,,,0,2,2,1,0,2,2,2,,,,,,,,,,,,,,,,,,,,,,,,,,,,,,,,,,,,,,,,,,,,,,,,,,,,,,,,left,0,277.28326870000456,None,277.28326870000456,None,277.28326870000456,278.28530359989963,277.28326870000456,278.28530359989963,277.28326870000456,278.28530359989963,277.28326870000456,278.28530359989963,277.28326870000456,277.7846669999417,277.28326870000456,277.7846669999417,277.28326870000456,277.7846669999417,277.28326870000456,277.7846669999417,277.28326870000456,None,0.8763501000357792,,,,,11024,002,2024_Jan_07_1556,nback,2021.2.3,60.18867946566937,
1-back,instructions\back-1.png,conditions\10back-e.xlsx,,,experiment,1,2,stim\gray.png,stim\yellow.png,stim\gray.png,stim\gray.png,down,,,,,,,,,,,,,0,2,2,1,0,3,3,3,,,,,,,,,,,,,,,,,,,,,,,,,,,,,,,,,,,,,,,,,,,,,,,,,,,,,,,,up,0,278.7687919999007,None,278.7687919999007,None,278.7687919999007,279.77161699999124,278.7687919999007,279.77161699999124,278.7687919999007,279.77161699999124,278.7687919999007,279.77161699999124,278.7687919999007,279.2702455999097,278.7687919999007,279.2702455999097,278.7687919999007,279.2702455999097,278.7687919999007,279.2702455999097,278.7687919999007,None,1.0467771999537945,,,,,11024,002,2024_Jan_07_1556,nback,2021.2.3,60.18867946566937,
1-back,instructions\back-1.png,conditions\10back-e.xlsx,,,experiment,1,1,stim\yellow.png,stim\gray.png,stim\gray.png,stim\gray.png,left,,,,,,,,,,,,,0,2,2,1,0,4,4,4,,,,,,,,,,,,,,,,,,,,,,,,,,,,,,,,,,,,,,,,,,,,,,,,,,,,,,,,right,0,280.27093229989987,None,280.27093229989987,None,280.27093229989987,281.2730076999869,280.27093229989987,281.2730076999869,280.27093229989987,281.2730076999869,280.27093229989987,281.2730076999869,280.27093229989987,280.77334369998425,280.27093229989987,280.77334369998425,280.27093229989987,280.77334369998425,280.27093229989987,280.77334369998425,280.27093229989987,None,1.1287421999732032,,,,,11024,002,2024_Jan_07_1556,nback,2021.2.3,60.18867946566937,
1-back,instructions\back-1.png,conditions\10back-e.xlsx,,,experiment,1,2,stim\gray.png,stim\yellow.png,stim\gray.png,stim\gray.png,up,,,,,,,,,,,,,0,2,2,1,0,5,5,5,,,,,,,,,,,,,,,,,,,,,,,,,,,,,,,,,,,,,,,,,,,,,,,,,,,,,,,,up,1,281.77332269994076,None,281.77332269994076,None,281.77332269994076,282.77468959998805,281.77332269994076,282.77468959998805,281.77332269994076,282.77468959998805,281.77332269994076,282.77468959998805,281.77332269994076,282.2740594999632,281.77332269994076,282.2740594999632,281.77332269994076,282.2740594999632,281.77332269994076,282.2740594999632,281.77332269994076,None,0.946311500039883,,,,,11024,002,2024_Jan_07_1556,nback,2021.2.3,60.18867946566937,
1-back,instructions\back-1.png,conditions\10back-e.xlsx,,,experiment,1,3,stim\gray.png,stim\gray.png,stim\yellow.png,stim\gray.png,left,,,,,,,,,,,,,0,2,2,1,0,6,6,6,,,,,,,,,,,,,,,,,,,,,,,,,,,,,,,,,,,,,,,,,,,,,,,,,,,,,,,,down,0,283.275655800011,None,283.275655800011,None,283.275655800011,284.2776129000122,283.275655800011,284.2776129000122,283.275655800011,284.2776129000122,283.275655800011,284.2776129000122,283.275655800011,283.7761041999329,283.275655800011,283.7761041999329,283.275655800011,283.7761041999329,283.275655800011,283.7761041999329,283.275655800011,None,0.90812979999464,,,,,11024,002,2024_Jan_07_1556,nback,2021.2.3,60.18867946566937,
1-back,instructions\back-1.png,conditions\10back-e.xlsx,,,experiment,1,4,stim\gray.png,stim\gray.png,stim\gray.png,stim\yellow.png,right,,,,,,,,,,,,,0,2,2,1,0,7,7,7,,,,,,,,,,,,,,,,,,,,,,,,,,,,,,,,,,,,,,,,,,,,,,,,,,,,,,,,left,0,284.77767089998815,None,284.77767089998815,None,284.77767089998815,285.7790869999444,284.77767089998815,285.7790869999444,284.77767089998815,285.7790869999444,284.77767089998815,285.7790869999444,284.77767089998815,285.278573699994,284.77767089998815,285.278573699994,284.77767089998815,285.278573699994,284.77767089998815,285.278573699994,284.77767089998815,None,1.430131800007075,,,,,11024,002,2024_Jan_07_1556,nback,2021.2.3,60.18867946566937,
1-back,instructions\back-1.png,conditions\10back-e.xlsx,,,experiment,1,1,stim\yellow.png,stim\gray.png,stim\gray.png,stim\gray.png,down,,,,,,,,,,,,,0,2,2,1,0,8,8,8,,,,,,,,,,,,,,,,,,,,,,,,,,,,,,,,,,,,,,,,,,,,,,,,,,,,,,,,down,1,286.27989149990026,None,286.27989149990026,None,286.27989149990026,287.2821282999357,286.27989149990026,287.2821282999357,286.27989149990026,287.2821282999357,286.27989149990026,287.2821282999357,286.27989149990026,286.7812818000093,286.27989149990026,286.7812818000093,286.27989149990026,286.7812818000093,286.27989149990026,286.7812818000093,286.27989149990026,None,1.3036707999417558,,,,,11024,002,2024_Jan_07_1556,nback,2021.2.3,60.18867946566937,
1-back,instructions\back-1.png,conditions\10back-e.xlsx,,,experiment,1,3,stim\gray.png,stim\gray.png,stim\yellow.png,stim\gray.png,up,,,,,,,,,,,,,0,2,2,1,0,9,9,9,,,,,,,,,,,,,,,,,,,,,,,,,,,,,,,,,,,,,,,,,,,,,,,,,,,,,,,,right,0,287.78280039993115,None,287.78280039993115,None,287.78280039993115,288.78405889996793,287.78280039993115,288.78405889996793,287.78280039993115,288.78405889996793,287.78280039993115,288.78405889996793,287.78280039993115,288.2834583999356,287.78280039993115,288.2834583999356,287.78280039993115,288.2834583999356,287.78280039993115,288.2834583999356,287.78280039993115,None,0.06607990001793951,,,,,11024,002,2024_Jan_07_1556,nback,2021.2.3,60.18867946566937,
1-back,instructions\back-1.png,conditions\10back-e.xlsx,,,experiment,1,1,stim\yellow.png,stim\gray.png,stim\gray.png,stim\gray.png,right,,,,,,,,,,,,,0,2,2,1,0,10,10,10,,,,,,,,,,,,,,,,,,,,,,,,,,,,,,,,,,,,,,,,,,,,,,,,,,,,,,,,right,1,289.2855000999989,None,289.2855000999989,None,289.2855000999989,290.28598329995293,289.2855000999989,290.28598329995293,289.2855000999989,290.28598329995293,289.2855000999989,290.28598329995293,289.2855000999989,289.7860472999746,289.2855000999989,289.7860472999746,289.2855000999989,289.7860472999746,289.2855000999989,289.7860472999746,289.2855000999989,None,0.9540832000784576,,,,,11024,002,2024_Jan_07_1556,nback,2021.2.3,60.18867946566937,
1-back,instructions\back-1.png,conditions\10back-e.xlsx,,,experiment,1,2,stim\gray.png,stim\yellow.png,stim\gray.png,stim\gray.png,up,,,,,,,,,,,,,0,2,2,1,0,11,11,11,,,,,,,,,,,,,,,,,,,,,,,,,,,,,,,,,,,,,,,,,,,,,,,,,,,,,,,,up,1,290.7698713999707,None,290.7698713999707,None,290.7698713999707,291.7714524999028,290.7698713999707,291.7714524999028,290.7698713999707,291.7714524999028,290.7698713999707,291.7714524999028,290.7698713999707,291.27135119994637,290.7698713999707,291.27135119994637,290.7698713999707,291.27135119994637,290.7698713999707,291.27135119994637,290.7698713999707,None,1.0538270000834018,,,,,11024,002,2024_Jan_07_1556,nback,2021.2.3,60.18867946566937,
1-back,instructions\back-1.png,conditions\10back-e.xlsx,,,experiment,1,4,stim\gray.png,stim\gray.png,stim\gray.png,stim\yellow.png,left,,,,,,,,,,,,,0,2,2,1,0,12,12,12,,,,,,,,,,,,,,,,,,,,,,,,,,,,,,,,,,,,,,,,,,,,,,,,,,,,,,,,left,1,292.2721207999857,None,292.2721207999857,None,292.2721207999857,293.27358769997954,292.2721207999857,293.27358769997954,292.2721207999857,293.27358769997954,292.2721207999857,293.27358769997954,292.2721207999857,292.77320479997434,292.2721207999857,292.77320479997434,292.2721207999857,292.77320479997434,292.2721207999857,292.77320479997434,292.2721207999857,None,0.9036371000111103,,,,,11024,002,2024_Jan_07_1556,nback,2021.2.3,60.18867946566937,
1-back,instructions\back-1.png,conditions\10back-e.xlsx,,,experiment,1,3,stim\gray.png,stim\gray.png,stim\yellow.png,stim\gray.png,down,,,,,,,,,,,,,0,2,2,1,0,13,13,13,,,,,,,,,,,,,,,,,,,,,,,,,,,,,,,,,,,,,,,,,,,,,,,,,,,,,,,,down,1,293.77443089999724,None,293.77443089999724,None,293.77443089999724,294.7758195999777,293.77443089999724,294.7758195999777,293.77443089999724,294.7758195999777,293.77443089999724,294.7758195999777,293.77443089999724,294.2749732999364,293.77443089999724,294.2749732999364,293.77443089999724,294.2749732999364,293.77443089999724,294.2749732999364,293.77443089999724,None,0.8653370999963954,,,,,11024,002,2024_Jan_07_1556,nback,2021.2.3,60.18867946566937,
1-back,instructions\back-1.png,conditions\10back-e.xlsx,,,experiment,1,1,stim\yellow.png,stim\gray.png,stim\gray.png,stim\gray.png,right,,,,,,,,,,,,,0,2,2,1,0,14,14,14,,,,,,,,,,,,,,,,,,,,,,,,,,,,,,,,,,,,,,,,,,,,,,,,,,,,,,,,right,1,295.27684509998653,None,295.27684509998653,None,295.27684509998653,296.27884809998795,295.27684509998653,296.27884809998795,295.27684509998653,296.27884809998795,295.27684509998653,296.27884809998795,295.27684509998653,295.77742409997154,295.27684509998653,295.77742409997154,295.27684509998653,295.77742409997154,295.27684509998653,295.77742409997154,295.27684509998653,None,1.06682169996202,,,,,11024,002,2024_Jan_07_1556,nback,2021.2.3,60.18867946566937,
1-back,instructions\back-1.png,conditions\10back-e.xlsx,,,experiment,1,2,stim\gray.png,stim\yellow.png,stim\gray.png,stim\gray.png,up,,,,,,,,,,,,,0,2,2,1,0,15,15,15,,,,,,,,,,,,,,,,,,,,,,,,,,,,,,,,,,,,,,,,,,,,,,,,,,,,,,,,up,1,296.77961279999,None,296.77961279999,None,296.77961279999,297.78040619997773,296.77961279999,297.78040619997773,296.77961279999,297.78040619997773,296.77961279999,297.78040619997773,296.77961279999,297.2796872999752,296.77961279999,297.2796872999752,296.77961279999,297.2796872999752,296.77961279999,297.2796872999752,296.77961279999,None,1.2602123999968171,,,,,11024,002,2024_Jan_07_1556,nback,2021.2.3,60.18867946566937,
1-back,instructions\back-1.png,conditions\10back-e.xlsx,,,experiment,1,3,stim\gray.png,stim\gray.png,stim\yellow.png,stim\gray.png,left,,,,,,,,,,,,,0,2,2,1,0,16,16,16,,,,,,,,,,,,,,,,,,,,,,,,,,,,,,,,,,,,,,,,,,,,,,,,,,,,,,,,down,0,298.281081299996,None,298.281081299996,None,298.281081299996,299.28344229992945,298.281081299996,299.28344229992945,298.281081299996,299.28344229992945,298.281081299996,299.28344229992945,298.281081299996,298.7824941999279,298.281081299996,298.7824941999279,298.281081299996,298.7824941999279,298.281081299996,298.7824941999279,298.281081299996,None,1.2067323999945074,,,,,11024,002,2024_Jan_07_1556,nback,2021.2.3,60.18867946566937,
1-back,instructions\back-1.png,conditions\10back-e.xlsx,,,experiment,1,2,stim\gray.png,stim\yellow.png,stim\gray.png,stim\gray.png,right,,,,,,,,,,,,,0,2,2,1,0,17,17,17,,,,,,,,,,,,,,,,,,,,,,,,,,,,,,,,,,,,,,,,,,,,,,,,,,,,,,,,up,0,299.78317579999566,None,299.78317579999566,None,299.78317579999566,300.785392699996,299.78317579999566,300.785392699996,299.78317579999566,300.785392699996,299.78317579999566,300.785392699996,299.78317579999566,300.28447750001214,299.78317579999566,300.28447750001214,299.78317579999566,300.28447750001214,299.78317579999566,300.28447750001214,299.78317579999566,None,0.728598800022155,,,,,11024,002,2024_Jan_07_1556,nback,2021.2.3,60.18867946566937,
1-back,instructions\back-1.png,conditions\10back-e.xlsx,,,experiment,1,1,stim\yellow.png,stim\gray.png,stim\gray.png,stim\gray.png,left,,,,,,,,,,,,,0,2,2,1,0,18,18,18,,,,,,,,,,,,,,,,,,,,,,,,,,,,,,,,,,,,,,,,,,,,,,,,,,,,,,,,right,0,301.28554519999307,None,301.28554519999307,None,301.28554519999307,302.28785520000383,301.28554519999307,302.28785520000383,301.28554519999307,302.28785520000383,301.28554519999307,302.28785520000383,301.28554519999307,301.7875039000064,301.28554519999307,301.7875039000064,301.28554519999307,301.7875039000064,301.28554519999307,301.7875039000064,301.28554519999307,None,0.7622584999771789,,,,,11024,002,2024_Jan_07_1556,nback,2021.2.3,60.18867946566937,
1-back,instructions\back-1.png,conditions\10back-e.xlsx,,,experiment,1,4,stim\gray.png,stim\gray.png,stim\gray.png,stim\yellow.png,up,,,,,,,,,,,,,0,2,2,1,0,19,19,19,,,,,,,,,,,,,,,,,,,,,,,,,,,,,,,,,,,,,,,,,,,,,,,,,,,,,,,,left,0,302.7709986999398,None,302.7709986999398,None,302.7709986999398,303.773491299944,302.7709986999398,303.773491299944,302.7709986999398,303.773491299944,302.7709986999398,303.773491299944,302.7709986999398,303.2717750999145,302.7709986999398,303.2717750999145,302.7709986999398,303.2717750999145,302.7709986999398,303.2717750999145,302.7709986999398,None,0.8370021999580786,,,,,11024,002,2024_Jan_07_1556,nback,2021.2.3,60.18867946566937,
1-back,instructions\back-1.png,conditions\10back-e.xlsx,,,,,,,,,,,,,,,,,,,,,,,0,2,2,1,,,,,,,,,,,,,,,,,,,,,,,,,,,,,,,,,,,,,,,,,,,,,,,,,,,,,,,,,,,,,,,,,,,,,,,,,,,,,,,,,,,,,304.2732046999736,None,,,11024,002,2024_Jan_07_1556,nback,2021.2.3,60.18867946566937,
1-back,instructions\back-1.png,conditions\13back-e.xlsx,,,experiment,1,1,stim\yellow.png,stim\gray.png,stim\gray.png,stim\gray.png,None,,,,,,,,,,,,,0,3,3,10,0,0,0,0,,,,,,,,,,,,,,,305.4586270999862,309.9658491999144,309.9317432999378,None,,,,,,,,,,,,,,,,,,,,,,,,,,,,,,,,,,,,,,None,1,310.29997149994597,None,310.29997149994597,None,310.29997149994597,311.3006301999558,310.29997149994597,311.3006301999558,310.29997149994597,311.3006301999558,310.29997149994597,311.3006301999558,310.29997149994597,310.79964499990456,310.29997149994597,310.79964499990456,310.29997149994597,310.79964499990456,310.29997149994597,310.79964499990456,310.29997149994597,None,,,,,,11024,002,2024_Jan_07_1556,nback,2021.2.3,60.18867946566937,
1-back,instructions\back-1.png,conditions\13back-e.xlsx,,,experiment,1,2,stim\gray.png,stim\yellow.png,stim\gray.png,stim\gray.png,up,,,,,,,,,,,,,0,3,3,10,0,1,1,1,,,,,,,,,,,,,,,,,,,,,,,,,,,,,,,,,,,,,,,,,,,,,,,,,,,,,,,,up,1,311.78438179998193,None,311.78438179998193,None,311.78438179998193,312.7860123999417,311.78438179998193,312.7860123999417,311.78438179998193,312.7860123999417,311.78438179998193,312.7860123999417,311.78438179998193,312.28604689997155,311.78438179998193,312.28604689997155,311.78438179998193,312.28604689997155,311.78438179998193,312.28604689997155,311.78438179998193,None,0.6795244000386447,,,,,11024,002,2024_Jan_07_1556,nback,2021.2.3,60.18867946566937,
1-back,instructions\back-1.png,conditions\13back-e.xlsx,,,experiment,1,4,stim\gray.png,stim\gray.png,stim\gray.png,stim\yellow.png,left,,,,,,,,,,,,,0,3,3,10,0,2,2,2,,,,,,,,,,,,,,,,,,,,,,,,,,,,,,,,,,,,,,,,,,,,,,,,,,,,,,,,left,1,313.2697663999861,None,313.2697663999861,None,313.2697663999861,314.2713000999065,313.2697663999861,314.2713000999065,313.2697663999861,314.2713000999065,313.2697663999861,314.2713000999065,313.2697663999861,313.7709389999509,313.2697663999861,313.7709389999509,313.2697663999861,313.7709389999509,313.2697663999861,313.7709389999509,313.2697663999861,None,0.5938978000776842,,,,,11024,002,2024_Jan_07_1556,nback,2021.2.3,60.18867946566937,
1-back,instructions\back-1.png,conditions\13back-e.xlsx,,,experiment,1,3,stim\gray.png,stim\gray.png,stim\yellow.png,stim\gray.png,down,,,,,,,,,,,,,0,3,3,10,0,3,3,3,,,,,,,,,,,,,,,,,,,,,,,,,,,,,,,,,,,,,,,,,,,,,,,,,,,,,,,,down,1,314.7720450999914,None,314.7720450999914,None,314.7720450999914,315.7736438999418,314.7720450999914,315.7736438999418,314.7720450999914,315.7736438999418,314.7720450999914,315.7736438999418,314.7720450999914,315.272849699948,314.7720450999914,315.272849699948,314.7720450999914,315.272849699948,314.7720450999914,315.272849699948,314.7720450999914,None,0.6526737000094727,,,,,11024,002,2024_Jan_07_1556,nback,2021.2.3,60.18867946566937,
1-back,instructions\back-1.png,conditions\13back-e.xlsx,,,experiment,1,1,stim\yellow.png,stim\gray.png,stim\gray.png,stim\gray.png,right,,,,,,,,,,,,,0,3,3,10,0,4,4,4,,,,,,,,,,,,,,,,,,,,,,,,,,,,,,,,,,,,,,,,,,,,,,,,,,,,,,,,right,1,316.27441919990815,None,316.27441919990815,None,316.27441919990815,317.2765212999657,316.27441919990815,317.2765212999657,316.27441919990815,317.2765212999657,316.27441919990815,317.2765212999657,316.27441919990815,316.77548539999407,316.27441919990815,316.77548539999407,316.27441919990815,316.77548539999407,316.27441919990815,316.77548539999407,316.27441919990815,None,0.6452608000254259,,,,,11024,002,2024_Jan_07_1556,nback,2021.2.3,60.18867946566937,
1-back,instructions\back-1.png,conditions\13back-e.xlsx,,,experiment,1,3,stim\gray.png,stim\gray.png,stim\yellow.png,stim\gray.png,up,,,,,,,,,,,,,0,3,3,10,0,5,5,5,,,,,,,,,,,,,,,,,,,,,,,,,,,,,,,,,,,,,,,,,,,,,,,,,,,,,,,,up,1,317.77656979998574,None,317.77656979998574,None,317.77656979998574,318.7778639999451,317.77656979998574,318.7778639999451,317.77656979998574,318.7778639999451,317.77656979998574,318.7778639999451,317.77656979998574,318.27772599994205,317.77656979998574,318.27772599994205,317.77656979998574,318.27772599994205,317.77656979998574,318.27772599994205,317.77656979998574,None,0.8313354999991134,,,,,11024,002,2024_Jan_07_1556,nback,2021.2.3,60.18867946566937,
1-back,instructions\back-1.png,conditions\13back-e.xlsx,,,experiment,1,2,stim\gray.png,stim\yellow.png,stim\gray.png,stim\gray.png,right,,,,,,,,,,,,,0,3,3,10,0,6,6,6,,,,,,,,,,,,,,,,,,,,,,,,,,,,,,,,,,,,,,,,,,,,,,,,,,,,,,,,up,0,319.27886289998423,None,319.27886289998423,None,319.27886289998423,320.28141259995755,319.27886289998423,320.28141259995755,319.27886289998423,320.28141259995755,319.27886289998423,320.28141259995755,319.27886289998423,319.78021729993634,319.27886289998423,319.78021729993634,319.27886289998423,319.78021729993634,319.27886289998423,319.78021729993634,319.27886289998423,None,1.1768755000084639,,,,,11024,002,2024_Jan_07_1556,nback,2021.2.3,60.18867946566937,
1-back,instructions\back-1.png,conditions\13back-e.xlsx,,,experiment,1,4,stim\gray.png,stim\gray.png,stim\gray.png,stim\yellow.png,left,,,,,,,,,,,,,0,3,3,10,0,7,7,7,,,,,,,,,,,,,,,,,,,,,,,,,,,,,,,,,,,,,,,,,,,,,,,,,,,,,,,,left,1,320.7810458999593,None,320.7810458999593,None,320.7810458999593,321.78318069991656,320.7810458999593,321.78318069991656,320.7810458999593,321.78318069991656,320.7810458999593,321.78318069991656,320.7810458999593,321.282263699919,320.7810458999593,321.282263699919,320.7810458999593,321.282263699919,320.7810458999593,321.282263699919,320.7810458999593,None,0.8353627000469714,,,,,11024,002,2024_Jan_07_1556,nback,2021.2.3,60.18867946566937,
1-back,instructions\back-1.png,conditions\13back-e.xlsx,,,experiment,1,1,stim\yellow.png,stim\gray.png,stim\gray.png,stim\gray.png,down,,,,,,,,,,,,,0,3,3,10,0,8,8,8,,,,,,,,,,,,,,,,,,,,,,,,,,,,,,,,,,,,,,,,,,,,,,,,,,,,,,,,right,0,322.2834244999103,None,322.2834244999103,None,322.2834244999103,323.2846967999358,322.2834244999103,323.2846967999358,322.2834244999103,323.2846967999358,322.2834244999103,323.2846967999358,322.2834244999103,322.78465990000404,322.2834244999103,322.78465990000404,322.2834244999103,322.78465990000404,322.2834244999103,322.78465990000404,322.2834244999103,None,1.2843894999241456,,,,,11024,002,2024_Jan_07_1556,nback,2021.2.3,60.18867946566937,
1-back,instructions\back-1.png,conditions\13back-e.xlsx,,,experiment,1,2,stim\gray.png,stim\yellow.png,stim\gray.png,stim\gray.png,up,,,,,,,,,,,,,0,3,3,10,0,9,9,9,,,,,,,,,,,,,,,,,,,,,,,,,,,,,,,,,,,,,,,,,,,,,,,,,,,,,,,,up,1,323.7856080000056,None,323.7856080000056,None,323.7856080000056,324.7869978999952,323.7856080000056,324.7869978999952,323.7856080000056,324.7869978999952,323.7856080000056,324.7869978999952,323.7856080000056,324.2862122999504,323.7856080000056,324.2862122999504,323.7856080000056,324.2862122999504,323.7856080000056,324.2862122999504,323.7856080000056,None,0.9983897999627516,,,,,11024,002,2024_Jan_07_1556,nback,2021.2.3,60.18867946566937,
1-back,instructions\back-1.png,conditions\13back-e.xlsx,,,experiment,1,4,stim\gray.png,stim\gray.png,stim\gray.png,stim\yellow.png,left,,,,,,,,,,,,,0,3,3,10,0,10,10,10,,,,,,,,,,,,,,,,,,,,,,,,,,,,,,,,,,,,,,,,,,,,,,,,,,,,,,,,left,1,325.271595899947,None,325.271595899947,None,325.271595899947,326.2725422999356,325.271595899947,326.2725422999356,325.271595899947,326.2725422999356,325.271595899947,326.2725422999356,325.271595899947,325.7727492999984,325.271595899947,325.7727492999984,325.271595899947,325.7727492999984,325.271595899947,325.7727492999984,325.271595899947,None,0.688548699952662,,,,,11024,002,2024_Jan_07_1556,nback,2021.2.3,60.18867946566937,
1-back,instructions\back-1.png,conditions\13back-e.xlsx,,,experiment,1,3,stim\gray.png,stim\gray.png,stim\yellow.png,stim\gray.png,down,,,,,,,,,,,,,0,3,3,10,0,11,11,11,,,,,,,,,,,,,,,,,,,,,,,,,,,,,,,,,,,,,,,,,,,,,,,,,,,,,,,,down,1,326.7736506999936,None,326.7736506999936,None,326.7736506999936,327.77585689991247,326.7736506999936,327.77585689991247,326.7736506999936,327.77585689991247,326.7736506999936,327.77585689991247,326.7736506999936,327.2742554999422,326.7736506999936,327.2742554999422,326.7736506999936,327.2742554999422,326.7736506999936,327.2742554999422,326.7736506999936,None,0.7063733000541106,,,,,11024,002,2024_Jan_07_1556,nback,2021.2.3,60.18867946566937,
1-back,instructions\back-1.png,conditions\13back-e.xlsx,,,experiment,1,2,stim\gray.png,stim\yellow.png,stim\gray.png,stim\gray.png,right,,,,,,,,,,,,,0,3,3,10,0,12,12,12,,,,,,,,,,,,,,,,,,,,,,,,,,,,,,,,,,,,,,,,,,,,,,,,,,,,,,,,up,0,328.2755245999433,None,328.2755245999433,None,328.2755245999433,329.2784406999126,328.2755245999433,329.2784406999126,328.2755245999433,329.2784406999126,328.2755245999433,329.2784406999126,328.2755245999433,328.7771415999159,328.2755245999433,328.7771415999159,328.2755245999433,328.7771415999159,328.2755245999433,328.7771415999159,328.2755245999433,None,0.7326669000321999,,,,,11024,002,2024_Jan_07_1556,nback,2021.2.3,60.18867946566937,
1-back,instructions\back-1.png,conditions\13back-e.xlsx,,,experiment,1,4,stim\gray.png,stim\gray.png,stim\gray.png,stim\yellow.png,left,,,,,,,,,,,,,0,3,3,10,0,13,13,13,,,,,,,,,,,,,,,,,,,,,,,,,,,,,,,,,,,,,,,,,,,,,,,,,,,,,,,,left,1,329.77755779994186,None,329.77755779994186,None,329.77755779994186,330.77963719994295,329.77755779994186,330.77963719994295,329.77755779994186,330.77963719994295,329.77755779994186,330.77963719994295,329.77755779994186,330.2790789999999,329.77755779994186,330.2790789999999,329.77755779994186,330.2790789999999,329.77755779994186,330.2790789999999,329.77755779994186,None,0.6782366998959333,,,,,11024,002,2024_Jan_07_1556,nback,2021.2.3,60.18867946566937,
1-back,instructions\back-1.png,conditions\13back-e.xlsx,,,experiment,1,1,stim\yellow.png,stim\gray.png,stim\gray.png,stim\gray.png,down,,,,,,,,,,,,,0,3,3,10,0,14,14,14,,,,,,,,,,,,,,,,,,,,,,,,,,,,,,,,,,,,,,,,,,,,,,,,,,,,,,,,right,0,331.2809552999679,None,331.2809552999679,None,331.2809552999679,332.28154379990883,331.2809552999679,332.28154379990883,331.2809552999679,332.28154379990883,331.2809552999679,332.28154379990883,331.2809552999679,331.78142809995916,331.2809552999679,331.78142809995916,331.2809552999679,331.78142809995916,331.2809552999679,331.78142809995916,331.2809552999679,None,0.9427438999991864,,,,,11024,002,2024_Jan_07_1556,nback,2021.2.3,60.18867946566937,
1-back,instructions\back-1.png,conditions\13back-e.xlsx,,,experiment,1,4,stim\gray.png,stim\gray.png,stim\gray.png,stim\yellow.png,up,,,,,,,,,,,,,0,3,3,10,0,15,15,15,,,,,,,,,,,,,,,,,,,,,,,,,,,,,,,,,,,,,,,,,,,,,,,,,,,,,,,,left,0,332.78207600000314,None,332.78207600000314,None,332.78207600000314,333.78346939990297,332.78207600000314,333.78346939990297,332.78207600000314,333.78346939990297,332.78207600000314,333.78346939990297,332.78207600000314,333.2828865000047,332.78207600000314,333.2828865000047,332.78207600000314,333.2828865000047,332.78207600000314,333.2828865000047,332.78207600000314,None,0.7776607000268996,,,,,11024,002,2024_Jan_07_1556,nback,2021.2.3,60.18867946566937,
1-back,instructions\back-1.png,conditions\13back-e.xlsx,,,experiment,1,1,stim\yellow.png,stim\gray.png,stim\gray.png,stim\gray.png,down,,,,,,,,,,,,,0,3,3,10,0,16,16,16,,,,,,,,,,,,,,,,,,,,,,,,,,,,,,,,,,,,,,,,,,,,,,,,,,,,,,,,right,0,334.2851054999046,None,334.2851054999046,None,334.2851054999046,335.28635710000526,334.2851054999046,335.28635710000526,334.2851054999046,335.28635710000526,334.2851054999046,335.28635710000526,334.2851054999046,334.786214999971,334.2851054999046,334.786214999971,334.2851054999046,334.786214999971,334.2851054999046,334.786214999971,334.2851054999046,None,0.7707090000621974,,,,,11024,002,2024_Jan_07_1556,nback,2021.2.3,60.18867946566937,
1-back,instructions\back-1.png,conditions\13back-e.xlsx,,,experiment,1,3,stim\gray.png,stim\gray.png,stim\yellow.png,stim\gray.png,up,,,,,,,,,,,,,0,3,3,10,0,17,17,17,,,,,,,,,,,,,,,,,,,,,,,,,,,,,,,,,,,,,,,,,,,,,,,,,,,,,,,,up,1,335.7699438999407,None,335.7699438999407,None,335.7699438999407,336.77129349997267,335.7699438999407,336.77129349997267,335.7699438999407,336.77129349997267,335.7699438999407,336.77129349997267,335.7699438999407,336.2710884999251,335.7699438999407,336.2710884999251,335.7699438999407,336.2710884999251,335.7699438999407,336.2710884999251,335.7699438999407,None,0.7182075999444351,,,,,11024,002,2024_Jan_07_1556,nback,2021.2.3,60.18867946566937,
