backseq,backinstr,backfile,instruction,size_in,Trialtype,back,number,P1,P2,P3,P4,corrAns,trials_practice.thisRepN,trials_practice.thisTrialN,trials_practice.thisN,trials_practice.thisIndex,trials.thisRepN,trials.thisTrialN,trials.thisN,trials.thisIndex,trials_3.thisRepN,trials_3.thisTrialN,trials_3.thisN,trials_3.thisIndex,trials_2.thisRepN,trials_2.thisTrialN,trials_2.thisN,trials_2.thisIndex,trials_4.thisRepN,trials_4.thisTrialN,trials_4.thisN,trials_4.thisIndex,image.started,image.stopped,image_2.started,image_2.stopped,key_resp.keys,key_resp.rt,key_resp.started,key_resp.stopped,image_3.started,image_3.stopped,key_resp_2.keys,key_resp_2.rt,key_resp_2.started,key_resp_2.stopped,image_4.started,image_4.stopped,text.started,text.stopped,H1.started,H1.stopped,H2.started,H2.stopped,H3.started,H3.stopped,H4.started,H4.stopped,key_resp_3.keys,key_resp_3.corr,key_resp_3.rt,key_resp_3.started,key_resp_3.stopped,text_4.started,text_4.stopped,F1.started,F1.stopped,F2.started,F2.stopped,F3.started,F3.stopped,F4.started,F4.stopped,image_7.started,image_7.stopped,text_5.started,text_5.stopped,key_resp_6.keys,key_resp_6.rt,key_resp_6.started,key_resp_6.stopped,image_5.started,image_5.stopped,key_resp_4.keys,key_resp_4.rt,key_resp_4.started,key_resp_4.stopped,key_resp_5.keys,key_resp_5.corr,key_resp_5.rt,key_resp_5.started,key_resp_5.stopped,text_3.started,text_3.stopped,H1_2.started,H1_2.stopped,H2_2.started,H2_2.stopped,H3_2.started,H3_2.stopped,H4_2.started,H4_2.stopped,F1_2.started,F1_2.stopped,F2_2.started,F2_2.stopped,F3_2.started,F3_2.stopped,F4_2.started,F4_2.stopped,image_8.started,image_8.stopped,text_2.started,text_2.stopped,image_6.started,image_6.stopped,participant,session,date,expName,psychopyVersion,frameRate,
,,,,,,,,,,,,,,,,,,,,,,,,,,,,,,,,,10.539862300036475,None,11.459434899967164,None,space,6.789051300147548,11.459434899967164,None,,,,,,,,,,,,,,,,,,,,,,,,,,,,,,,,,,,,,,,,,,,,,,,,,,,,,,,,,,,,,,,,,,,,,,,,,,,,,11028,001,2024_Jan_10_1437,nback,2021.2.3,60.04293067283072,
0-back,instructions\back-0.png,conditions\0back-p.xlsx,instructions\0-BACK.png,"(15, 8)",practice,0,1,stim\yellow.png,stim\gray.png,stim\gray.png,stim\gray.png,up,0,0,0,0,0,0,0,0,0,0,0,0,,,,,,,,,,,,,,,,,18.31955450004898,None,space,9.416601799894124,18.31955450004898,None,27.89892080007121,32.40685179992579,32.374081099871546,None,32.77512890007347,33.77567999996245,32.77512890007347,33.77567999996245,32.77512890007347,33.77567999996245,32.77512890007347,33.77567999996245,up,1,0.4815062000416219,32.77512890007347,None,32.77512890007347,None,32.77512890007347,33.27456509997137,32.77512890007347,33.27456509997137,32.77512890007347,33.27456509997137,32.77512890007347,33.27456509997137,32.77512890007347,None,,,,,,,,,,,,,,,,,,,,,,,,,,,,,,,,,,,,,,,,,,11028,001,2024_Jan_10_1437,nback,2021.2.3,60.04293067283072,
0-back,instructions\back-0.png,conditions\0back-p.xlsx,instructions\0-BACK.png,"(15, 8)",practice,0,2,stim\gray.png,stim\yellow.png,stim\gray.png,stim\gray.png,left,0,0,0,0,0,0,0,0,0,1,1,1,,,,,,,,,,,,,,,,,,,,,,,,,,,34.2591711001005,35.26072990009561,34.2591711001005,35.26072990009561,34.2591711001005,35.26072990009561,34.2591711001005,35.26072990009561,left,1,0.41325440001673996,34.2591711001005,None,34.2591711001005,None,34.2591711001005,34.759953799890354,34.2591711001005,34.759953799890354,34.2591711001005,34.759953799890354,34.2591711001005,34.759953799890354,34.2591711001005,None,,,,,,,,,,,,,,,,,,,,,,,,,,,,,,,,,,,,,,,,,,11028,001,2024_Jan_10_1437,nback,2021.2.3,60.04293067283072,
0-back,instructions\back-0.png,conditions\0back-p.xlsx,instructions\0-BACK.png,"(15, 8)",practice,0,3,stim\gray.png,stim\gray.png,stim\yellow.png,stim\gray.png,right,0,0,0,0,0,0,0,0,0,2,2,2,,,,,,,,,,,,,,,,,,,,,,,,,,,35.76174089987762,36.762793000089005,35.76174089987762,36.762793000089005,35.76174089987762,36.762793000089005,35.76174089987762,36.762793000089005,right,1,0.398245400050655,35.76174089987762,None,35.76174089987762,None,35.76174089987762,36.26306189992465,35.76174089987762,36.26306189992465,35.76174089987762,36.26306189992465,35.76174089987762,36.26306189992465,35.76174089987762,None,,,,,,,,,,,,,,,,,,,,,,,,,,,,,,,,,,,,,,,,,,11028,001,2024_Jan_10_1437,nback,2021.2.3,60.04293067283072,
0-back,instructions\back-0.png,conditions\0back-p.xlsx,instructions\0-BACK.png,"(15, 8)",practice,0,4,stim\gray.png,stim\gray.png,stim\gray.png,stim\yellow.png,down,0,0,0,0,0,0,0,0,0,3,3,3,,,,,,,,,,,,,,,,,,,,,,,,,,,37.263737299945205,38.265927700093016,37.263737299945205,38.265927700093016,37.263737299945205,38.265927700093016,37.263737299945205,38.265927700093016,down,1,0.36031560017727315,37.263737299945205,None,37.263737299945205,None,37.263737299945205,37.76500890008174,37.263737299945205,37.76500890008174,37.263737299945205,37.76500890008174,37.263737299945205,37.76500890008174,37.263737299945205,None,,,,,,,,,,,,,,,,,,,,,,,,,,,,,,,,,,,,,,,,,,11028,001,2024_Jan_10_1437,nback,2021.2.3,60.04293067283072,
0-back,instructions\back-0.png,conditions\0back-p.xlsx,instructions\0-BACK.png,"(15, 8)",practice,0,2,stim\gray.png,stim\yellow.png,stim\gray.png,stim\gray.png,left,0,0,0,0,0,0,0,0,0,4,4,4,,,,,,,,,,,,,,,,,,,,,,,,,,,38.76592119992711,39.76804469991475,38.76592119992711,39.76804469991475,38.76592119992711,39.76804469991475,38.76592119992711,39.76804469991475,left,1,0.3781608999706805,38.76592119992711,None,38.76592119992711,None,38.76592119992711,39.26651960005984,38.76592119992711,39.26651960005984,38.76592119992711,39.26651960005984,38.76592119992711,39.26651960005984,38.76592119992711,None,,,,,,,,,,,,,,,,,,,,,,,,,,,,,,,,,,,,,,,,,,11028,001,2024_Jan_10_1437,nback,2021.2.3,60.04293067283072,
0-back,instructions\back-0.png,conditions\0back-p.xlsx,instructions\0-BACK.png,"(15, 8)",practice,0,1,stim\yellow.png,stim\gray.png,stim\gray.png,stim\gray.png,up,0,0,0,0,0,0,0,0,0,5,5,5,,,,,,,,,,,,,,,,,,,,,,,,,,,40.26806570007466,41.269716900074854,40.26806570007466,41.269716900074854,40.26806570007466,41.269716900074854,40.26806570007466,41.269716900074854,up,1,0.34012850001454353,40.26806570007466,None,40.26806570007466,None,40.26806570007466,40.768925899872556,40.26806570007466,40.768925899872556,40.26806570007466,40.768925899872556,40.26806570007466,40.768925899872556,40.26806570007466,None,,,,,,,,,,,,,,,,,,,,,,,,,,,,,,,,,,,,,,,,,,11028,001,2024_Jan_10_1437,nback,2021.2.3,60.04293067283072,
0-back,instructions\back-0.png,conditions\0back-p.xlsx,instructions\0-BACK.png,"(15, 8)",practice,0,4,stim\gray.png,stim\gray.png,stim\gray.png,stim\yellow.png,down,0,0,0,0,0,0,0,0,0,6,6,6,,,,,,,,,,,,,,,,,,,,,,,,,,,41.77024869993329,42.772447699913755,41.77024869993329,42.772447699913755,41.77024869993329,42.772447699913755,41.77024869993329,42.772447699913755,down,1,0.7017545001581311,41.77024869993329,None,41.77024869993329,None,41.77024869993329,42.27129699988291,41.77024869993329,42.27129699988291,41.77024869993329,42.27129699988291,41.77024869993329,42.27129699988291,41.77024869993329,None,,,,,,,,,,,,,,,,,,,,,,,,,,,,,,,,,,,,,,,,,,11028,001,2024_Jan_10_1437,nback,2021.2.3,60.04293067283072,
0-back,instructions\back-0.png,conditions\0back-p.xlsx,instructions\0-BACK.png,"(15, 8)",practice,0,3,stim\gray.png,stim\gray.png,stim\yellow.png,stim\gray.png,right,0,0,0,0,0,0,0,0,0,7,7,7,,,,,,,,,,,,,,,,,,,,,,,,,,,43.27276439988054,44.27430470008403,43.27276439988054,44.27430470008403,43.27276439988054,44.27430470008403,43.27276439988054,44.27430470008403,right,1,0.6074610000941902,43.27276439988054,None,43.27276439988054,None,43.27276439988054,43.77430359995924,43.27276439988054,43.77430359995924,43.27276439988054,43.77430359995924,43.27276439988054,43.77430359995924,43.27276439988054,None,,,,,,,,,,,,,,,,,,,,,,,,,,,,,,,,,,,,,,,,,,11028,001,2024_Jan_10_1437,nback,2021.2.3,60.04293067283072,
0-back,instructions\back-0.png,conditions\0back-p.xlsx,instructions\0-BACK.png,"(15, 8)",practice,0,3,stim\gray.png,stim\gray.png,stim\yellow.png,stim\gray.png,right,0,0,0,0,0,0,0,0,0,8,8,8,,,,,,,,,,,,,,,,,,,,,,,,,,,44.75805689999834,45.75988940009847,44.75805689999834,45.75988940009847,44.75805689999834,45.75988940009847,44.75805689999834,45.75988940009847,right,1,0.37804189999587834,44.75805689999834,None,44.75805689999834,None,44.75805689999834,45.258817499969155,44.75805689999834,45.258817499969155,44.75805689999834,45.258817499969155,44.75805689999834,45.258817499969155,44.75805689999834,None,,,,,,,,,,,,,,,,,,,,,,,,,,,,,,,,,,,,,,,,,,11028,001,2024_Jan_10_1437,nback,2021.2.3,60.04293067283072,
0-back,instructions\back-0.png,conditions\0back-p.xlsx,instructions\0-BACK.png,"(15, 8)",practice,0,4,stim\gray.png,stim\gray.png,stim\gray.png,stim\yellow.png,down,0,0,0,0,0,0,0,0,0,9,9,9,,,,,,,,,,,,,,,,,,,,,,,,,,,46.26088390010409,47.261665999889374,46.26088390010409,47.261665999889374,46.26088390010409,47.261665999889374,46.26088390010409,47.261665999889374,down,1,0.4591496998909861,46.26088390010409,None,46.26088390010409,None,46.26088390010409,46.761092599947006,46.26088390010409,46.761092599947006,46.26088390010409,46.761092599947006,46.26088390010409,46.761092599947006,46.26088390010409,None,,,,,,,,,,,,,,,,,,,,,,,,,,,,,,,,,,,,,,,,,,11028,001,2024_Jan_10_1437,nback,2021.2.3,60.04293067283072,
0-back,instructions\back-0.png,conditions\0back-p.xlsx,instructions\0-BACK.png,"(15, 8)",practice,0,1,stim\yellow.png,stim\gray.png,stim\gray.png,stim\gray.png,up,0,0,0,0,0,0,0,0,0,10,10,10,,,,,,,,,,,,,,,,,,,,,,,,,,,47.76259610010311,48.76425320003182,47.76259610010311,48.76425320003182,47.76259610010311,48.76425320003182,47.76259610010311,48.76425320003182,up,1,0.43758409982547164,47.76259610010311,None,47.76259610010311,None,47.76259610010311,48.26333300000988,47.76259610010311,48.26333300000988,47.76259610010311,48.26333300000988,47.76259610010311,48.26333300000988,47.76259610010311,None,,,,,,,,,,,,,,,,,,,,,,,,,,,,,,,,,,,,,,,,,,11028,001,2024_Jan_10_1437,nback,2021.2.3,60.04293067283072,
0-back,instructions\back-0.png,conditions\0back-p.xlsx,instructions\0-BACK.png,"(15, 8)",practice,0,2,stim\gray.png,stim\yellow.png,stim\gray.png,stim\gray.png,left,0,0,0,0,0,0,0,0,0,11,11,11,,,,,,,,,,,,,,,,,,,,,,,,,,,49.264630999881774,50.26633240003139,49.264630999881774,50.26633240003139,49.264630999881774,50.26633240003139,49.264630999881774,50.26633240003139,left,1,0.31142659997567534,49.264630999881774,None,49.264630999881774,None,49.264630999881774,49.76559409988113,49.264630999881774,49.76559409988113,49.264630999881774,49.76559409988113,49.264630999881774,49.76559409988113,49.264630999881774,None,,,,,,,,,,,,,,,,,,,,,,,,,,,,,,,,,,,,,,,,,,11028,001,2024_Jan_10_1437,nback,2021.2.3,60.04293067283072,
0-back,instructions\back-0.png,conditions\0back-p.xlsx,instructions\0-BACK.png,"(15, 8)",practice,0,4,stim\gray.png,stim\gray.png,stim\gray.png,stim\yellow.png,down,0,0,0,0,0,0,0,0,0,12,12,12,,,,,,,,,,,,,,,,,,,,,,,,,,,50.767023799940944,51.769177000038326,50.767023799940944,51.769177000038326,50.767023799940944,51.769177000038326,50.767023799940944,51.769177000038326,down,1,0.5137803999241441,50.767023799940944,None,50.767023799940944,None,50.767023799940944,51.268116399878636,50.767023799940944,51.268116399878636,50.767023799940944,51.268116399878636,50.767023799940944,51.268116399878636,50.767023799940944,None,,,,,,,,,,,,,,,,,,,,,,,,,,,,,,,,,,,,,,,,,,11028,001,2024_Jan_10_1437,nback,2021.2.3,60.04293067283072,
0-back,instructions\back-0.png,conditions\0back-p.xlsx,instructions\0-BACK.png,"(15, 8)",practice,0,3,stim\gray.png,stim\gray.png,stim\yellow.png,stim\gray.png,right,0,0,0,0,0,0,0,0,0,13,13,13,,,,,,,,,,,,,,,,,,,,,,,,,,,52.26923849992454,53.27059719990939,52.26923849992454,53.27059719990939,52.26923849992454,53.27059719990939,52.26923849992454,53.27059719990939,right,1,0.37890079990029335,52.26923849992454,None,52.26923849992454,None,52.26923849992454,52.76991649996489,52.26923849992454,52.76991649996489,52.26923849992454,52.76991649996489,52.26923849992454,52.76991649996489,52.26923849992454,None,,,,,,,,,,,,,,,,,,,,,,,,,,,,,,,,,,,,,,,,,,11028,001,2024_Jan_10_1437,nback,2021.2.3,60.04293067283072,
0-back,instructions\back-0.png,conditions\0back-p.xlsx,instructions\0-BACK.png,"(15, 8)",practice,0,1,stim\yellow.png,stim\gray.png,stim\gray.png,stim\gray.png,up,0,0,0,0,0,0,0,0,0,14,14,14,,,,,,,,,,,,,,,,,,,,,,,,,,,53.771544500021264,54.77372459997423,53.771544500021264,54.77372459997423,53.771544500021264,54.77372459997423,53.771544500021264,54.77372459997423,up,1,0.2924834000878036,53.771544500021264,None,53.771544500021264,None,53.771544500021264,54.27218359988183,53.771544500021264,54.27218359988183,53.771544500021264,54.27218359988183,53.771544500021264,54.27218359988183,53.771544500021264,None,,,,,,,,,,,,,,,,,,,,,,,,,,,,,,,,,,,,,,,,,,11028,001,2024_Jan_10_1437,nback,2021.2.3,60.04293067283072,
0-back,instructions\back-0.png,conditions\0back-p.xlsx,instructions\0-BACK.png,"(15, 8)",practice,0,2,stim\gray.png,stim\yellow.png,stim\gray.png,stim\gray.png,left,0,0,0,0,0,0,0,0,0,15,15,15,,,,,,,,,,,,,,,,,,,,,,,,,,,55.25701140007004,56.25845040008426,55.25701140007004,56.25845040008426,55.25701140007004,56.25845040008426,55.25701140007004,56.25845040008426,left,1,0.41567009990103543,55.25701140007004,None,55.25701140007004,None,55.25701140007004,55.757787900045514,55.25701140007004,55.757787900045514,55.25701140007004,55.757787900045514,55.25701140007004,55.757787900045514,55.25701140007004,None,,,,,,,,,,,,,,,,,,,,,,,,,,,,,,,,,,,,,,,,,,11028,001,2024_Jan_10_1437,nback,2021.2.3,60.04293067283072,
0-back,instructions\back-0.png,conditions\0back-p.xlsx,instructions\0-BACK.png,"(15, 8)",practice,0,3,stim\gray.png,stim\gray.png,stim\yellow.png,stim\gray.png,right,0,0,0,0,0,0,0,0,0,16,16,16,,,,,,,,,,,,,,,,,,,,,,,,,,,56.75931519991718,57.760796200018376,56.75931519991718,57.760796200018376,56.75931519991718,57.760796200018376,56.75931519991718,57.760796200018376,right,1,0.3526276000775397,56.75931519991718,None,56.75931519991718,None,56.75931519991718,57.26054079993628,56.75931519991718,57.26054079993628,56.75931519991718,57.26054079993628,56.75931519991718,57.26054079993628,56.75931519991718,None,,,,,,,,,,,,,,,,,,,,,,,,,,,,,,,,,,,,,,,,,,11028,001,2024_Jan_10_1437,nback,2021.2.3,60.04293067283072,
0-back,instructions\back-0.png,conditions\0back-p.xlsx,instructions\0-BACK.png,"(15, 8)",practice,0,1,stim\yellow.png,stim\gray.png,stim\gray.png,stim\gray.png,up,0,0,0,0,0,0,0,0,0,17,17,17,,,,,,,,,,,,,,,,,,,,,,,,,,,58.26142619992606,59.26289979997091,58.26142619992606,59.26289979997091,58.26142619992606,59.26289979997091,58.26142619992606,59.26289979997091,up,1,0.3152447999455035,58.26142619992606,None,58.26142619992606,None,58.26142619992606,58.762278700014576,58.26142619992606,58.762278700014576,58.26142619992606,58.762278700014576,58.26142619992606,58.762278700014576,58.26142619992606,None,,,,,,,,,,,,,,,,,,,,,,,,,,,,,,,,,,,,,,,,,,11028,001,2024_Jan_10_1437,nback,2021.2.3,60.04293067283072,
0-back,instructions\back-0.png,conditions\0back-p.xlsx,instructions\0-BACK.png,"(15, 8)",practice,0,4,stim\gray.png,stim\gray.png,stim\gray.png,stim\yellow.png,down,0,0,0,0,0,0,0,0,0,18,18,18,,,,,,,,,,,,,,,,,,,,,,,,,,,59.76360350009054,60.76578940008767,59.76360350009054,60.76578940008767,59.76360350009054,60.76578940008767,59.76360350009054,60.76578940008767,down,1,0.30073289992287755,59.76360350009054,None,59.76360350009054,None,59.76360350009054,60.26462849997915,59.76360350009054,60.26462849997915,59.76360350009054,60.26462849997915,59.76360350009054,60.26462849997915,59.76360350009054,None,,,,,,,,,,,,,,,,,,,,,,,,,,,,,,,,,,,,,,,,,,11028,001,2024_Jan_10_1437,nback,2021.2.3,60.04293067283072,
0-back,instructions\back-0.png,conditions\0back-p.xlsx,instructions\0-BACK.png,"(15, 8)",practice,0,2,stim\gray.png,stim\yellow.png,stim\gray.png,stim\gray.png,left,0,0,0,0,0,0,0,0,0,19,19,19,,,,,,,,,,,,,,,,,,,,,,,,,,,61.2658871000167,62.267907300032675,61.2658871000167,62.267907300032675,61.2658871000167,62.267907300032675,61.2658871000167,62.267907300032675,left,1,0.3504876000806689,61.2658871000167,None,61.2658871000167,None,61.2658871000167,61.766886699944735,61.2658871000167,61.766886699944735,61.2658871000167,61.766886699944735,61.2658871000167,61.766886699944735,61.2658871000167,None,,,,,,,,,,,,,,,,,,,,,,,,,,,,,,,,,,,,,,,,,,11028,001,2024_Jan_10_1437,nback,2021.2.3,60.04293067283072,
0-back,instructions\back-0.png,conditions\0back-p.xlsx,instructions\0-BACK.png,"(15, 8)",,,,,,,,,0,0,0,0,0,0,0,0,,,,,,,,,,,,,,,,,,,,,,,,,,,,,,,,,,,,,,,,,,,,,,,,,,,,,,,,,,,,,,,,,,,,,,,,,,,,,,,,,,,,,,,,,,,,,,,,,11028,001,2024_Jan_10_1437,nback,2021.2.3,60.04293067283072,
1-back,instructions\back-1.png,conditions\1back-p.xlsx,instructions\1-BACK.png,"(25, 15)",practice,1,1,stim\yellow.png,stim\gray.png,stim\gray.png,stim\gray.png,None,0,0,0,0,0,1,1,1,0,0,0,0,,,,,,,,,,,,,,,,,62.91823960002512,None,space,8.12188129988499,62.91823960002512,None,71.19656349997967,75.70532099995762,75.6879515000619,None,76.08966850000434,77.089384800056,76.08966850000434,77.089384800056,76.08966850000434,77.089384800056,76.08966850000434,77.089384800056,None,1,,76.08966850000434,None,76.08966850000434,None,76.08966850000434,76.60529169999063,76.08966850000434,76.60529169999063,76.08966850000434,76.60529169999063,76.08966850000434,76.60529169999063,76.08966850000434,None,,,,,,,,,,,,,,,,,,,,,,,,,,,,,,,,,,,,,,,,,,11028,001,2024_Jan_10_1437,nback,2021.2.3,60.04293067283072,
1-back,instructions\back-1.png,conditions\1back-p.xlsx,instructions\1-BACK.png,"(25, 15)",practice,1,2,stim\gray.png,stim\yellow.png,stim\gray.png,stim\gray.png,up,0,0,0,0,0,1,1,1,0,1,1,1,,,,,,,,,,,,,,,,,,,,,,,,,,,77.57341900002211,78.57494219997898,77.57341900002211,78.57494219997898,77.57341900002211,78.57494219997898,77.57341900002211,78.57494219997898,up,1,0.4363669001031667,77.57341900002211,None,77.57341900002211,None,77.57341900002211,78.07404430001043,77.57341900002211,78.07404430001043,77.57341900002211,78.07404430001043,77.57341900002211,78.07404430001043,77.57341900002211,None,,,,,,,,,,,,,,,,,,,,,,,,,,,,,,,,,,,,,,,,,,11028,001,2024_Jan_10_1437,nback,2021.2.3,60.04293067283072,
1-back,instructions\back-1.png,conditions\1back-p.xlsx,instructions\1-BACK.png,"(25, 15)",practice,1,3,stim\gray.png,stim\gray.png,stim\yellow.png,stim\gray.png,left,0,0,0,0,0,1,1,1,0,2,2,2,,,,,,,,,,,,,,,,,,,,,,,,,,,79.07560790004209,80.07697660010308,79.07560790004209,80.07697660010308,79.07560790004209,80.07697660010308,79.07560790004209,80.07697660010308,left,1,0.5164244000334293,79.07560790004209,None,79.07560790004209,None,79.07560790004209,79.57627570000477,79.07560790004209,79.57627570000477,79.07560790004209,79.57627570000477,79.07560790004209,79.57627570000477,79.07560790004209,None,,,,,,,,,,,,,,,,,,,,,,,,,,,,,,,,,,,,,,,,,,11028,001,2024_Jan_10_1437,nback,2021.2.3,60.04293067283072,
1-back,instructions\back-1.png,conditions\1back-p.xlsx,instructions\1-BACK.png,"(25, 15)",practice,1,4,stim\gray.png,stim\gray.png,stim\gray.png,stim\yellow.png,right,0,0,0,0,0,1,1,1,0,3,3,3,,,,,,,,,,,,,,,,,,,,,,,,,,,80.57795699988492,81.57923740008846,80.57795699988492,81.57923740008846,80.57795699988492,81.57923740008846,80.57795699988492,81.57923740008846,right,1,0.4143135000485927,80.57795699988492,None,80.57795699988492,None,80.57795699988492,81.07876079995185,80.57795699988492,81.07876079995185,80.57795699988492,81.07876079995185,80.57795699988492,81.07876079995185,80.57795699988492,None,,,,,,,,,,,,,,,,,,,,,,,,,,,,,,,,,,,,,,,,,,11028,001,2024_Jan_10_1437,nback,2021.2.3,60.04293067283072,
1-back,instructions\back-1.png,conditions\1back-p.xlsx,instructions\1-BACK.png,"(25, 15)",practice,1,2,stim\gray.png,stim\yellow.png,stim\gray.png,stim\gray.png,down,0,0,0,0,0,1,1,1,0,4,4,4,,,,,,,,,,,,,,,,,,,,,,,,,,,82.07995010004379,83.08156650001183,82.07995010004379,83.08156650001183,82.07995010004379,83.08156650001183,82.07995010004379,83.08156650001183,down,1,0.44843919994309545,82.07995010004379,None,82.07995010004379,None,82.07995010004379,82.58119180006906,82.07995010004379,82.58119180006906,82.07995010004379,82.58119180006906,82.07995010004379,82.58119180006906,82.07995010004379,None,,,,,,,,,,,,,,,,,,,,,,,,,,,,,,,,,,,,,,,,,,11028,001,2024_Jan_10_1437,nback,2021.2.3,60.04293067283072,
1-back,instructions\back-1.png,conditions\1back-p.xlsx,instructions\1-BACK.png,"(25, 15)",practice,1,1,stim\yellow.png,stim\gray.png,stim\gray.png,stim\gray.png,left,0,0,0,0,0,1,1,1,0,5,5,5,,,,,,,,,,,,,,,,,,,,,,,,,,,83.58318220009096,84.58415680006146,83.58318220009096,84.58415680006146,83.58318220009096,84.58415680006146,83.58318220009096,84.58415680006146,left,1,0.38494139979593456,83.58318220009096,None,83.58318220009096,None,83.58318220009096,84.08340499992482,83.58318220009096,84.08340499992482,83.58318220009096,84.08340499992482,83.58318220009096,84.08340499992482,83.58318220009096,None,,,,,,,,,,,,,,,,,,,,,,,,,,,,,,,,,,,,,,,,,,11028,001,2024_Jan_10_1437,nback,2021.2.3,60.04293067283072,
1-back,instructions\back-1.png,conditions\1back-p.xlsx,instructions\1-BACK.png,"(25, 15)",practice,1,4,stim\gray.png,stim\gray.png,stim\gray.png,stim\yellow.png,up,0,0,0,0,0,1,1,1,0,6,6,6,,,,,,,,,,,,,,,,,,,,,,,,,,,85.08446140005253,86.0867631000001,85.08446140005253,86.0867631000001,85.08446140005253,86.0867631000001,85.08446140005253,86.0867631000001,up,1,0.32385669997893274,85.08446140005253,None,85.08446140005253,None,85.08446140005253,85.58521610009484,85.08446140005253,85.58521610009484,85.08446140005253,85.58521610009484,85.08446140005253,85.58521610009484,85.08446140005253,None,,,,,,,,,,,,,,,,,,,,,,,,,,,,,,,,,,,,,,,,,,11028,001,2024_Jan_10_1437,nback,2021.2.3,60.04293067283072,
1-back,instructions\back-1.png,conditions\1back-p.xlsx,instructions\1-BACK.png,"(25, 15)",practice,1,3,stim\gray.png,stim\gray.png,stim\yellow.png,stim\gray.png,down,0,0,0,0,0,1,1,1,0,7,7,7,,,,,,,,,,,,,,,,,,,,,,,,,,,86.57037120009772,87.57169330003671,86.57037120009772,87.57169330003671,86.57037120009772,87.57169330003671,86.57037120009772,87.57169330003671,down,1,0.2935656998306513,86.57037120009772,None,86.57037120009772,None,86.57037120009772,87.07065730006434,86.57037120009772,87.07065730006434,86.57037120009772,87.07065730006434,86.57037120009772,87.07065730006434,86.57037120009772,None,,,,,,,,,,,,,,,,,,,,,,,,,,,,,,,,,,,,,,,,,,11028,001,2024_Jan_10_1437,nback,2021.2.3,60.04293067283072,
1-back,instructions\back-1.png,conditions\1back-p.xlsx,instructions\1-BACK.png,"(25, 15)",practice,1,3,stim\gray.png,stim\gray.png,stim\yellow.png,stim\gray.png,right,0,0,0,0,0,1,1,1,0,8,8,8,,,,,,,,,,,,,,,,,,,,,,,,,,,88.07224039989524,89.07378989993595,88.07224039989524,89.07378989993595,88.07224039989524,89.07378989993595,88.07224039989524,89.07378989993595,right,1,0.3517403001897037,88.07224039989524,None,88.07224039989524,None,88.07224039989524,88.57299489993602,88.07224039989524,88.57299489993602,88.07224039989524,88.57299489993602,88.07224039989524,88.57299489993602,88.07224039989524,None,,,,,,,,,,,,,,,,,,,,,,,,,,,,,,,,,,,,,,,,,,11028,001,2024_Jan_10_1437,nback,2021.2.3,60.04293067283072,
1-back,instructions\back-1.png,conditions\1back-p.xlsx,instructions\1-BACK.png,"(25, 15)",practice,1,4,stim\gray.png,stim\gray.png,stim\gray.png,stim\yellow.png,right,0,0,0,0,0,1,1,1,0,9,9,9,,,,,,,,,,,,,,,,,,,,,,,,,,,89.57533879997209,90.5759151999373,89.57533879997209,90.5759151999373,89.57533879997209,90.5759151999373,89.57533879997209,90.5759151999373,right,1,0.40871890005655587,89.57533879997209,None,89.57533879997209,None,89.57533879997209,90.07616110006347,89.57533879997209,90.07616110006347,89.57533879997209,90.07616110006347,89.57533879997209,90.07616110006347,89.57533879997209,None,,,,,,,,,,,,,,,,,,,,,,,,,,,,,,,,,,,,,,,,,,11028,001,2024_Jan_10_1437,nback,2021.2.3,60.04293067283072,
1-back,instructions\back-1.png,conditions\1back-p.xlsx,instructions\1-BACK.png,"(25, 15)",practice,1,1,stim\yellow.png,stim\gray.png,stim\gray.png,stim\gray.png,down,0,0,0,0,0,1,1,1,0,10,10,10,,,,,,,,,,,,,,,,,,,,,,,,,,,91.07656070007943,92.0788141998928,91.07656070007943,92.0788141998928,91.07656070007943,92.0788141998928,91.07656070007943,92.0788141998928,down,1,0.371602299856022,91.07656070007943,None,91.07656070007943,None,91.07656070007943,91.57762350002304,91.07656070007943,91.57762350002304,91.07656070007943,91.57762350002304,91.07656070007943,91.57762350002304,91.07656070007943,None,,,,,,,,,,,,,,,,,,,,,,,,,,,,,,,,,,,,,,,,,,11028,001,2024_Jan_10_1437,nback,2021.2.3,60.04293067283072,
1-back,instructions\back-1.png,conditions\1back-p.xlsx,instructions\1-BACK.png,"(25, 15)",practice,1,2,stim\gray.png,stim\yellow.png,stim\gray.png,stim\gray.png,up,0,0,0,0,0,1,1,1,0,11,11,11,,,,,,,,,,,,,,,,,,,,,,,,,,,92.57920740009286,93.58083879994228,92.57920740009286,93.58083879994228,92.57920740009286,93.58083879994228,92.57920740009286,93.58083879994228,up,1,0.3649377999827266,92.57920740009286,None,92.57920740009286,None,92.57920740009286,93.07968399999663,92.57920740009286,93.07968399999663,92.57920740009286,93.07968399999663,92.57920740009286,93.07968399999663,92.57920740009286,None,,,,,,,,,,,,,,,,,,,,,,,,,,,,,,,,,,,,,,,,,,11028,001,2024_Jan_10_1437,nback,2021.2.3,60.04293067283072,
1-back,instructions\back-1.png,conditions\1back-p.xlsx,instructions\1-BACK.png,"(25, 15)",practice,1,4,stim\gray.png,stim\gray.png,stim\gray.png,stim\yellow.png,left,0,0,0,0,0,1,1,1,0,12,12,12,,,,,,,,,,,,,,,,,,,,,,,,,,,94.08113409997895,95.08254259987734,94.08113409997895,95.08254259987734,94.08113409997895,95.08254259987734,94.08113409997895,95.08254259987734,left,1,0.375319299986586,94.08113409997895,None,94.08113409997895,None,94.08113409997895,94.58253820007667,94.08113409997895,94.58253820007667,94.08113409997895,94.58253820007667,94.08113409997895,94.58253820007667,94.08113409997895,None,,,,,,,,,,,,,,,,,,,,,,,,,,,,,,,,,,,,,,,,,,11028,001,2024_Jan_10_1437,nback,2021.2.3,60.04293067283072,
1-back,instructions\back-1.png,conditions\1back-p.xlsx,instructions\1-BACK.png,"(25, 15)",practice,1,3,stim\gray.png,stim\gray.png,stim\yellow.png,stim\gray.png,down,0,0,0,0,0,1,1,1,0,13,13,13,,,,,,,,,,,,,,,,,,,,,,,,,,,95.58381109987386,96.58469010004774,95.58381109987386,96.58469010004774,95.58381109987386,96.58469010004774,95.58381109987386,96.58469010004774,down,1,0.296197900082916,95.58381109987386,None,95.58381109987386,None,95.58381109987386,96.0841298000887,95.58381109987386,96.0841298000887,95.58381109987386,96.0841298000887,95.58381109987386,96.0841298000887,95.58381109987386,None,,,,,,,,,,,,,,,,,,,,,,,,,,,,,,,,,,,,,,,,,,11028,001,2024_Jan_10_1437,nback,2021.2.3,60.04293067283072,
1-back,instructions\back-1.png,conditions\1back-p.xlsx,instructions\1-BACK.png,"(25, 15)",practice,1,1,stim\yellow.png,stim\gray.png,stim\gray.png,stim\gray.png,right,0,0,0,0,0,1,1,1,0,14,14,14,,,,,,,,,,,,,,,,,,,,,,,,,,,97.06897910009138,98.07068290002644,97.06897910009138,98.07068290002644,97.06897910009138,98.07068290002644,97.06897910009138,98.07068290002644,right,1,0.25099100009538233,97.06897910009138,None,97.06897910009138,None,97.06897910009138,97.5700997998938,97.06897910009138,97.5700997998938,97.06897910009138,97.5700997998938,97.06897910009138,97.5700997998938,97.06897910009138,None,,,,,,,,,,,,,,,,,,,,,,,,,,,,,,,,,,,,,,,,,,11028,001,2024_Jan_10_1437,nback,2021.2.3,60.04293067283072,
1-back,instructions\back-1.png,conditions\1back-p.xlsx,instructions\1-BACK.png,"(25, 15)",practice,1,2,stim\gray.png,stim\yellow.png,stim\gray.png,stim\gray.png,up,0,0,0,0,0,1,1,1,0,15,15,15,,,,,,,,,,,,,,,,,,,,,,,,,,,98.57122229994275,99.57257959991693,98.57122229994275,99.57257959991693,98.57122229994275,99.57257959991693,98.57122229994275,99.57257959991693,up,1,0.26171220000833273,98.57122229994275,None,98.57122229994275,None,98.57122229994275,99.07240579999052,98.57122229994275,99.07240579999052,98.57122229994275,99.07240579999052,98.57122229994275,99.07240579999052,98.57122229994275,None,,,,,,,,,,,,,,,,,,,,,,,,,,,,,,,,,,,,,,,,,,11028,001,2024_Jan_10_1437,nback,2021.2.3,60.04293067283072,
1-back,instructions\back-1.png,conditions\1back-p.xlsx,instructions\1-BACK.png,"(25, 15)",practice,1,3,stim\gray.png,stim\gray.png,stim\yellow.png,stim\gray.png,left,0,0,0,0,0,1,1,1,0,16,16,16,,,,,,,,,,,,,,,,,,,,,,,,,,,100.07317320001312,101.07532520010136,100.07317320001312,101.07532520010136,100.07317320001312,101.07532520010136,100.07317320001312,101.07532520010136,left,1,0.3671472000423819,100.07317320001312,None,100.07317320001312,None,100.07317320001312,100.5748638000805,100.07317320001312,100.5748638000805,100.07317320001312,100.5748638000805,100.07317320001312,100.5748638000805,100.07317320001312,None,,,,,,,,,,,,,,,,,,,,,,,,,,,,,,,,,,,,,,,,,,11028,001,2024_Jan_10_1437,nback,2021.2.3,60.04293067283072,
1-back,instructions\back-1.png,conditions\1back-p.xlsx,instructions\1-BACK.png,"(25, 15)",practice,1,1,stim\yellow.png,stim\gray.png,stim\gray.png,stim\gray.png,right,0,0,0,0,0,1,1,1,0,17,17,17,,,,,,,,,,,,,,,,,,,,,,,,,,,101.57559720007703,102.57916290010326,101.57559720007703,102.57916290010326,101.57559720007703,102.57916290010326,101.57559720007703,102.57916290010326,right,1,0.4246875001117587,101.57559720007703,None,101.57559720007703,None,101.57559720007703,102.07617449993268,101.57559720007703,102.07617449993268,101.57559720007703,102.07617449993268,101.57559720007703,102.07617449993268,101.57559720007703,None,,,,,,,,,,,,,,,,,,,,,,,,,,,,,,,,,,,,,,,,,,11028,001,2024_Jan_10_1437,nback,2021.2.3,60.04293067283072,
1-back,instructions\back-1.png,conditions\1back-p.xlsx,instructions\1-BACK.png,"(25, 15)",practice,1,4,stim\gray.png,stim\gray.png,stim\gray.png,stim\yellow.png,up,0,0,0,0,0,1,1,1,0,18,18,18,,,,,,,,,,,,,,,,,,,,,,,,,,,103.07804849999957,104.07966409996152,103.07804849999957,104.07966409996152,103.07804849999957,104.07966409996152,103.07804849999957,104.07966409996152,up,1,0.3700178998988122,103.07804849999957,None,103.07804849999957,None,103.07804849999957,103.57857810007408,103.07804849999957,103.57857810007408,103.07804849999957,103.57857810007408,103.07804849999957,103.57857810007408,103.07804849999957,None,,,,,,,,,,,,,,,,,,,,,,,,,,,,,,,,,,,,,,,,,,11028,001,2024_Jan_10_1437,nback,2021.2.3,60.04293067283072,
1-back,instructions\back-1.png,conditions\1back-p.xlsx,instructions\1-BACK.png,"(25, 15)",practice,1,2,stim\gray.png,stim\yellow.png,stim\gray.png,stim\gray.png,down,0,0,0,0,0,1,1,1,0,19,19,19,,,,,,,,,,,,,,,,,,,,,,,,,,,104.58004490006715,105.58210709993728,104.58004490006715,105.58210709993728,104.58004490006715,105.58210709993728,104.58004490006715,105.58210709993728,down,1,0.3561982000246644,104.58004490006715,None,104.58004490006715,None,104.58004490006715,105.08085749996826,104.58004490006715,105.08085749996826,104.58004490006715,105.08085749996826,104.58004490006715,105.08085749996826,104.58004490006715,None,,,,,,,,,,,,,,,,,,,,,,,,,,,,,,,,,,,,,,,,,,11028,001,2024_Jan_10_1437,nback,2021.2.3,60.04293067283072,
1-back,instructions\back-1.png,conditions\1back-p.xlsx,instructions\1-BACK.png,"(25, 15)",,,,,,,,,0,0,0,0,0,1,1,1,,,,,,,,,,,,,,,,,,,,,,,,,,,,,,,,,,,,,,,,,,,,,,,,,,,,,,,,,,,,,,,,,,,,,,,,,,,,,,,,,,,,,,,,,,,,,,,,,11028,001,2024_Jan_10_1437,nback,2021.2.3,60.04293067283072,
2-back,instructions\back-2.png,conditions\2back-p.xlsx,instructions\2-BACK.png,"(25, 15)",practice,2,1,stim\yellow.png,stim\gray.png,stim\gray.png,stim\gray.png,None,0,0,0,0,0,2,2,2,0,0,0,0,,,,,,,,,,,,,,,,,106.23245820007287,None,space,12.519595400197431,106.23245820007287,None,118.93461070000194,123.44171510008164,123.39135920000263,None,123.7930884999223,124.79348089988343,123.7930884999223,124.79348089988343,123.7930884999223,124.79348089988343,123.7930884999223,124.79348089988343,None,1,,123.7930884999223,None,123.7930884999223,None,123.7930884999223,124.29245509998873,123.7930884999223,124.29245509998873,123.7930884999223,124.29245509998873,123.7930884999223,124.29245509998873,123.7930884999223,None,,,,,,,,,,,,,,,,,,,,,,,,,,,,,,,,,,,,,,,,,,11028,001,2024_Jan_10_1437,nback,2021.2.3,60.04293067283072,
2-back,instructions\back-2.png,conditions\2back-p.xlsx,instructions\2-BACK.png,"(25, 15)",practice,2,2,stim\gray.png,stim\yellow.png,stim\gray.png,stim\gray.png,None,0,0,0,0,0,2,2,2,0,1,1,1,,,,,,,,,,,,,,,,,,,,,,,,,,,125.27788589987904,126.27934039989486,125.27788589987904,126.27934039989486,125.27788589987904,126.27934039989486,125.27788589987904,126.27934039989486,None,1,,125.27788589987904,None,125.27788589987904,None,125.27788589987904,125.77821630006656,125.27788589987904,125.77821630006656,125.27788589987904,125.77821630006656,125.27788589987904,125.77821630006656,125.27788589987904,None,,,,,,,,,,,,,,,,,,,,,,,,,,,,,,,,,,,,,,,,,,11028,001,2024_Jan_10_1437,nback,2021.2.3,60.04293067283072,
2-back,instructions\back-2.png,conditions\2back-p.xlsx,instructions\2-BACK.png,"(25, 15)",practice,2,3,stim\gray.png,stim\gray.png,stim\yellow.png,stim\gray.png,up,0,0,0,0,0,2,2,2,0,2,2,2,,,,,,,,,,,,,,,,,,,,,,,,,,,126.78019970003515,127.78131380002014,126.78019970003515,127.78131380002014,126.78019970003515,127.78131380002014,126.78019970003515,127.78131380002014,up,1,0.3163549001328647,126.78019970003515,None,126.78019970003515,None,126.78019970003515,127.28062479989603,126.78019970003515,127.28062479989603,126.78019970003515,127.28062479989603,126.78019970003515,127.28062479989603,126.78019970003515,None,,,,,,,,,,,,,,,,,,,,,,,,,,,,,,,,,,,,,,,,,,11028,001,2024_Jan_10_1437,nback,2021.2.3,60.04293067283072,
2-back,instructions\back-2.png,conditions\2back-p.xlsx,instructions\2-BACK.png,"(25, 15)",practice,2,4,stim\gray.png,stim\gray.png,stim\gray.png,stim\yellow.png,left,0,0,0,0,0,2,2,2,0,3,3,3,,,,,,,,,,,,,,,,,,,,,,,,,,,128.28184850001708,129.28353459993377,128.28184850001708,129.28353459993377,128.28184850001708,129.28353459993377,128.28184850001708,129.28353459993377,left,1,0.3827084000222385,128.28184850001708,None,128.28184850001708,None,128.28184850001708,128.78261130000465,128.28184850001708,128.78261130000465,128.28184850001708,128.78261130000465,128.28184850001708,128.78261130000465,128.28184850001708,None,,,,,,,,,,,,,,,,,,,,,,,,,,,,,,,,,,,,,,,,,,11028,001,2024_Jan_10_1437,nback,2021.2.3,60.04293067283072,
2-back,instructions\back-2.png,conditions\2back-p.xlsx,instructions\2-BACK.png,"(25, 15)",practice,2,2,stim\gray.png,stim\yellow.png,stim\gray.png,stim\gray.png,right,0,0,0,0,0,2,2,2,0,4,4,4,,,,,,,,,,,,,,,,,,,,,,,,,,,129.78478129999712,130.7855239000637,129.78478129999712,130.7855239000637,129.78478129999712,130.7855239000637,129.78478129999712,130.7855239000637,right,1,0.29532449995167553,129.78478129999712,None,129.78478129999712,None,129.78478129999712,130.28565159998834,129.78478129999712,130.28565159998834,129.78478129999712,130.28565159998834,129.78478129999712,130.28565159998834,129.78478129999712,None,,,,,,,,,,,,,,,,,,,,,,,,,,,,,,,,,,,,,,,,,,11028,001,2024_Jan_10_1437,nback,2021.2.3,60.04293067283072,
2-back,instructions\back-2.png,conditions\2back-p.xlsx,instructions\2-BACK.png,"(25, 15)",practice,2,1,stim\yellow.png,stim\gray.png,stim\gray.png,stim\gray.png,down,0,0,0,0,0,2,2,2,0,5,5,5,,,,,,,,,,,,,,,,,,,,,,,,,,,131.28625439992175,132.2878958999645,131.28625439992175,132.2878958999645,131.28625439992175,132.2878958999645,131.28625439992175,132.2878958999645,down,1,0.26578260003589094,131.28625439992175,None,131.28625439992175,None,131.28625439992175,131.7868794000242,131.28625439992175,131.7868794000242,131.28625439992175,131.7868794000242,131.28625439992175,131.7868794000242,131.28625439992175,None,,,,,,,,,,,,,,,,,,,,,,,,,,,,,,,,,,,,,,,,,,11028,001,2024_Jan_10_1437,nback,2021.2.3,60.04293067283072,
2-back,instructions\back-2.png,conditions\2back-p.xlsx,instructions\2-BACK.png,"(25, 15)",practice,2,4,stim\gray.png,stim\gray.png,stim\gray.png,stim\yellow.png,left,0,0,0,0,0,2,2,2,0,6,6,6,,,,,,,,,,,,,,,,,,,,,,,,,,,132.78867999999784,133.78993800003082,132.78867999999784,133.78993800003082,132.78867999999784,133.78993800003082,132.78867999999784,133.78993800003082,left,1,0.4194391998462379,132.78867999999784,None,132.78867999999784,None,132.78867999999784,133.2895547999069,132.78867999999784,133.2895547999069,132.78867999999784,133.2895547999069,132.78867999999784,133.2895547999069,132.78867999999784,None,,,,,,,,,,,,,,,,,,,,,,,,,,,,,,,,,,,,,,,,,,11028,001,2024_Jan_10_1437,nback,2021.2.3,60.04293067283072,
2-back,instructions\back-2.png,conditions\2back-p.xlsx,instructions\2-BACK.png,"(25, 15)",practice,2,3,stim\gray.png,stim\gray.png,stim\yellow.png,stim\gray.png,up,0,0,0,0,0,2,2,2,0,7,7,7,,,,,,,,,,,,,,,,,,,,,,,,,,,134.2745044999756,135.27541140001267,134.2745044999756,135.27541140001267,134.2745044999756,135.27541140001267,134.2745044999756,135.27541140001267,up,1,0.2700127998832613,134.2745044999756,None,134.2745044999756,None,134.2745044999756,134.77500510006212,134.2745044999756,134.77500510006212,134.2745044999756,134.77500510006212,134.2745044999756,134.77500510006212,134.2745044999756,None,,,,,,,,,,,,,,,,,,,,,,,,,,,,,,,,,,,,,,,,,,11028,001,2024_Jan_10_1437,nback,2021.2.3,60.04293067283072,
2-back,instructions\back-2.png,conditions\2back-p.xlsx,instructions\2-BACK.png,"(25, 15)",practice,2,3,stim\gray.png,stim\gray.png,stim\yellow.png,stim\gray.png,down,0,0,0,0,0,2,2,2,0,8,8,8,,,,,,,,,,,,,,,,,,,,,,,,,,,135.77634490001947,136.7778668999672,135.77634490001947,136.7778668999672,135.77634490001947,136.7778668999672,135.77634490001947,136.7778668999672,down,1,0.09610319999046624,135.77634490001947,None,135.77634490001947,None,135.77634490001947,136.27733539999463,135.77634490001947,136.27733539999463,135.77634490001947,136.27733539999463,135.77634490001947,136.27733539999463,135.77634490001947,None,,,,,,,,,,,,,,,,,,,,,,,,,,,,,,,,,,,,,,,,,,11028,001,2024_Jan_10_1437,nback,2021.2.3,60.04293067283072,
2-back,instructions\back-2.png,conditions\2back-p.xlsx,instructions\2-BACK.png,"(25, 15)",practice,2,4,stim\gray.png,stim\gray.png,stim\gray.png,stim\yellow.png,right,0,0,0,0,0,2,2,2,0,9,9,9,,,,,,,,,,,,,,,,,,,,,,,,,,,137.278577900026,138.28068850003183,137.278577900026,138.28068850003183,137.278577900026,138.28068850003183,137.278577900026,138.28068850003183,right,1,0.08189489995129406,137.278577900026,None,137.278577900026,None,137.278577900026,137.77934579993598,137.278577900026,137.77934579993598,137.278577900026,137.77934579993598,137.278577900026,137.77934579993598,137.278577900026,None,,,,,,,,,,,,,,,,,,,,,,,,,,,,,,,,,,,,,,,,,,11028,001,2024_Jan_10_1437,nback,2021.2.3,60.04293067283072,
2-back,instructions\back-2.png,conditions\2back-p.xlsx,instructions\2-BACK.png,"(25, 15)",practice,2,1,stim\yellow.png,stim\gray.png,stim\gray.png,stim\gray.png,right,0,0,0,0,0,2,2,2,0,10,10,10,,,,,,,,,,,,,,,,,,,,,,,,,,,138.78072470007464,139.78279490000568,138.78072470007464,139.78279490000568,138.78072470007464,139.78279490000568,138.78072470007464,139.78279490000568,right,1,0.19540409999899566,138.78072470007464,None,138.78072470007464,None,138.78072470007464,139.2817909999285,138.78072470007464,139.2817909999285,138.78072470007464,139.2817909999285,138.78072470007464,139.2817909999285,138.78072470007464,None,,,,,,,,,,,,,,,,,,,,,,,,,,,,,,,,,,,,,,,,,,11028,001,2024_Jan_10_1437,nback,2021.2.3,60.04293067283072,
2-back,instructions\back-2.png,conditions\2back-p.xlsx,instructions\2-BACK.png,"(25, 15)",practice,2,2,stim\gray.png,stim\yellow.png,stim\gray.png,stim\gray.png,down,0,0,0,0,0,2,2,2,0,11,11,11,,,,,,,,,,,,,,,,,,,,,,,,,,,140.28288859990425,141.28437320003286,140.28288859990425,141.28437320003286,140.28288859990425,141.28437320003286,140.28288859990425,141.28437320003286,down,1,0.28514809999614954,140.28288859990425,None,140.28288859990425,None,140.28288859990425,140.7837934999261,140.28288859990425,140.7837934999261,140.28288859990425,140.7837934999261,140.28288859990425,140.7837934999261,140.28288859990425,None,,,,,,,,,,,,,,,,,,,,,,,,,,,,,,,,,,,,,,,,,,11028,001,2024_Jan_10_1437,nback,2021.2.3,60.04293067283072,
2-back,instructions\back-2.png,conditions\2back-p.xlsx,instructions\2-BACK.png,"(25, 15)",practice,2,4,stim\gray.png,stim\gray.png,stim\gray.png,stim\yellow.png,up,0,0,0,0,0,2,2,2,0,12,12,12,,,,,,,,,,,,,,,,,,,,,,,,,,,141.78524379990995,142.78711679996923,141.78524379990995,142.78711679996923,141.78524379990995,142.78711679996923,141.78524379990995,142.78711679996923,up,1,0.3591946999076754,141.78524379990995,None,141.78524379990995,None,141.78524379990995,142.28577479999512,141.78524379990995,142.28577479999512,141.78524379990995,142.28577479999512,141.78524379990995,142.28577479999512,141.78524379990995,None,,,,,,,,,,,,,,,,,,,,,,,,,,,,,,,,,,,,,,,,,,11028,001,2024_Jan_10_1437,nback,2021.2.3,60.04293067283072,
2-back,instructions\back-2.png,conditions\2back-p.xlsx,instructions\2-BACK.png,"(25, 15)",practice,2,3,stim\gray.png,stim\gray.png,stim\yellow.png,stim\gray.png,left,0,0,0,0,0,2,2,2,0,13,13,13,,,,,,,,,,,,,,,,,,,,,,,,,,,143.287679299945,144.28975829994306,143.287679299945,144.28975829994306,143.287679299945,144.28975829994306,143.287679299945,144.28975829994306,left,1,0.3608367000706494,143.287679299945,None,143.287679299945,None,143.287679299945,143.78824890009128,143.287679299945,143.78824890009128,143.287679299945,143.78824890009128,143.287679299945,143.78824890009128,143.287679299945,None,,,,,,,,,,,,,,,,,,,,,,,,,,,,,,,,,,,,,,,,,,11028,001,2024_Jan_10_1437,nback,2021.2.3,60.04293067283072,
2-back,instructions\back-2.png,conditions\2back-p.xlsx,instructions\2-BACK.png,"(25, 15)",practice,2,1,stim\yellow.png,stim\gray.png,stim\gray.png,stim\gray.png,down,0,0,0,0,0,2,2,2,0,14,14,14,,,,,,,,,,,,,,,,,,,,,,,,,,,144.77303529996425,145.7746693000663,144.77303529996425,145.7746693000663,144.77303529996425,145.7746693000663,144.77303529996425,145.7746693000663,down,1,0.34718829998746514,144.77303529996425,None,144.77303529996425,None,144.77303529996425,145.2742151999846,144.77303529996425,145.2742151999846,144.77303529996425,145.2742151999846,144.77303529996425,145.2742151999846,144.77303529996425,None,,,,,,,,,,,,,,,,,,,,,,,,,,,,,,,,,,,,,,,,,,11028,001,2024_Jan_10_1437,nback,2021.2.3,60.04293067283072,
2-back,instructions\back-2.png,conditions\2back-p.xlsx,instructions\2-BACK.png,"(25, 15)",practice,2,2,stim\gray.png,stim\yellow.png,stim\gray.png,stim\gray.png,right,0,0,0,0,0,2,2,2,0,15,15,15,,,,,,,,,,,,,,,,,,,,,,,,,,,146.27526289992966,147.277465299936,146.27526289992966,147.277465299936,146.27526289992966,147.277465299936,146.27526289992966,147.277465299936,right,1,0.3732874998822808,146.27526289992966,None,146.27526289992966,None,146.27526289992966,146.77593200001866,146.27526289992966,146.77593200001866,146.27526289992966,146.77593200001866,146.27526289992966,146.77593200001866,146.27526289992966,None,,,,,,,,,,,,,,,,,,,,,,,,,,,,,,,,,,,,,,,,,,11028,001,2024_Jan_10_1437,nback,2021.2.3,60.04293067283072,
2-back,instructions\back-2.png,conditions\2back-p.xlsx,instructions\2-BACK.png,"(25, 15)",practice,2,3,stim\gray.png,stim\gray.png,stim\yellow.png,stim\gray.png,up,0,0,0,0,0,2,2,2,0,16,16,16,,,,,,,,,,,,,,,,,,,,,,,,,,,147.77711819997057,148.77916639996693,147.77711819997057,148.77916639996693,147.77711819997057,148.77916639996693,147.77711819997057,148.77916639996693,up,1,0.3359558000229299,147.77711819997057,None,147.77711819997057,None,147.77711819997057,148.2781479000114,147.77711819997057,148.2781479000114,147.77711819997057,148.2781479000114,147.77711819997057,148.2781479000114,147.77711819997057,None,,,,,,,,,,,,,,,,,,,,,,,,,,,,,,,,,,,,,,,,,,11028,001,2024_Jan_10_1437,nback,2021.2.3,60.04293067283072,
2-back,instructions\back-2.png,conditions\2back-p.xlsx,instructions\2-BACK.png,"(25, 15)",practice,2,1,stim\yellow.png,stim\gray.png,stim\gray.png,stim\gray.png,left,0,0,0,0,0,2,2,2,0,17,17,17,,,,,,,,,,,,,,,,,,,,,,,,,,,149.27954460005276,150.2818334000185,149.27954460005276,150.2818334000185,149.27954460005276,150.2818334000185,149.27954460005276,150.2818334000185,left,1,0.3685473999939859,149.27954460005276,None,149.27954460005276,None,149.27954460005276,149.7808781999629,149.27954460005276,149.7808781999629,149.27954460005276,149.7808781999629,149.27954460005276,149.7808781999629,149.27954460005276,None,,,,,,,,,,,,,,,,,,,,,,,,,,,,,,,,,,,,,,,,,,11028,001,2024_Jan_10_1437,nback,2021.2.3,60.04293067283072,
2-back,instructions\back-2.png,conditions\2back-p.xlsx,instructions\2-BACK.png,"(25, 15)",practice,2,4,stim\gray.png,stim\gray.png,stim\gray.png,stim\yellow.png,right,0,0,0,0,0,2,2,2,0,18,18,18,,,,,,,,,,,,,,,,,,,,,,,,,,,150.78160359989852,151.7834673000034,150.78160359989852,151.7834673000034,150.78160359989852,151.7834673000034,150.78160359989852,151.7834673000034,right,1,0.3625540998764336,150.78160359989852,None,150.78160359989852,None,150.78160359989852,151.28250840003602,150.78160359989852,151.28250840003602,150.78160359989852,151.28250840003602,150.78160359989852,151.28250840003602,150.78160359989852,None,,,,,,,,,,,,,,,,,,,,,,,,,,,,,,,,,,,,,,,,,,11028,001,2024_Jan_10_1437,nback,2021.2.3,60.04293067283072,
2-back,instructions\back-2.png,conditions\2back-p.xlsx,instructions\2-BACK.png,"(25, 15)",practice,2,2,stim\gray.png,stim\yellow.png,stim\gray.png,stim\gray.png,up,0,0,0,0,0,2,2,2,0,19,19,19,,,,,,,,,,,,,,,,,,,,,,,,,,,152.28414990007877,153.28650809987448,152.28414990007877,153.28650809987448,152.28414990007877,153.28650809987448,152.28414990007877,153.28650809987448,up,1,0.38796989992260933,152.28414990007877,None,152.28414990007877,None,152.28414990007877,152.7848273999989,152.28414990007877,152.7848273999989,152.28414990007877,152.7848273999989,152.28414990007877,152.7848273999989,152.28414990007877,None,,,,,,,,,,,,,,,,,,,,,,,,,,,,,,,,,,,,,,,,,,11028,001,2024_Jan_10_1437,nback,2021.2.3,60.04293067283072,
2-back,instructions\back-2.png,conditions\2back-p.xlsx,instructions\2-BACK.png,"(25, 15)",,,,,,,,,0,0,0,0,0,2,2,2,,,,,,,,,,,,,,,,,,,,,,,,,,,,,,,,,,,,,,,,,,,,,,,,,,,,,,,,,,,,,,,,,,,,,,,,,,,,,,,,,,,,,,,,,,,,,,,,,11028,001,2024_Jan_10_1437,nback,2021.2.3,60.04293067283072,
,,,,,,,,,,,,,0,0,0,0,,,,,,,,,,,,,,,,,,,,,,,,,,,,,,,,,,,,,,,,,,,,,,,,,,,,,,,,,,,,153.7865426999051,None,space,10.517575200181454,153.7865426999051,None,,,,,,,,,,,,,,,,,,,,,,,,,,,,,,,,,,,,11028,001,2024_Jan_10_1437,nback,2021.2.3,60.04293067283072,
,,,,,,,,,,,,,,,,,,,,,,,,,,,,,,,,,,,,,,,,,,,,,,,,,,,,,,,,,,,,,,,,,,,,,,,,,,,,,,,,,,164.33547200006433,None,space,68.90517789986916,164.33547200006433,None,,,,,,,,,,,,,,,,,,,,,,,,,,,,,,11028,001,2024_Jan_10_1437,nback,2021.2.3,60.04293067283072,
0-back,instructions\back-0.png,conditions\02back-e.xlsx,,,experiment,0,4,stim\gray.png,stim\gray.png,stim\gray.png,stim\yellow.png,down,,,,,,,,,,,,,0,0,0,7,0,0,0,0,,,,,,,,,,,,,,,233.45493209990673,237.96236020000651,237.87766549992375,None,,,,,,,,,,,,,,,,,,,,,,,,,,,,,,,,,,,,,,down,1,0.6336726997978985,238.2949409999419,None,238.2949409999419,None,238.2949409999419,239.29753950005397,238.2949409999419,239.29753950005397,238.2949409999419,239.29753950005397,238.2949409999419,239.29753950005397,238.2949409999419,238.7962400999386,238.2949409999419,238.7962400999386,238.2949409999419,238.7962400999386,238.2949409999419,238.7962400999386,238.2949409999419,None,,,,,11028,001,2024_Jan_10_1437,nback,2021.2.3,60.04293067283072,
0-back,instructions\back-0.png,conditions\02back-e.xlsx,,,experiment,0,2,stim\gray.png,stim\yellow.png,stim\gray.png,stim\gray.png,left,,,,,,,,,,,,,0,0,0,7,0,1,1,1,,,,,,,,,,,,,,,,,,,,,,,,,,,,,,,,,,,,,,,,,,,,,,,,,,,,,,,,left,1,0.34003680013120174,239.78055360005237,None,239.78055360005237,None,239.78055360005237,240.78259660000913,239.78055360005237,240.78259660000913,239.78055360005237,240.78259660000913,239.78055360005237,240.78259660000913,239.78055360005237,240.281391199911,239.78055360005237,240.281391199911,239.78055360005237,240.281391199911,239.78055360005237,240.281391199911,239.78055360005237,None,,,,,11028,001,2024_Jan_10_1437,nback,2021.2.3,60.04293067283072,
0-back,instructions\back-0.png,conditions\02back-e.xlsx,,,experiment,0,1,stim\yellow.png,stim\gray.png,stim\gray.png,stim\gray.png,up,,,,,,,,,,,,,0,0,0,7,0,2,2,2,,,,,,,,,,,,,,,,,,,,,,,,,,,,,,,,,,,,,,,,,,,,,,,,,,,,,,,,up,1,0.42935179988853633,241.2832903000526,None,241.2832903000526,None,241.2832903000526,242.28438169998117,241.2832903000526,242.28438169998117,241.2832903000526,242.28438169998117,241.2832903000526,242.28438169998117,241.2832903000526,241.78347930009477,241.2832903000526,241.78347930009477,241.2832903000526,241.78347930009477,241.2832903000526,241.78347930009477,241.2832903000526,None,,,,,11028,001,2024_Jan_10_1437,nback,2021.2.3,60.04293067283072,
0-back,instructions\back-0.png,conditions\02back-e.xlsx,,,experiment,0,2,stim\gray.png,stim\yellow.png,stim\gray.png,stim\gray.png,left,,,,,,,,,,,,,0,0,0,7,0,3,3,3,,,,,,,,,,,,,,,,,,,,,,,,,,,,,,,,,,,,,,,,,,,,,,,,,,,,,,,,left,1,0.47970469994470477,242.7846977999434,None,242.7846977999434,None,242.7846977999434,243.78694889997132,242.7846977999434,243.78694889997132,242.7846977999434,243.78694889997132,242.7846977999434,243.78694889997132,242.7846977999434,243.28610799997114,242.7846977999434,243.28610799997114,242.7846977999434,243.28610799997114,242.7846977999434,243.28610799997114,242.7846977999434,None,,,,,11028,001,2024_Jan_10_1437,nback,2021.2.3,60.04293067283072,
0-back,instructions\back-0.png,conditions\02back-e.xlsx,,,experiment,0,3,stim\gray.png,stim\gray.png,stim\yellow.png,stim\gray.png,right,,,,,,,,,,,,,0,0,0,7,0,4,4,4,,,,,,,,,,,,,,,,,,,,,,,,,,,,,,,,,,,,,,,,,,,,,,,,,,,,,,,,right,1,0.44152250001206994,244.28701329999603,None,244.28701329999603,None,244.28701329999603,245.28868960007094,244.28701329999603,245.28868960007094,244.28701329999603,245.28868960007094,244.28701329999603,245.28868960007094,244.28701329999603,244.78827679995447,244.28701329999603,244.78827679995447,244.28701329999603,244.78827679995447,244.28701329999603,244.78827679995447,244.28701329999603,None,,,,,11028,001,2024_Jan_10_1437,nback,2021.2.3,60.04293067283072,
0-back,instructions\back-0.png,conditions\02back-e.xlsx,,,experiment,0,1,stim\yellow.png,stim\gray.png,stim\gray.png,stim\gray.png,up,,,,,,,,,,,,,0,0,0,7,0,5,5,5,,,,,,,,,,,,,,,,,,,,,,,,,,,,,,,,,,,,,,,,,,,,,,,,,,,,,,,,None,0,,245.78954729996622,None,245.78954729996622,None,245.78954729996622,246.7908497999888,245.78954729996622,246.7908497999888,245.78954729996622,246.7908497999888,245.78954729996622,246.7908497999888,245.78954729996622,246.2899263999425,245.78954729996622,246.2899263999425,245.78954729996622,246.2899263999425,245.78954729996622,246.2899263999425,245.78954729996622,None,,,,,11028,001,2024_Jan_10_1437,nback,2021.2.3,60.04293067283072,
0-back,instructions\back-0.png,conditions\02back-e.xlsx,,,experiment,0,2,stim\gray.png,stim\yellow.png,stim\gray.png,stim\gray.png,left,,,,,,,,,,,,,0,0,0,7,0,6,6,6,,,,,,,,,,,,,,,,,,,,,,,,,,,,,,,,,,,,,,,,,,,,,,,,,,,,,,,,left,1,0.23666759999468923,247.2916152998805,None,247.2916152998805,None,247.2916152998805,248.2937171999365,247.2916152998805,248.2937171999365,247.2916152998805,248.2937171999365,247.2916152998805,248.2937171999365,247.2916152998805,247.79234199994244,247.2916152998805,247.79234199994244,247.2916152998805,247.79234199994244,247.2916152998805,247.79234199994244,247.2916152998805,None,,,,,11028,001,2024_Jan_10_1437,nback,2021.2.3,60.04293067283072,
0-back,instructions\back-0.png,conditions\02back-e.xlsx,,,experiment,0,3,stim\gray.png,stim\gray.png,stim\yellow.png,stim\gray.png,right,,,,,,,,,,,,,0,0,0,7,0,7,7,7,,,,,,,,,,,,,,,,,,,,,,,,,,,,,,,,,,,,,,,,,,,,,,,,,,,,,,,,right,1,0.30244659981690347,248.7779655000195,None,248.7779655000195,None,248.7779655000195,249.77866260008886,248.7779655000195,249.77866260008886,248.7779655000195,249.77866260008886,248.7779655000195,249.77866260008886,248.7779655000195,249.27841560007073,248.7779655000195,249.27841560007073,248.7779655000195,249.27841560007073,248.7779655000195,249.27841560007073,248.7779655000195,None,,,,,11028,001,2024_Jan_10_1437,nback,2021.2.3,60.04293067283072,
0-back,instructions\back-0.png,conditions\02back-e.xlsx,,,experiment,0,4,stim\gray.png,stim\gray.png,stim\gray.png,stim\yellow.png,down,,,,,,,,,,,,,0,0,0,7,0,8,8,8,,,,,,,,,,,,,,,,,,,,,,,,,,,,,,,,,,,,,,,,,,,,,,,,,,,,,,,,down,1,0.5601578999776393,250.28014769987203,None,250.28014769987203,None,250.28014769987203,251.28120870003477,250.28014769987203,251.28120870003477,250.28014769987203,251.28120870003477,250.28014769987203,251.28120870003477,250.28014769987203,250.7805961999111,250.28014769987203,250.7805961999111,250.28014769987203,250.7805961999111,250.28014769987203,250.7805961999111,250.28014769987203,None,,,,,11028,001,2024_Jan_10_1437,nback,2021.2.3,60.04293067283072,
0-back,instructions\back-0.png,conditions\02back-e.xlsx,,,experiment,0,3,stim\gray.png,stim\gray.png,stim\yellow.png,stim\gray.png,right,,,,,,,,,,,,,0,0,0,7,0,9,9,9,,,,,,,,,,,,,,,,,,,,,,,,,,,,,,,,,,,,,,,,,,,,,,,,,,,,,,,,right,1,0.3709023999981582,251.78171909996308,None,251.78171909996308,None,251.78171909996308,252.78397480002604,251.78171909996308,252.78397480002604,251.78171909996308,252.78397480002604,251.78171909996308,252.78397480002604,251.78171909996308,252.28262449987233,251.78171909996308,252.28262449987233,251.78171909996308,252.28262449987233,251.78171909996308,252.28262449987233,251.78171909996308,None,,,,,11028,001,2024_Jan_10_1437,nback,2021.2.3,60.04293067283072,
0-back,instructions\back-0.png,conditions\02back-e.xlsx,,,experiment,0,1,stim\yellow.png,stim\gray.png,stim\gray.png,stim\gray.png,up,,,,,,,,,,,,,0,0,0,7,0,10,10,10,,,,,,,,,,,,,,,,,,,,,,,,,,,,,,,,,,,,,,,,,,,,,,,,,,,,,,,,up,1,0.3243044998962432,253.2839647999499,None,253.2839647999499,None,253.2839647999499,254.28537250007503,253.2839647999499,254.28537250007503,253.2839647999499,254.28537250007503,253.2839647999499,254.28537250007503,253.2839647999499,253.78456440009177,253.2839647999499,253.78456440009177,253.2839647999499,253.78456440009177,253.2839647999499,253.78456440009177,253.2839647999499,None,,,,,11028,001,2024_Jan_10_1437,nback,2021.2.3,60.04293067283072,
0-back,instructions\back-0.png,conditions\02back-e.xlsx,,,experiment,0,4,stim\gray.png,stim\gray.png,stim\gray.png,stim\yellow.png,down,,,,,,,,,,,,,0,0,0,7,0,11,11,11,,,,,,,,,,,,,,,,,,,,,,,,,,,,,,,,,,,,,,,,,,,,,,,,,,,,,,,,down,1,0.6544222999364138,254.78601750009693,None,254.78601750009693,None,254.78601750009693,255.787561400095,254.78601750009693,255.787561400095,254.78601750009693,255.787561400095,254.78601750009693,255.787561400095,254.78601750009693,255.28713100007735,254.78601750009693,255.28713100007735,254.78601750009693,255.28713100007735,254.78601750009693,255.28713100007735,254.78601750009693,None,,,,,11028,001,2024_Jan_10_1437,nback,2021.2.3,60.04293067283072,
0-back,instructions\back-0.png,conditions\02back-e.xlsx,,,experiment,0,3,stim\gray.png,stim\gray.png,stim\yellow.png,stim\gray.png,right,,,,,,,,,,,,,0,0,0,7,0,12,12,12,,,,,,,,,,,,,,,,,,,,,,,,,,,,,,,,,,,,,,,,,,,,,,,,,,,,,,,,right,1,0.40041320002637804,256.288233499974,None,256.288233499974,None,256.288233499974,257.2907569000963,256.288233499974,257.2907569000963,256.288233499974,257.2907569000963,256.288233499974,257.2907569000963,256.288233499974,256.7891758000478,256.288233499974,256.7891758000478,256.288233499974,256.7891758000478,256.288233499974,256.7891758000478,256.288233499974,None,,,,,11028,001,2024_Jan_10_1437,nback,2021.2.3,60.04293067283072,
0-back,instructions\back-0.png,conditions\02back-e.xlsx,,,experiment,0,1,stim\yellow.png,stim\gray.png,stim\gray.png,stim\gray.png,up,,,,,,,,,,,,,0,0,0,7,0,13,13,13,,,,,,,,,,,,,,,,,,,,,,,,,,,,,,,,,,,,,,,,,,,,,,,,,,,,,,,,up,1,0.47417999990284443,257.79036089987494,None,257.79036089987494,None,257.79036089987494,258.79270650004037,257.79036089987494,258.79270650004037,257.79036089987494,258.79270650004037,257.79036089987494,258.79270650004037,257.79036089987494,258.29129699990153,257.79036089987494,258.29129699990153,257.79036089987494,258.29129699990153,257.79036089987494,258.29129699990153,257.79036089987494,None,,,,,11028,001,2024_Jan_10_1437,nback,2021.2.3,60.04293067283072,
0-back,instructions\back-0.png,conditions\02back-e.xlsx,,,experiment,0,2,stim\gray.png,stim\yellow.png,stim\gray.png,stim\gray.png,left,,,,,,,,,,,,,0,0,0,7,0,14,14,14,,,,,,,,,,,,,,,,,,,,,,,,,,,,,,,,,,,,,,,,,,,,,,,,,,,,,,,,left,1,0.2921796999871731,259.27601770008914,None,259.27601770008914,None,259.27601770008914,260.2774660999421,259.27601770008914,260.2774660999421,259.27601770008914,260.2774660999421,259.27601770008914,260.2774660999421,259.27601770008914,259.77684709988534,259.27601770008914,259.77684709988534,259.27601770008914,259.77684709988534,259.27601770008914,259.77684709988534,259.27601770008914,None,,,,,11028,001,2024_Jan_10_1437,nback,2021.2.3,60.04293067283072,
0-back,instructions\back-0.png,conditions\02back-e.xlsx,,,experiment,0,1,stim\yellow.png,stim\gray.png,stim\gray.png,stim\gray.png,up,,,,,,,,,,,,,0,0,0,7,0,15,15,15,,,,,,,,,,,,,,,,,,,,,,,,,,,,,,,,,,,,,,,,,,,,,,,,,,,,,,,,up,1,0.47835489991120994,260.7781263999641,None,260.7781263999641,None,260.7781263999641,261.77980930008925,260.7781263999641,261.77980930008925,260.7781263999641,261.77980930008925,260.7781263999641,261.77980930008925,260.7781263999641,261.2790463999845,260.7781263999641,261.2790463999845,260.7781263999641,261.2790463999845,260.7781263999641,261.2790463999845,260.7781263999641,None,,,,,11028,001,2024_Jan_10_1437,nback,2021.2.3,60.04293067283072,
0-back,instructions\back-0.png,conditions\02back-e.xlsx,,,experiment,0,3,stim\gray.png,stim\gray.png,stim\yellow.png,stim\gray.png,right,,,,,,,,,,,,,0,0,0,7,0,16,16,16,,,,,,,,,,,,,,,,,,,,,,,,,,,,,,,,,,,,,,,,,,,,,,,,,,,,,,,,right,1,0.34392630006186664,262.28051789989695,None,262.28051789989695,None,262.28051789989695,263.28201419999823,262.28051789989695,263.28201419999823,262.28051789989695,263.28201419999823,262.28051789989695,263.28201419999823,262.28051789989695,262.781447699992,262.28051789989695,262.781447699992,262.28051789989695,262.781447699992,262.28051789989695,262.781447699992,262.28051789989695,None,,,,,11028,001,2024_Jan_10_1437,nback,2021.2.3,60.04293067283072,
0-back,instructions\back-0.png,conditions\02back-e.xlsx,,,experiment,0,4,stim\gray.png,stim\gray.png,stim\gray.png,stim\yellow.png,down,,,,,,,,,,,,,0,0,0,7,0,17,17,17,,,,,,,,,,,,,,,,,,,,,,,,,,,,,,,,,,,,,,,,,,,,,,,,,,,,,,,,down,1,0.5776008001994342,263.7827210999094,None,263.7827210999094,None,263.7827210999094,264.7840098000597,263.7827210999094,264.7840098000597,263.7827210999094,264.7840098000597,263.7827210999094,264.7840098000597,263.7827210999094,264.283468300011,263.7827210999094,264.283468300011,263.7827210999094,264.283468300011,263.7827210999094,264.283468300011,263.7827210999094,None,,,,,11028,001,2024_Jan_10_1437,nback,2021.2.3,60.04293067283072,
0-back,instructions\back-0.png,conditions\02back-e.xlsx,,,experiment,0,4,stim\gray.png,stim\gray.png,stim\gray.png,stim\yellow.png,down,,,,,,,,,,,,,0,0,0,7,0,18,18,18,,,,,,,,,,,,,,,,,,,,,,,,,,,,,,,,,,,,,,,,,,,,,,,,,,,,,,,,down,1,0.4110524000134319,265.28551129996777,None,265.28551129996777,None,265.28551129996777,266.287495699944,265.28551129996777,266.287495699944,265.28551129996777,266.287495699944,265.28551129996777,266.287495699944,265.28551129996777,265.78562340000644,265.28551129996777,265.78562340000644,265.28551129996777,265.78562340000644,265.28551129996777,265.78562340000644,265.28551129996777,None,,,,,11028,001,2024_Jan_10_1437,nback,2021.2.3,60.04293067283072,
0-back,instructions\back-0.png,conditions\02back-e.xlsx,,,experiment,0,2,stim\gray.png,stim\yellow.png,stim\gray.png,stim\gray.png,left,,,,,,,,,,,,,0,0,0,7,0,19,19,19,,,,,,,,,,,,,,,,,,,,,,,,,,,,,,,,,,,,,,,,,,,,,,,,,,,,,,,,left,1,0.397704100003466,266.7869617000688,None,266.7869617000688,None,266.7869617000688,267.7891295000445,266.7869617000688,267.7891295000445,266.7869617000688,267.7891295000445,266.7869617000688,267.7891295000445,266.7869617000688,267.28787070000544,266.7869617000688,267.28787070000544,266.7869617000688,267.28787070000544,266.7869617000688,267.28787070000544,266.7869617000688,None,,,,,11028,001,2024_Jan_10_1437,nback,2021.2.3,60.04293067283072,
0-back,instructions\back-0.png,conditions\02back-e.xlsx,,,,,,,,,,,,,,,,,,,,,,,0,0,0,7,,,,,,,,,,,,,,,,,,,,,,,,,,,,,,,,,,,,,,,,,,,,,,,,,,,,,,,,,,,,,,,,,,,,,,,,,,,,,,,,,,,,,268.28936120006256,None,,,11028,001,2024_Jan_10_1437,nback,2021.2.3,60.04293067283072,
2-back,instructions\back-2.png,conditions\23back-e.xlsx,,,experiment,2,2,stim\gray.png,stim\yellow.png,stim\gray.png,stim\gray.png,None,,,,,,,,,,,,,0,1,1,9,0,0,0,0,,,,,,,,,,,,,,,269.4576385000255,273.9650314000901,273.914506000001,None,,,,,,,,,,,,,,,,,,,,,,,,,,,,,,,,,,,,,,None,1,,274.29846339998767,None,274.29846339998767,None,274.29846339998767,275.29974359995686,274.29846339998767,275.29974359995686,274.29846339998767,275.29974359995686,274.29846339998767,275.29974359995686,274.29846339998767,274.7994939000346,274.29846339998767,274.7994939000346,274.29846339998767,274.7994939000346,274.29846339998767,274.7994939000346,274.29846339998767,None,,,,,11028,001,2024_Jan_10_1437,nback,2021.2.3,60.04293067283072,
2-back,instructions\back-2.png,conditions\23back-e.xlsx,,,experiment,2,4,stim\gray.png,stim\gray.png,stim\gray.png,stim\yellow.png,None,,,,,,,,,,,,,0,1,1,9,0,1,1,1,,,,,,,,,,,,,,,,,,,,,,,,,,,,,,,,,,,,,,,,,,,,,,,,,,,,,,,,None,1,,275.7835629999172,None,275.7835629999172,None,275.7835629999172,276.78600699990056,275.7835629999172,276.78600699990056,275.7835629999172,276.78600699990056,275.7835629999172,276.78600699990056,275.7835629999172,276.2847954998724,275.7835629999172,276.2847954998724,275.7835629999172,276.2847954998724,275.7835629999172,276.2847954998724,275.7835629999172,None,,,,,11028,001,2024_Jan_10_1437,nback,2021.2.3,60.04293067283072,
2-back,instructions\back-2.png,conditions\23back-e.xlsx,,,experiment,2,3,stim\gray.png,stim\gray.png,stim\yellow.png,stim\gray.png,left,,,,,,,,,,,,,0,1,1,9,0,2,2,2,,,,,,,,,,,,,,,,,,,,,,,,,,,,,,,,,,,,,,,,,,,,,,,,,,,,,,,,left,1,0.34610339999198914,277.28628750005737,None,277.28628750005737,None,277.28628750005737,278.2875826000236,277.28628750005737,278.2875826000236,277.28628750005737,278.2875826000236,277.28628750005737,278.2875826000236,277.28628750005737,277.78663649992086,277.28628750005737,277.78663649992086,277.28628750005737,277.78663649992086,277.28628750005737,277.78663649992086,277.28628750005737,None,,,,,11028,001,2024_Jan_10_1437,nback,2021.2.3,60.04293067283072,
2-back,instructions\back-2.png,conditions\23back-e.xlsx,,,experiment,2,2,stim\gray.png,stim\yellow.png,stim\gray.png,stim\gray.png,down,,,,,,,,,,,,,0,1,1,9,0,3,3,3,,,,,,,,,,,,,,,,,,,,,,,,,,,,,,,,,,,,,,,,,,,,,,,,,,,,,,,,down,1,0.2842367000412196,278.7884762000758,None,278.7884762000758,None,278.7884762000758,279.79007159988396,278.7884762000758,279.79007159988396,278.7884762000758,279.79007159988396,278.7884762000758,279.79007159988396,278.7884762000758,279.28927870001644,278.7884762000758,279.28927870001644,278.7884762000758,279.28927870001644,278.7884762000758,279.28927870001644,278.7884762000758,None,,,,,11028,001,2024_Jan_10_1437,nback,2021.2.3,60.04293067283072,
2-back,instructions\back-2.png,conditions\23back-e.xlsx,,,experiment,2,1,stim\yellow.png,stim\gray.png,stim\gray.png,stim\gray.png,right,,,,,,,,,,,,,0,1,1,9,0,4,4,4,,,,,,,,,,,,,,,,,,,,,,,,,,,,,,,,,,,,,,,,,,,,,,,,,,,,,,,,right,1,0.341667199973017,280.2905395999551,None,280.2905395999551,None,280.2905395999551,281.29193759988993,280.2905395999551,281.29193759988993,280.2905395999551,281.29193759988993,280.2905395999551,281.29193759988993,280.2905395999551,280.7912546999287,280.2905395999551,280.7912546999287,280.2905395999551,280.7912546999287,280.2905395999551,280.7912546999287,280.2905395999551,None,,,,,11028,001,2024_Jan_10_1437,nback,2021.2.3,60.04293067283072,
2-back,instructions\back-2.png,conditions\23back-e.xlsx,,,experiment,2,2,stim\gray.png,stim\yellow.png,stim\gray.png,stim\gray.png,left,,,,,,,,,,,,,0,1,1,9,0,5,5,5,,,,,,,,,,,,,,,,,,,,,,,,,,,,,,,,,,,,,,,,,,,,,,,,,,,,,,,,left,1,0.28842859994620085,281.77604839997366,None,281.77604839997366,None,281.77604839997366,282.7782874999102,281.77604839997366,282.7782874999102,281.77604839997366,282.7782874999102,281.77604839997366,282.7782874999102,281.77604839997366,282.2769398998935,281.77604839997366,282.2769398998935,281.77604839997366,282.2769398998935,281.77604839997366,282.2769398998935,281.77604839997366,None,,,,,11028,001,2024_Jan_10_1437,nback,2021.2.3,60.04293067283072,
2-back,instructions\back-2.png,conditions\23back-e.xlsx,,,experiment,2,4,stim\gray.png,stim\gray.png,stim\gray.png,stim\yellow.png,up,,,,,,,,,,,,,0,1,1,9,0,6,6,6,,,,,,,,,,,,,,,,,,,,,,,,,,,,,,,,,,,,,,,,,,,,,,,,,,,,,,,,up,1,0.23476579994894564,283.2783083000686,None,283.2783083000686,None,283.2783083000686,284.27983590005897,283.2783083000686,284.27983590005897,283.2783083000686,284.27983590005897,283.2783083000686,284.27983590005897,283.2783083000686,283.7790979000274,283.2783083000686,283.7790979000274,283.2783083000686,283.7790979000274,283.2783083000686,283.7790979000274,283.2783083000686,None,,,,,11028,001,2024_Jan_10_1437,nback,2021.2.3,60.04293067283072,
2-back,instructions\back-2.png,conditions\23back-e.xlsx,,,experiment,2,3,stim\gray.png,stim\gray.png,stim\yellow.png,stim\gray.png,left,,,,,,,,,,,,,0,1,1,9,0,7,7,7,,,,,,,,,,,,,,,,,,,,,,,,,,,,,,,,,,,,,,,,,,,,,,,,,,,,,,,,left,1,0.17220299993641675,284.78032179991715,None,284.78032179991715,None,284.78032179991715,285.78249130002223,284.78032179991715,285.78249130002223,284.78032179991715,285.78249130002223,284.78032179991715,285.78249130002223,284.78032179991715,285.2812131999526,284.78032179991715,285.2812131999526,284.78032179991715,285.2812131999526,284.78032179991715,285.2812131999526,284.78032179991715,None,,,,,11028,001,2024_Jan_10_1437,nback,2021.2.3,60.04293067283072,
2-back,instructions\back-2.png,conditions\23back-e.xlsx,,,experiment,2,4,stim\gray.png,stim\gray.png,stim\gray.png,stim\yellow.png,down,,,,,,,,,,,,,0,1,1,9,0,8,8,8,,,,,,,,,,,,,,,,,,,,,,,,,,,,,,,,,,,,,,,,,,,,,,,,,,,,,,,,down,1,0.15029100002720952,286.28265549987555,None,286.28265549987555,None,286.28265549987555,287.2846736998763,286.28265549987555,287.2846736998763,286.28265549987555,287.2846736998763,286.28265549987555,287.2846736998763,286.28265549987555,286.78353439993225,286.28265549987555,286.78353439993225,286.28265549987555,286.78353439993225,286.28265549987555,286.78353439993225,286.28265549987555,None,,,,,11028,001,2024_Jan_10_1437,nback,2021.2.3,60.04293067283072,
2-back,instructions\back-2.png,conditions\23back-e.xlsx,,,experiment,2,1,stim\yellow.png,stim\gray.png,stim\gray.png,stim\gray.png,right,,,,,,,,,,,,,0,1,1,9,0,9,9,9,,,,,,,,,,,,,,,,,,,,,,,,,,,,,,,,,,,,,,,,,,,,,,,,,,,,,,,,up,0,0.23967579985037446,287.78489020001143,None,287.78489020001143,None,287.78489020001143,288.7866448999848,287.78489020001143,288.7866448999848,287.78489020001143,288.7866448999848,287.78489020001143,288.7866448999848,287.78489020001143,288.2863535999786,287.78489020001143,288.2863535999786,287.78489020001143,288.2863535999786,287.78489020001143,288.2863535999786,287.78489020001143,None,,,,,11028,001,2024_Jan_10_1437,nback,2021.2.3,60.04293067283072,
2-back,instructions\back-2.png,conditions\23back-e.xlsx,,,experiment,2,4,stim\gray.png,stim\gray.png,stim\gray.png,stim\yellow.png,down,,,,,,,,,,,,,0,1,1,9,0,10,10,10,,,,,,,,,,,,,,,,,,,,,,,,,,,,,,,,,,,,,,,,,,,,,,,,,,,,,,,,down,1,0.3216516000684351,289.2872182999272,None,289.2872182999272,None,289.2872182999272,290.28922510007396,289.2872182999272,290.28922510007396,289.2872182999272,290.28922510007396,289.2872182999272,290.28922510007396,289.2872182999272,289.7877819999121,289.2872182999272,289.7877819999121,289.2872182999272,289.7877819999121,289.2872182999272,289.7877819999121,289.2872182999272,None,,,,,11028,001,2024_Jan_10_1437,nback,2021.2.3,60.04293067283072,
2-back,instructions\back-2.png,conditions\23back-e.xlsx,,,experiment,2,1,stim\yellow.png,stim\gray.png,stim\gray.png,stim\gray.png,up,,,,,,,,,,,,,0,1,1,9,0,11,11,11,,,,,,,,,,,,,,,,,,,,,,,,,,,,,,,,,,,,,,,,,,,,,,,,,,,,,,,,right,0,0.29087070003151894,290.78940930007957,None,290.78940930007957,None,290.78940930007957,291.7909192000516,290.78940930007957,291.7909192000516,290.78940930007957,291.7909192000516,290.78940930007957,291.7909192000516,290.78940930007957,291.29087659996003,290.78940930007957,291.29087659996003,290.78940930007957,291.29087659996003,290.78940930007957,291.29087659996003,290.78940930007957,None,,,,,11028,001,2024_Jan_10_1437,nback,2021.2.3,60.04293067283072,
2-back,instructions\back-2.png,conditions\23back-e.xlsx,,,experiment,2,2,stim\gray.png,stim\yellow.png,stim\gray.png,stim\gray.png,down,,,,,,,,,,,,,0,1,1,9,0,12,12,12,,,,,,,,,,,,,,,,,,,,,,,,,,,,,,,,,,,,,,,,,,,,,,,,,,,,,,,,up,0,0.2601679000072181,292.2920744998846,None,292.2920744998846,None,292.2920744998846,293.29388840007596,292.2920744998846,293.29388840007596,292.2920744998846,293.29388840007596,292.2920744998846,293.29388840007596,292.2920744998846,292.7930685998872,292.2920744998846,292.7930685998872,292.2920744998846,292.7930685998872,292.2920744998846,292.7930685998872,292.2920744998846,None,,,,,11028,001,2024_Jan_10_1437,nback,2021.2.3,60.04293067283072,
2-back,instructions\back-2.png,conditions\23back-e.xlsx,,,experiment,2,3,stim\gray.png,stim\gray.png,stim\yellow.png,stim\gray.png,up,,,,,,,,,,,,,0,1,1,9,0,13,13,13,,,,,,,,,,,,,,,,,,,,,,,,,,,,,,,,,,,,,,,,,,,,,,,,,,,,,,,,left,0,0.5755076999776065,293.77694700006396,None,293.77694700006396,None,293.77694700006396,294.78110680007376,293.77694700006396,294.78110680007376,293.77694700006396,294.78110680007376,293.77694700006396,294.78110680007376,293.77694700006396,294.2778612000402,293.77694700006396,294.2778612000402,293.77694700006396,294.2778612000402,293.77694700006396,294.2778612000402,293.77694700006396,None,,,,,11028,001,2024_Jan_10_1437,nback,2021.2.3,60.04293067283072,
2-back,instructions\back-2.png,conditions\23back-e.xlsx,,,experiment,2,4,stim\gray.png,stim\gray.png,stim\gray.png,stim\yellow.png,left,,,,,,,,,,,,,0,1,1,9,0,14,14,14,,,,,,,,,,,,,,,,,,,,,,,,,,,,,,,,,,,,,,,,,,,,,,,,,,,,,,,,down,0,0.6411987000610679,295.27927549998276,None,295.27927549998276,None,295.27927549998276,296.28132309997454,295.27927549998276,296.28132309997454,295.27927549998276,296.28132309997454,295.27927549998276,296.28132309997454,295.27927549998276,295.7808095999062,295.27927549998276,295.7808095999062,295.27927549998276,295.7808095999062,295.27927549998276,295.7808095999062,295.27927549998276,None,,,,,11028,001,2024_Jan_10_1437,nback,2021.2.3,60.04293067283072,
2-back,instructions\back-2.png,conditions\23back-e.xlsx,,,experiment,2,3,stim\gray.png,stim\gray.png,stim\yellow.png,stim\gray.png,right,,,,,,,,,,,,,0,1,1,9,0,15,15,15,,,,,,,,,,,,,,,,,,,,,,,,,,,,,,,,,,,,,,,,,,,,,,,,,,,,,,,,right,1,0.5709221998695284,296.78142370004207,None,296.78142370004207,None,296.78142370004207,297.78297759988345,296.78142370004207,297.78297759988345,296.78142370004207,297.78297759988345,296.78142370004207,297.78297759988345,296.78142370004207,297.2836684999056,296.78142370004207,297.2836684999056,296.78142370004207,297.2836684999056,296.78142370004207,297.2836684999056,296.78142370004207,None,,,,,11028,001,2024_Jan_10_1437,nback,2021.2.3,60.04293067283072,
2-back,instructions\back-2.png,conditions\23back-e.xlsx,,,experiment,2,2,stim\gray.png,stim\yellow.png,stim\gray.png,stim\gray.png,down,,,,,,,,,,,,,0,1,1,9,0,16,16,16,,,,,,,,,,,,,,,,,,,,,,,,,,,,,,,,,,,,,,,,,,,,,,,,,,,,,,,,left,0,0.38021229999139905,298.28412509988993,None,298.28412509988993,None,298.28412509988993,299.2855513000395,298.28412509988993,299.2855513000395,298.28412509988993,299.2855513000395,298.28412509988993,299.2855513000395,298.28412509988993,298.7845057998784,298.28412509988993,298.7845057998784,298.28412509988993,298.7845057998784,298.28412509988993,298.7845057998784,298.28412509988993,None,,,,,11028,001,2024_Jan_10_1437,nback,2021.2.3,60.04293067283072,
2-back,instructions\back-2.png,conditions\23back-e.xlsx,,,experiment,2,1,stim\yellow.png,stim\gray.png,stim\gray.png,stim\gray.png,right,,,,,,,,,,,,,0,1,1,9,0,17,17,17,,,,,,,,,,,,,,,,,,,,,,,,,,,,,,,,,,,,,,,,,,,,,,,,,,,,,,,,left,0,0.8940159999765456,299.78635740000755,None,299.78635740000755,None,299.78635740000755,300.7887216000818,299.78635740000755,300.7887216000818,299.78635740000755,300.7887216000818,299.78635740000755,300.7887216000818,299.78635740000755,300.28678369987756,299.78635740000755,300.28678369987756,299.78635740000755,300.28678369987756,299.78635740000755,300.28678369987756,299.78635740000755,None,,,,,11028,001,2024_Jan_10_1437,nback,2021.2.3,60.04293067283072,
2-back,instructions\back-2.png,conditions\23back-e.xlsx,,,experiment,2,3,stim\gray.png,stim\gray.png,stim\yellow.png,stim\gray.png,left,,,,,,,,,,,,,0,1,1,9,0,18,18,18,,,,,,,,,,,,,,,,,,,,,,,,,,,,,,,,,,,,,,,,,,,,,,,,,,,,,,,,up,0,1.0484822001308203,301.2881676000543,None,301.2881676000543,None,301.2881676000543,302.29013399989344,301.2881676000543,302.29013399989344,301.2881676000543,302.29013399989344,301.2881676000543,302.29013399989344,301.2881676000543,301.7891156000551,301.2881676000543,301.7891156000551,301.2881676000543,301.7891156000551,301.2881676000543,301.7891156000551,301.2881676000543,None,,,,,11028,001,2024_Jan_10_1437,nback,2021.2.3,60.04293067283072,
2-back,instructions\back-2.png,conditions\23back-e.xlsx,,,experiment,2,1,stim\yellow.png,stim\gray.png,stim\gray.png,stim\gray.png,up,,,,,,,,,,,,,0,1,1,9,0,19,19,19,,,,,,,,,,,,,,,,,,,,,,,,,,,,,,,,,,,,,,,,,,,,,,,,,,,,,,,,right,0,1.0341659998521209,302.79043469997123,None,302.79043469997123,None,302.79043469997123,303.79225809988566,302.79043469997123,303.79225809988566,302.79043469997123,303.79225809988566,302.79043469997123,303.79225809988566,302.79043469997123,303.291274700081,302.79043469997123,303.291274700081,302.79043469997123,303.291274700081,302.79043469997123,303.291274700081,302.79043469997123,None,,,,,11028,001,2024_Jan_10_1437,nback,2021.2.3,60.04293067283072,
2-back,instructions\back-2.png,conditions\23back-e.xlsx,,,,,,,,,,,,,,,,,,,,,,,0,1,1,9,,,,,,,,,,,,,,,,,,,,,,,,,,,,,,,,,,,,,,,,,,,,,,,,,,,,,,,,,,,,,,,,,,,,,,,,,,,,,,,,,,,,,304.2760813999921,None,,,11028,001,2024_Jan_10_1437,nback,2021.2.3,60.04293067283072,
1-back,instructions\back-1.png,conditions\11back-e.xlsx,,,experiment,1,3,stim\gray.png,stim\gray.png,stim\yellow.png,stim\gray.png,None,,,,,,,,,,,,,0,2,2,5,0,0,0,0,,,,,,,,,,,,,,,305.4276441000402,309.93594940006733,309.88634299999103,None,,,,,,,,,,,,,,,,,,,,,,,,,,,,,,,,,,,,,,None,1,,310.3034560000524,None,310.3034560000524,None,310.3034560000524,311.30331170000136,310.3034560000524,311.30331170000136,310.3034560000524,311.30331170000136,310.3034560000524,311.30331170000136,310.3034560000524,310.81929140002467,310.3034560000524,310.81929140002467,310.3034560000524,310.81929140002467,310.3034560000524,310.81929140002467,310.3034560000524,None,,,,,11028,001,2024_Jan_10_1437,nback,2021.2.3,60.04293067283072,
1-back,instructions\back-1.png,conditions\11back-e.xlsx,,,experiment,1,1,stim\yellow.png,stim\gray.png,stim\gray.png,stim\gray.png,right,,,,,,,,,,,,,0,2,2,5,0,1,1,1,,,,,,,,,,,,,,,,,,,,,,,,,,,,,,,,,,,,,,,,,,,,,,,,,,,,,,,,up,0,0.6454583001323044,311.78727219998837,None,311.78727219998837,None,311.78727219998837,312.78865200001746,311.78727219998837,312.78865200001746,311.78727219998837,312.78865200001746,311.78727219998837,312.78865200001746,311.78727219998837,312.28780080005527,311.78727219998837,312.28780080005527,311.78727219998837,312.28780080005527,311.78727219998837,312.28780080005527,311.78727219998837,None,,,,,11028,001,2024_Jan_10_1437,nback,2021.2.3,60.04293067283072,
1-back,instructions\back-1.png,conditions\11back-e.xlsx,,,experiment,1,4,stim\gray.png,stim\gray.png,stim\gray.png,stim\yellow.png,up,,,,,,,,,,,,,0,2,2,5,0,2,2,2,,,,,,,,,,,,,,,,,,,,,,,,,,,,,,,,,,,,,,,,,,,,,,,,,,,,,,,,up,1,1.2067655001301318,313.2896000999026,None,313.2896000999026,None,313.2896000999026,314.2915809999686,313.2896000999026,314.2915809999686,313.2896000999026,314.2915809999686,313.2896000999026,314.2915809999686,313.2896000999026,313.7911751999054,313.2896000999026,313.7911751999054,313.2896000999026,313.7911751999054,313.2896000999026,313.7911751999054,313.2896000999026,None,,,,,11028,001,2024_Jan_10_1437,nback,2021.2.3,60.04293067283072,
1-back,instructions\back-1.png,conditions\11back-e.xlsx,,,experiment,1,2,stim\gray.png,stim\yellow.png,stim\gray.png,stim\gray.png,down,,,,,,,,,,,,,0,2,2,5,0,3,3,3,,,,,,,,,,,,,,,,,,,,,,,,,,,,,,,,,,,,,,,,,,,,,,,,,,,,,,,,down,1,0.6653448001015931,314.79163670004345,None,314.79163670004345,None,314.79163670004345,315.7939311999362,314.79163670004345,315.7939311999362,314.79163670004345,315.7939311999362,314.79163670004345,315.7939311999362,314.79163670004345,315.29263520007953,314.79163670004345,315.29263520007953,314.79163670004345,315.29263520007953,314.79163670004345,315.29263520007953,314.79163670004345,None,,,,,11028,001,2024_Jan_10_1437,nback,2021.2.3,60.04293067283072,
1-back,instructions\back-1.png,conditions\11back-e.xlsx,,,experiment,1,1,stim\yellow.png,stim\gray.png,stim\gray.png,stim\gray.png,left,,,,,,,,,,,,,0,2,2,5,0,4,4,4,,,,,,,,,,,,,,,,,,,,,,,,,,,,,,,,,,,,,,,,,,,,,,,,,,,,,,,,left,1,0.33926580008119345,316.27729890006594,None,316.27729890006594,None,316.27729890006594,317.2785650999285,316.27729890006594,317.2785650999285,316.27729890006594,317.2785650999285,316.27729890006594,317.2785650999285,316.27729890006594,316.7784363999963,316.27729890006594,316.7784363999963,316.27729890006594,316.7784363999963,316.27729890006594,316.7784363999963,316.27729890006594,None,,,,,11028,001,2024_Jan_10_1437,nback,2021.2.3,60.04293067283072,
1-back,instructions\back-1.png,conditions\11back-e.xlsx,,,experiment,1,2,stim\gray.png,stim\yellow.png,stim\gray.png,stim\gray.png,up,,,,,,,,,,,,,0,2,2,5,0,5,5,5,,,,,,,,,,,,,,,,,,,,,,,,,,,,,,,,,,,,,,,,,,,,,,,,,,,,,,,,up,1,0.3501162000466138,317.77916250005364,None,317.77916250005364,None,317.77916250005364,318.78084339993075,317.77916250005364,318.78084339993075,317.77916250005364,318.78084339993075,317.77916250005364,318.78084339993075,317.77916250005364,318.2801659000106,317.77916250005364,318.2801659000106,317.77916250005364,318.2801659000106,317.77916250005364,318.2801659000106,317.77916250005364,None,,,,,11028,001,2024_Jan_10_1437,nback,2021.2.3,60.04293067283072,
1-back,instructions\back-1.png,conditions\11back-e.xlsx,,,experiment,1,3,stim\gray.png,stim\gray.png,stim\yellow.png,stim\gray.png,left,,,,,,,,,,,,,0,2,2,5,0,6,6,6,,,,,,,,,,,,,,,,,,,,,,,,,,,,,,,,,,,,,,,,,,,,,,,,,,,,,,,,left,1,0.31072069983929396,319.2816625998821,None,319.2816625998821,None,319.2816625998821,320.28366139996797,319.2816625998821,320.28366139996797,319.2816625998821,320.28366139996797,319.2816625998821,320.28366139996797,319.2816625998821,319.78243839996867,319.2816625998821,319.78243839996867,319.2816625998821,319.78243839996867,319.2816625998821,319.78243839996867,319.2816625998821,None,,,,,11028,001,2024_Jan_10_1437,nback,2021.2.3,60.04293067283072,
1-back,instructions\back-1.png,conditions\11back-e.xlsx,,,experiment,1,4,stim\gray.png,stim\gray.png,stim\gray.png,stim\yellow.png,right,,,,,,,,,,,,,0,2,2,5,0,7,7,7,,,,,,,,,,,,,,,,,,,,,,,,,,,,,,,,,,,,,,,,,,,,,,,,,,,,,,,,right,1,0.12041039997711778,320.78388160001487,None,320.78388160001487,None,320.78388160001487,321.7856175999623,320.78388160001487,321.7856175999623,320.78388160001487,321.7856175999623,320.78388160001487,321.7856175999623,320.78388160001487,321.2852010000497,320.78388160001487,321.2852010000497,320.78388160001487,321.2852010000497,320.78388160001487,321.2852010000497,320.78388160001487,None,,,,,11028,001,2024_Jan_10_1437,nback,2021.2.3,60.04293067283072,
1-back,instructions\back-1.png,conditions\11back-e.xlsx,,,experiment,1,4,stim\gray.png,stim\gray.png,stim\gray.png,stim\yellow.png,down,,,,,,,,,,,,,0,2,2,5,0,8,8,8,,,,,,,,,,,,,,,,,,,,,,,,,,,,,,,,,,,,,,,,,,,,,,,,,,,,,,,,down,1,0.23449519998393953,322.2859722999856,None,322.2859722999856,None,322.2859722999856,323.28829799988307,322.2859722999856,323.28829799988307,322.2859722999856,323.28829799988307,322.2859722999856,323.28829799988307,322.2859722999856,322.7867038999684,322.2859722999856,322.7867038999684,322.2859722999856,322.7867038999684,322.2859722999856,322.7867038999684,322.2859722999856,None,,,,,11028,001,2024_Jan_10_1437,nback,2021.2.3,60.04293067283072,
1-back,instructions\back-1.png,conditions\11back-e.xlsx,,,experiment,1,3,stim\gray.png,stim\gray.png,stim\yellow.png,stim\gray.png,down,,,,,,,,,,,,,0,2,2,5,0,9,9,9,,,,,,,,,,,,,,,,,,,,,,,,,,,,,,,,,,,,,,,,,,,,,,,,,,,,,,,,down,1,0.3244692999869585,323.7882387000136,None,323.7882387000136,None,323.7882387000136,324.7896680000704,323.7882387000136,324.7896680000704,323.7882387000136,324.7896680000704,323.7882387000136,324.7896680000704,323.7882387000136,324.28944760002196,323.7882387000136,324.28944760002196,323.7882387000136,324.28944760002196,323.7882387000136,324.28944760002196,323.7882387000136,None,,,,,11028,001,2024_Jan_10_1437,nback,2021.2.3,60.04293067283072,
1-back,instructions\back-1.png,conditions\11back-e.xlsx,,,experiment,1,1,stim\yellow.png,stim\gray.png,stim\gray.png,stim\gray.png,right,,,,,,,,,,,,,0,2,2,5,0,10,10,10,,,,,,,,,,,,,,,,,,,,,,,,,,,,,,,,,,,,,,,,,,,,,,,,,,,,,,,,right,1,0.3901387001387775,325.29039949993603,None,325.29039949993603,None,325.29039949993603,326.29191399994306,325.29039949993603,326.29191399994306,325.29039949993603,326.29191399994306,325.29039949993603,326.29191399994306,325.29039949993603,325.7913124000188,325.29039949993603,325.7913124000188,325.29039949993603,325.7913124000188,325.29039949993603,325.7913124000188,325.29039949993603,None,,,,,11028,001,2024_Jan_10_1437,nback,2021.2.3,60.04293067283072,
1-back,instructions\back-1.png,conditions\11back-e.xlsx,,,experiment,1,2,stim\gray.png,stim\yellow.png,stim\gray.png,stim\gray.png,up,,,,,,,,,,,,,0,2,2,5,0,11,11,11,,,,,,,,,,,,,,,,,,,,,,,,,,,,,,,,,,,,,,,,,,,,,,,,,,,,,,,,up,1,0.3522528000175953,326.7761037000455,None,326.7761037000455,None,326.7761037000455,327.77762819989584,326.7761037000455,327.77762819989584,326.7761037000455,327.77762819989584,326.7761037000455,327.77762819989584,326.7761037000455,327.27732270001434,326.7761037000455,327.27732270001434,326.7761037000455,327.27732270001434,326.7761037000455,327.27732270001434,326.7761037000455,None,,,,,11028,001,2024_Jan_10_1437,nback,2021.2.3,60.04293067283072,
1-back,instructions\back-1.png,conditions\11back-e.xlsx,,,experiment,1,3,stim\gray.png,stim\gray.png,stim\yellow.png,stim\gray.png,left,,,,,,,,,,,,,0,2,2,5,0,12,12,12,,,,,,,,,,,,,,,,,,,,,,,,,,,,,,,,,,,,,,,,,,,,,,,,,,,,,,,,right,0,0.4020440001040697,328.27834099996835,None,328.27834099996835,None,328.27834099996835,329.2797127000522,328.27834099996835,329.2797127000522,328.27834099996835,329.2797127000522,328.27834099996835,329.2797127000522,328.27834099996835,328.7801411000546,328.27834099996835,328.7801411000546,328.27834099996835,328.7801411000546,328.27834099996835,328.7801411000546,328.27834099996835,None,,,,,11028,001,2024_Jan_10_1437,nback,2021.2.3,60.04293067283072,
1-back,instructions\back-1.png,conditions\11back-e.xlsx,,,experiment,1,4,stim\gray.png,stim\gray.png,stim\gray.png,stim\yellow.png,right,,,,,,,,,,,,,0,2,2,5,0,13,13,13,,,,,,,,,,,,,,,,,,,,,,,,,,,,,,,,,,,,,,,,,,,,,,,,,,,,,,,,right,1,0.21971859992481768,329.78056890005246,None,329.78056890005246,None,329.78056890005246,330.78204259998165,329.78056890005246,330.78204259998165,329.78056890005246,330.78204259998165,329.78056890005246,330.78204259998165,329.78056890005246,330.28124550008215,329.78056890005246,330.28124550008215,329.78056890005246,330.28124550008215,329.78056890005246,330.28124550008215,329.78056890005246,None,,,,,11028,001,2024_Jan_10_1437,nback,2021.2.3,60.04293067283072,
1-back,instructions\back-1.png,conditions\11back-e.xlsx,,,experiment,1,1,stim\yellow.png,stim\gray.png,stim\gray.png,stim\gray.png,down,,,,,,,,,,,,,0,2,2,5,0,14,14,14,,,,,,,,,,,,,,,,,,,,,,,,,,,,,,,,,,,,,,,,,,,,,,,,,,,,,,,,down,1,0.053470300044864416,331.2829555000644,None,331.2829555000644,None,331.2829555000644,332.28465779987164,331.2829555000644,332.28465779987164,331.2829555000644,332.28465779987164,331.2829555000644,332.28465779987164,331.2829555000644,331.7839546999894,331.2829555000644,331.7839546999894,331.2829555000644,331.7839546999894,331.2829555000644,331.7839546999894,331.2829555000644,None,,,,,11028,001,2024_Jan_10_1437,nback,2021.2.3,60.04293067283072,
1-back,instructions\back-1.png,conditions\11back-e.xlsx,,,experiment,1,2,stim\gray.png,stim\yellow.png,stim\gray.png,stim\gray.png,up,,,,,,,,,,,,,0,2,2,5,0,15,15,15,,,,,,,,,,,,,,,,,,,,,,,,,,,,,,,,,,,,,,,,,,,,,,,,,,,,,,,,up,1,0.2067821000237018,332.7857957999222,None,332.7857957999222,None,332.7857957999222,333.78634079988115,332.7857957999222,333.78634079988115,332.7857957999222,333.78634079988115,332.7857957999222,333.78634079988115,332.7857957999222,333.2856642000843,332.7857957999222,333.2856642000843,332.7857957999222,333.2856642000843,332.7857957999222,333.2856642000843,332.7857957999222,None,,,,,11028,001,2024_Jan_10_1437,nback,2021.2.3,60.04293067283072,
1-back,instructions\back-1.png,conditions\11back-e.xlsx,,,experiment,1,2,stim\gray.png,stim\yellow.png,stim\gray.png,stim\gray.png,left,,,,,,,,,,,,,0,2,2,5,0,16,16,16,,,,,,,,,,,,,,,,,,,,,,,,,,,,,,,,,,,,,,,,,,,,,,,,,,,,,,,,left,1,0.3216824000701308,334.2871218000073,None,334.2871218000073,None,334.2871218000073,335.28863049997017,334.2871218000073,335.28863049997017,334.2871218000073,335.28863049997017,334.2871218000073,335.28863049997017,334.2871218000073,334.7884706999175,334.2871218000073,334.7884706999175,334.2871218000073,334.7884706999175,334.2871218000073,334.7884706999175,334.2871218000073,None,,,,,11028,001,2024_Jan_10_1437,nback,2021.2.3,60.04293067283072,
1-back,instructions\back-1.png,conditions\11back-e.xlsx,,,experiment,1,1,stim\yellow.png,stim\gray.png,stim\gray.png,stim\gray.png,left,,,,,,,,,,,,,0,2,2,5,0,17,17,17,,,,,,,,,,,,,,,,,,,,,,,,,,,,,,,,,,,,,,,,,,,,,,,,,,,,,,,,up,0,0.3872802001424134,335.78924679988995,None,335.78924679988995,None,335.78924679988995,336.79087859997526,335.78924679988995,336.79087859997526,335.78924679988995,336.79087859997526,335.78924679988995,336.79087859997526,335.78924679988995,336.2902688998729,335.78924679988995,336.2902688998729,335.78924679988995,336.2902688998729,335.78924679988995,336.2902688998729,335.78924679988995,None,,,,,11028,001,2024_Jan_10_1437,nback,2021.2.3,60.04293067283072,
1-back,instructions\back-1.png,conditions\11back-e.xlsx,,,experiment,1,4,stim\gray.png,stim\gray.png,stim\gray.png,stim\yellow.png,up,,,,,,,,,,,,,0,2,2,5,0,18,18,18,,,,,,,,,,,,,,,,,,,,,,,,,,,,,,,,,,,,,,,,,,,,,,,,,,,,,,,,down,0,0.6050529000349343,337.29152749991044,None,337.29152749991044,None,337.29152749991044,338.2935190999415,337.29152749991044,338.2935190999415,337.29152749991044,338.2935190999415,337.29152749991044,338.2935190999415,337.29152749991044,337.79305889992975,337.29152749991044,337.79305889992975,337.29152749991044,337.79305889992975,337.29152749991044,337.79305889992975,337.29152749991044,None,,,,,11028,001,2024_Jan_10_1437,nback,2021.2.3,60.04293067283072,
1-back,instructions\back-1.png,conditions\11back-e.xlsx,,,experiment,1,3,stim\gray.png,stim\gray.png,stim\yellow.png,stim\gray.png,down,,,,,,,,,,,,,0,2,2,5,0,19,19,19,,,,,,,,,,,,,,,,,,,,,,,,,,,,,,,,,,,,,,,,,,,,,,,,,,,,,,,,down,1,1.1273667998611927,338.777094299905,None,338.777094299905,None,338.777094299905,339.7788088999223,338.777094299905,339.7788088999223,338.777094299905,339.7788088999223,338.777094299905,339.7788088999223,338.777094299905,339.27780780009925,338.777094299905,339.27780780009925,338.777094299905,339.27780780009925,338.777094299905,339.27780780009925,338.777094299905,None,,,,,11028,001,2024_Jan_10_1437,nback,2021.2.3,60.04293067283072,
1-back,instructions\back-1.png,conditions\11back-e.xlsx,,,,,,,,,,,,,,,,,,,,,,,0,2,2,5,,,,,,,,,,,,,,,,,,,,,,,,,,,,,,,,,,,,,,,,,,,,,,,,,,,,,,,,,,,,,,,,,,,,,,,,,,,,,,,,,,,,,340.2795414000284,None,,,11028,001,2024_Jan_10_1437,nback,2021.2.3,60.04293067283072,
2-back,instructions\back-2.png,conditions\21back-e.xlsx,,,experiment,2,3,stim\gray.png,stim\gray.png,stim\yellow.png,stim\gray.png,None,,,,,,,,,,,,,0,3,3,3,0,0,0,0,,,,,,,,,,,,,,,341.44787280005403,345.95616389997303,345.90453559998423,None,,,,,,,,,,,,,,,,,,,,,,,,,,,,,,,,,,,,,,None,1,,346.30542439990677,None,346.30542439990677,None,346.30542439990677,347.3071439000778,346.30542439990677,347.3071439000778,346.30542439990677,347.3071439000778,346.30542439990677,347.3071439000778,346.30542439990677,346.8066741998773,346.30542439990677,346.8066741998773,346.30542439990677,346.8066741998773,346.30542439990677,346.8066741998773,346.30542439990677,None,,,,,11028,001,2024_Jan_10_1437,nback,2021.2.3,60.04293067283072,
2-back,instructions\back-2.png,conditions\21back-e.xlsx,,,experiment,2,4,stim\gray.png,stim\gray.png,stim\gray.png,stim\yellow.png,None,,,,,,,,,,,,,0,3,3,3,0,1,1,1,,,,,,,,,,,,,,,,,,,,,,,,,,,,,,,,,,,,,,,,,,,,,,,,,,,,,,,,None,1,,347.79046340007335,None,347.79046340007335,None,347.79046340007335,348.7926914000418,347.79046340007335,348.7926914000418,347.79046340007335,348.7926914000418,347.79046340007335,348.7926914000418,347.79046340007335,348.29149360000156,347.79046340007335,348.29149360000156,347.79046340007335,348.29149360000156,347.79046340007335,348.29149360000156,347.79046340007335,None,,,,,11028,001,2024_Jan_10_1437,nback,2021.2.3,60.04293067283072,
2-back,instructions\back-2.png,conditions\21back-e.xlsx,,,experiment,2,1,stim\yellow.png,stim\gray.png,stim\gray.png,stim\gray.png,right,,,,,,,,,,,,,0,3,3,3,0,2,2,2,,,,,,,,,,,,,,,,,,,,,,,,,,,,,,,,,,,,,,,,,,,,,,,,,,,,,,,,up,0,0.5564986998215318,349.27600679988973,None,349.27600679988973,None,349.27600679988973,350.2783818000462,349.27600679988973,350.2783818000462,349.27600679988973,350.2783818000462,349.27600679988973,350.2783818000462,349.27600679988973,349.7766923001036,349.27600679988973,349.7766923001036,349.27600679988973,349.7766923001036,349.27600679988973,349.7766923001036,349.27600679988973,None,,,,,11028,001,2024_Jan_10_1437,nback,2021.2.3,60.04293067283072,
2-back,instructions\back-2.png,conditions\21back-e.xlsx,,,experiment,2,2,stim\gray.png,stim\yellow.png,stim\gray.png,stim\gray.png,down,,,,,,,,,,,,,0,3,3,3,0,3,3,3,,,,,,,,,,,,,,,,,,,,,,,,,,,,,,,,,,,,,,,,,,,,,,,,,,,,,,,,down,1,0.6538627999834716,350.77851719991304,None,350.77851719991304,None,350.77851719991304,351.77995339990593,350.77851719991304,351.77995339990593,350.77851719991304,351.77995339990593,350.77851719991304,351.77995339990593,350.77851719991304,351.2789509999566,350.77851719991304,351.2789509999566,350.77851719991304,351.2789509999566,350.77851719991304,351.2789509999566,350.77851719991304,None,,,,,11028,001,2024_Jan_10_1437,nback,2021.2.3,60.04293067283072,
2-back,instructions\back-2.png,conditions\21back-e.xlsx,,,experiment,2,1,stim\yellow.png,stim\gray.png,stim\gray.png,stim\gray.png,up,,,,,,,,,,,,,0,3,3,3,0,4,4,4,,,,,,,,,,,,,,,,,,,,,,,,,,,,,,,,,,,,,,,,,,,,,,,,,,,,,,,,up,1,0.3519092998467386,352.2803917999845,None,352.2803917999845,None,352.2803917999845,353.28247159998864,352.2803917999845,353.28247159998864,352.2803917999845,353.28247159998864,352.2803917999845,353.28247159998864,352.2803917999845,352.7821674000006,352.2803917999845,352.7821674000006,352.2803917999845,352.7821674000006,352.2803917999845,352.7821674000006,352.2803917999845,None,,,,,11028,001,2024_Jan_10_1437,nback,2021.2.3,60.04293067283072,
2-back,instructions\back-2.png,conditions\21back-e.xlsx,,,experiment,2,2,stim\gray.png,stim\yellow.png,stim\gray.png,stim\gray.png,left,,,,,,,,,,,,,0,3,3,3,0,5,5,5,,,,,,,,,,,,,,,,,,,,,,,,,,,,,,,,,,,,,,,,,,,,,,,,,,,,,,,,left,1,0.3057239002082497,353.78289299993776,None,353.78289299993776,None,353.78289299993776,354.78460319992155,353.78289299993776,354.78460319992155,353.78289299993776,354.78460319992155,353.78289299993776,354.78460319992155,353.78289299993776,354.2838369999081,353.78289299993776,354.2838369999081,353.78289299993776,354.2838369999081,353.78289299993776,354.2838369999081,353.78289299993776,None,,,,,11028,001,2024_Jan_10_1437,nback,2021.2.3,60.04293067283072,
2-back,instructions\back-2.png,conditions\21back-e.xlsx,,,experiment,2,3,stim\gray.png,stim\gray.png,stim\yellow.png,stim\gray.png,up,,,,,,,,,,,,,0,3,3,3,0,6,6,6,,,,,,,,,,,,,,,,,,,,,,,,,,,,,,,,,,,,,,,,,,,,,,,,,,,,,,,,up,1,0.19543149997480214,355.2849526000209,None,355.2849526000209,None,355.2849526000209,356.28727269987576,355.2849526000209,356.28727269987576,355.2849526000209,356.28727269987576,355.2849526000209,356.28727269987576,355.2849526000209,355.7863290000241,355.2849526000209,355.7863290000241,355.2849526000209,355.7863290000241,355.2849526000209,355.7863290000241,355.2849526000209,None,,,,,11028,001,2024_Jan_10_1437,nback,2021.2.3,60.04293067283072,
2-back,instructions\back-2.png,conditions\21back-e.xlsx,,,experiment,2,4,stim\gray.png,stim\gray.png,stim\gray.png,stim\yellow.png,left,,,,,,,,,,,,,0,3,3,3,0,7,7,7,,,,,,,,,,,,,,,,,,,,,,,,,,,,,,,,,,,,,,,,,,,,,,,,,,,,,,,,left,1,0.34121509990654886,356.7871399000287,None,356.7871399000287,None,356.7871399000287,357.78883259999566,356.7871399000287,357.78883259999566,356.7871399000287,357.78883259999566,356.7871399000287,357.78883259999566,356.7871399000287,357.2880977001041,356.7871399000287,357.2880977001041,356.7871399000287,357.2880977001041,356.7871399000287,357.2880977001041,356.7871399000287,None,,,,,11028,001,2024_Jan_10_1437,nback,2021.2.3,60.04293067283072,
2-back,instructions\back-2.png,conditions\21back-e.xlsx,,,experiment,2,3,stim\gray.png,stim\gray.png,stim\yellow.png,stim\gray.png,right,,,,,,,,,,,,,0,3,3,3,0,8,8,8,,,,,,,,,,,,,,,,,,,,,,,,,,,,,,,,,,,,,,,,,,,,,,,,,,,,,,,,right,1,0.3190754000097513,358.28939360007644,None,358.28939360007644,None,358.28939360007644,359.2911060999613,358.28939360007644,359.2911060999613,358.28939360007644,359.2911060999613,358.28939360007644,359.2911060999613,358.28939360007644,358.79100509989075,358.28939360007644,358.79100509989075,358.28939360007644,358.79100509989075,358.28939360007644,358.79100509989075,358.28939360007644,None,,,,,11028,001,2024_Jan_10_1437,nback,2021.2.3,60.04293067283072,
2-back,instructions\back-2.png,conditions\21back-e.xlsx,,,experiment,2,1,stim\yellow.png,stim\gray.png,stim\gray.png,stim\gray.png,down,,,,,,,,,,,,,0,3,3,3,0,9,9,9,,,,,,,,,,,,,,,,,,,,,,,,,,,,,,,,,,,,,,,,,,,,,,,,,,,,,,,,down,1,0.2569756000302732,359.7914704999421,None,359.7914704999421,None,359.7914704999421,360.79310030001216,359.7914704999421,360.79310030001216,359.7914704999421,360.79310030001216,359.7914704999421,360.79310030001216,359.7914704999421,360.2924204999581,359.7914704999421,360.2924204999581,359.7914704999421,360.2924204999581,359.7914704999421,360.2924204999581,359.7914704999421,None,,,,,11028,001,2024_Jan_10_1437,nback,2021.2.3,60.04293067283072,
2-back,instructions\back-2.png,conditions\21back-e.xlsx,,,experiment,2,4,stim\gray.png,stim\gray.png,stim\gray.png,stim\yellow.png,right,,,,,,,,,,,,,0,3,3,3,0,10,10,10,,,,,,,,,,,,,,,,,,,,,,,,,,,,,,,,,,,,,,,,,,,,,,,,,,,,,,,,down,0,1.4513027002103627,361.27735759993084,None,361.27735759993084,None,361.27735759993084,362.27865529991686,361.27735759993084,362.27865529991686,361.27735759993084,362.27865529991686,361.27735759993084,362.27865529991686,361.27735759993084,361.7786284000613,361.27735759993084,361.7786284000613,361.27735759993084,361.7786284000613,361.27735759993084,361.7786284000613,361.27735759993084,None,,,,,11028,001,2024_Jan_10_1437,nback,2021.2.3,60.04293067283072,
2-back,instructions\back-2.png,conditions\21back-e.xlsx,,,experiment,2,2,stim\gray.png,stim\yellow.png,stim\gray.png,stim\gray.png,up,,,,,,,,,,,,,0,3,3,3,0,11,11,11,,,,,,,,,,,,,,,,,,,,,,,,,,,,,,,,,,,,,,,,,,,,,,,,,,,,,,,,up,1,1.20514090009965,362.77927679987624,None,362.77927679987624,None,362.77927679987624,363.781405699905,362.77927679987624,363.781405699905,362.77927679987624,363.781405699905,362.77927679987624,363.781405699905,362.77927679987624,363.28025609999895,362.77927679987624,363.28025609999895,362.77927679987624,363.28025609999895,362.77927679987624,363.28025609999895,362.77927679987624,None,,,,,11028,001,2024_Jan_10_1437,nback,2021.2.3,60.04293067283072,
2-back,instructions\back-2.png,conditions\21back-e.xlsx,,,experiment,2,4,stim\gray.png,stim\gray.png,stim\gray.png,stim\yellow.png,down,,,,,,,,,,,,,0,3,3,3,0,12,12,12,,,,,,,,,,,,,,,,,,,,,,,,,,,,,,,,,,,,,,,,,,,,,,,,,,,,,,,,None,0,,364.2815749999136,None,364.2815749999136,None,364.2815749999136,365.2841618999373,364.2815749999136,365.2841618999373,364.2815749999136,365.2841618999373,364.2815749999136,365.2841618999373,364.2815749999136,364.78241179999895,364.2815749999136,364.78241179999895,364.2815749999136,364.78241179999895,364.2815749999136,364.78241179999895,364.2815749999136,None,,,,,11028,001,2024_Jan_10_1437,nback,2021.2.3,60.04293067283072,
2-back,instructions\back-2.png,conditions\21back-e.xlsx,,,experiment,2,3,stim\gray.png,stim\gray.png,stim\yellow.png,stim\gray.png,left,,,,,,,,,,,,,0,3,3,3,0,13,13,13,,,,,,,,,,,,,,,,,,,,,,,,,,,,,,,,,,,,,,,,,,,,,,,,,,,,,,,,left,1,1.4245160999707878,365.7838816998992,None,365.7838816998992,None,365.7838816998992,366.785239999881,365.7838816998992,366.785239999881,365.7838816998992,366.785239999881,365.7838816998992,366.785239999881,365.7838816998992,366.28459420008585,365.7838816998992,366.28459420008585,365.7838816998992,366.28459420008585,365.7838816998992,366.28459420008585,365.7838816998992,None,,,,,11028,001,2024_Jan_10_1437,nback,2021.2.3,60.04293067283072,
2-back,instructions\back-2.png,conditions\21back-e.xlsx,,,experiment,2,1,stim\yellow.png,stim\gray.png,stim\gray.png,stim\gray.png,down,,,,,,,,,,,,,0,3,3,3,0,14,14,14,,,,,,,,,,,,,,,,,,,,,,,,,,,,,,,,,,,,,,,,,,,,,,,,,,,,,,,,None,0,,367.28658690000884,None,367.28658690000884,None,367.28658690000884,368.28779720002785,367.28658690000884,368.28779720002785,367.28658690000884,368.28779720002785,367.28658690000884,368.28779720002785,367.28658690000884,367.7868717999663,367.28658690000884,367.7868717999663,367.28658690000884,367.7868717999663,367.28658690000884,367.7868717999663,367.28658690000884,None,,,,,11028,001,2024_Jan_10_1437,nback,2021.2.3,60.04293067283072,
2-back,instructions\back-2.png,conditions\21back-e.xlsx,,,experiment,2,2,stim\gray.png,stim\yellow.png,stim\gray.png,stim\gray.png,right,,,,,,,,,,,,,0,3,3,3,0,15,15,15,,,,,,,,,,,,,,,,,,,,,,,,,,,,,,,,,,,,,,,,,,,,,,,,,,,,,,,,right,1,0.32439880003221333,368.788077800069,None,368.788077800069,None,368.788077800069,369.78981680003926,368.788077800069,369.78981680003926,368.788077800069,369.78981680003926,368.788077800069,369.78981680003926,368.788077800069,369.2890683999285,368.788077800069,369.2890683999285,368.788077800069,369.2890683999285,368.788077800069,369.2890683999285,368.788077800069,None,,,,,11028,001,2024_Jan_10_1437,nback,2021.2.3,60.04293067283072,
2-back,instructions\back-2.png,conditions\21back-e.xlsx,,,experiment,2,2,stim\gray.png,stim\yellow.png,stim\gray.png,stim\gray.png,up,,,,,,,,,,,,,0,3,3,3,0,16,16,16,,,,,,,,,,,,,,,,,,,,,,,,,,,,,,,,,,,,,,,,,,,,,,,,,,,,,,,,up,1,0.14222399983555079,370.2903601001017,None,370.2903601001017,None,370.2903601001017,371.29261570004746,370.2903601001017,371.29261570004746,370.2903601001017,371.29261570004746,370.2903601001017,371.29261570004746,370.2903601001017,370.7914934998844,370.2903601001017,370.7914934998844,370.2903601001017,370.7914934998844,370.2903601001017,370.7914934998844,370.2903601001017,None,,,,,11028,001,2024_Jan_10_1437,nback,2021.2.3,60.04293067283072,
2-back,instructions\back-2.png,conditions\21back-e.xlsx,,,experiment,2,1,stim\yellow.png,stim\gray.png,stim\gray.png,stim\gray.png,left,,,,,,,,,,,,,0,3,3,3,0,17,17,17,,,,,,,,,,,,,,,,,,,,,,,,,,,,,,,,,,,,,,,,,,,,,,,,,,,,,,,,left,1,0.12971769995056093,371.77591080009006,None,371.77591080009006,None,371.77591080009006,372.7783619000111,371.77591080009006,372.7783619000111,371.77591080009006,372.7783619000111,371.77591080009006,372.7783619000111,371.77591080009006,372.27661599987186,371.77591080009006,372.27661599987186,371.77591080009006,372.27661599987186,371.77591080009006,372.27661599987186,371.77591080009006,None,,,,,11028,001,2024_Jan_10_1437,nback,2021.2.3,60.04293067283072,
