backseq,backinstr,backfile,instruction,size_in,Trialtype,back,number,P1,P2,P3,P4,corrAns,trials_practice.thisRepN,trials_practice.thisTrialN,trials_practice.thisN,trials_practice.thisIndex,trials.thisRepN,trials.thisTrialN,trials.thisN,trials.thisIndex,trials_3.thisRepN,trials_3.thisTrialN,trials_3.thisN,trials_3.thisIndex,trials_2.thisRepN,trials_2.thisTrialN,trials_2.thisN,trials_2.thisIndex,trials_4.thisRepN,trials_4.thisTrialN,trials_4.thisN,trials_4.thisIndex,image.started,image.stopped,image_2.started,image_2.stopped,key_resp.keys,key_resp.rt,key_resp.started,key_resp.stopped,image_3.started,image_3.stopped,key_resp_2.keys,key_resp_2.rt,key_resp_2.started,key_resp_2.stopped,image_4.started,image_4.stopped,text.started,text.stopped,H1.started,H1.stopped,H2.started,H2.stopped,H3.started,H3.stopped,H4.started,H4.stopped,key_resp_3.keys,key_resp_3.corr,key_resp_3.rt,key_resp_3.started,key_resp_3.stopped,text_4.started,text_4.stopped,F1.started,F1.stopped,F2.started,F2.stopped,F3.started,F3.stopped,F4.started,F4.stopped,image_7.started,image_7.stopped,text_5.started,text_5.stopped,key_resp_6.keys,key_resp_6.rt,key_resp_6.started,key_resp_6.stopped,image_5.started,image_5.stopped,key_resp_4.keys,key_resp_4.rt,key_resp_4.started,key_resp_4.stopped,key_resp_5.keys,key_resp_5.corr,key_resp_5.started,key_resp_5.stopped,text_3.started,text_3.stopped,H1_2.started,H1_2.stopped,H2_2.started,H2_2.stopped,H3_2.started,H3_2.stopped,H4_2.started,H4_2.stopped,F1_2.started,F1_2.stopped,F2_2.started,F2_2.stopped,F3_2.started,F3_2.stopped,F4_2.started,F4_2.stopped,image_8.started,image_8.stopped,key_resp_5.rt,text_2.started,text_2.stopped,image_6.started,image_6.stopped,participant,session,date,expName,psychopyVersion,frameRate,
,,,,,,,,,,,,,,,,,,,,,,,,,,,,,,,,,11.423099900013767,None,12.375498199951835,None,space,162.1655565999681,12.375498199951835,None,,,,,,,,,,,,,,,,,,,,,,,,,,,,,,,,,,,,,,,,,,,,,,,,,,,,,,,,,,,,,,,,,,,,,,,,,,,,,11022,001,2024_Jan_05_1430,nback,2021.2.3,60.00168004586376,
0-back,instructions\back-0.png,conditions\0back-p.xlsx,instructions\0-BACK.png,"(15, 8)",practice,0,1,stim\yellow.png,stim\gray.png,stim\gray.png,stim\gray.png,up,0,0,0,0,0,0,0,0,0,0,0,0,,,,,,,,,,,,,,,,,174.6158984999638,None,space,67.49294939998072,174.6158984999638,None,242.29921869991813,246.80645929998718,246.7563599999994,None,247.15735799993854,248.1580551000079,247.15735799993854,248.1580551000079,247.15735799993854,248.1580551000079,247.15735799993854,248.1580551000079,up,1,0.5914696000982076,247.15735799993854,None,247.15735799993854,None,247.15735799993854,247.65780759998597,247.15735799993854,247.65780759998597,247.15735799993854,247.65780759998597,247.15735799993854,247.65780759998597,247.15735799993854,None,,,,,,,,,,,,,,,,,,,,,,,,,,,,,,,,,,,,,,,,,,11022,001,2024_Jan_05_1430,nback,2021.2.3,60.00168004586376,
0-back,instructions\back-0.png,conditions\0back-p.xlsx,instructions\0-BACK.png,"(15, 8)",practice,0,2,stim\gray.png,stim\yellow.png,stim\gray.png,stim\gray.png,left,0,0,0,0,0,0,0,0,0,1,1,1,,,,,,,,,,,,,,,,,,,,,,,,,,,248.64157879992854,249.64387929998338,248.64157879992854,249.64387929998338,248.64157879992854,249.64387929998338,248.64157879992854,249.64387929998338,left,1,0.3791220000712201,248.64157879992854,None,248.64157879992854,None,248.64157879992854,249.14291589998174,248.64157879992854,249.14291589998174,248.64157879992854,249.14291589998174,248.64157879992854,249.14291589998174,248.64157879992854,None,,,,,,,,,,,,,,,,,,,,,,,,,,,,,,,,,,,,,,,,,,11022,001,2024_Jan_05_1430,nback,2021.2.3,60.00168004586376,
0-back,instructions\back-0.png,conditions\0back-p.xlsx,instructions\0-BACK.png,"(15, 8)",practice,0,3,stim\gray.png,stim\gray.png,stim\yellow.png,stim\gray.png,right,0,0,0,0,0,0,0,0,0,2,2,2,,,,,,,,,,,,,,,,,,,,,,,,,,,250.14426699990872,251.14588560000993,250.14426699990872,251.14588560000993,250.14426699990872,251.14588560000993,250.14426699990872,251.14588560000993,right,1,0.38053999992553145,250.14426699990872,None,250.14426699990872,None,250.14426699990872,250.64576579991262,250.14426699990872,250.64576579991262,250.14426699990872,250.64576579991262,250.14426699990872,250.64576579991262,250.14426699990872,None,,,,,,,,,,,,,,,,,,,,,,,,,,,,,,,,,,,,,,,,,,11022,001,2024_Jan_05_1430,nback,2021.2.3,60.00168004586376,
0-back,instructions\back-0.png,conditions\0back-p.xlsx,instructions\0-BACK.png,"(15, 8)",practice,0,4,stim\gray.png,stim\gray.png,stim\gray.png,stim\yellow.png,down,0,0,0,0,0,0,0,0,0,3,3,3,,,,,,,,,,,,,,,,,,,,,,,,,,,251.64663689990994,252.64887829998042,251.64663689990994,252.64887829998042,251.64663689990994,252.64887829998042,251.64663689990994,252.64887829998042,down,1,0.41412009997293353,251.64663689990994,None,251.64663689990994,None,251.64663689990994,252.14866209996399,251.64663689990994,252.14866209996399,251.64663689990994,252.14866209996399,251.64663689990994,252.14866209996399,251.64663689990994,None,,,,,,,,,,,,,,,,,,,,,,,,,,,,,,,,,,,,,,,,,,11022,001,2024_Jan_05_1430,nback,2021.2.3,60.00168004586376,
0-back,instructions\back-0.png,conditions\0back-p.xlsx,instructions\0-BACK.png,"(15, 8)",practice,0,2,stim\gray.png,stim\yellow.png,stim\gray.png,stim\gray.png,left,0,0,0,0,0,0,0,0,0,4,4,4,,,,,,,,,,,,,,,,,,,,,,,,,,,253.1491586000193,254.1512122999411,253.1491586000193,254.1512122999411,253.1491586000193,254.1512122999411,253.1491586000193,254.1512122999411,left,1,0.319612699910067,253.1491586000193,None,253.1491586000193,None,253.1491586000193,253.65013740002178,253.1491586000193,253.65013740002178,253.1491586000193,253.65013740002178,253.1491586000193,253.65013740002178,253.1491586000193,None,,,,,,,,,,,,,,,,,,,,,,,,,,,,,,,,,,,,,,,,,,11022,001,2024_Jan_05_1430,nback,2021.2.3,60.00168004586376,
0-back,instructions\back-0.png,conditions\0back-p.xlsx,instructions\0-BACK.png,"(15, 8)",practice,0,1,stim\yellow.png,stim\gray.png,stim\gray.png,stim\gray.png,up,0,0,0,0,0,0,0,0,0,5,5,5,,,,,,,,,,,,,,,,,,,,,,,,,,,254.65156099991873,255.65240929997526,254.65156099991873,255.65240929997526,254.65156099991873,255.65240929997526,254.65156099991873,255.65240929997526,up,1,0.3374963999958709,254.65156099991873,None,254.65156099991873,None,254.65156099991873,255.1522628000239,254.65156099991873,255.1522628000239,254.65156099991873,255.1522628000239,254.65156099991873,255.1522628000239,254.65156099991873,None,,,,,,,,,,,,,,,,,,,,,,,,,,,,,,,,,,,,,,,,,,11022,001,2024_Jan_05_1430,nback,2021.2.3,60.00168004586376,
0-back,instructions\back-0.png,conditions\0back-p.xlsx,instructions\0-BACK.png,"(15, 8)",practice,0,4,stim\gray.png,stim\gray.png,stim\gray.png,stim\yellow.png,down,0,0,0,0,0,0,0,0,0,6,6,6,,,,,,,,,,,,,,,,,,,,,,,,,,,256.13657560001593,257.13814059994183,256.13657560001593,257.13814059994183,256.13657560001593,257.13814059994183,256.13657560001593,257.13814059994183,down,1,0.8445901999948546,256.13657560001593,None,256.13657560001593,None,256.13657560001593,256.63809159991797,256.13657560001593,256.63809159991797,256.13657560001593,256.63809159991797,256.13657560001593,256.63809159991797,256.13657560001593,None,,,,,,,,,,,,,,,,,,,,,,,,,,,,,,,,,,,,,,,,,,11022,001,2024_Jan_05_1430,nback,2021.2.3,60.00168004586376,
0-back,instructions\back-0.png,conditions\0back-p.xlsx,instructions\0-BACK.png,"(15, 8)",practice,0,3,stim\gray.png,stim\gray.png,stim\yellow.png,stim\gray.png,right,0,0,0,0,0,0,0,0,0,7,7,7,,,,,,,,,,,,,,,,,,,,,,,,,,,257.6394749999745,258.64036969991866,257.6394749999745,258.64036969991866,257.6394749999745,258.64036969991866,257.6394749999745,258.64036969991866,right,1,0.4053840000415221,257.6394749999745,None,257.6394749999745,None,257.6394749999745,258.1402717999881,257.6394749999745,258.1402717999881,257.6394749999745,258.1402717999881,257.6394749999745,258.1402717999881,257.6394749999745,None,,,,,,,,,,,,,,,,,,,,,,,,,,,,,,,,,,,,,,,,,,11022,001,2024_Jan_05_1430,nback,2021.2.3,60.00168004586376,
0-back,instructions\back-0.png,conditions\0back-p.xlsx,instructions\0-BACK.png,"(15, 8)",practice,0,3,stim\gray.png,stim\gray.png,stim\yellow.png,stim\gray.png,right,0,0,0,0,0,0,0,0,0,8,8,8,,,,,,,,,,,,,,,,,,,,,,,,,,,259.1412420999259,260.1424932000227,259.1412420999259,260.1424932000227,259.1412420999259,260.1424932000227,259.1412420999259,260.1424932000227,right,1,0.3915077999699861,259.1412420999259,None,259.1412420999259,None,259.1412420999259,259.64183799992315,259.1412420999259,259.64183799992315,259.1412420999259,259.64183799992315,259.1412420999259,259.64183799992315,259.1412420999259,None,,,,,,,,,,,,,,,,,,,,,,,,,,,,,,,,,,,,,,,,,,11022,001,2024_Jan_05_1430,nback,2021.2.3,60.00168004586376,
0-back,instructions\back-0.png,conditions\0back-p.xlsx,instructions\0-BACK.png,"(15, 8)",practice,0,4,stim\gray.png,stim\gray.png,stim\gray.png,stim\yellow.png,down,0,0,0,0,0,0,0,0,0,9,9,9,,,,,,,,,,,,,,,,,,,,,,,,,,,260.6438033999875,261.6450641999254,260.6438033999875,261.6450641999254,260.6438033999875,261.6450641999254,260.6438033999875,261.6450641999254,down,1,0.4249497000128031,260.6438033999875,None,260.6438033999875,None,260.6438033999875,261.1437712999759,260.6438033999875,261.1437712999759,260.6438033999875,261.1437712999759,260.6438033999875,261.1437712999759,260.6438033999875,None,,,,,,,,,,,,,,,,,,,,,,,,,,,,,,,,,,,,,,,,,,11022,001,2024_Jan_05_1430,nback,2021.2.3,60.00168004586376,
0-back,instructions\back-0.png,conditions\0back-p.xlsx,instructions\0-BACK.png,"(15, 8)",practice,0,1,stim\yellow.png,stim\gray.png,stim\gray.png,stim\gray.png,up,0,0,0,0,0,0,0,0,0,10,10,10,,,,,,,,,,,,,,,,,,,,,,,,,,,262.145942299976,263.1473845000146,262.145942299976,263.1473845000146,262.145942299976,263.1473845000146,262.145942299976,263.1473845000146,up,1,0.4513306999579072,262.145942299976,None,262.145942299976,None,262.145942299976,262.64785499998834,262.145942299976,262.64785499998834,262.145942299976,262.64785499998834,262.145942299976,262.64785499998834,262.145942299976,None,,,,,,,,,,,,,,,,,,,,,,,,,,,,,,,,,,,,,,,,,,11022,001,2024_Jan_05_1430,nback,2021.2.3,60.00168004586376,
0-back,instructions\back-0.png,conditions\0back-p.xlsx,instructions\0-BACK.png,"(15, 8)",practice,0,2,stim\gray.png,stim\yellow.png,stim\gray.png,stim\gray.png,left,0,0,0,0,0,0,0,0,0,11,11,11,,,,,,,,,,,,,,,,,,,,,,,,,,,263.64773550000973,264.649151599966,263.64773550000973,264.649151599966,263.64773550000973,264.649151599966,263.64773550000973,264.649151599966,left,1,0.3654398999642581,263.64773550000973,None,263.64773550000973,None,263.64773550000973,264.1491905999137,263.64773550000973,264.1491905999137,263.64773550000973,264.1491905999137,263.64773550000973,264.1491905999137,263.64773550000973,None,,,,,,,,,,,,,,,,,,,,,,,,,,,,,,,,,,,,,,,,,,11022,001,2024_Jan_05_1430,nback,2021.2.3,60.00168004586376,
0-back,instructions\back-0.png,conditions\0back-p.xlsx,instructions\0-BACK.png,"(15, 8)",practice,0,4,stim\gray.png,stim\gray.png,stim\gray.png,stim\yellow.png,down,0,0,0,0,0,0,0,0,0,12,12,12,,,,,,,,,,,,,,,,,,,,,,,,,,,265.14979459997267,266.1516389999306,265.14979459997267,266.1516389999306,265.14979459997267,266.1516389999306,265.14979459997267,266.1516389999306,down,1,0.2950713000027463,265.14979459997267,None,265.14979459997267,None,265.14979459997267,265.6512792999856,265.14979459997267,265.6512792999856,265.14979459997267,265.6512792999856,265.14979459997267,265.6512792999856,265.14979459997267,None,,,,,,,,,,,,,,,,,,,,,,,,,,,,,,,,,,,,,,,,,,11022,001,2024_Jan_05_1430,nback,2021.2.3,60.00168004586376,
0-back,instructions\back-0.png,conditions\0back-p.xlsx,instructions\0-BACK.png,"(15, 8)",practice,0,3,stim\gray.png,stim\gray.png,stim\yellow.png,stim\gray.png,right,0,0,0,0,0,0,0,0,0,13,13,13,,,,,,,,,,,,,,,,,,,,,,,,,,,266.65216199995484,267.65423899993766,266.65216199995484,267.65423899993766,266.65216199995484,267.65423899993766,266.65216199995484,267.65423899993766,right,1,0.3445790000259876,266.65216199995484,None,266.65216199995484,None,266.65216199995484,267.1529489000095,266.65216199995484,267.1529489000095,266.65216199995484,267.1529489000095,266.65216199995484,267.1529489000095,266.65216199995484,None,,,,,,,,,,,,,,,,,,,,,,,,,,,,,,,,,,,,,,,,,,11022,001,2024_Jan_05_1430,nback,2021.2.3,60.00168004586376,
0-back,instructions\back-0.png,conditions\0back-p.xlsx,instructions\0-BACK.png,"(15, 8)",practice,0,1,stim\yellow.png,stim\gray.png,stim\gray.png,stim\gray.png,up,0,0,0,0,0,0,0,0,0,14,14,14,,,,,,,,,,,,,,,,,,,,,,,,,,,268.1377424999373,269.1396837999346,268.1377424999373,269.1396837999346,268.1377424999373,269.1396837999346,268.1377424999373,269.1396837999346,up,1,0.3870088999392465,268.1377424999373,None,268.1377424999373,None,268.1377424999373,268.6390377000207,268.1377424999373,268.6390377000207,268.1377424999373,268.6390377000207,268.1377424999373,268.6390377000207,268.1377424999373,None,,,,,,,,,,,,,,,,,,,,,,,,,,,,,,,,,,,,,,,,,,11022,001,2024_Jan_05_1430,nback,2021.2.3,60.00168004586376,
0-back,instructions\back-0.png,conditions\0back-p.xlsx,instructions\0-BACK.png,"(15, 8)",practice,0,2,stim\gray.png,stim\yellow.png,stim\gray.png,stim\gray.png,left,0,0,0,0,0,0,0,0,0,15,15,15,,,,,,,,,,,,,,,,,,,,,,,,,,,269.6396761999931,270.6418368999148,269.6396761999931,270.6418368999148,269.6396761999931,270.6418368999148,269.6396761999931,270.6418368999148,left,1,0.3414361000759527,269.6396761999931,None,269.6396761999931,None,269.6396761999931,270.14086159993894,269.6396761999931,270.14086159993894,269.6396761999931,270.14086159993894,269.6396761999931,270.14086159993894,269.6396761999931,None,,,,,,,,,,,,,,,,,,,,,,,,,,,,,,,,,,,,,,,,,,11022,001,2024_Jan_05_1430,nback,2021.2.3,60.00168004586376,
0-back,instructions\back-0.png,conditions\0back-p.xlsx,instructions\0-BACK.png,"(15, 8)",practice,0,3,stim\gray.png,stim\gray.png,stim\yellow.png,stim\gray.png,right,0,0,0,0,0,0,0,0,0,16,16,16,,,,,,,,,,,,,,,,,,,,,,,,,,,271.1421467999462,272.14354249997996,271.1421467999462,272.14354249997996,271.1421467999462,272.14354249997996,271.1421467999462,272.14354249997996,right,1,0.3987131000030786,271.1421467999462,None,271.1421467999462,None,271.1421467999462,271.64281909994315,271.1421467999462,271.64281909994315,271.1421467999462,271.64281909994315,271.1421467999462,271.64281909994315,271.1421467999462,None,,,,,,,,,,,,,,,,,,,,,,,,,,,,,,,,,,,,,,,,,,11022,001,2024_Jan_05_1430,nback,2021.2.3,60.00168004586376,
0-back,instructions\back-0.png,conditions\0back-p.xlsx,instructions\0-BACK.png,"(15, 8)",practice,0,1,stim\yellow.png,stim\gray.png,stim\gray.png,stim\gray.png,up,0,0,0,0,0,0,0,0,0,17,17,17,,,,,,,,,,,,,,,,,,,,,,,,,,,272.64434399991296,273.64583950000815,272.64434399991296,273.64583950000815,272.64434399991296,273.64583950000815,272.64434399991296,273.64583950000815,up,1,0.3205529999686405,272.64434399991296,None,272.64434399991296,None,272.64434399991296,273.1450537999626,272.64434399991296,273.1450537999626,272.64434399991296,273.1450537999626,272.64434399991296,273.1450537999626,272.64434399991296,None,,,,,,,,,,,,,,,,,,,,,,,,,,,,,,,,,,,,,,,,,,11022,001,2024_Jan_05_1430,nback,2021.2.3,60.00168004586376,
0-back,instructions\back-0.png,conditions\0back-p.xlsx,instructions\0-BACK.png,"(15, 8)",practice,0,4,stim\gray.png,stim\gray.png,stim\gray.png,stim\yellow.png,down,0,0,0,0,0,0,0,0,0,18,18,18,,,,,,,,,,,,,,,,,,,,,,,,,,,274.14645989995915,275.14808269997593,274.14645989995915,275.14808269997593,274.14645989995915,275.14808269997593,274.14645989995915,275.14808269997593,down,1,0.45112689991947263,274.14645989995915,None,274.14645989995915,None,274.14645989995915,274.6473658999894,274.14645989995915,274.6473658999894,274.14645989995915,274.6473658999894,274.14645989995915,274.6473658999894,274.14645989995915,None,,,,,,,,,,,,,,,,,,,,,,,,,,,,,,,,,,,,,,,,,,11022,001,2024_Jan_05_1430,nback,2021.2.3,60.00168004586376,
0-back,instructions\back-0.png,conditions\0back-p.xlsx,instructions\0-BACK.png,"(15, 8)",practice,0,2,stim\gray.png,stim\yellow.png,stim\gray.png,stim\gray.png,left,0,0,0,0,0,0,0,0,0,19,19,19,,,,,,,,,,,,,,,,,,,,,,,,,,,275.6488220000174,276.6508337999694,275.6488220000174,276.6508337999694,275.6488220000174,276.6508337999694,275.6488220000174,276.6508337999694,left,1,0.34018119995016605,275.6488220000174,None,275.6488220000174,None,275.6488220000174,276.1505734999664,275.6488220000174,276.1505734999664,275.6488220000174,276.1505734999664,275.6488220000174,276.1505734999664,275.6488220000174,None,,,,,,,,,,,,,,,,,,,,,,,,,,,,,,,,,,,,,,,,,,11022,001,2024_Jan_05_1430,nback,2021.2.3,60.00168004586376,
0-back,instructions\back-0.png,conditions\0back-p.xlsx,instructions\0-BACK.png,"(15, 8)",,,,,,,,,0,0,0,0,0,0,0,0,,,,,,,,,,,,,,,,,,,,,,,,,,,,,,,,,,,,,,,,,,,,,,,,,,,,,,,,,,,,,,,,,,,,,,,,,,,,,,,,,,,,,,,,,,,,,,,,,11022,001,2024_Jan_05_1430,nback,2021.2.3,60.00168004586376,
1-back,instructions\back-1.png,conditions\1back-p.xlsx,instructions\1-BACK.png,"(25, 15)",practice,1,1,stim\yellow.png,stim\gray.png,stim\gray.png,stim\gray.png,None,0,0,0,0,0,1,1,1,0,0,0,0,,,,,,,,,,,,,,,,,277.30110369995236,None,space,23.943786400021054,277.30110369995236,None,301.40356150001753,305.910207399982,305.8767853999743,None,306.2955469000153,307.29585489991587,306.2955469000153,307.29585489991587,306.2955469000153,307.29585489991587,306.2955469000153,307.29585489991587,None,1,,306.2955469000153,None,306.2955469000153,None,306.2955469000153,306.79560660000425,306.2955469000153,306.79560660000425,306.2955469000153,306.79560660000425,306.2955469000153,306.79560660000425,306.2955469000153,None,,,,,,,,,,,,,,,,,,,,,,,,,,,,,,,,,,,,,,,,,,11022,001,2024_Jan_05_1430,nback,2021.2.3,60.00168004586376,
1-back,instructions\back-1.png,conditions\1back-p.xlsx,instructions\1-BACK.png,"(25, 15)",practice,1,2,stim\gray.png,stim\yellow.png,stim\gray.png,stim\gray.png,up,0,0,0,0,0,1,1,1,0,1,1,1,,,,,,,,,,,,,,,,,,,,,,,,,,,307.77956759999506,308.78127029992174,307.77956759999506,308.78127029992174,307.77956759999506,308.78127029992174,307.77956759999506,308.78127029992174,up,1,0.5534066000254825,307.77956759999506,None,307.77956759999506,None,307.77956759999506,308.2810297999531,307.77956759999506,308.2810297999531,307.77956759999506,308.2810297999531,307.77956759999506,308.2810297999531,307.77956759999506,None,,,,,,,,,,,,,,,,,,,,,,,,,,,,,,,,,,,,,,,,,,11022,001,2024_Jan_05_1430,nback,2021.2.3,60.00168004586376,
1-back,instructions\back-1.png,conditions\1back-p.xlsx,instructions\1-BACK.png,"(25, 15)",practice,1,3,stim\gray.png,stim\gray.png,stim\yellow.png,stim\gray.png,left,0,0,0,0,0,1,1,1,0,2,2,2,,,,,,,,,,,,,,,,,,,,,,,,,,,309.2820085999556,310.28329079994,309.2820085999556,310.28329079994,309.2820085999556,310.28329079994,309.2820085999556,310.28329079994,left,1,0.5867662000237033,309.2820085999556,None,309.2820085999556,None,309.2820085999556,309.7830399000086,309.2820085999556,309.7830399000086,309.2820085999556,309.7830399000086,309.2820085999556,309.7830399000086,309.2820085999556,None,,,,,,,,,,,,,,,,,,,,,,,,,,,,,,,,,,,,,,,,,,11022,001,2024_Jan_05_1430,nback,2021.2.3,60.00168004586376,
1-back,instructions\back-1.png,conditions\1back-p.xlsx,instructions\1-BACK.png,"(25, 15)",practice,1,4,stim\gray.png,stim\gray.png,stim\gray.png,stim\yellow.png,right,0,0,0,0,0,1,1,1,0,3,3,3,,,,,,,,,,,,,,,,,,,,,,,,,,,310.78496439999435,311.78609479998704,310.78496439999435,311.78609479998704,310.78496439999435,311.78609479998704,310.78496439999435,311.78609479998704,right,1,0.7486006999388337,310.78496439999435,None,310.78496439999435,None,310.78496439999435,311.2855893999804,310.78496439999435,311.2855893999804,310.78496439999435,311.2855893999804,310.78496439999435,311.2855893999804,310.78496439999435,None,,,,,,,,,,,,,,,,,,,,,,,,,,,,,,,,,,,,,,,,,,11022,001,2024_Jan_05_1430,nback,2021.2.3,60.00168004586376,
1-back,instructions\back-1.png,conditions\1back-p.xlsx,instructions\1-BACK.png,"(25, 15)",practice,1,2,stim\gray.png,stim\yellow.png,stim\gray.png,stim\gray.png,down,0,0,0,0,0,1,1,1,0,4,4,4,,,,,,,,,,,,,,,,,,,,,,,,,,,312.2865567000117,313.2882606999483,312.2865567000117,313.2882606999483,312.2865567000117,313.2882606999483,312.2865567000117,313.2882606999483,down,1,0.5347453999565914,312.2865567000117,None,312.2865567000117,None,312.2865567000117,312.7884616999654,312.2865567000117,312.7884616999654,312.2865567000117,312.7884616999654,312.2865567000117,312.7884616999654,312.2865567000117,None,,,,,,,,,,,,,,,,,,,,,,,,,,,,,,,,,,,,,,,,,,11022,001,2024_Jan_05_1430,nback,2021.2.3,60.00168004586376,
1-back,instructions\back-1.png,conditions\1back-p.xlsx,instructions\1-BACK.png,"(25, 15)",practice,1,1,stim\yellow.png,stim\gray.png,stim\gray.png,stim\gray.png,left,0,0,0,0,0,1,1,1,0,5,5,5,,,,,,,,,,,,,,,,,,,,,,,,,,,313.7887485999381,314.79007889993954,313.7887485999381,314.79007889993954,313.7887485999381,314.79007889993954,313.7887485999381,314.79007889993954,left,1,0.4001842000288889,313.7887485999381,None,313.7887485999381,None,313.7887485999381,314.28944429999683,313.7887485999381,314.28944429999683,313.7887485999381,314.28944429999683,313.7887485999381,314.28944429999683,313.7887485999381,None,,,,,,,,,,,,,,,,,,,,,,,,,,,,,,,,,,,,,,,,,,11022,001,2024_Jan_05_1430,nback,2021.2.3,60.00168004586376,
1-back,instructions\back-1.png,conditions\1back-p.xlsx,instructions\1-BACK.png,"(25, 15)",practice,1,4,stim\gray.png,stim\gray.png,stim\gray.png,stim\yellow.png,up,0,0,0,0,0,1,1,1,0,6,6,6,,,,,,,,,,,,,,,,,,,,,,,,,,,315.2741278000176,316.27570589992683,315.2741278000176,316.27570589992683,315.2741278000176,316.27570589992683,315.2741278000176,316.27570589992683,up,1,0.3548578000627458,315.2741278000176,None,315.2741278000176,None,315.2741278000176,315.77577439998277,315.2741278000176,315.77577439998277,315.2741278000176,315.77577439998277,315.2741278000176,315.77577439998277,315.2741278000176,None,,,,,,,,,,,,,,,,,,,,,,,,,,,,,,,,,,,,,,,,,,11022,001,2024_Jan_05_1430,nback,2021.2.3,60.00168004586376,
1-back,instructions\back-1.png,conditions\1back-p.xlsx,instructions\1-BACK.png,"(25, 15)",practice,1,3,stim\gray.png,stim\gray.png,stim\yellow.png,stim\gray.png,down,0,0,0,0,0,1,1,1,0,7,7,7,,,,,,,,,,,,,,,,,,,,,,,,,,,316.77640129998326,317.77813819993753,316.77640129998326,317.77813819993753,316.77640129998326,317.77813819993753,316.77640129998326,317.77813819993753,down,1,0.41265289997681975,316.77640129998326,None,316.77640129998326,None,316.77640129998326,317.2785936999135,316.77640129998326,317.2785936999135,316.77640129998326,317.2785936999135,316.77640129998326,317.2785936999135,316.77640129998326,None,,,,,,,,,,,,,,,,,,,,,,,,,,,,,,,,,,,,,,,,,,11022,001,2024_Jan_05_1430,nback,2021.2.3,60.00168004586376,
1-back,instructions\back-1.png,conditions\1back-p.xlsx,instructions\1-BACK.png,"(25, 15)",practice,1,3,stim\gray.png,stim\gray.png,stim\yellow.png,stim\gray.png,right,0,0,0,0,0,1,1,1,0,8,8,8,,,,,,,,,,,,,,,,,,,,,,,,,,,318.2787397999782,319.2811733999988,318.2787397999782,319.2811733999988,318.2787397999782,319.2811733999988,318.2787397999782,319.2811733999988,right,1,0.5183444999856874,318.2787397999782,None,318.2787397999782,None,318.2787397999782,318.77937180001754,318.2787397999782,318.77937180001754,318.2787397999782,318.77937180001754,318.2787397999782,318.77937180001754,318.2787397999782,None,,,,,,,,,,,,,,,,,,,,,,,,,,,,,,,,,,,,,,,,,,11022,001,2024_Jan_05_1430,nback,2021.2.3,60.00168004586376,
1-back,instructions\back-1.png,conditions\1back-p.xlsx,instructions\1-BACK.png,"(25, 15)",practice,1,4,stim\gray.png,stim\gray.png,stim\gray.png,stim\yellow.png,right,0,0,0,0,0,1,1,1,0,9,9,9,,,,,,,,,,,,,,,,,,,,,,,,,,,319.7809428999899,320.7827706999378,319.7809428999899,320.7827706999378,319.7809428999899,320.7827706999378,319.7809428999899,320.7827706999378,right,1,0.5920573000330478,319.7809428999899,None,319.7809428999899,None,319.7809428999899,320.2815524999751,319.7809428999899,320.2815524999751,319.7809428999899,320.2815524999751,319.7809428999899,320.2815524999751,319.7809428999899,None,,,,,,,,,,,,,,,,,,,,,,,,,,,,,,,,,,,,,,,,,,11022,001,2024_Jan_05_1430,nback,2021.2.3,60.00168004586376,
1-back,instructions\back-1.png,conditions\1back-p.xlsx,instructions\1-BACK.png,"(25, 15)",practice,1,1,stim\yellow.png,stim\gray.png,stim\gray.png,stim\gray.png,down,0,0,0,0,0,1,1,1,0,10,10,10,,,,,,,,,,,,,,,,,,,,,,,,,,,321.2831640000222,322.28519849991426,321.2831640000222,322.28519849991426,321.2831640000222,322.28519849991426,321.2831640000222,322.28519849991426,down,1,0.5937376000219956,321.2831640000222,None,321.2831640000222,None,321.2831640000222,321.7839047999587,321.2831640000222,321.7839047999587,321.2831640000222,321.7839047999587,321.2831640000222,321.7839047999587,321.2831640000222,None,,,,,,,,,,,,,,,,,,,,,,,,,,,,,,,,,,,,,,,,,,11022,001,2024_Jan_05_1430,nback,2021.2.3,60.00168004586376,
1-back,instructions\back-1.png,conditions\1back-p.xlsx,instructions\1-BACK.png,"(25, 15)",practice,1,2,stim\gray.png,stim\yellow.png,stim\gray.png,stim\gray.png,up,0,0,0,0,0,1,1,1,0,11,11,11,,,,,,,,,,,,,,,,,,,,,,,,,,,322.7851717999438,323.78706699993927,322.7851717999438,323.78706699993927,322.7851717999438,323.78706699993927,322.7851717999438,323.78706699993927,up,1,0.6916230000788346,322.7851717999438,None,322.7851717999438,None,322.7851717999438,323.2876373999752,322.7851717999438,323.2876373999752,322.7851717999438,323.2876373999752,322.7851717999438,323.2876373999752,322.7851717999438,None,,,,,,,,,,,,,,,,,,,,,,,,,,,,,,,,,,,,,,,,,,11022,001,2024_Jan_05_1430,nback,2021.2.3,60.00168004586376,
1-back,instructions\back-1.png,conditions\1back-p.xlsx,instructions\1-BACK.png,"(25, 15)",practice,1,4,stim\gray.png,stim\gray.png,stim\gray.png,stim\yellow.png,left,0,0,0,0,0,1,1,1,0,12,12,12,,,,,,,,,,,,,,,,,,,,,,,,,,,324.28762899991125,325.2890780000016,324.28762899991125,325.2890780000016,324.28762899991125,325.2890780000016,324.28762899991125,325.2890780000016,down,0,0.981346599990502,324.28762899991125,None,324.28762899991125,None,324.28762899991125,324.7895785999717,324.28762899991125,324.7895785999717,324.28762899991125,324.7895785999717,324.28762899991125,324.7895785999717,324.28762899991125,None,,,,,,,,,,,,,,,,,,,,,,,,,,,,,,,,,,,,,,,,,,11022,001,2024_Jan_05_1430,nback,2021.2.3,60.00168004586376,
1-back,instructions\back-1.png,conditions\1back-p.xlsx,instructions\1-BACK.png,"(25, 15)",practice,1,3,stim\gray.png,stim\gray.png,stim\yellow.png,stim\gray.png,down,0,0,0,0,0,1,1,1,0,13,13,13,,,,,,,,,,,,,,,,,,,,,,,,,,,325.78978220000863,326.79110989999026,325.78978220000863,326.79110989999026,325.78978220000863,326.79110989999026,325.78978220000863,326.79110989999026,down,1,1.3431806999724358,325.78978220000863,None,325.78978220000863,None,325.78978220000863,326.2912298999727,325.78978220000863,326.2912298999727,325.78978220000863,326.2912298999727,325.78978220000863,326.2912298999727,325.78978220000863,None,,,,,,,,,,,,,,,,,,,,,,,,,,,,,,,,,,,,,,,,,,11022,001,2024_Jan_05_1430,nback,2021.2.3,60.00168004586376,
1-back,instructions\back-1.png,conditions\1back-p.xlsx,instructions\1-BACK.png,"(25, 15)",practice,1,1,stim\yellow.png,stim\gray.png,stim\gray.png,stim\gray.png,right,0,0,0,0,0,1,1,1,0,14,14,14,,,,,,,,,,,,,,,,,,,,,,,,,,,327.27529469993897,328.27771329996176,327.27529469993897,328.27771329996176,327.27529469993897,328.27771329996176,327.27529469993897,328.27771329996176,None,0,,327.27529469993897,None,327.27529469993897,None,327.27529469993897,327.77610719995573,327.27529469993897,327.77610719995573,327.27529469993897,327.77610719995573,327.27529469993897,327.77610719995573,327.27529469993897,None,,,,,,,,,,,,,,,,,,,,,,,,,,,,,,,,,,,,,,,,,,11022,001,2024_Jan_05_1430,nback,2021.2.3,60.00168004586376,
1-back,instructions\back-1.png,conditions\1back-p.xlsx,instructions\1-BACK.png,"(25, 15)",practice,1,2,stim\gray.png,stim\yellow.png,stim\gray.png,stim\gray.png,up,0,0,0,0,0,1,1,1,0,15,15,15,,,,,,,,,,,,,,,,,,,,,,,,,,,328.77810859994497,329.7791741999099,328.77810859994497,329.7791741999099,328.77810859994497,329.7791741999099,328.77810859994497,329.7791741999099,left,0,0.5391237000003457,328.77810859994497,None,328.77810859994497,None,328.77810859994497,329.27876969997305,328.77810859994497,329.27876969997305,328.77810859994497,329.27876969997305,328.77810859994497,329.27876969997305,328.77810859994497,None,,,,,,,,,,,,,,,,,,,,,,,,,,,,,,,,,,,,,,,,,,11022,001,2024_Jan_05_1430,nback,2021.2.3,60.00168004586376,
1-back,instructions\back-1.png,conditions\1back-p.xlsx,instructions\1-BACK.png,"(25, 15)",practice,1,3,stim\gray.png,stim\gray.png,stim\yellow.png,stim\gray.png,left,0,0,0,0,0,1,1,1,0,16,16,16,,,,,,,,,,,,,,,,,,,,,,,,,,,330.2795987999998,331.28163609991316,330.2795987999998,331.28163609991316,330.2795987999998,331.28163609991316,330.2795987999998,331.28163609991316,left,1,0.7415043000364676,330.2795987999998,None,330.2795987999998,None,330.2795987999998,330.78063569997903,330.2795987999998,330.78063569997903,330.2795987999998,330.78063569997903,330.2795987999998,330.78063569997903,330.2795987999998,None,,,,,,,,,,,,,,,,,,,,,,,,,,,,,,,,,,,,,,,,,,11022,001,2024_Jan_05_1430,nback,2021.2.3,60.00168004586376,
1-back,instructions\back-1.png,conditions\1back-p.xlsx,instructions\1-BACK.png,"(25, 15)",practice,1,1,stim\yellow.png,stim\gray.png,stim\gray.png,stim\gray.png,right,0,0,0,0,0,1,1,1,0,17,17,17,,,,,,,,,,,,,,,,,,,,,,,,,,,331.78188449994195,332.78349870000966,331.78188449994195,332.78349870000966,331.78188449994195,332.78349870000966,331.78188449994195,332.78349870000966,None,0,,331.78188449994195,None,331.78188449994195,None,331.78188449994195,332.2832584999269,331.78188449994195,332.2832584999269,331.78188449994195,332.2832584999269,331.78188449994195,332.2832584999269,331.78188449994195,None,,,,,,,,,,,,,,,,,,,,,,,,,,,,,,,,,,,,,,,,,,11022,001,2024_Jan_05_1430,nback,2021.2.3,60.00168004586376,
1-back,instructions\back-1.png,conditions\1back-p.xlsx,instructions\1-BACK.png,"(25, 15)",practice,1,4,stim\gray.png,stim\gray.png,stim\gray.png,stim\yellow.png,up,0,0,0,0,0,1,1,1,0,18,18,18,,,,,,,,,,,,,,,,,,,,,,,,,,,333.28438680002,334.28566940000746,333.28438680002,334.28566940000746,333.28438680002,334.28566940000746,333.28438680002,334.28566940000746,up,1,0.5858977999305353,333.28438680002,None,333.28438680002,None,333.28438680002,333.78528259997256,333.28438680002,333.78528259997256,333.28438680002,333.78528259997256,333.28438680002,333.78528259997256,333.28438680002,None,,,,,,,,,,,,,,,,,,,,,,,,,,,,,,,,,,,,,,,,,,11022,001,2024_Jan_05_1430,nback,2021.2.3,60.00168004586376,
1-back,instructions\back-1.png,conditions\1back-p.xlsx,instructions\1-BACK.png,"(25, 15)",practice,1,2,stim\gray.png,stim\yellow.png,stim\gray.png,stim\gray.png,down,0,0,0,0,0,1,1,1,0,19,19,19,,,,,,,,,,,,,,,,,,,,,,,,,,,334.78641639999114,335.7885137000121,334.78641639999114,335.7885137000121,334.78641639999114,335.7885137000121,334.78641639999114,335.7885137000121,down,1,1.2584641999565065,334.78641639999114,None,334.78641639999114,None,334.78641639999114,335.28742199996486,334.78641639999114,335.28742199996486,334.78641639999114,335.28742199996486,334.78641639999114,335.28742199996486,334.78641639999114,None,,,,,,,,,,,,,,,,,,,,,,,,,,,,,,,,,,,,,,,,,,11022,001,2024_Jan_05_1430,nback,2021.2.3,60.00168004586376,
1-back,instructions\back-1.png,conditions\1back-p.xlsx,instructions\1-BACK.png,"(25, 15)",,,,,,,,,0,0,0,0,0,1,1,1,,,,,,,,,,,,,,,,,,,,,,,,,,,,,,,,,,,,,,,,,,,,,,,,,,,,,,,,,,,,,,,,,,,,,,,,,,,,,,,,,,,,,,,,,,,,,,,,,11022,001,2024_Jan_05_1430,nback,2021.2.3,60.00168004586376,
2-back,instructions\back-2.png,conditions\2back-p.xlsx,instructions\2-BACK.png,"(25, 15)",practice,2,1,stim\yellow.png,stim\gray.png,stim\gray.png,stim\gray.png,None,0,0,0,0,0,2,2,2,0,0,0,0,,,,,,,,,,,,,,,,,336.4392197999405,None,space,90.34215220005717,336.4392197999405,None,426.97294050001074,431.4806417999789,431.4304030999774,None,431.8317271999549,432.8327784999274,431.8317271999549,432.8327784999274,431.8317271999549,432.8327784999274,431.8317271999549,432.8327784999274,None,1,,431.8317271999549,None,431.8317271999549,None,431.8317271999549,432.33107489999384,431.8317271999549,432.33107489999384,431.8317271999549,432.33107489999384,431.8317271999549,432.33107489999384,431.8317271999549,None,,,,,,,,,,,,,,,,,,,,,,,,,,,,,,,,,,,,,,,,,,11022,001,2024_Jan_05_1430,nback,2021.2.3,60.00168004586376,
2-back,instructions\back-2.png,conditions\2back-p.xlsx,instructions\2-BACK.png,"(25, 15)",practice,2,2,stim\gray.png,stim\yellow.png,stim\gray.png,stim\gray.png,None,0,0,0,0,0,2,2,2,0,1,1,1,,,,,,,,,,,,,,,,,,,,,,,,,,,433.31577169999946,434.3180288999574,433.31577169999946,434.3180288999574,433.31577169999946,434.3180288999574,433.31577169999946,434.3180288999574,None,1,,433.31577169999946,None,433.31577169999946,None,433.31577169999946,433.81647570000496,433.31577169999946,433.81647570000496,433.31577169999946,433.81647570000496,433.31577169999946,433.81647570000496,433.31577169999946,None,,,,,,,,,,,,,,,,,,,,,,,,,,,,,,,,,,,,,,,,,,11022,001,2024_Jan_05_1430,nback,2021.2.3,60.00168004586376,
2-back,instructions\back-2.png,conditions\2back-p.xlsx,instructions\2-BACK.png,"(25, 15)",practice,2,3,stim\gray.png,stim\gray.png,stim\yellow.png,stim\gray.png,up,0,0,0,0,0,2,2,2,0,2,2,2,,,,,,,,,,,,,,,,,,,,,,,,,,,434.81779539992567,435.81940529996064,434.81779539992567,435.81940529996064,434.81779539992567,435.81940529996064,434.81779539992567,435.81940529996064,up,1,0.8751749999355525,434.81779539992567,None,434.81779539992567,None,434.81779539992567,435.31958020001184,434.81779539992567,435.31958020001184,434.81779539992567,435.31958020001184,434.81779539992567,435.31958020001184,434.81779539992567,None,,,,,,,,,,,,,,,,,,,,,,,,,,,,,,,,,,,,,,,,,,11022,001,2024_Jan_05_1430,nback,2021.2.3,60.00168004586376,
2-back,instructions\back-2.png,conditions\2back-p.xlsx,instructions\2-BACK.png,"(25, 15)",practice,2,4,stim\gray.png,stim\gray.png,stim\gray.png,stim\yellow.png,left,0,0,0,0,0,2,2,2,0,3,3,3,,,,,,,,,,,,,,,,,,,,,,,,,,,436.32022029999644,437.3220521999756,436.32022029999644,437.3220521999756,436.32022029999644,437.3220521999756,436.32022029999644,437.3220521999756,left,1,1.0607303000288084,436.32022029999644,None,436.32022029999644,None,436.32022029999644,436.8215071000159,436.32022029999644,436.8215071000159,436.32022029999644,436.8215071000159,436.32022029999644,436.8215071000159,436.32022029999644,None,,,,,,,,,,,,,,,,,,,,,,,,,,,,,,,,,,,,,,,,,,11022,001,2024_Jan_05_1430,nback,2021.2.3,60.00168004586376,
2-back,instructions\back-2.png,conditions\2back-p.xlsx,instructions\2-BACK.png,"(25, 15)",practice,2,2,stim\gray.png,stim\yellow.png,stim\gray.png,stim\gray.png,right,0,0,0,0,0,2,2,2,0,4,4,4,,,,,,,,,,,,,,,,,,,,,,,,,,,437.8227488999255,438.8240791999269,437.8227488999255,438.8240791999269,437.8227488999255,438.8240791999269,437.8227488999255,438.8240791999269,right,1,0.6942725999979302,437.8227488999255,None,437.8227488999255,None,437.8227488999255,438.32308489992283,437.8227488999255,438.32308489992283,437.8227488999255,438.32308489992283,437.8227488999255,438.32308489992283,437.8227488999255,None,,,,,,,,,,,,,,,,,,,,,,,,,,,,,,,,,,,,,,,,,,11022,001,2024_Jan_05_1430,nback,2021.2.3,60.00168004586376,
2-back,instructions\back-2.png,conditions\2back-p.xlsx,instructions\2-BACK.png,"(25, 15)",practice,2,1,stim\yellow.png,stim\gray.png,stim\gray.png,stim\gray.png,down,0,0,0,0,0,2,2,2,0,5,5,5,,,,,,,,,,,,,,,,,,,,,,,,,,,439.3253126000054,440.32758079993073,439.3253126000054,440.32758079993073,439.3253126000054,440.32758079993073,439.3253126000054,440.32758079993073,left,0,1.2076677998993546,439.3253126000054,None,439.3253126000054,None,439.3253126000054,439.8254198000068,439.3253126000054,439.8254198000068,439.3253126000054,439.8254198000068,439.3253126000054,439.8254198000068,439.3253126000054,None,,,,,,,,,,,,,,,,,,,,,,,,,,,,,,,,,,,,,,,,,,11022,001,2024_Jan_05_1430,nback,2021.2.3,60.00168004586376,
2-back,instructions\back-2.png,conditions\2back-p.xlsx,instructions\2-BACK.png,"(25, 15)",practice,2,4,stim\gray.png,stim\gray.png,stim\gray.png,stim\yellow.png,left,0,0,0,0,0,2,2,2,0,6,6,6,,,,,,,,,,,,,,,,,,,,,,,,,,,440.82703609997407,441.8282347000204,440.82703609997407,441.8282347000204,440.82703609997407,441.8282347000204,440.82703609997407,441.8282347000204,left,1,0.5618436000077054,440.82703609997407,None,440.82703609997407,None,440.82703609997407,441.3275626999093,440.82703609997407,441.3275626999093,440.82703609997407,441.3275626999093,440.82703609997407,441.3275626999093,440.82703609997407,None,,,,,,,,,,,,,,,,,,,,,,,,,,,,,,,,,,,,,,,,,,11022,001,2024_Jan_05_1430,nback,2021.2.3,60.00168004586376,
2-back,instructions\back-2.png,conditions\2back-p.xlsx,instructions\2-BACK.png,"(25, 15)",practice,2,3,stim\gray.png,stim\gray.png,stim\yellow.png,stim\gray.png,up,0,0,0,0,0,2,2,2,0,7,7,7,,,,,,,,,,,,,,,,,,,,,,,,,,,442.3124866000144,443.31404139997903,442.3124866000144,443.31404139997903,442.3124866000144,443.31404139997903,442.3124866000144,443.31404139997903,up,1,0.5485784999327734,442.3124866000144,None,442.3124866000144,None,442.3124866000144,442.8131750000175,442.3124866000144,442.8131750000175,442.3124866000144,442.8131750000175,442.3124866000144,442.8131750000175,442.3124866000144,None,,,,,,,,,,,,,,,,,,,,,,,,,,,,,,,,,,,,,,,,,,11022,001,2024_Jan_05_1430,nback,2021.2.3,60.00168004586376,
2-back,instructions\back-2.png,conditions\2back-p.xlsx,instructions\2-BACK.png,"(25, 15)",practice,2,3,stim\gray.png,stim\gray.png,stim\yellow.png,stim\gray.png,down,0,0,0,0,0,2,2,2,0,8,8,8,,,,,,,,,,,,,,,,,,,,,,,,,,,443.81443799997214,444.8165303999558,443.81443799997214,444.8165303999558,443.81443799997214,444.8165303999558,443.81443799997214,444.8165303999558,right,0,0.8148485000710934,443.81443799997214,None,443.81443799997214,None,443.81443799997214,444.3155461999122,443.81443799997214,444.3155461999122,443.81443799997214,444.3155461999122,443.81443799997214,444.3155461999122,443.81443799997214,None,,,,,,,,,,,,,,,,,,,,,,,,,,,,,,,,,,,,,,,,,,11022,001,2024_Jan_05_1430,nback,2021.2.3,60.00168004586376,
2-back,instructions\back-2.png,conditions\2back-p.xlsx,instructions\2-BACK.png,"(25, 15)",practice,2,4,stim\gray.png,stim\gray.png,stim\gray.png,stim\yellow.png,right,0,0,0,0,0,2,2,2,0,9,9,9,,,,,,,,,,,,,,,,,,,,,,,,,,,445.3179927999154,446.31851889996324,445.3179927999154,446.31851889996324,445.3179927999154,446.31851889996324,445.3179927999154,446.31851889996324,right,1,0.9115601999219507,445.3179927999154,None,445.3179927999154,None,445.3179927999154,445.81825010001194,445.3179927999154,445.81825010001194,445.3179927999154,445.81825010001194,445.3179927999154,445.81825010001194,445.3179927999154,None,,,,,,,,,,,,,,,,,,,,,,,,,,,,,,,,,,,,,,,,,,11022,001,2024_Jan_05_1430,nback,2021.2.3,60.00168004586376,
2-back,instructions\back-2.png,conditions\2back-p.xlsx,instructions\2-BACK.png,"(25, 15)",practice,2,1,stim\yellow.png,stim\gray.png,stim\gray.png,stim\gray.png,right,0,0,0,0,0,2,2,2,0,10,10,10,,,,,,,,,,,,,,,,,,,,,,,,,,,446.8190663999412,447.82128409994766,446.8190663999412,447.82128409994766,446.8190663999412,447.82128409994766,446.8190663999412,447.82128409994766,down,0,1.27420310000889,446.8190663999412,None,446.8190663999412,None,446.8190663999412,447.3196904999204,446.8190663999412,447.3196904999204,446.8190663999412,447.3196904999204,446.8190663999412,447.3196904999204,446.8190663999412,None,,,,,,,,,,,,,,,,,,,,,,,,,,,,,,,,,,,,,,,,,,11022,001,2024_Jan_05_1430,nback,2021.2.3,60.00168004586376,
2-back,instructions\back-2.png,conditions\2back-p.xlsx,instructions\2-BACK.png,"(25, 15)",practice,2,2,stim\gray.png,stim\yellow.png,stim\gray.png,stim\gray.png,down,0,0,0,0,0,2,2,2,0,11,11,11,,,,,,,,,,,,,,,,,,,,,,,,,,,448.321443199995,449.324296399951,448.321443199995,449.324296399951,448.321443199995,449.324296399951,448.321443199995,449.324296399951,None,0,,448.321443199995,None,448.321443199995,None,448.321443199995,448.8227027999237,448.321443199995,448.8227027999237,448.321443199995,448.8227027999237,448.321443199995,448.8227027999237,448.321443199995,None,,,,,,,,,,,,,,,,,,,,,,,,,,,,,,,,,,,,,,,,,,11022,001,2024_Jan_05_1430,nback,2021.2.3,60.00168004586376,
2-back,instructions\back-2.png,conditions\2back-p.xlsx,instructions\2-BACK.png,"(25, 15)",practice,2,4,stim\gray.png,stim\gray.png,stim\gray.png,stim\yellow.png,up,0,0,0,0,0,2,2,2,0,12,12,12,,,,,,,,,,,,,,,,,,,,,,,,,,,449.8237674999982,450.8252810999984,449.8237674999982,450.8252810999984,449.8237674999982,450.8252810999984,449.8237674999982,450.8252810999984,up,1,0.5572778999339789,449.8237674999982,None,449.8237674999982,None,449.8237674999982,450.324448499945,449.8237674999982,450.324448499945,449.8237674999982,450.324448499945,449.8237674999982,450.324448499945,449.8237674999982,None,,,,,,,,,,,,,,,,,,,,,,,,,,,,,,,,,,,,,,,,,,11022,001,2024_Jan_05_1430,nback,2021.2.3,60.00168004586376,
2-back,instructions\back-2.png,conditions\2back-p.xlsx,instructions\2-BACK.png,"(25, 15)",practice,2,3,stim\gray.png,stim\gray.png,stim\yellow.png,stim\gray.png,left,0,0,0,0,0,2,2,2,0,13,13,13,,,,,,,,,,,,,,,,,,,,,,,,,,,451.30911929998547,452.31047329993453,451.30911929998547,452.31047329993453,451.30911929998547,452.31047329993453,451.30911929998547,452.31047329993453,down,0,0.9200486000627279,451.30911929998547,None,451.30911929998547,None,451.30911929998547,451.80991680000443,451.30911929998547,451.80991680000443,451.30911929998547,451.80991680000443,451.30911929998547,451.80991680000443,451.30911929998547,None,,,,,,,,,,,,,,,,,,,,,,,,,,,,,,,,,,,,,,,,,,11022,001,2024_Jan_05_1430,nback,2021.2.3,60.00168004586376,
2-back,instructions\back-2.png,conditions\2back-p.xlsx,instructions\2-BACK.png,"(25, 15)",practice,2,1,stim\yellow.png,stim\gray.png,stim\gray.png,stim\gray.png,down,0,0,0,0,0,2,2,2,0,14,14,14,,,,,,,,,,,,,,,,,,,,,,,,,,,452.81120340002235,453.81330139993224,452.81120340002235,453.81330139993224,452.81120340002235,453.81330139993224,452.81120340002235,453.81330139993224,None,0,,452.81120340002235,None,452.81120340002235,None,452.81120340002235,453.3124510999769,452.81120340002235,453.3124510999769,452.81120340002235,453.3124510999769,452.81120340002235,453.3124510999769,452.81120340002235,None,,,,,,,,,,,,,,,,,,,,,,,,,,,,,,,,,,,,,,,,,,11022,001,2024_Jan_05_1430,nback,2021.2.3,60.00168004586376,
2-back,instructions\back-2.png,conditions\2back-p.xlsx,instructions\2-BACK.png,"(25, 15)",practice,2,2,stim\gray.png,stim\yellow.png,stim\gray.png,stim\gray.png,right,0,0,0,0,0,2,2,2,0,15,15,15,,,,,,,,,,,,,,,,,,,,,,,,,,,454.31360100000165,455.31562599993777,454.31360100000165,455.31562599993777,454.31360100000165,455.31562599993777,454.31360100000165,455.31562599993777,None,0,,454.31360100000165,None,454.31360100000165,None,454.31360100000165,454.8144647999434,454.31360100000165,454.8144647999434,454.31360100000165,454.8144647999434,454.31360100000165,454.8144647999434,454.31360100000165,None,,,,,,,,,,,,,,,,,,,,,,,,,,,,,,,,,,,,,,,,,,11022,001,2024_Jan_05_1430,nback,2021.2.3,60.00168004586376,
2-back,instructions\back-2.png,conditions\2back-p.xlsx,instructions\2-BACK.png,"(25, 15)",practice,2,3,stim\gray.png,stim\gray.png,stim\yellow.png,stim\gray.png,up,0,0,0,0,0,2,2,2,0,16,16,16,,,,,,,,,,,,,,,,,,,,,,,,,,,455.815759500023,456.81726949999575,455.815759500023,456.81726949999575,455.815759500023,456.81726949999575,455.815759500023,456.81726949999575,up,1,0.6213085999479517,455.815759500023,None,455.815759500023,None,455.815759500023,456.3169947999995,455.815759500023,456.3169947999995,455.815759500023,456.3169947999995,455.815759500023,456.3169947999995,455.815759500023,None,,,,,,,,,,,,,,,,,,,,,,,,,,,,,,,,,,,,,,,,,,11022,001,2024_Jan_05_1430,nback,2021.2.3,60.00168004586376,
2-back,instructions\back-2.png,conditions\2back-p.xlsx,instructions\2-BACK.png,"(25, 15)",practice,2,1,stim\yellow.png,stim\gray.png,stim\gray.png,stim\gray.png,left,0,0,0,0,0,2,2,2,0,17,17,17,,,,,,,,,,,,,,,,,,,,,,,,,,,457.3181160999229,458.3203143000137,457.3181160999229,458.3203143000137,457.3181160999229,458.3203143000137,457.3181160999229,458.3203143000137,left,1,0.8393065000418574,457.3181160999229,None,457.3181160999229,None,457.3181160999229,457.81867720000446,457.3181160999229,457.81867720000446,457.3181160999229,457.81867720000446,457.3181160999229,457.81867720000446,457.3181160999229,None,,,,,,,,,,,,,,,,,,,,,,,,,,,,,,,,,,,,,,,,,,11022,001,2024_Jan_05_1430,nback,2021.2.3,60.00168004586376,
2-back,instructions\back-2.png,conditions\2back-p.xlsx,instructions\2-BACK.png,"(25, 15)",practice,2,4,stim\gray.png,stim\gray.png,stim\gray.png,stim\yellow.png,right,0,0,0,0,0,2,2,2,0,18,18,18,,,,,,,,,,,,,,,,,,,,,,,,,,,458.82027119991835,459.8216679999605,458.82027119991835,459.8216679999605,458.82027119991835,459.8216679999605,458.82027119991835,459.8216679999605,right,1,0.47301499999593943,458.82027119991835,None,458.82027119991835,None,458.82027119991835,459.32109400001355,458.82027119991835,459.32109400001355,458.82027119991835,459.32109400001355,458.82027119991835,459.32109400001355,458.82027119991835,None,,,,,,,,,,,,,,,,,,,,,,,,,,,,,,,,,,,,,,,,,,11022,001,2024_Jan_05_1430,nback,2021.2.3,60.00168004586376,
2-back,instructions\back-2.png,conditions\2back-p.xlsx,instructions\2-BACK.png,"(25, 15)",practice,2,2,stim\gray.png,stim\yellow.png,stim\gray.png,stim\gray.png,up,0,0,0,0,0,2,2,2,0,19,19,19,,,,,,,,,,,,,,,,,,,,,,,,,,,460.32230839994736,461.32424350001384,460.32230839994736,461.32424350001384,460.32230839994736,461.32424350001384,460.32230839994736,461.32424350001384,up,1,0.3068717001006007,460.32230839994736,None,460.32230839994736,None,460.32230839994736,460.8233806999633,460.32230839994736,460.8233806999633,460.32230839994736,460.8233806999633,460.32230839994736,460.8233806999633,460.32230839994736,None,,,,,,,,,,,,,,,,,,,,,,,,,,,,,,,,,,,,,,,,,,11022,001,2024_Jan_05_1430,nback,2021.2.3,60.00168004586376,
2-back,instructions\back-2.png,conditions\2back-p.xlsx,instructions\2-BACK.png,"(25, 15)",,,,,,,,,0,0,0,0,0,2,2,2,,,,,,,,,,,,,,,,,,,,,,,,,,,,,,,,,,,,,,,,,,,,,,,,,,,,,,,,,,,,,,,,,,,,,,,,,,,,,,,,,,,,,,,,,,,,,,,,,11022,001,2024_Jan_05_1430,nback,2021.2.3,60.00168004586376,
,,,,,,,,,,,,,0,0,0,0,,,,,,,,,,,,,,,,,,,,,,,,,,,,,,,,,,,,,,,,,,,,,,,,,,,,,,,,,,,,461.8246957999654,None,s,14.620911100064404,461.8246957999654,None,,,,,,,,,,,,,,,,,,,,,,,,,,,,,,,,,,,,11022,001,2024_Jan_05_1430,nback,2021.2.3,60.00168004586376,
0-back,instructions\back-0.png,conditions\0back-p.xlsx,instructions\0-BACK.png,"(15, 8)",practice,0,1,stim\yellow.png,stim\gray.png,stim\gray.png,stim\gray.png,up,1,0,1,0,0,0,0,0,0,0,0,0,,,,,,,,,,,,,,,,,476.57983059994876,None,space,2.3693560999818146,476.57983059994876,None,479.2516404999187,483.75929820002057,483.69086199998856,None,483.99184689996764,484.9924270999618,483.99184689996764,484.9924270999618,483.99184689996764,484.9924270999618,483.99184689996764,484.9924270999618,up,1,0.421358700026758,483.99184689996764,None,483.99184689996764,None,483.99184689996764,484.4927254000213,483.99184689996764,484.4927254000213,483.99184689996764,484.4927254000213,483.99184689996764,484.4927254000213,483.99184689996764,None,,,,,,,,,,,,,,,,,,,,,,,,,,,,,,,,,,,,,,,,,,11022,001,2024_Jan_05_1430,nback,2021.2.3,60.00168004586376,
0-back,instructions\back-0.png,conditions\0back-p.xlsx,instructions\0-BACK.png,"(15, 8)",practice,0,2,stim\gray.png,stim\yellow.png,stim\gray.png,stim\gray.png,left,1,0,1,0,0,0,0,0,0,1,1,1,,,,,,,,,,,,,,,,,,,,,,,,,,,485.47729770001024,486.4779865000164,485.47729770001024,486.4779865000164,485.47729770001024,486.4779865000164,485.47729770001024,486.4779865000164,left,1,0.35184539994224906,485.47729770001024,None,485.47729770001024,None,485.47729770001024,485.9777818999719,485.47729770001024,485.9777818999719,485.47729770001024,485.9777818999719,485.47729770001024,485.9777818999719,485.47729770001024,None,,,,,,,,,,,,,,,,,,,,,,,,,,,,,,,,,,,,,,,,,,11022,001,2024_Jan_05_1430,nback,2021.2.3,60.00168004586376,
0-back,instructions\back-0.png,conditions\0back-p.xlsx,instructions\0-BACK.png,"(15, 8)",practice,0,3,stim\gray.png,stim\gray.png,stim\yellow.png,stim\gray.png,right,1,0,1,0,0,0,0,0,0,2,2,2,,,,,,,,,,,,,,,,,,,,,,,,,,,486.97873590001836,487.98027019994333,486.97873590001836,487.98027019994333,486.97873590001836,487.98027019994333,486.97873590001836,487.98027019994333,right,1,0.33096389996353537,486.97873590001836,None,486.97873590001836,None,486.97873590001836,487.479263599962,486.97873590001836,487.479263599962,486.97873590001836,487.479263599962,486.97873590001836,487.479263599962,486.97873590001836,None,,,,,,,,,,,,,,,,,,,,,,,,,,,,,,,,,,,,,,,,,,11022,001,2024_Jan_05_1430,nback,2021.2.3,60.00168004586376,
0-back,instructions\back-0.png,conditions\0back-p.xlsx,instructions\0-BACK.png,"(15, 8)",practice,0,4,stim\gray.png,stim\gray.png,stim\gray.png,stim\yellow.png,down,1,0,1,0,0,0,0,0,0,3,3,3,,,,,,,,,,,,,,,,,,,,,,,,,,,488.48124939994887,489.4823333999375,488.48124939994887,489.4823333999375,488.48124939994887,489.4823333999375,488.48124939994887,489.4823333999375,down,1,0.33234510000329465,488.48124939994887,None,488.48124939994887,None,488.48124939994887,488.98166079993825,488.48124939994887,488.98166079993825,488.48124939994887,488.98166079993825,488.48124939994887,488.98166079993825,488.48124939994887,None,,,,,,,,,,,,,,,,,,,,,,,,,,,,,,,,,,,,,,,,,,11022,001,2024_Jan_05_1430,nback,2021.2.3,60.00168004586376,
0-back,instructions\back-0.png,conditions\0back-p.xlsx,instructions\0-BACK.png,"(15, 8)",practice,0,2,stim\gray.png,stim\yellow.png,stim\gray.png,stim\gray.png,left,1,0,1,0,0,0,0,0,0,4,4,4,,,,,,,,,,,,,,,,,,,,,,,,,,,489.98308849998284,490.9848026999971,489.98308849998284,490.9848026999971,489.98308849998284,490.9848026999971,489.98308849998284,490.9848026999971,left,1,0.3100338999647647,489.98308849998284,None,489.98308849998284,None,489.98308849998284,490.4845400999766,489.98308849998284,490.4845400999766,489.98308849998284,490.4845400999766,489.98308849998284,490.4845400999766,489.98308849998284,None,,,,,,,,,,,,,,,,,,,,,,,,,,,,,,,,,,,,,,,,,,11022,001,2024_Jan_05_1430,nback,2021.2.3,60.00168004586376,
0-back,instructions\back-0.png,conditions\0back-p.xlsx,instructions\0-BACK.png,"(15, 8)",practice,0,1,stim\yellow.png,stim\gray.png,stim\gray.png,stim\gray.png,up,1,0,1,0,0,0,0,0,0,5,5,5,,,,,,,,,,,,,,,,,,,,,,,,,,,491.4853894999251,492.4869122999953,491.4853894999251,492.4869122999953,491.4853894999251,492.4869122999953,491.4853894999251,492.4869122999953,up,1,0.31991070008371025,491.4853894999251,None,491.4853894999251,None,491.4853894999251,491.9865996999433,491.4853894999251,491.9865996999433,491.4853894999251,491.9865996999433,491.4853894999251,491.9865996999433,491.4853894999251,None,,,,,,,,,,,,,,,,,,,,,,,,,,,,,,,,,,,,,,,,,,11022,001,2024_Jan_05_1430,nback,2021.2.3,60.00168004586376,
0-back,instructions\back-0.png,conditions\0back-p.xlsx,instructions\0-BACK.png,"(15, 8)",practice,0,4,stim\gray.png,stim\gray.png,stim\gray.png,stim\yellow.png,down,1,0,1,0,0,0,0,0,0,6,6,6,,,,,,,,,,,,,,,,,,,,,,,,,,,492.9707072000019,493.97229810000863,492.9707072000019,493.97229810000863,492.9707072000019,493.97229810000863,492.9707072000019,493.97229810000863,down,1,0.40254179993644357,492.9707072000019,None,492.9707072000019,None,492.9707072000019,493.4716481999494,492.9707072000019,493.4716481999494,492.9707072000019,493.4716481999494,492.9707072000019,493.4716481999494,492.9707072000019,None,,,,,,,,,,,,,,,,,,,,,,,,,,,,,,,,,,,,,,,,,,11022,001,2024_Jan_05_1430,nback,2021.2.3,60.00168004586376,
0-back,instructions\back-0.png,conditions\0back-p.xlsx,instructions\0-BACK.png,"(15, 8)",practice,0,3,stim\gray.png,stim\gray.png,stim\yellow.png,stim\gray.png,right,1,0,1,0,0,0,0,0,0,7,7,7,,,,,,,,,,,,,,,,,,,,,,,,,,,494.4730114999693,495.4746202999959,494.4730114999693,495.4746202999959,494.4730114999693,495.4746202999959,494.4730114999693,495.4746202999959,right,1,0.29200010001659393,494.4730114999693,None,494.4730114999693,None,494.4730114999693,494.9737925999798,494.4730114999693,494.9737925999798,494.4730114999693,494.9737925999798,494.4730114999693,494.9737925999798,494.4730114999693,None,,,,,,,,,,,,,,,,,,,,,,,,,,,,,,,,,,,,,,,,,,11022,001,2024_Jan_05_1430,nback,2021.2.3,60.00168004586376,
0-back,instructions\back-0.png,conditions\0back-p.xlsx,instructions\0-BACK.png,"(15, 8)",practice,0,3,stim\gray.png,stim\gray.png,stim\yellow.png,stim\gray.png,right,1,0,1,0,0,0,0,0,0,8,8,8,,,,,,,,,,,,,,,,,,,,,,,,,,,495.9754041999113,496.97689849999733,495.9754041999113,496.97689849999733,495.9754041999113,496.97689849999733,495.9754041999113,496.97689849999733,right,1,0.3739964999258518,495.9754041999113,None,495.9754041999113,None,495.9754041999113,496.47653879993595,495.9754041999113,496.47653879993595,495.9754041999113,496.47653879993595,495.9754041999113,496.47653879993595,495.9754041999113,None,,,,,,,,,,,,,,,,,,,,,,,,,,,,,,,,,,,,,,,,,,11022,001,2024_Jan_05_1430,nback,2021.2.3,60.00168004586376,
0-back,instructions\back-0.png,conditions\0back-p.xlsx,instructions\0-BACK.png,"(15, 8)",practice,0,4,stim\gray.png,stim\gray.png,stim\gray.png,stim\yellow.png,down,1,0,1,0,0,0,0,0,0,9,9,9,,,,,,,,,,,,,,,,,,,,,,,,,,,497.4778351999121,498.4802973999176,497.4778351999121,498.4802973999176,497.4778351999121,498.4802973999176,497.4778351999121,498.4802973999176,down,1,0.36775269999634475,497.4778351999121,None,497.4778351999121,None,497.4778351999121,497.97847360000014,497.4778351999121,497.97847360000014,497.4778351999121,497.97847360000014,497.4778351999121,497.97847360000014,497.4778351999121,None,,,,,,,,,,,,,,,,,,,,,,,,,,,,,,,,,,,,,,,,,,11022,001,2024_Jan_05_1430,nback,2021.2.3,60.00168004586376,
0-back,instructions\back-0.png,conditions\0back-p.xlsx,instructions\0-BACK.png,"(15, 8)",practice,0,1,stim\yellow.png,stim\gray.png,stim\gray.png,stim\gray.png,up,1,0,1,0,0,0,0,0,0,10,10,10,,,,,,,,,,,,,,,,,,,,,,,,,,,498.9804943000199,499.98131019994617,498.9804943000199,499.98131019994617,498.9804943000199,499.98131019994617,498.9804943000199,499.98131019994617,up,1,0.34505130001343787,498.9804943000199,None,498.9804943000199,None,498.9804943000199,499.48053609998897,498.9804943000199,499.48053609998897,498.9804943000199,499.48053609998897,498.9804943000199,499.48053609998897,498.9804943000199,None,,,,,,,,,,,,,,,,,,,,,,,,,,,,,,,,,,,,,,,,,,11022,001,2024_Jan_05_1430,nback,2021.2.3,60.00168004586376,
0-back,instructions\back-0.png,conditions\0back-p.xlsx,instructions\0-BACK.png,"(15, 8)",practice,0,2,stim\gray.png,stim\yellow.png,stim\gray.png,stim\gray.png,left,1,0,1,0,0,0,0,0,0,11,11,11,,,,,,,,,,,,,,,,,,,,,,,,,,,500.48187529994175,501.48363879998215,500.48187529994175,501.48363879998215,500.48187529994175,501.48363879998215,500.48187529994175,501.48363879998215,left,1,0.3159658000804484,500.48187529994175,None,500.48187529994175,None,500.48187529994175,500.9831498999847,500.48187529994175,500.9831498999847,500.48187529994175,500.9831498999847,500.48187529994175,500.9831498999847,500.48187529994175,None,,,,,,,,,,,,,,,,,,,,,,,,,,,,,,,,,,,,,,,,,,11022,001,2024_Jan_05_1430,nback,2021.2.3,60.00168004586376,
0-back,instructions\back-0.png,conditions\0back-p.xlsx,instructions\0-BACK.png,"(15, 8)",practice,0,4,stim\gray.png,stim\gray.png,stim\gray.png,stim\yellow.png,down,1,0,1,0,0,0,0,0,0,12,12,12,,,,,,,,,,,,,,,,,,,,,,,,,,,501.98409749998245,502.9864649999654,501.98409749998245,502.9864649999654,501.98409749998245,502.9864649999654,501.98409749998245,502.9864649999654,down,1,0.34991710004396737,501.98409749998245,None,501.98409749998245,None,501.98409749998245,502.4850902999751,501.98409749998245,502.4850902999751,501.98409749998245,502.4850902999751,501.98409749998245,502.4850902999751,501.98409749998245,None,,,,,,,,,,,,,,,,,,,,,,,,,,,,,,,,,,,,,,,,,,11022,001,2024_Jan_05_1430,nback,2021.2.3,60.00168004586376,
0-back,instructions\back-0.png,conditions\0back-p.xlsx,instructions\0-BACK.png,"(15, 8)",practice,0,3,stim\gray.png,stim\gray.png,stim\yellow.png,stim\gray.png,right,1,0,1,0,0,0,0,0,0,13,13,13,,,,,,,,,,,,,,,,,,,,,,,,,,,503.4697161000222,504.4712873999961,503.4697161000222,504.4712873999961,503.4697161000222,504.4712873999961,503.4697161000222,504.4712873999961,right,1,0.2637245999649167,503.4697161000222,None,503.4697161000222,None,503.4697161000222,503.9705666999798,503.4697161000222,503.9705666999798,503.4697161000222,503.9705666999798,503.4697161000222,503.9705666999798,503.4697161000222,None,,,,,,,,,,,,,,,,,,,,,,,,,,,,,,,,,,,,,,,,,,11022,001,2024_Jan_05_1430,nback,2021.2.3,60.00168004586376,
0-back,instructions\back-0.png,conditions\0back-p.xlsx,instructions\0-BACK.png,"(15, 8)",practice,0,1,stim\yellow.png,stim\gray.png,stim\gray.png,stim\gray.png,up,1,0,1,0,0,0,0,0,0,14,14,14,,,,,,,,,,,,,,,,,,,,,,,,,,,504.97235759999603,505.9736232999712,504.97235759999603,505.9736232999712,504.97235759999603,505.9736232999712,504.97235759999603,505.9736232999712,up,1,0.329145299969241,504.97235759999603,None,504.97235759999603,None,504.97235759999603,505.4736512999516,504.97235759999603,505.4736512999516,504.97235759999603,505.4736512999516,504.97235759999603,505.4736512999516,504.97235759999603,None,,,,,,,,,,,,,,,,,,,,,,,,,,,,,,,,,,,,,,,,,,11022,001,2024_Jan_05_1430,nback,2021.2.3,60.00168004586376,
0-back,instructions\back-0.png,conditions\0back-p.xlsx,instructions\0-BACK.png,"(15, 8)",practice,0,2,stim\gray.png,stim\yellow.png,stim\gray.png,stim\gray.png,left,1,0,1,0,0,0,0,0,0,15,15,15,,,,,,,,,,,,,,,,,,,,,,,,,,,506.4741971999174,507.47550569998566,506.4741971999174,507.47550569998566,506.4741971999174,507.47550569998566,506.4741971999174,507.47550569998566,left,1,0.3469497999176383,506.4741971999174,None,506.4741971999174,None,506.4741971999174,506.9765340000158,506.4741971999174,506.9765340000158,506.4741971999174,506.9765340000158,506.4741971999174,506.9765340000158,506.4741971999174,None,,,,,,,,,,,,,,,,,,,,,,,,,,,,,,,,,,,,,,,,,,11022,001,2024_Jan_05_1430,nback,2021.2.3,60.00168004586376,
0-back,instructions\back-0.png,conditions\0back-p.xlsx,instructions\0-BACK.png,"(15, 8)",practice,0,3,stim\gray.png,stim\gray.png,stim\yellow.png,stim\gray.png,right,1,0,1,0,0,0,0,0,0,16,16,16,,,,,,,,,,,,,,,,,,,,,,,,,,,507.97626399993896,508.9778421999654,507.97626399993896,508.9778421999654,507.97626399993896,508.9778421999654,507.97626399993896,508.9778421999654,right,1,0.3333632000721991,507.97626399993896,None,507.97626399993896,None,507.97626399993896,508.47799990000203,507.97626399993896,508.47799990000203,507.97626399993896,508.47799990000203,507.97626399993896,508.47799990000203,507.97626399993896,None,,,,,,,,,,,,,,,,,,,,,,,,,,,,,,,,,,,,,,,,,,11022,001,2024_Jan_05_1430,nback,2021.2.3,60.00168004586376,
0-back,instructions\back-0.png,conditions\0back-p.xlsx,instructions\0-BACK.png,"(15, 8)",practice,0,1,stim\yellow.png,stim\gray.png,stim\gray.png,stim\gray.png,up,1,0,1,0,0,0,0,0,0,17,17,17,,,,,,,,,,,,,,,,,,,,,,,,,,,509.4784829999553,510.4802045999095,509.4784829999553,510.4802045999095,509.4784829999553,510.4802045999095,509.4784829999553,510.4802045999095,up,1,0.3586471000453457,509.4784829999553,None,509.4784829999553,None,509.4784829999553,509.9794062000001,509.4784829999553,509.9794062000001,509.4784829999553,509.9794062000001,509.4784829999553,509.9794062000001,509.4784829999553,None,,,,,,,,,,,,,,,,,,,,,,,,,,,,,,,,,,,,,,,,,,11022,001,2024_Jan_05_1430,nback,2021.2.3,60.00168004586376,
0-back,instructions\back-0.png,conditions\0back-p.xlsx,instructions\0-BACK.png,"(15, 8)",practice,0,4,stim\gray.png,stim\gray.png,stim\gray.png,stim\yellow.png,down,1,0,1,0,0,0,0,0,0,18,18,18,,,,,,,,,,,,,,,,,,,,,,,,,,,510.9814202999696,511.98270559997763,510.9814202999696,511.98270559997763,510.9814202999696,511.98270559997763,510.9814202999696,511.98270559997763,down,1,0.39986900007352233,510.9814202999696,None,510.9814202999696,None,510.9814202999696,511.48164239991456,510.9814202999696,511.48164239991456,510.9814202999696,511.48164239991456,510.9814202999696,511.48164239991456,510.9814202999696,None,,,,,,,,,,,,,,,,,,,,,,,,,,,,,,,,,,,,,,,,,,11022,001,2024_Jan_05_1430,nback,2021.2.3,60.00168004586376,
0-back,instructions\back-0.png,conditions\0back-p.xlsx,instructions\0-BACK.png,"(15, 8)",practice,0,2,stim\gray.png,stim\yellow.png,stim\gray.png,stim\gray.png,left,1,0,1,0,0,0,0,0,0,19,19,19,,,,,,,,,,,,,,,,,,,,,,,,,,,512.4834036999382,513.4854019000195,512.4834036999382,513.4854019000195,512.4834036999382,513.4854019000195,512.4834036999382,513.4854019000195,left,1,0.3936958000995219,512.4834036999382,None,512.4834036999382,None,512.4834036999382,512.9847820999566,512.4834036999382,512.9847820999566,512.4834036999382,512.9847820999566,512.4834036999382,512.9847820999566,512.4834036999382,None,,,,,,,,,,,,,,,,,,,,,,,,,,,,,,,,,,,,,,,,,,11022,001,2024_Jan_05_1430,nback,2021.2.3,60.00168004586376,
0-back,instructions\back-0.png,conditions\0back-p.xlsx,instructions\0-BACK.png,"(15, 8)",,,,,,,,,1,0,1,0,0,0,0,0,,,,,,,,,,,,,,,,,,,,,,,,,,,,,,,,,,,,,,,,,,,,,,,,,,,,,,,,,,,,,,,,,,,,,,,,,,,,,,,,,,,,,,,,,,,,,,,,,11022,001,2024_Jan_05_1430,nback,2021.2.3,60.00168004586376,
1-back,instructions\back-1.png,conditions\1back-p.xlsx,instructions\1-BACK.png,"(25, 15)",practice,1,1,stim\yellow.png,stim\gray.png,stim\gray.png,stim\gray.png,None,1,0,1,0,0,1,1,1,0,0,0,0,,,,,,,,,,,,,,,,,514.1354025999317,None,space,3.197797199944034,514.1354025999317,None,517.4737500000047,521.9812122000149,521.9478714999277,None,522.3831256999401,523.3827388000209,522.3831256999401,523.3827388000209,522.3831256999401,523.3827388000209,522.3831256999401,523.3827388000209,None,1,,522.3831256999401,None,522.3831256999401,None,522.3831256999401,522.8819330999395,522.3831256999401,522.8819330999395,522.3831256999401,522.8819330999395,522.3831256999401,522.8819330999395,522.3831256999401,None,,,,,,,,,,,,,,,,,,,,,,,,,,,,,,,,,,,,,,,,,,11022,001,2024_Jan_05_1430,nback,2021.2.3,60.00168004586376,
1-back,instructions\back-1.png,conditions\1back-p.xlsx,instructions\1-BACK.png,"(25, 15)",practice,1,2,stim\gray.png,stim\yellow.png,stim\gray.png,stim\gray.png,up,1,0,1,0,0,1,1,1,0,1,1,1,,,,,,,,,,,,,,,,,,,,,,,,,,,523.8665724999737,524.8687959000235,523.8665724999737,524.8687959000235,523.8665724999737,524.8687959000235,523.8665724999737,524.8687959000235,None,0,,523.8665724999737,None,523.8665724999737,None,523.8665724999737,524.3683060000185,523.8665724999737,524.3683060000185,523.8665724999737,524.3683060000185,523.8665724999737,524.3683060000185,523.8665724999737,None,,,,,,,,,,,,,,,,,,,,,,,,,,,,,,,,,,,,,,,,,,11022,001,2024_Jan_05_1430,nback,2021.2.3,60.00168004586376,
1-back,instructions\back-1.png,conditions\1back-p.xlsx,instructions\1-BACK.png,"(25, 15)",practice,1,3,stim\gray.png,stim\gray.png,stim\yellow.png,stim\gray.png,left,1,0,1,0,0,1,1,1,0,2,2,2,,,,,,,,,,,,,,,,,,,,,,,,,,,525.3688476999523,526.3708427000092,525.3688476999523,526.3708427000092,525.3688476999523,526.3708427000092,525.3688476999523,526.3708427000092,up,0,0.40439030004199594,525.3688476999523,None,525.3688476999523,None,525.3688476999523,525.8711354999105,525.3688476999523,525.8711354999105,525.3688476999523,525.8711354999105,525.3688476999523,525.8711354999105,525.3688476999523,None,,,,,,,,,,,,,,,,,,,,,,,,,,,,,,,,,,,,,,,,,,11022,001,2024_Jan_05_1430,nback,2021.2.3,60.00168004586376,
1-back,instructions\back-1.png,conditions\1back-p.xlsx,instructions\1-BACK.png,"(25, 15)",practice,1,4,stim\gray.png,stim\gray.png,stim\gray.png,stim\yellow.png,right,1,0,1,0,0,1,1,1,0,3,3,3,,,,,,,,,,,,,,,,,,,,,,,,,,,526.87113460002,527.8725578999147,526.87113460002,527.8725578999147,526.87113460002,527.8725578999147,526.87113460002,527.8725578999147,left,0,0.35021240008063614,526.87113460002,None,526.87113460002,None,526.87113460002,527.3726442999905,526.87113460002,527.3726442999905,526.87113460002,527.3726442999905,526.87113460002,527.3726442999905,526.87113460002,None,,,,,,,,,,,,,,,,,,,,,,,,,,,,,,,,,,,,,,,,,,11022,001,2024_Jan_05_1430,nback,2021.2.3,60.00168004586376,
1-back,instructions\back-1.png,conditions\1back-p.xlsx,instructions\1-BACK.png,"(25, 15)",practice,1,2,stim\gray.png,stim\yellow.png,stim\gray.png,stim\gray.png,down,1,0,1,0,0,1,1,1,0,4,4,4,,,,,,,,,,,,,,,,,,,,,,,,,,,528.3733137999661,529.3748155999929,528.3733137999661,529.3748155999929,528.3733137999661,529.3748155999929,528.3733137999661,529.3748155999929,right,0,0.3840698000276461,528.3733137999661,None,528.3733137999661,None,528.3733137999661,528.874233599985,528.3733137999661,528.874233599985,528.3733137999661,528.874233599985,528.3733137999661,528.874233599985,528.3733137999661,None,,,,,,,,,,,,,,,,,,,,,,,,,,,,,,,,,,,,,,,,,,11022,001,2024_Jan_05_1430,nback,2021.2.3,60.00168004586376,
1-back,instructions\back-1.png,conditions\1back-p.xlsx,instructions\1-BACK.png,"(25, 15)",practice,1,1,stim\yellow.png,stim\gray.png,stim\gray.png,stim\gray.png,left,1,0,1,0,0,1,1,1,0,5,5,5,,,,,,,,,,,,,,,,,,,,,,,,,,,529.8755539999111,530.8771935999393,529.8755539999111,530.8771935999393,529.8755539999111,530.8771935999393,529.8755539999111,530.8771935999393,down,0,0.4337686999933794,529.8755539999111,None,529.8755539999111,None,529.8755539999111,530.3762549000094,529.8755539999111,530.3762549000094,529.8755539999111,530.3762549000094,529.8755539999111,530.3762549000094,529.8755539999111,None,,,,,,,,,,,,,,,,,,,,,,,,,,,,,,,,,,,,,,,,,,11022,001,2024_Jan_05_1430,nback,2021.2.3,60.00168004586376,
1-back,instructions\back-1.png,conditions\1back-p.xlsx,instructions\1-BACK.png,"(25, 15)",practice,1,4,stim\gray.png,stim\gray.png,stim\gray.png,stim\yellow.png,up,1,0,1,0,0,1,1,1,0,6,6,6,,,,,,,,,,,,,,,,,,,,,,,,,,,531.3610558999935,532.3633267999394,531.3610558999935,532.3633267999394,531.3610558999935,532.3633267999394,531.3610558999935,532.3633267999394,left,0,0.3480394999496639,531.3610558999935,None,531.3610558999935,None,531.3610558999935,531.8625809999648,531.3610558999935,531.8625809999648,531.3610558999935,531.8625809999648,531.3610558999935,531.8625809999648,531.3610558999935,None,,,,,,,,,,,,,,,,,,,,,,,,,,,,,,,,,,,,,,,,,,11022,001,2024_Jan_05_1430,nback,2021.2.3,60.00168004586376,
1-back,instructions\back-1.png,conditions\1back-p.xlsx,instructions\1-BACK.png,"(25, 15)",practice,1,3,stim\gray.png,stim\gray.png,stim\yellow.png,stim\gray.png,down,1,0,1,0,0,1,1,1,0,7,7,7,,,,,,,,,,,,,,,,,,,,,,,,,,,532.8632738000015,533.865589999943,532.8632738000015,533.865589999943,532.8632738000015,533.865589999943,532.8632738000015,533.865589999943,up,0,0.3350264000473544,532.8632738000015,None,532.8632738000015,None,532.8632738000015,533.3641250999644,532.8632738000015,533.3641250999644,532.8632738000015,533.3641250999644,532.8632738000015,533.3641250999644,532.8632738000015,None,,,,,,,,,,,,,,,,,,,,,,,,,,,,,,,,,,,,,,,,,,11022,001,2024_Jan_05_1430,nback,2021.2.3,60.00168004586376,
1-back,instructions\back-1.png,conditions\1back-p.xlsx,instructions\1-BACK.png,"(25, 15)",practice,1,3,stim\gray.png,stim\gray.png,stim\yellow.png,stim\gray.png,right,1,0,1,0,0,1,1,1,0,8,8,8,,,,,,,,,,,,,,,,,,,,,,,,,,,534.3655836000107,535.3669614999089,534.3655836000107,535.3669614999089,534.3655836000107,535.3669614999089,534.3655836000107,535.3669614999089,down,0,0.39188170002307743,534.3655836000107,None,534.3655836000107,None,534.3655836000107,534.8663577999687,534.3655836000107,534.8663577999687,534.3655836000107,534.8663577999687,534.3655836000107,534.8663577999687,534.3655836000107,None,,,,,,,,,,,,,,,,,,,,,,,,,,,,,,,,,,,,,,,,,,11022,001,2024_Jan_05_1430,nback,2021.2.3,60.00168004586376,
1-back,instructions\back-1.png,conditions\1back-p.xlsx,instructions\1-BACK.png,"(25, 15)",practice,1,4,stim\gray.png,stim\gray.png,stim\gray.png,stim\yellow.png,right,1,0,1,0,0,1,1,1,0,9,9,9,,,,,,,,,,,,,,,,,,,,,,,,,,,535.8681005999679,536.8691605000058,535.8681005999679,536.8691605000058,535.8681005999679,536.8691605000058,535.8681005999679,536.8691605000058,right,1,0.3690059999935329,535.8681005999679,None,535.8681005999679,None,535.8681005999679,536.3692250999156,535.8681005999679,536.3692250999156,535.8681005999679,536.3692250999156,535.8681005999679,536.3692250999156,535.8681005999679,None,,,,,,,,,,,,,,,,,,,,,,,,,,,,,,,,,,,,,,,,,,11022,001,2024_Jan_05_1430,nback,2021.2.3,60.00168004586376,
1-back,instructions\back-1.png,conditions\1back-p.xlsx,instructions\1-BACK.png,"(25, 15)",practice,1,1,stim\yellow.png,stim\gray.png,stim\gray.png,stim\gray.png,down,1,0,1,0,0,1,1,1,0,10,10,10,,,,,,,,,,,,,,,,,,,,,,,,,,,537.3700295999879,538.3715690999525,537.3700295999879,538.3715690999525,537.3700295999879,538.3715690999525,537.3700295999879,538.3715690999525,right,0,0.24308419995941222,537.3700295999879,None,537.3700295999879,None,537.3700295999879,537.8710971999681,537.3700295999879,537.8710971999681,537.3700295999879,537.8710971999681,537.3700295999879,537.8710971999681,537.3700295999879,None,,,,,,,,,,,,,,,,,,,,,,,,,,,,,,,,,,,,,,,,,,11022,001,2024_Jan_05_1430,nback,2021.2.3,60.00168004586376,
1-back,instructions\back-1.png,conditions\1back-p.xlsx,instructions\1-BACK.png,"(25, 15)",practice,1,2,stim\gray.png,stim\yellow.png,stim\gray.png,stim\gray.png,up,1,0,1,0,0,1,1,1,0,11,11,11,,,,,,,,,,,,,,,,,,,,,,,,,,,538.872162799933,539.8738636999624,538.872162799933,539.8738636999624,538.872162799933,539.8738636999624,538.872162799933,539.8738636999624,down,0,0.07706700009293854,538.872162799933,None,538.872162799933,None,538.872162799933,539.3735368999187,538.872162799933,539.3735368999187,538.872162799933,539.3735368999187,538.872162799933,539.3735368999187,538.872162799933,None,,,,,,,,,,,,,,,,,,,,,,,,,,,,,,,,,,,,,,,,,,11022,001,2024_Jan_05_1430,nback,2021.2.3,60.00168004586376,
1-back,instructions\back-1.png,conditions\1back-p.xlsx,instructions\1-BACK.png,"(25, 15)",practice,1,4,stim\gray.png,stim\gray.png,stim\gray.png,stim\yellow.png,left,1,0,1,0,0,1,1,1,0,12,12,12,,,,,,,,,,,,,,,,,,,,,,,,,,,540.3745355999563,541.3766992000164,540.3745355999563,541.3766992000164,540.3745355999563,541.3766992000164,540.3745355999563,541.3766992000164,up,0,0.10266680002678186,540.3745355999563,None,540.3745355999563,None,540.3745355999563,540.8751154999482,540.3745355999563,540.8751154999482,540.3745355999563,540.8751154999482,540.3745355999563,540.8751154999482,540.3745355999563,None,,,,,,,,,,,,,,,,,,,,,,,,,,,,,,,,,,,,,,,,,,11022,001,2024_Jan_05_1430,nback,2021.2.3,60.00168004586376,
1-back,instructions\back-1.png,conditions\1back-p.xlsx,instructions\1-BACK.png,"(25, 15)",practice,1,3,stim\gray.png,stim\gray.png,stim\yellow.png,stim\gray.png,down,1,0,1,0,0,1,1,1,0,13,13,13,,,,,,,,,,,,,,,,,,,,,,,,,,,541.87665989995,542.8779629999772,541.87665989995,542.8779629999772,541.87665989995,542.8779629999772,541.87665989995,542.8779629999772,left,0,0.17649540002457798,541.87665989995,None,541.87665989995,None,541.87665989995,542.3780470999191,541.87665989995,542.3780470999191,541.87665989995,542.3780470999191,541.87665989995,542.3780470999191,541.87665989995,None,,,,,,,,,,,,,,,,,,,,,,,,,,,,,,,,,,,,,,,,,,11022,001,2024_Jan_05_1430,nback,2021.2.3,60.00168004586376,
1-back,instructions\back-1.png,conditions\1back-p.xlsx,instructions\1-BACK.png,"(25, 15)",practice,1,1,stim\yellow.png,stim\gray.png,stim\gray.png,stim\gray.png,right,1,0,1,0,0,1,1,1,0,14,14,14,,,,,,,,,,,,,,,,,,,,,,,,,,,543.362242299947,544.3647400999907,543.362242299947,544.3647400999907,543.362242299947,544.3647400999907,543.362242299947,544.3647400999907,down,0,0.21088290004990995,543.362242299947,None,543.362242299947,None,543.362242299947,543.8640477999579,543.362242299947,543.8640477999579,543.362242299947,543.8640477999579,543.362242299947,543.8640477999579,543.362242299947,None,,,,,,,,,,,,,,,,,,,,,,,,,,,,,,,,,,,,,,,,,,11022,001,2024_Jan_05_1430,nback,2021.2.3,60.00168004586376,
1-back,instructions\back-1.png,conditions\1back-p.xlsx,instructions\1-BACK.png,"(25, 15)",practice,1,2,stim\gray.png,stim\yellow.png,stim\gray.png,stim\gray.png,up,1,0,1,0,0,1,1,1,0,15,15,15,,,,,,,,,,,,,,,,,,,,,,,,,,,544.8643908000086,545.8661637000041,544.8643908000086,545.8661637000041,544.8643908000086,545.8661637000041,544.8643908000086,545.8661637000041,right,0,0.1972141999285668,544.8643908000086,None,544.8643908000086,None,544.8643908000086,545.3651524999877,544.8643908000086,545.3651524999877,544.8643908000086,545.3651524999877,544.8643908000086,545.3651524999877,544.8643908000086,None,,,,,,,,,,,,,,,,,,,,,,,,,,,,,,,,,,,,,,,,,,11022,001,2024_Jan_05_1430,nback,2021.2.3,60.00168004586376,
1-back,instructions\back-1.png,conditions\1back-p.xlsx,instructions\1-BACK.png,"(25, 15)",practice,1,3,stim\gray.png,stim\gray.png,stim\yellow.png,stim\gray.png,left,1,0,1,0,0,1,1,1,0,16,16,16,,,,,,,,,,,,,,,,,,,,,,,,,,,546.3664942999603,547.3681770999683,546.3664942999603,547.3681770999683,546.3664942999603,547.3681770999683,546.3664942999603,547.3681770999683,up,0,0.13516020006500185,546.3664942999603,None,546.3664942999603,None,546.3664942999603,546.8678270999808,546.3664942999603,546.8678270999808,546.3664942999603,546.8678270999808,546.3664942999603,546.8678270999808,546.3664942999603,None,,,,,,,,,,,,,,,,,,,,,,,,,,,,,,,,,,,,,,,,,,11022,001,2024_Jan_05_1430,nback,2021.2.3,60.00168004586376,
1-back,instructions\back-1.png,conditions\1back-p.xlsx,instructions\1-BACK.png,"(25, 15)",practice,1,1,stim\yellow.png,stim\gray.png,stim\gray.png,stim\gray.png,right,1,0,1,0,0,1,1,1,0,17,17,17,,,,,,,,,,,,,,,,,,,,,,,,,,,547.8689562999643,548.870480399928,547.8689562999643,548.870480399928,547.8689562999643,548.870480399928,547.8689562999643,548.870480399928,left,0,0.048601599992252886,547.8689562999643,None,547.8689562999643,None,547.8689562999643,548.3701639999636,547.8689562999643,548.3701639999636,547.8689562999643,548.3701639999636,547.8689562999643,548.3701639999636,547.8689562999643,None,,,,,,,,,,,,,,,,,,,,,,,,,,,,,,,,,,,,,,,,,,11022,001,2024_Jan_05_1430,nback,2021.2.3,60.00168004586376,
1-back,instructions\back-1.png,conditions\1back-p.xlsx,instructions\1-BACK.png,"(25, 15)",practice,1,4,stim\gray.png,stim\gray.png,stim\gray.png,stim\yellow.png,up,1,0,1,0,0,1,1,1,0,18,18,18,,,,,,,,,,,,,,,,,,,,,,,,,,,549.3712112000212,550.3726925000083,549.3712112000212,550.3726925000083,549.3712112000212,550.3726925000083,549.3712112000212,550.3726925000083,right,0,0.009936499991454184,549.3712112000212,None,549.3712112000212,None,549.3712112000212,549.8717891999986,549.3712112000212,549.8717891999986,549.3712112000212,549.8717891999986,549.3712112000212,549.8717891999986,549.3712112000212,None,,,,,,,,,,,,,,,,,,,,,,,,,,,,,,,,,,,,,,,,,,11022,001,2024_Jan_05_1430,nback,2021.2.3,60.00168004586376,
1-back,instructions\back-1.png,conditions\1back-p.xlsx,instructions\1-BACK.png,"(25, 15)",practice,1,2,stim\gray.png,stim\yellow.png,stim\gray.png,stim\gray.png,down,1,0,1,0,0,1,1,1,0,19,19,19,,,,,,,,,,,,,,,,,,,,,,,,,,,550.8736991999904,551.8746968000196,550.8736991999904,551.8746968000196,550.8736991999904,551.8746968000196,550.8736991999904,551.8746968000196,up,0,0.1559011999052018,550.8736991999904,None,550.8736991999904,None,550.8736991999904,551.3741517999442,550.8736991999904,551.3741517999442,550.8736991999904,551.3741517999442,550.8736991999904,551.3741517999442,550.8736991999904,None,,,,,,,,,,,,,,,,,,,,,,,,,,,,,,,,,,,,,,,,,,11022,001,2024_Jan_05_1430,nback,2021.2.3,60.00168004586376,
1-back,instructions\back-1.png,conditions\1back-p.xlsx,instructions\1-BACK.png,"(25, 15)",,,,,,,,,1,0,1,0,0,1,1,1,,,,,,,,,,,,,,,,,,,,,,,,,,,,,,,,,,,,,,,,,,,,,,,,,,,,,,,,,,,,,,,,,,,,,,,,,,,,,,,,,,,,,,,,,,,,,,,,,11022,001,2024_Jan_05_1430,nback,2021.2.3,60.00168004586376,
2-back,instructions\back-2.png,conditions\2back-p.xlsx,instructions\2-BACK.png,"(25, 15)",practice,2,1,stim\yellow.png,stim\gray.png,stim\gray.png,stim\gray.png,None,1,0,1,0,0,2,2,2,0,0,0,0,,,,,,,,,,,,,,,,,552.5089787999168,None,space,15.21635270002298,552.5089787999168,None,567.8817942999303,572.3893271000125,572.3558989999583,None,572.7740390999243,573.7742062999168,572.7740390999243,573.7742062999168,572.7740390999243,573.7742062999168,572.7740390999243,573.7742062999168,None,1,,572.7740390999243,None,572.7740390999243,None,572.7740390999243,573.2733248999575,572.7740390999243,573.2733248999575,572.7740390999243,573.2733248999575,572.7740390999243,573.2733248999575,572.7740390999243,None,,,,,,,,,,,,,,,,,,,,,,,,,,,,,,,,,,,,,,,,,,11022,001,2024_Jan_05_1430,nback,2021.2.3,60.00168004586376,
2-back,instructions\back-2.png,conditions\2back-p.xlsx,instructions\2-BACK.png,"(25, 15)",practice,2,2,stim\gray.png,stim\yellow.png,stim\gray.png,stim\gray.png,None,1,0,1,0,0,2,2,2,0,1,1,1,,,,,,,,,,,,,,,,,,,,,,,,,,,574.25793349999,575.2598714999622,574.25793349999,575.2598714999622,574.25793349999,575.2598714999622,574.25793349999,575.2598714999622,None,1,,574.25793349999,None,574.25793349999,None,574.25793349999,574.7593879000051,574.25793349999,574.7593879000051,574.25793349999,574.7593879000051,574.25793349999,574.7593879000051,574.25793349999,None,,,,,,,,,,,,,,,,,,,,,,,,,,,,,,,,,,,,,,,,,,11022,001,2024_Jan_05_1430,nback,2021.2.3,60.00168004586376,
2-back,instructions\back-2.png,conditions\2back-p.xlsx,instructions\2-BACK.png,"(25, 15)",practice,2,3,stim\gray.png,stim\gray.png,stim\yellow.png,stim\gray.png,up,1,0,1,0,0,2,2,2,0,2,2,2,,,,,,,,,,,,,,,,,,,,,,,,,,,575.7601851000218,576.7618263999466,575.7601851000218,576.7618263999466,575.7601851000218,576.7618263999466,575.7601851000218,576.7618263999466,up,1,0.5180934000527486,575.7601851000218,None,575.7601851000218,None,575.7601851000218,576.2613198999316,575.7601851000218,576.2613198999316,575.7601851000218,576.2613198999316,575.7601851000218,576.2613198999316,575.7601851000218,None,,,,,,,,,,,,,,,,,,,,,,,,,,,,,,,,,,,,,,,,,,11022,001,2024_Jan_05_1430,nback,2021.2.3,60.00168004586376,
2-back,instructions\back-2.png,conditions\2back-p.xlsx,instructions\2-BACK.png,"(25, 15)",practice,2,4,stim\gray.png,stim\gray.png,stim\gray.png,stim\yellow.png,left,1,0,1,0,0,2,2,2,0,3,3,3,,,,,,,,,,,,,,,,,,,,,,,,,,,577.2624269999797,578.2641277000075,577.2624269999797,578.2641277000075,577.2624269999797,578.2641277000075,577.2624269999797,578.2641277000075,left,1,0.3907640000106767,577.2624269999797,None,577.2624269999797,None,577.2624269999797,577.7630017999327,577.2624269999797,577.7630017999327,577.2624269999797,577.7630017999327,577.2624269999797,577.7630017999327,577.2624269999797,None,,,,,,,,,,,,,,,,,,,,,,,,,,,,,,,,,,,,,,,,,,11022,001,2024_Jan_05_1430,nback,2021.2.3,60.00168004586376,
2-back,instructions\back-2.png,conditions\2back-p.xlsx,instructions\2-BACK.png,"(25, 15)",practice,2,2,stim\gray.png,stim\yellow.png,stim\gray.png,stim\gray.png,right,1,0,1,0,0,2,2,2,0,4,4,4,,,,,,,,,,,,,,,,,,,,,,,,,,,578.7647038999712,579.7663204999408,578.7647038999712,579.7663204999408,578.7647038999712,579.7663204999408,578.7647038999712,579.7663204999408,right,1,0.4489725000457838,578.7647038999712,None,578.7647038999712,None,578.7647038999712,579.2662213000003,578.7647038999712,579.2662213000003,578.7647038999712,579.2662213000003,578.7647038999712,579.2662213000003,578.7647038999712,None,,,,,,,,,,,,,,,,,,,,,,,,,,,,,,,,,,,,,,,,,,11022,001,2024_Jan_05_1430,nback,2021.2.3,60.00168004586376,
2-back,instructions\back-2.png,conditions\2back-p.xlsx,instructions\2-BACK.png,"(25, 15)",practice,2,1,stim\yellow.png,stim\gray.png,stim\gray.png,stim\gray.png,down,1,0,1,0,0,2,2,2,0,5,5,5,,,,,,,,,,,,,,,,,,,,,,,,,,,580.2674385999562,581.2686461999547,580.2674385999562,581.2686461999547,580.2674385999562,581.2686461999547,580.2674385999562,581.2686461999547,down,1,0.6023800000548363,580.2674385999562,None,580.2674385999562,None,580.2674385999562,580.7677302999655,580.2674385999562,580.7677302999655,580.2674385999562,580.7677302999655,580.2674385999562,580.7677302999655,580.2674385999562,None,,,,,,,,,,,,,,,,,,,,,,,,,,,,,,,,,,,,,,,,,,11022,001,2024_Jan_05_1430,nback,2021.2.3,60.00168004586376,
2-back,instructions\back-2.png,conditions\2back-p.xlsx,instructions\2-BACK.png,"(25, 15)",practice,2,4,stim\gray.png,stim\gray.png,stim\gray.png,stim\yellow.png,left,1,0,1,0,0,2,2,2,0,6,6,6,,,,,,,,,,,,,,,,,,,,,,,,,,,581.7523457999341,582.7538318999577,581.7523457999341,582.7538318999577,581.7523457999341,582.7538318999577,581.7523457999341,582.7538318999577,left,1,0.5734765001107007,581.7523457999341,None,581.7523457999341,None,581.7523457999341,582.2532948999433,581.7523457999341,582.2532948999433,581.7523457999341,582.2532948999433,581.7523457999341,582.2532948999433,581.7523457999341,None,,,,,,,,,,,,,,,,,,,,,,,,,,,,,,,,,,,,,,,,,,11022,001,2024_Jan_05_1430,nback,2021.2.3,60.00168004586376,
2-back,instructions\back-2.png,conditions\2back-p.xlsx,instructions\2-BACK.png,"(25, 15)",practice,2,3,stim\gray.png,stim\gray.png,stim\yellow.png,stim\gray.png,up,1,0,1,0,0,2,2,2,0,7,7,7,,,,,,,,,,,,,,,,,,,,,,,,,,,583.2547127999132,584.2567361999536,583.2547127999132,584.2567361999536,583.2547127999132,584.2567361999536,583.2547127999132,584.2567361999536,up,1,0.5745987999252975,583.2547127999132,None,583.2547127999132,None,583.2547127999132,583.7563196999254,583.2547127999132,583.7563196999254,583.2547127999132,583.7563196999254,583.2547127999132,583.7563196999254,583.2547127999132,None,,,,,,,,,,,,,,,,,,,,,,,,,,,,,,,,,,,,,,,,,,11022,001,2024_Jan_05_1430,nback,2021.2.3,60.00168004586376,
2-back,instructions\back-2.png,conditions\2back-p.xlsx,instructions\2-BACK.png,"(25, 15)",practice,2,3,stim\gray.png,stim\gray.png,stim\yellow.png,stim\gray.png,down,1,0,1,0,0,2,2,2,0,8,8,8,,,,,,,,,,,,,,,,,,,,,,,,,,,584.7568993999157,585.7587233999511,584.7568993999157,585.7587233999511,584.7568993999157,585.7587233999511,584.7568993999157,585.7587233999511,down,1,0.48845529998652637,584.7568993999157,None,584.7568993999157,None,584.7568993999157,585.2584552000044,584.7568993999157,585.2584552000044,584.7568993999157,585.2584552000044,584.7568993999157,585.2584552000044,584.7568993999157,None,,,,,,,,,,,,,,,,,,,,,,,,,,,,,,,,,,,,,,,,,,11022,001,2024_Jan_05_1430,nback,2021.2.3,60.00168004586376,
2-back,instructions\back-2.png,conditions\2back-p.xlsx,instructions\2-BACK.png,"(25, 15)",practice,2,4,stim\gray.png,stim\gray.png,stim\gray.png,stim\yellow.png,right,1,0,1,0,0,2,2,2,0,9,9,9,,,,,,,,,,,,,,,,,,,,,,,,,,,586.2590946999844,587.2608288999181,586.2590946999844,587.2608288999181,586.2590946999844,587.2608288999181,586.2590946999844,587.2608288999181,right,1,0.5540742999874055,586.2590946999844,None,586.2590946999844,None,586.2590946999844,586.7607399999397,586.2590946999844,586.7607399999397,586.2590946999844,586.7607399999397,586.2590946999844,586.7607399999397,586.2590946999844,None,,,,,,,,,,,,,,,,,,,,,,,,,,,,,,,,,,,,,,,,,,11022,001,2024_Jan_05_1430,nback,2021.2.3,60.00168004586376,
2-back,instructions\back-2.png,conditions\2back-p.xlsx,instructions\2-BACK.png,"(25, 15)",practice,2,1,stim\yellow.png,stim\gray.png,stim\gray.png,stim\gray.png,right,1,0,1,0,0,2,2,2,0,10,10,10,,,,,,,,,,,,,,,,,,,,,,,,,,,587.7613919000141,588.76302939991,587.7613919000141,588.76302939991,587.7613919000141,588.76302939991,587.7613919000141,588.76302939991,right,1,1.212070900015533,587.7613919000141,None,587.7613919000141,None,587.7613919000141,588.2620684999274,587.7613919000141,588.2620684999274,587.7613919000141,588.2620684999274,587.7613919000141,588.2620684999274,587.7613919000141,None,,,,,,,,,,,,,,,,,,,,,,,,,,,,,,,,,,,,,,,,,,11022,001,2024_Jan_05_1430,nback,2021.2.3,60.00168004586376,
2-back,instructions\back-2.png,conditions\2back-p.xlsx,instructions\2-BACK.png,"(25, 15)",practice,2,2,stim\gray.png,stim\yellow.png,stim\gray.png,stim\gray.png,down,1,0,1,0,0,2,2,2,0,11,11,11,,,,,,,,,,,,,,,,,,,,,,,,,,,589.263431499945,590.2653606999665,589.263431499945,590.2653606999665,589.263431499945,590.2653606999665,589.263431499945,590.2653606999665,down,1,0.7817926000570878,589.263431499945,None,589.263431499945,None,589.263431499945,589.7653382999124,589.263431499945,589.7653382999124,589.263431499945,589.7653382999124,589.263431499945,589.7653382999124,589.263431499945,None,,,,,,,,,,,,,,,,,,,,,,,,,,,,,,,,,,,,,,,,,,11022,001,2024_Jan_05_1430,nback,2021.2.3,60.00168004586376,
2-back,instructions\back-2.png,conditions\2back-p.xlsx,instructions\2-BACK.png,"(25, 15)",practice,2,4,stim\gray.png,stim\gray.png,stim\gray.png,stim\yellow.png,up,1,0,1,0,0,2,2,2,0,12,12,12,,,,,,,,,,,,,,,,,,,,,,,,,,,590.7657610999886,591.7680403999984,590.7657610999886,591.7680403999984,590.7657610999886,591.7680403999984,590.7657610999886,591.7680403999984,up,1,0.3766116000479087,590.7657610999886,None,590.7657610999886,None,590.7657610999886,591.2673093000194,590.7657610999886,591.2673093000194,590.7657610999886,591.2673093000194,590.7657610999886,591.2673093000194,590.7657610999886,None,,,,,,,,,,,,,,,,,,,,,,,,,,,,,,,,,,,,,,,,,,11022,001,2024_Jan_05_1430,nback,2021.2.3,60.00168004586376,
2-back,instructions\back-2.png,conditions\2back-p.xlsx,instructions\2-BACK.png,"(25, 15)",practice,2,3,stim\gray.png,stim\gray.png,stim\yellow.png,stim\gray.png,left,1,0,1,0,0,2,2,2,0,13,13,13,,,,,,,,,,,,,,,,,,,,,,,,,,,592.2681945000077,593.2696936000139,592.2681945000077,593.2696936000139,592.2681945000077,593.2696936000139,592.2681945000077,593.2696936000139,left,1,0.552982599940151,592.2681945000077,None,592.2681945000077,None,592.2681945000077,592.7687275999924,592.2681945000077,592.7687275999924,592.2681945000077,592.7687275999924,592.2681945000077,592.7687275999924,592.2681945000077,None,,,,,,,,,,,,,,,,,,,,,,,,,,,,,,,,,,,,,,,,,,11022,001,2024_Jan_05_1430,nback,2021.2.3,60.00168004586376,
2-back,instructions\back-2.png,conditions\2back-p.xlsx,instructions\2-BACK.png,"(25, 15)",practice,2,1,stim\yellow.png,stim\gray.png,stim\gray.png,stim\gray.png,down,1,0,1,0,0,2,2,2,0,14,14,14,,,,,,,,,,,,,,,,,,,,,,,,,,,593.7535192000214,594.7552313000197,593.7535192000214,594.7552313000197,593.7535192000214,594.7552313000197,593.7535192000214,594.7552313000197,down,1,0.9798470999812707,593.7535192000214,None,593.7535192000214,None,593.7535192000214,594.2548990999348,593.7535192000214,594.2548990999348,593.7535192000214,594.2548990999348,593.7535192000214,594.2548990999348,593.7535192000214,None,,,,,,,,,,,,,,,,,,,,,,,,,,,,,,,,,,,,,,,,,,11022,001,2024_Jan_05_1430,nback,2021.2.3,60.00168004586376,
2-back,instructions\back-2.png,conditions\2back-p.xlsx,instructions\2-BACK.png,"(25, 15)",practice,2,2,stim\gray.png,stim\yellow.png,stim\gray.png,stim\gray.png,right,1,0,1,0,0,2,2,2,0,15,15,15,,,,,,,,,,,,,,,,,,,,,,,,,,,595.2563016000204,596.2581454999745,595.2563016000204,596.2581454999745,595.2563016000204,596.2581454999745,595.2563016000204,596.2581454999745,right,1,0.9344175999285653,595.2563016000204,None,595.2563016000204,None,595.2563016000204,595.7572436999762,595.2563016000204,595.7572436999762,595.2563016000204,595.7572436999762,595.2563016000204,595.7572436999762,595.2563016000204,None,,,,,,,,,,,,,,,,,,,,,,,,,,,,,,,,,,,,,,,,,,11022,001,2024_Jan_05_1430,nback,2021.2.3,60.00168004586376,
2-back,instructions\back-2.png,conditions\2back-p.xlsx,instructions\2-BACK.png,"(25, 15)",practice,2,3,stim\gray.png,stim\gray.png,stim\yellow.png,stim\gray.png,up,1,0,1,0,0,2,2,2,0,16,16,16,,,,,,,,,,,,,,,,,,,,,,,,,,,596.7580468999222,597.7593408999965,596.7580468999222,597.7593408999965,596.7580468999222,597.7593408999965,596.7580468999222,597.7593408999965,left,0,0.9114508000202477,596.7580468999222,None,596.7580468999222,None,596.7580468999222,597.2587651999202,596.7580468999222,597.2587651999202,596.7580468999222,597.2587651999202,596.7580468999222,597.2587651999202,596.7580468999222,None,,,,,,,,,,,,,,,,,,,,,,,,,,,,,,,,,,,,,,,,,,11022,001,2024_Jan_05_1430,nback,2021.2.3,60.00168004586376,
2-back,instructions\back-2.png,conditions\2back-p.xlsx,instructions\2-BACK.png,"(25, 15)",practice,2,1,stim\yellow.png,stim\gray.png,stim\gray.png,stim\gray.png,left,1,0,1,0,0,2,2,2,0,17,17,17,,,,,,,,,,,,,,,,,,,,,,,,,,,598.2600569999777,599.2624430999858,598.2600569999777,599.2624430999858,598.2600569999777,599.2624430999858,598.2600569999777,599.2624430999858,right,0,1.4572800999740139,598.2600569999777,None,598.2600569999777,None,598.2600569999777,598.7611357999267,598.2600569999777,598.7611357999267,598.2600569999777,598.7611357999267,598.2600569999777,598.7611357999267,598.2600569999777,None,,,,,,,,,,,,,,,,,,,,,,,,,,,,,,,,,,,,,,,,,,11022,001,2024_Jan_05_1430,nback,2021.2.3,60.00168004586376,
2-back,instructions\back-2.png,conditions\2back-p.xlsx,instructions\2-BACK.png,"(25, 15)",practice,2,4,stim\gray.png,stim\gray.png,stim\gray.png,stim\yellow.png,right,1,0,1,0,0,2,2,2,0,18,18,18,,,,,,,,,,,,,,,,,,,,,,,,,,,599.7623920999467,600.7643592999084,599.7623920999467,600.7643592999084,599.7623920999467,600.7643592999084,599.7623920999467,600.7643592999084,up,0,1.0523668000241742,599.7623920999467,None,599.7623920999467,None,599.7623920999467,600.2638545000227,599.7623920999467,600.2638545000227,599.7623920999467,600.2638545000227,599.7623920999467,600.2638545000227,599.7623920999467,None,,,,,,,,,,,,,,,,,,,,,,,,,,,,,,,,,,,,,,,,,,11022,001,2024_Jan_05_1430,nback,2021.2.3,60.00168004586376,
2-back,instructions\back-2.png,conditions\2back-p.xlsx,instructions\2-BACK.png,"(25, 15)",practice,2,2,stim\gray.png,stim\yellow.png,stim\gray.png,stim\gray.png,up,1,0,1,0,0,2,2,2,0,19,19,19,,,,,,,,,,,,,,,,,,,,,,,,,,,601.2648425999796,602.2666405999335,601.2648425999796,602.2666405999335,601.2648425999796,602.2666405999335,601.2648425999796,602.2666405999335,down,0,1.1246018999954686,601.2648425999796,None,601.2648425999796,None,601.2648425999796,601.766626699944,601.2648425999796,601.766626699944,601.2648425999796,601.766626699944,601.2648425999796,601.766626699944,601.2648425999796,None,,,,,,,,,,,,,,,,,,,,,,,,,,,,,,,,,,,,,,,,,,11022,001,2024_Jan_05_1430,nback,2021.2.3,60.00168004586376,
2-back,instructions\back-2.png,conditions\2back-p.xlsx,instructions\2-BACK.png,"(25, 15)",,,,,,,,,1,0,1,0,0,2,2,2,,,,,,,,,,,,,,,,,,,,,,,,,,,,,,,,,,,,,,,,,,,,,,,,,,,,,,,,,,,,,,,,,,,,,,,,,,,,,,,,,,,,,,,,,,,,,,,,,11022,001,2024_Jan_05_1430,nback,2021.2.3,60.00168004586376,
,,,,,,,,,,,,,1,0,1,0,,,,,,,,,,,,,,,,,,,,,,,,,,,,,,,,,,,,,,,,,,,,,,,,,,,,,,,,,,,,602.7674509999342,None,s,119.15026799996849,602.7674509999342,None,,,,,,,,,,,,,,,,,,,,,,,,,,,,,,,,,,,,11022,001,2024_Jan_05_1430,nback,2021.2.3,60.00168004586376,
0-back,instructions\back-0.png,conditions\0back-p.xlsx,instructions\0-BACK.png,"(15, 8)",practice,0,1,stim\yellow.png,stim\gray.png,stim\gray.png,stim\gray.png,up,2,0,2,0,0,0,0,0,0,0,0,0,,,,,,,,,,,,,,,,,722.0279613999883,None,space,1.9856044999323785,722.0279613999883,None,724.1968676999677,728.7051203999436,728.653511499986,None,729.0556934999768,730.0560854999349,729.0556934999768,730.0560854999349,729.0556934999768,730.0560854999349,729.0556934999768,730.0560854999349,up,1,0.47008220001589507,729.0556934999768,None,729.0556934999768,None,729.0556934999768,729.5550308999373,729.0556934999768,729.5550308999373,729.0556934999768,729.5550308999373,729.0556934999768,729.5550308999373,729.0556934999768,None,,,,,,,,,,,,,,,,,,,,,,,,,,,,,,,,,,,,,,,,,,11022,001,2024_Jan_05_1430,nback,2021.2.3,60.00168004586376,
0-back,instructions\back-0.png,conditions\0back-p.xlsx,instructions\0-BACK.png,"(15, 8)",practice,0,2,stim\gray.png,stim\yellow.png,stim\gray.png,stim\gray.png,left,2,0,2,0,0,0,0,0,0,1,1,1,,,,,,,,,,,,,,,,,,,,,,,,,,,730.5396341999294,731.5416700999485,730.5396341999294,731.5416700999485,730.5396341999294,731.5416700999485,730.5396341999294,731.5416700999485,left,1,0.3696243000449613,730.5396341999294,None,730.5396341999294,None,730.5396341999294,731.0409903000109,730.5396341999294,731.0409903000109,730.5396341999294,731.0409903000109,730.5396341999294,731.0409903000109,730.5396341999294,None,,,,,,,,,,,,,,,,,,,,,,,,,,,,,,,,,,,,,,,,,,11022,001,2024_Jan_05_1430,nback,2021.2.3,60.00168004586376,
0-back,instructions\back-0.png,conditions\0back-p.xlsx,instructions\0-BACK.png,"(15, 8)",practice,0,3,stim\gray.png,stim\gray.png,stim\yellow.png,stim\gray.png,right,2,0,2,0,0,0,0,0,0,2,2,2,,,,,,,,,,,,,,,,,,,,,,,,,,,732.0418068999425,733.0434122999432,732.0418068999425,733.0434122999432,732.0418068999425,733.0434122999432,732.0418068999425,733.0434122999432,right,1,0.34838340000715107,732.0418068999425,None,732.0418068999425,None,732.0418068999425,732.5424523999682,732.0418068999425,732.5424523999682,732.0418068999425,732.5424523999682,732.0418068999425,732.5424523999682,732.0418068999425,None,,,,,,,,,,,,,,,,,,,,,,,,,,,,,,,,,,,,,,,,,,11022,001,2024_Jan_05_1430,nback,2021.2.3,60.00168004586376,
0-back,instructions\back-0.png,conditions\0back-p.xlsx,instructions\0-BACK.png,"(15, 8)",practice,0,4,stim\gray.png,stim\gray.png,stim\gray.png,stim\yellow.png,down,2,0,2,0,0,0,0,0,0,3,3,3,,,,,,,,,,,,,,,,,,,,,,,,,,,733.5446871999884,734.5462814000202,733.5446871999884,734.5462814000202,733.5446871999884,734.5462814000202,733.5446871999884,734.5462814000202,down,1,0.3010102999396622,733.5446871999884,None,733.5446871999884,None,733.5446871999884,734.044777299976,733.5446871999884,734.044777299976,733.5446871999884,734.044777299976,733.5446871999884,734.044777299976,733.5446871999884,None,,,,,,,,,,,,,,,,,,,,,,,,,,,,,,,,,,,,,,,,,,11022,001,2024_Jan_05_1430,nback,2021.2.3,60.00168004586376,
0-back,instructions\back-0.png,conditions\0back-p.xlsx,instructions\0-BACK.png,"(15, 8)",practice,0,2,stim\gray.png,stim\yellow.png,stim\gray.png,stim\gray.png,left,2,0,2,0,0,0,0,0,0,4,4,4,,,,,,,,,,,,,,,,,,,,,,,,,,,735.046343499911,736.0476772999391,735.046343499911,736.0476772999391,735.046343499911,736.0476772999391,735.046343499911,736.0476772999391,left,1,0.2324621999869123,735.046343499911,None,735.046343499911,None,735.046343499911,735.5472382999724,735.046343499911,735.5472382999724,735.046343499911,735.5472382999724,735.046343499911,735.5472382999724,735.046343499911,None,,,,,,,,,,,,,,,,,,,,,,,,,,,,,,,,,,,,,,,,,,11022,001,2024_Jan_05_1430,nback,2021.2.3,60.00168004586376,
0-back,instructions\back-0.png,conditions\0back-p.xlsx,instructions\0-BACK.png,"(15, 8)",practice,0,1,stim\yellow.png,stim\gray.png,stim\gray.png,stim\gray.png,up,2,0,2,0,0,0,0,0,0,5,5,5,,,,,,,,,,,,,,,,,,,,,,,,,,,736.5492177999113,737.5504341999767,736.5492177999113,737.5504341999767,736.5492177999113,737.5504341999767,736.5492177999113,737.5504341999767,up,1,0.25629940000362694,736.5492177999113,None,736.5492177999113,None,736.5492177999113,737.0498764999211,736.5492177999113,737.0498764999211,736.5492177999113,737.0498764999211,736.5492177999113,737.0498764999211,736.5492177999113,None,,,,,,,,,,,,,,,,,,,,,,,,,,,,,,,,,,,,,,,,,,11022,001,2024_Jan_05_1430,nback,2021.2.3,60.00168004586376,
0-back,instructions\back-0.png,conditions\0back-p.xlsx,instructions\0-BACK.png,"(15, 8)",practice,0,4,stim\gray.png,stim\gray.png,stim\gray.png,stim\yellow.png,down,2,0,2,0,0,0,0,0,0,6,6,6,,,,,,,,,,,,,,,,,,,,,,,,,,,738.0332969999872,739.0354606999317,738.0332969999872,739.0354606999317,738.0332969999872,739.0354606999317,738.0332969999872,739.0354606999317,down,1,0.25201479997485876,738.0332969999872,None,738.0332969999872,None,738.0332969999872,738.5347756999545,738.0332969999872,738.5347756999545,738.0332969999872,738.5347756999545,738.0332969999872,738.5347756999545,738.0332969999872,None,,,,,,,,,,,,,,,,,,,,,,,,,,,,,,,,,,,,,,,,,,11022,001,2024_Jan_05_1430,nback,2021.2.3,60.00168004586376,
0-back,instructions\back-0.png,conditions\0back-p.xlsx,instructions\0-BACK.png,"(15, 8)",practice,0,3,stim\gray.png,stim\gray.png,stim\yellow.png,stim\gray.png,right,2,0,2,0,0,0,0,0,0,7,7,7,,,,,,,,,,,,,,,,,,,,,,,,,,,739.5361913000233,740.5381862999639,739.5361913000233,740.5381862999639,739.5361913000233,740.5381862999639,739.5361913000233,740.5381862999639,right,1,0.24568940000608563,739.5361913000233,None,739.5361913000233,None,739.5361913000233,740.0370367999421,739.5361913000233,740.0370367999421,739.5361913000233,740.0370367999421,739.5361913000233,740.0370367999421,739.5361913000233,None,,,,,,,,,,,,,,,,,,,,,,,,,,,,,,,,,,,,,,,,,,11022,001,2024_Jan_05_1430,nback,2021.2.3,60.00168004586376,
0-back,instructions\back-0.png,conditions\0back-p.xlsx,instructions\0-BACK.png,"(15, 8)",practice,0,3,stim\gray.png,stim\gray.png,stim\yellow.png,stim\gray.png,right,2,0,2,0,0,0,0,0,0,8,8,8,,,,,,,,,,,,,,,,,,,,,,,,,,,741.0390587999718,742.0403112999629,741.0390587999718,742.0403112999629,741.0390587999718,742.0403112999629,741.0390587999718,742.0403112999629,right,1,0.34236600005533546,741.0390587999718,None,741.0390587999718,None,741.0390587999718,741.5396303000161,741.0390587999718,741.5396303000161,741.0390587999718,741.5396303000161,741.0390587999718,741.5396303000161,741.0390587999718,None,,,,,,,,,,,,,,,,,,,,,,,,,,,,,,,,,,,,,,,,,,11022,001,2024_Jan_05_1430,nback,2021.2.3,60.00168004586376,
0-back,instructions\back-0.png,conditions\0back-p.xlsx,instructions\0-BACK.png,"(15, 8)",practice,0,4,stim\gray.png,stim\gray.png,stim\gray.png,stim\yellow.png,down,2,0,2,0,0,0,0,0,0,9,9,9,,,,,,,,,,,,,,,,,,,,,,,,,,,742.5405334999086,743.5421464999672,742.5405334999086,743.5421464999672,742.5405334999086,743.5421464999672,742.5405334999086,743.5421464999672,down,1,0.38520090002566576,742.5405334999086,None,742.5405334999086,None,742.5405334999086,743.0415149999317,742.5405334999086,743.0415149999317,742.5405334999086,743.0415149999317,742.5405334999086,743.0415149999317,742.5405334999086,None,,,,,,,,,,,,,,,,,,,,,,,,,,,,,,,,,,,,,,,,,,11022,001,2024_Jan_05_1430,nback,2021.2.3,60.00168004586376,
0-back,instructions\back-0.png,conditions\0back-p.xlsx,instructions\0-BACK.png,"(15, 8)",practice,0,1,stim\yellow.png,stim\gray.png,stim\gray.png,stim\gray.png,up,2,0,2,0,0,0,0,0,0,10,10,10,,,,,,,,,,,,,,,,,,,,,,,,,,,744.042944899993,745.0457832999527,744.042944899993,745.0457832999527,744.042944899993,745.0457832999527,744.042944899993,745.0457832999527,up,1,0.3228079000255093,744.042944899993,None,744.042944899993,None,744.042944899993,744.5442869999679,744.042944899993,744.5442869999679,744.042944899993,744.5442869999679,744.042944899993,744.5442869999679,744.042944899993,None,,,,,,,,,,,,,,,,,,,,,,,,,,,,,,,,,,,,,,,,,,11022,001,2024_Jan_05_1430,nback,2021.2.3,60.00168004586376,
0-back,instructions\back-0.png,conditions\0back-p.xlsx,instructions\0-BACK.png,"(15, 8)",practice,0,2,stim\gray.png,stim\yellow.png,stim\gray.png,stim\gray.png,left,2,0,2,0,0,0,0,0,0,11,11,11,,,,,,,,,,,,,,,,,,,,,,,,,,,745.5450320999371,746.547097099945,745.5450320999371,746.547097099945,745.5450320999371,746.547097099945,745.5450320999371,746.547097099945,left,1,0.23639340000227094,745.5450320999371,None,745.5450320999371,None,745.5450320999371,746.0459370999597,745.5450320999371,746.0459370999597,745.5450320999371,746.0459370999597,745.5450320999371,746.0459370999597,745.5450320999371,None,,,,,,,,,,,,,,,,,,,,,,,,,,,,,,,,,,,,,,,,,,11022,001,2024_Jan_05_1430,nback,2021.2.3,60.00168004586376,
0-back,instructions\back-0.png,conditions\0back-p.xlsx,instructions\0-BACK.png,"(15, 8)",practice,0,4,stim\gray.png,stim\gray.png,stim\gray.png,stim\yellow.png,down,2,0,2,0,0,0,0,0,0,12,12,12,,,,,,,,,,,,,,,,,,,,,,,,,,,747.0473219999112,748.0492679999443,747.0473219999112,748.0492679999443,747.0473219999112,748.0492679999443,747.0473219999112,748.0492679999443,down,1,0.3668506999965757,747.0473219999112,None,747.0473219999112,None,747.0473219999112,747.5484685999108,747.0473219999112,747.5484685999108,747.0473219999112,747.5484685999108,747.0473219999112,747.5484685999108,747.0473219999112,None,,,,,,,,,,,,,,,,,,,,,,,,,,,,,,,,,,,,,,,,,,11022,001,2024_Jan_05_1430,nback,2021.2.3,60.00168004586376,
0-back,instructions\back-0.png,conditions\0back-p.xlsx,instructions\0-BACK.png,"(15, 8)",practice,0,3,stim\gray.png,stim\gray.png,stim\yellow.png,stim\gray.png,right,2,0,2,0,0,0,0,0,0,13,13,13,,,,,,,,,,,,,,,,,,,,,,,,,,,748.5495965000009,749.5513131999178,748.5495965000009,749.5513131999178,748.5495965000009,749.5513131999178,748.5495965000009,749.5513131999178,right,1,0.23296009993646294,748.5495965000009,None,748.5495965000009,None,748.5495965000009,749.0502494999673,748.5495965000009,749.0502494999673,748.5495965000009,749.0502494999673,748.5495965000009,749.0502494999673,748.5495965000009,None,,,,,,,,,,,,,,,,,,,,,,,,,,,,,,,,,,,,,,,,,,11022,001,2024_Jan_05_1430,nback,2021.2.3,60.00168004586376,
0-back,instructions\back-0.png,conditions\0back-p.xlsx,instructions\0-BACK.png,"(15, 8)",practice,0,1,stim\yellow.png,stim\gray.png,stim\gray.png,stim\gray.png,up,2,0,2,0,0,0,0,0,0,14,14,14,,,,,,,,,,,,,,,,,,,,,,,,,,,750.0351044000126,751.0374864999903,750.0351044000126,751.0374864999903,750.0351044000126,751.0374864999903,750.0351044000126,751.0374864999903,up,1,0.22636849991977215,750.0351044000126,None,750.0351044000126,None,750.0351044000126,750.5373809000012,750.0351044000126,750.5373809000012,750.0351044000126,750.5373809000012,750.0351044000126,750.5373809000012,750.0351044000126,None,,,,,,,,,,,,,,,,,,,,,,,,,,,,,,,,,,,,,,,,,,11022,001,2024_Jan_05_1430,nback,2021.2.3,60.00168004586376,
