backseq,backinstr,backfile,instruction,size_in,Trialtype,back,number,P1,P2,P3,P4,corrAns,trials_practice.thisRepN,trials_practice.thisTrialN,trials_practice.thisN,trials_practice.thisIndex,trials.thisRepN,trials.thisTrialN,trials.thisN,trials.thisIndex,trials_3.thisRepN,trials_3.thisTrialN,trials_3.thisN,trials_3.thisIndex,trials_2.thisRepN,trials_2.thisTrialN,trials_2.thisN,trials_2.thisIndex,trials_4.thisRepN,trials_4.thisTrialN,trials_4.thisN,trials_4.thisIndex,image.started,image.stopped,image_2.started,image_2.stopped,key_resp.keys,key_resp.rt,key_resp.started,key_resp.stopped,image_3.started,image_3.stopped,key_resp_2.keys,key_resp_2.rt,key_resp_2.started,key_resp_2.stopped,image_4.started,image_4.stopped,text.started,text.stopped,H1.started,H1.stopped,H2.started,H2.stopped,H3.started,H3.stopped,H4.started,H4.stopped,key_resp_3.keys,key_resp_3.corr,key_resp_3.rt,key_resp_3.started,key_resp_3.stopped,text_4.started,text_4.stopped,F1.started,F1.stopped,F2.started,F2.stopped,F3.started,F3.stopped,F4.started,F4.stopped,image_7.started,image_7.stopped,text_5.started,text_5.stopped,key_resp_6.keys,key_resp_6.rt,key_resp_6.started,key_resp_6.stopped,image_5.started,image_5.stopped,key_resp_4.keys,key_resp_4.rt,key_resp_4.started,key_resp_4.stopped,key_resp_5.keys,key_resp_5.corr,key_resp_5.started,key_resp_5.stopped,text_3.started,text_3.stopped,H1_2.started,H1_2.stopped,H2_2.started,H2_2.stopped,H3_2.started,H3_2.stopped,H4_2.started,H4_2.stopped,F1_2.started,F1_2.stopped,F2_2.started,F2_2.stopped,F3_2.started,F3_2.stopped,F4_2.started,F4_2.stopped,image_8.started,image_8.stopped,key_resp_5.rt,text_2.started,text_2.stopped,image_6.started,image_6.stopped,participant,session,date,expName,psychopyVersion,frameRate,
,,,,,,,,,,,,,,,,,,,,,,,,,,,,,,,,,10.739448999986053,None,11.674453199986601,None,space,8.77358879998792,11.674453199986601,None,,,,,,,,,,,,,,,,,,,,,,,,,,,,,,,,,,,,,,,,,,,,,,,,,,,,,,,,,,,,,,,,,,,,,,,,,,,,,11034,001,2024_Jan_16_1059,nback,2021.2.3,60.15551403904486,
0-back,instructions\back-0.png,conditions\0back-p.xlsx,instructions\0-BACK.png,"(15, 8)",practice,0,1,stim\yellow.png,stim\gray.png,stim\gray.png,stim\gray.png,up,0,0,0,0,0,0,0,0,0,0,0,0,,,,,,,,,,,,,,,,,20.52105370000936,None,space,1.9266854000161402,20.52105370000936,None,22.64007439999841,27.148878200008767,27.08155820000684,None,27.49846339999931,28.499723199987784,27.49846339999931,28.499723199987784,27.49846339999931,28.499723199987784,27.49846339999931,28.499723199987784,up,1,0.5184638000209816,27.49846339999931,None,27.49846339999931,None,27.49846339999931,27.999700799991842,27.49846339999931,27.999700799991842,27.49846339999931,27.999700799991842,27.49846339999931,27.999700799991842,27.49846339999931,None,,,,,,,,,,,,,,,,,,,,,,,,,,,,,,,,,,,,,,,,,,11034,001,2024_Jan_16_1059,nback,2021.2.3,60.15551403904486,
0-back,instructions\back-0.png,conditions\0back-p.xlsx,instructions\0-BACK.png,"(15, 8)",practice,0,2,stim\gray.png,stim\yellow.png,stim\gray.png,stim\gray.png,left,0,0,0,0,0,0,0,0,0,1,1,1,,,,,,,,,,,,,,,,,,,,,,,,,,,28.983669100009138,29.98535420000553,28.983669100009138,29.98535420000553,28.983669100009138,29.98535420000553,28.983669100009138,29.98535420000553,left,1,0.4564998999994714,28.983669100009138,None,28.983669100009138,None,28.983669100009138,29.48455880000256,28.983669100009138,29.48455880000256,28.983669100009138,29.48455880000256,28.983669100009138,29.48455880000256,28.983669100009138,None,,,,,,,,,,,,,,,,,,,,,,,,,,,,,,,,,,,,,,,,,,11034,001,2024_Jan_16_1059,nback,2021.2.3,60.15551403904486,
0-back,instructions\back-0.png,conditions\0back-p.xlsx,instructions\0-BACK.png,"(15, 8)",practice,0,3,stim\gray.png,stim\gray.png,stim\yellow.png,stim\gray.png,right,0,0,0,0,0,0,0,0,0,2,2,2,,,,,,,,,,,,,,,,,,,,,,,,,,,30.486191900010454,31.48772830000962,30.486191900010454,31.48772830000962,30.486191900010454,31.48772830000962,30.486191900010454,31.48772830000962,right,1,0.2985711000219453,30.486191900010454,None,30.486191900010454,None,30.486191900010454,30.986803899984807,30.486191900010454,30.986803899984807,30.486191900010454,30.986803899984807,30.486191900010454,30.986803899984807,30.486191900010454,None,,,,,,,,,,,,,,,,,,,,,,,,,,,,,,,,,,,,,,,,,,11034,001,2024_Jan_16_1059,nback,2021.2.3,60.15551403904486,
0-back,instructions\back-0.png,conditions\0back-p.xlsx,instructions\0-BACK.png,"(15, 8)",practice,0,4,stim\gray.png,stim\gray.png,stim\gray.png,stim\yellow.png,down,0,0,0,0,0,0,0,0,0,3,3,3,,,,,,,,,,,,,,,,,,,,,,,,,,,31.98856890000752,32.989984399988316,31.98856890000752,32.989984399988316,31.98856890000752,32.989984399988316,31.98856890000752,32.989984399988316,down,1,0.4356217999884393,31.98856890000752,None,31.98856890000752,None,31.98856890000752,32.4891546999861,31.98856890000752,32.4891546999861,31.98856890000752,32.4891546999861,31.98856890000752,32.4891546999861,31.98856890000752,None,,,,,,,,,,,,,,,,,,,,,,,,,,,,,,,,,,,,,,,,,,11034,001,2024_Jan_16_1059,nback,2021.2.3,60.15551403904486,
0-back,instructions\back-0.png,conditions\0back-p.xlsx,instructions\0-BACK.png,"(15, 8)",practice,0,2,stim\gray.png,stim\yellow.png,stim\gray.png,stim\gray.png,left,0,0,0,0,0,0,0,0,0,4,4,4,,,,,,,,,,,,,,,,,,,,,,,,,,,33.490623299992876,34.492280400008895,33.490623299992876,34.492280400008895,33.490623299992876,34.492280400008895,33.490623299992876,34.492280400008895,left,1,0.32541020002099685,33.490623299992876,None,33.490623299992876,None,33.490623299992876,33.99134609999601,33.490623299992876,33.99134609999601,33.490623299992876,33.99134609999601,33.490623299992876,33.99134609999601,33.490623299992876,None,,,,,,,,,,,,,,,,,,,,,,,,,,,,,,,,,,,,,,,,,,11034,001,2024_Jan_16_1059,nback,2021.2.3,60.15551403904486,
0-back,instructions\back-0.png,conditions\0back-p.xlsx,instructions\0-BACK.png,"(15, 8)",practice,0,1,stim\yellow.png,stim\gray.png,stim\gray.png,stim\gray.png,up,0,0,0,0,0,0,0,0,0,5,5,5,,,,,,,,,,,,,,,,,,,,,,,,,,,34.994038899982115,35.99455440000747,34.994038899982115,35.99455440000747,34.994038899982115,35.99455440000747,34.994038899982115,35.99455440000747,up,1,0.2944149000104517,34.994038899982115,None,34.994038899982115,None,34.994038899982115,35.4935867000022,34.994038899982115,35.4935867000022,34.994038899982115,35.4935867000022,34.994038899982115,35.4935867000022,34.994038899982115,None,,,,,,,,,,,,,,,,,,,,,,,,,,,,,,,,,,,,,,,,,,11034,001,2024_Jan_16_1059,nback,2021.2.3,60.15551403904486,
0-back,instructions\back-0.png,conditions\0back-p.xlsx,instructions\0-BACK.png,"(15, 8)",practice,0,4,stim\gray.png,stim\gray.png,stim\gray.png,stim\yellow.png,down,0,0,0,0,0,0,0,0,0,6,6,6,,,,,,,,,,,,,,,,,,,,,,,,,,,36.495603499992285,37.49784029999864,36.495603499992285,37.49784029999864,36.495603499992285,37.49784029999864,36.495603499992285,37.49784029999864,down,1,0.49707699997816235,36.495603499992285,None,36.495603499992285,None,36.495603499992285,36.996078600001056,36.495603499992285,36.996078600001056,36.495603499992285,36.996078600001056,36.495603499992285,36.996078600001056,36.495603499992285,None,,,,,,,,,,,,,,,,,,,,,,,,,,,,,,,,,,,,,,,,,,11034,001,2024_Jan_16_1059,nback,2021.2.3,60.15551403904486,
0-back,instructions\back-0.png,conditions\0back-p.xlsx,instructions\0-BACK.png,"(15, 8)",practice,0,3,stim\gray.png,stim\gray.png,stim\yellow.png,stim\gray.png,right,0,0,0,0,0,0,0,0,0,7,7,7,,,,,,,,,,,,,,,,,,,,,,,,,,,37.98073380001006,38.982873500004644,37.98073380001006,38.982873500004644,37.98073380001006,38.982873500004644,37.98073380001006,38.982873500004644,right,1,0.33975239997380413,37.98073380001006,None,37.98073380001006,None,37.98073380001006,38.48153319998528,37.98073380001006,38.48153319998528,37.98073380001006,38.48153319998528,37.98073380001006,38.48153319998528,37.98073380001006,None,,,,,,,,,,,,,,,,,,,,,,,,,,,,,,,,,,,,,,,,,,11034,001,2024_Jan_16_1059,nback,2021.2.3,60.15551403904486,
0-back,instructions\back-0.png,conditions\0back-p.xlsx,instructions\0-BACK.png,"(15, 8)",practice,0,3,stim\gray.png,stim\gray.png,stim\yellow.png,stim\gray.png,right,0,0,0,0,0,0,0,0,0,8,8,8,,,,,,,,,,,,,,,,,,,,,,,,,,,39.48301910000737,40.485280499997316,39.48301910000737,40.485280499997316,39.48301910000737,40.485280499997316,39.48301910000737,40.485280499997316,right,1,0.3417470999993384,39.48301910000737,None,39.48301910000737,None,39.48301910000737,39.98384299999452,39.48301910000737,39.98384299999452,39.48301910000737,39.98384299999452,39.48301910000737,39.98384299999452,39.48301910000737,None,,,,,,,,,,,,,,,,,,,,,,,,,,,,,,,,,,,,,,,,,,11034,001,2024_Jan_16_1059,nback,2021.2.3,60.15551403904486,
0-back,instructions\back-0.png,conditions\0back-p.xlsx,instructions\0-BACK.png,"(15, 8)",practice,0,4,stim\gray.png,stim\gray.png,stim\gray.png,stim\yellow.png,down,0,0,0,0,0,0,0,0,0,9,9,9,,,,,,,,,,,,,,,,,,,,,,,,,,,40.985645100008696,41.9868209999986,40.985645100008696,41.9868209999986,40.985645100008696,41.9868209999986,40.985645100008696,41.9868209999986,down,1,0.6791778999904636,40.985645100008696,None,40.985645100008696,None,40.985645100008696,41.486094299994875,40.985645100008696,41.486094299994875,40.985645100008696,41.486094299994875,40.985645100008696,41.486094299994875,40.985645100008696,None,,,,,,,,,,,,,,,,,,,,,,,,,,,,,,,,,,,,,,,,,,11034,001,2024_Jan_16_1059,nback,2021.2.3,60.15551403904486,
0-back,instructions\back-0.png,conditions\0back-p.xlsx,instructions\0-BACK.png,"(15, 8)",practice,0,1,stim\yellow.png,stim\gray.png,stim\gray.png,stim\gray.png,up,0,0,0,0,0,0,0,0,0,10,10,10,,,,,,,,,,,,,,,,,,,,,,,,,,,42.487427099986235,43.489144499995746,42.487427099986235,43.489144499995746,42.487427099986235,43.489144499995746,42.487427099986235,43.489144499995746,up,1,0.35361220000777394,42.487427099986235,None,42.487427099986235,None,42.487427099986235,42.98818559999927,42.487427099986235,42.98818559999927,42.487427099986235,42.98818559999927,42.487427099986235,42.98818559999927,42.487427099986235,None,,,,,,,,,,,,,,,,,,,,,,,,,,,,,,,,,,,,,,,,,,11034,001,2024_Jan_16_1059,nback,2021.2.3,60.15551403904486,
0-back,instructions\back-0.png,conditions\0back-p.xlsx,instructions\0-BACK.png,"(15, 8)",practice,0,2,stim\gray.png,stim\yellow.png,stim\gray.png,stim\gray.png,left,0,0,0,0,0,0,0,0,0,11,11,11,,,,,,,,,,,,,,,,,,,,,,,,,,,43.98975619999692,44.991269499994814,43.98975619999692,44.991269499994814,43.98975619999692,44.991269499994814,43.98975619999692,44.991269499994814,left,1,0.2752885000081733,43.98975619999692,None,43.98975619999692,None,43.98975619999692,44.491533499996876,43.98975619999692,44.491533499996876,43.98975619999692,44.491533499996876,43.98975619999692,44.491533499996876,43.98975619999692,None,,,,,,,,,,,,,,,,,,,,,,,,,,,,,,,,,,,,,,,,,,11034,001,2024_Jan_16_1059,nback,2021.2.3,60.15551403904486,
0-back,instructions\back-0.png,conditions\0back-p.xlsx,instructions\0-BACK.png,"(15, 8)",practice,0,4,stim\gray.png,stim\gray.png,stim\gray.png,stim\yellow.png,down,0,0,0,0,0,0,0,0,0,12,12,12,,,,,,,,,,,,,,,,,,,,,,,,,,,45.49217330000829,46.49355059998925,45.49217330000829,46.49355059998925,45.49217330000829,46.49355059998925,45.49217330000829,46.49355059998925,down,1,0.3485078999947291,45.49217330000829,None,45.49217330000829,None,45.49217330000829,45.99405750000733,45.49217330000829,45.99405750000733,45.49217330000829,45.99405750000733,45.49217330000829,45.99405750000733,45.49217330000829,None,,,,,,,,,,,,,,,,,,,,,,,,,,,,,,,,,,,,,,,,,,11034,001,2024_Jan_16_1059,nback,2021.2.3,60.15551403904486,
0-back,instructions\back-0.png,conditions\0back-p.xlsx,instructions\0-BACK.png,"(15, 8)",practice,0,3,stim\gray.png,stim\gray.png,stim\yellow.png,stim\gray.png,right,0,0,0,0,0,0,0,0,0,13,13,13,,,,,,,,,,,,,,,,,,,,,,,,,,,46.977734799991595,47.98025140000391,46.977734799991595,47.98025140000391,46.977734799991595,47.98025140000391,46.977734799991595,47.98025140000391,right,1,0.29523089999565855,46.977734799991595,None,46.977734799991595,None,46.977734799991595,47.47907750000013,46.977734799991595,47.47907750000013,46.977734799991595,47.47907750000013,46.977734799991595,47.47907750000013,46.977734799991595,None,,,,,,,,,,,,,,,,,,,,,,,,,,,,,,,,,,,,,,,,,,11034,001,2024_Jan_16_1059,nback,2021.2.3,60.15551403904486,
0-back,instructions\back-0.png,conditions\0back-p.xlsx,instructions\0-BACK.png,"(15, 8)",practice,0,1,stim\yellow.png,stim\gray.png,stim\gray.png,stim\gray.png,up,0,0,0,0,0,0,0,0,0,14,14,14,,,,,,,,,,,,,,,,,,,,,,,,,,,48.47976389998803,49.481303899985505,48.47976389998803,49.481303899985505,48.47976389998803,49.481303899985505,48.47976389998803,49.481303899985505,up,1,0.3930810999881942,48.47976389998803,None,48.47976389998803,None,48.47976389998803,48.980620499991346,48.47976389998803,48.980620499991346,48.47976389998803,48.980620499991346,48.47976389998803,48.980620499991346,48.47976389998803,None,,,,,,,,,,,,,,,,,,,,,,,,,,,,,,,,,,,,,,,,,,11034,001,2024_Jan_16_1059,nback,2021.2.3,60.15551403904486,
0-back,instructions\back-0.png,conditions\0back-p.xlsx,instructions\0-BACK.png,"(15, 8)",practice,0,2,stim\gray.png,stim\yellow.png,stim\gray.png,stim\gray.png,left,0,0,0,0,0,0,0,0,0,15,15,15,,,,,,,,,,,,,,,,,,,,,,,,,,,49.98196299999836,50.98502649998409,49.98196299999836,50.98502649998409,49.98196299999836,50.98502649998409,49.98196299999836,50.98502649998409,left,1,0.3069104000169318,49.98196299999836,None,49.98196299999836,None,49.98196299999836,50.48301840000204,49.98196299999836,50.48301840000204,49.98196299999836,50.48301840000204,49.98196299999836,50.48301840000204,49.98196299999836,None,,,,,,,,,,,,,,,,,,,,,,,,,,,,,,,,,,,,,,,,,,11034,001,2024_Jan_16_1059,nback,2021.2.3,60.15551403904486,
0-back,instructions\back-0.png,conditions\0back-p.xlsx,instructions\0-BACK.png,"(15, 8)",practice,0,3,stim\gray.png,stim\gray.png,stim\yellow.png,stim\gray.png,right,0,0,0,0,0,0,0,0,0,16,16,16,,,,,,,,,,,,,,,,,,,,,,,,,,,51.48449370000162,52.48599419998936,51.48449370000162,52.48599419998936,51.48449370000162,52.48599419998936,51.48449370000162,52.48599419998936,right,1,0.36422139999922365,51.48449370000162,None,51.48449370000162,None,51.48449370000162,51.98525269998936,51.48449370000162,51.98525269998936,51.48449370000162,51.98525269998936,51.48449370000162,51.98525269998936,51.48449370000162,None,,,,,,,,,,,,,,,,,,,,,,,,,,,,,,,,,,,,,,,,,,11034,001,2024_Jan_16_1059,nback,2021.2.3,60.15551403904486,
0-back,instructions\back-0.png,conditions\0back-p.xlsx,instructions\0-BACK.png,"(15, 8)",practice,0,1,stim\yellow.png,stim\gray.png,stim\gray.png,stim\gray.png,up,0,0,0,0,0,0,0,0,0,17,17,17,,,,,,,,,,,,,,,,,,,,,,,,,,,52.98660400000517,53.9882620999997,52.98660400000517,53.9882620999997,52.98660400000517,53.9882620999997,52.98660400000517,53.9882620999997,up,1,0.3343616999918595,52.98660400000517,None,52.98660400000517,None,52.98660400000517,53.48864870000398,52.98660400000517,53.48864870000398,52.98660400000517,53.48864870000398,52.98660400000517,53.48864870000398,52.98660400000517,None,,,,,,,,,,,,,,,,,,,,,,,,,,,,,,,,,,,,,,,,,,11034,001,2024_Jan_16_1059,nback,2021.2.3,60.15551403904486,
0-back,instructions\back-0.png,conditions\0back-p.xlsx,instructions\0-BACK.png,"(15, 8)",practice,0,4,stim\gray.png,stim\gray.png,stim\gray.png,stim\yellow.png,down,0,0,0,0,0,0,0,0,0,18,18,18,,,,,,,,,,,,,,,,,,,,,,,,,,,54.489116399985505,55.49045589999878,54.489116399985505,55.49045589999878,54.489116399985505,55.49045589999878,54.489116399985505,55.49045589999878,down,1,0.3207313000166323,54.489116399985505,None,54.489116399985505,None,54.489116399985505,54.989732299989555,54.489116399985505,54.989732299989555,54.489116399985505,54.989732299989555,54.489116399985505,54.989732299989555,54.489116399985505,None,,,,,,,,,,,,,,,,,,,,,,,,,,,,,,,,,,,,,,,,,,11034,001,2024_Jan_16_1059,nback,2021.2.3,60.15551403904486,
0-back,instructions\back-0.png,conditions\0back-p.xlsx,instructions\0-BACK.png,"(15, 8)",practice,0,2,stim\gray.png,stim\yellow.png,stim\gray.png,stim\gray.png,left,0,0,0,0,0,0,0,0,0,19,19,19,,,,,,,,,,,,,,,,,,,,,,,,,,,55.99164789999486,56.99402829998871,55.99164789999486,56.99402829998871,55.99164789999486,56.99402829998871,55.99164789999486,56.99402829998871,left,1,0.3055534000159241,55.99164789999486,None,55.99164789999486,None,55.99164789999486,56.49290720000863,55.99164789999486,56.49290720000863,55.99164789999486,56.49290720000863,55.99164789999486,56.49290720000863,55.99164789999486,None,,,,,,,,,,,,,,,,,,,,,,,,,,,,,,,,,,,,,,,,,,11034,001,2024_Jan_16_1059,nback,2021.2.3,60.15551403904486,
0-back,instructions\back-0.png,conditions\0back-p.xlsx,instructions\0-BACK.png,"(15, 8)",,,,,,,,,0,0,0,0,0,0,0,0,,,,,,,,,,,,,,,,,,,,,,,,,,,,,,,,,,,,,,,,,,,,,,,,,,,,,,,,,,,,,,,,,,,,,,,,,,,,,,,,,,,,,,,,,,,,,,,,,11034,001,2024_Jan_16_1059,nback,2021.2.3,60.15551403904486,
1-back,instructions\back-1.png,conditions\1back-p.xlsx,instructions\1-BACK.png,"(25, 15)",practice,1,1,stim\yellow.png,stim\gray.png,stim\gray.png,stim\gray.png,None,0,0,0,0,0,1,1,1,0,0,0,0,,,,,,,,,,,,,,,,,57.67688340001041,None,space,4.875874199991813,57.67688340001041,None,62.75211169998511,67.25837309999042,67.22486509999726,None,67.60890429999563,68.61085430000094,67.60890429999563,68.61085430000094,67.60890429999563,68.61085430000094,67.60890429999563,68.61085430000094,None,1,,67.60890429999563,None,67.60890429999563,None,67.60890429999563,68.11023419999401,67.60890429999563,68.11023419999401,67.60890429999563,68.11023419999401,67.60890429999563,68.11023419999401,67.60890429999563,None,,,,,,,,,,,,,,,,,,,,,,,,,,,,,,,,,,,,,,,,,,11034,001,2024_Jan_16_1059,nback,2021.2.3,60.15551403904486,
1-back,instructions\back-1.png,conditions\1back-p.xlsx,instructions\1-BACK.png,"(25, 15)",practice,1,2,stim\gray.png,stim\yellow.png,stim\gray.png,stim\gray.png,up,0,0,0,0,0,1,1,1,0,1,1,1,,,,,,,,,,,,,,,,,,,,,,,,,,,69.09448919998249,70.0962942999904,69.09448919998249,70.0962942999904,69.09448919998249,70.0962942999904,69.09448919998249,70.0962942999904,None,0,,69.09448919998249,None,69.09448919998249,None,69.09448919998249,69.59517099999357,69.09448919998249,69.59517099999357,69.09448919998249,69.59517099999357,69.09448919998249,69.59517099999357,69.09448919998249,None,,,,,,,,,,,,,,,,,,,,,,,,,,,,,,,,,,,,,,,,,,11034,001,2024_Jan_16_1059,nback,2021.2.3,60.15551403904486,
1-back,instructions\back-1.png,conditions\1back-p.xlsx,instructions\1-BACK.png,"(25, 15)",practice,1,3,stim\gray.png,stim\gray.png,stim\yellow.png,stim\gray.png,left,0,0,0,0,0,1,1,1,0,2,2,2,,,,,,,,,,,,,,,,,,,,,,,,,,,70.59753629998886,71.59798409999348,70.59753629998886,71.59798409999348,70.59753629998886,71.59798409999348,70.59753629998886,71.59798409999348,left,1,0.3242842000036035,70.59753629998886,None,70.59753629998886,None,70.59753629998886,71.09748299999046,70.59753629998886,71.09748299999046,70.59753629998886,71.09748299999046,70.59753629998886,71.09748299999046,70.59753629998886,None,,,,,,,,,,,,,,,,,,,,,,,,,,,,,,,,,,,,,,,,,,11034,001,2024_Jan_16_1059,nback,2021.2.3,60.15551403904486,
1-back,instructions\back-1.png,conditions\1back-p.xlsx,instructions\1-BACK.png,"(25, 15)",practice,1,4,stim\gray.png,stim\gray.png,stim\gray.png,stim\yellow.png,right,0,0,0,0,0,1,1,1,0,3,3,3,,,,,,,,,,,,,,,,,,,,,,,,,,,72.09897839999758,73.10055020000436,72.09897839999758,73.10055020000436,72.09897839999758,73.10055020000436,72.09897839999758,73.10055020000436,right,1,0.33559519998379983,72.09897839999758,None,72.09897839999758,None,72.09897839999758,72.59976399998413,72.09897839999758,72.59976399998413,72.09897839999758,72.59976399998413,72.09897839999758,72.59976399998413,72.09897839999758,None,,,,,,,,,,,,,,,,,,,,,,,,,,,,,,,,,,,,,,,,,,11034,001,2024_Jan_16_1059,nback,2021.2.3,60.15551403904486,
1-back,instructions\back-1.png,conditions\1back-p.xlsx,instructions\1-BACK.png,"(25, 15)",practice,1,2,stim\gray.png,stim\yellow.png,stim\gray.png,stim\gray.png,down,0,0,0,0,0,1,1,1,0,4,4,4,,,,,,,,,,,,,,,,,,,,,,,,,,,73.60119349998422,74.60286089999136,73.60119349998422,74.60286089999136,73.60119349998422,74.60286089999136,73.60119349998422,74.60286089999136,down,1,0.28858089999994263,73.60119349998422,None,73.60119349998422,None,73.60119349998422,74.10235890001059,73.60119349998422,74.10235890001059,73.60119349998422,74.10235890001059,73.60119349998422,74.10235890001059,73.60119349998422,None,,,,,,,,,,,,,,,,,,,,,,,,,,,,,,,,,,,,,,,,,,11034,001,2024_Jan_16_1059,nback,2021.2.3,60.15551403904486,
1-back,instructions\back-1.png,conditions\1back-p.xlsx,instructions\1-BACK.png,"(25, 15)",practice,1,1,stim\yellow.png,stim\gray.png,stim\gray.png,stim\gray.png,left,0,0,0,0,0,1,1,1,0,5,5,5,,,,,,,,,,,,,,,,,,,,,,,,,,,75.10326400000486,76.10573869998916,75.10326400000486,76.10573869998916,75.10326400000486,76.10573869998916,75.10326400000486,76.10573869998916,left,1,0.34620349999750033,75.10326400000486,None,75.10326400000486,None,75.10326400000486,75.6048027999932,75.10326400000486,75.6048027999932,75.10326400000486,75.6048027999932,75.10326400000486,75.6048027999932,75.10326400000486,None,,,,,,,,,,,,,,,,,,,,,,,,,,,,,,,,,,,,,,,,,,11034,001,2024_Jan_16_1059,nback,2021.2.3,60.15551403904486,
1-back,instructions\back-1.png,conditions\1back-p.xlsx,instructions\1-BACK.png,"(25, 15)",practice,1,4,stim\gray.png,stim\gray.png,stim\gray.png,stim\yellow.png,up,0,0,0,0,0,1,1,1,0,6,6,6,,,,,,,,,,,,,,,,,,,,,,,,,,,76.58892519999063,77.59140699999989,76.58892519999063,77.59140699999989,76.58892519999063,77.59140699999989,76.58892519999063,77.59140699999989,up,1,0.2765897999925073,76.58892519999063,None,76.58892519999063,None,76.58892519999063,77.0901620000077,76.58892519999063,77.0901620000077,76.58892519999063,77.0901620000077,76.58892519999063,77.0901620000077,76.58892519999063,None,,,,,,,,,,,,,,,,,,,,,,,,,,,,,,,,,,,,,,,,,,11034,001,2024_Jan_16_1059,nback,2021.2.3,60.15551403904486,
1-back,instructions\back-1.png,conditions\1back-p.xlsx,instructions\1-BACK.png,"(25, 15)",practice,1,3,stim\gray.png,stim\gray.png,stim\yellow.png,stim\gray.png,down,0,0,0,0,0,1,1,1,0,7,7,7,,,,,,,,,,,,,,,,,,,,,,,,,,,78.09127740000258,79.09293409998645,78.09127740000258,79.09293409998645,78.09127740000258,79.09293409998645,78.09127740000258,79.09293409998645,down,1,0.28620889998273924,78.09127740000258,None,78.09127740000258,None,78.09127740000258,78.59195850000833,78.09127740000258,78.59195850000833,78.09127740000258,78.59195850000833,78.09127740000258,78.59195850000833,78.09127740000258,None,,,,,,,,,,,,,,,,,,,,,,,,,,,,,,,,,,,,,,,,,,11034,001,2024_Jan_16_1059,nback,2021.2.3,60.15551403904486,
1-back,instructions\back-1.png,conditions\1back-p.xlsx,instructions\1-BACK.png,"(25, 15)",practice,1,3,stim\gray.png,stim\gray.png,stim\yellow.png,stim\gray.png,right,0,0,0,0,0,1,1,1,0,8,8,8,,,,,,,,,,,,,,,,,,,,,,,,,,,79.59362770000007,80.5960347999935,79.59362770000007,80.5960347999935,79.59362770000007,80.5960347999935,79.59362770000007,80.5960347999935,right,1,0.3923179999983404,79.59362770000007,None,79.59362770000007,None,79.59362770000007,80.09429989999626,79.59362770000007,80.09429989999626,79.59362770000007,80.09429989999626,79.59362770000007,80.09429989999626,79.59362770000007,None,,,,,,,,,,,,,,,,,,,,,,,,,,,,,,,,,,,,,,,,,,11034,001,2024_Jan_16_1059,nback,2021.2.3,60.15551403904486,
1-back,instructions\back-1.png,conditions\1back-p.xlsx,instructions\1-BACK.png,"(25, 15)",practice,1,4,stim\gray.png,stim\gray.png,stim\gray.png,stim\yellow.png,right,0,0,0,0,0,1,1,1,0,9,9,9,,,,,,,,,,,,,,,,,,,,,,,,,,,81.09704299998702,82.09716219999245,81.09704299998702,82.09716219999245,81.09704299998702,82.09716219999245,81.09704299998702,82.09716219999245,right,1,0.31310289999237284,81.09704299998702,None,81.09704299998702,None,81.09704299998702,81.59665259998292,81.09704299998702,81.59665259998292,81.09704299998702,81.59665259998292,81.09704299998702,81.59665259998292,81.09704299998702,None,,,,,,,,,,,,,,,,,,,,,,,,,,,,,,,,,,,,,,,,,,11034,001,2024_Jan_16_1059,nback,2021.2.3,60.15551403904486,
1-back,instructions\back-1.png,conditions\1back-p.xlsx,instructions\1-BACK.png,"(25, 15)",practice,1,1,stim\yellow.png,stim\gray.png,stim\gray.png,stim\gray.png,down,0,0,0,0,0,1,1,1,0,10,10,10,,,,,,,,,,,,,,,,,,,,,,,,,,,82.59818289999384,83.59990979998838,82.59818289999384,83.59990979998838,82.59818289999384,83.59990979998838,82.59818289999384,83.59990979998838,down,1,0.25952740001957864,82.59818289999384,None,82.59818289999384,None,82.59818289999384,83.0995935999963,82.59818289999384,83.0995935999963,82.59818289999384,83.0995935999963,82.59818289999384,83.0995935999963,82.59818289999384,None,,,,,,,,,,,,,,,,,,,,,,,,,,,,,,,,,,,,,,,,,,11034,001,2024_Jan_16_1059,nback,2021.2.3,60.15551403904486,
1-back,instructions\back-1.png,conditions\1back-p.xlsx,instructions\1-BACK.png,"(25, 15)",practice,1,2,stim\gray.png,stim\yellow.png,stim\gray.png,stim\gray.png,up,0,0,0,0,0,1,1,1,0,11,11,11,,,,,,,,,,,,,,,,,,,,,,,,,,,84.10033409998869,85.1031076000072,84.10033409998869,85.1031076000072,84.10033409998869,85.1031076000072,84.10033409998869,85.1031076000072,up,1,0.22990869998466223,84.10033409998869,None,84.10033409998869,None,84.10033409998869,84.60114969999995,84.10033409998869,84.60114969999995,84.10033409998869,84.60114969999995,84.10033409998869,84.60114969999995,84.10033409998869,None,,,,,,,,,,,,,,,,,,,,,,,,,,,,,,,,,,,,,,,,,,11034,001,2024_Jan_16_1059,nback,2021.2.3,60.15551403904486,
1-back,instructions\back-1.png,conditions\1back-p.xlsx,instructions\1-BACK.png,"(25, 15)",practice,1,4,stim\gray.png,stim\gray.png,stim\gray.png,stim\yellow.png,left,0,0,0,0,0,1,1,1,0,12,12,12,,,,,,,,,,,,,,,,,,,,,,,,,,,85.60264120000647,86.60431359999347,85.60264120000647,86.60431359999347,85.60264120000647,86.60431359999347,85.60264120000647,86.60431359999347,left,1,0.23144930001581088,85.60264120000647,None,85.60264120000647,None,85.60264120000647,86.1042882000038,85.60264120000647,86.1042882000038,85.60264120000647,86.1042882000038,85.60264120000647,86.1042882000038,85.60264120000647,None,,,,,,,,,,,,,,,,,,,,,,,,,,,,,,,,,,,,,,,,,,11034,001,2024_Jan_16_1059,nback,2021.2.3,60.15551403904486,
1-back,instructions\back-1.png,conditions\1back-p.xlsx,instructions\1-BACK.png,"(25, 15)",practice,1,3,stim\gray.png,stim\gray.png,stim\yellow.png,stim\gray.png,down,0,0,0,0,0,1,1,1,0,13,13,13,,,,,,,,,,,,,,,,,,,,,,,,,,,87.08814390000771,88.0908025999961,87.08814390000771,88.0908025999961,87.08814390000771,88.0908025999961,87.08814390000771,88.0908025999961,down,1,0.1778516999911517,87.08814390000771,None,87.08814390000771,None,87.08814390000771,87.5890359999903,87.08814390000771,87.5890359999903,87.08814390000771,87.5890359999903,87.08814390000771,87.5890359999903,87.08814390000771,None,,,,,,,,,,,,,,,,,,,,,,,,,,,,,,,,,,,,,,,,,,11034,001,2024_Jan_16_1059,nback,2021.2.3,60.15551403904486,
1-back,instructions\back-1.png,conditions\1back-p.xlsx,instructions\1-BACK.png,"(25, 15)",practice,1,1,stim\yellow.png,stim\gray.png,stim\gray.png,stim\gray.png,right,0,0,0,0,0,1,1,1,0,14,14,14,,,,,,,,,,,,,,,,,,,,,,,,,,,88.5904065000068,89.59231040001032,88.5904065000068,89.59231040001032,88.5904065000068,89.59231040001032,88.5904065000068,89.59231040001032,right,1,0.32381549998535775,88.5904065000068,None,88.5904065000068,None,88.5904065000068,89.09148810000625,88.5904065000068,89.09148810000625,88.5904065000068,89.09148810000625,88.5904065000068,89.09148810000625,88.5904065000068,None,,,,,,,,,,,,,,,,,,,,,,,,,,,,,,,,,,,,,,,,,,11034,001,2024_Jan_16_1059,nback,2021.2.3,60.15551403904486,
1-back,instructions\back-1.png,conditions\1back-p.xlsx,instructions\1-BACK.png,"(25, 15)",practice,1,2,stim\gray.png,stim\yellow.png,stim\gray.png,stim\gray.png,up,0,0,0,0,0,1,1,1,0,15,15,15,,,,,,,,,,,,,,,,,,,,,,,,,,,90.09319109999342,91.09447979999823,90.09319109999342,91.09447979999823,90.09319109999342,91.09447979999823,90.09319109999342,91.09447979999823,up,1,0.308658199995989,90.09319109999342,None,90.09319109999342,None,90.09319109999342,90.59361169999465,90.09319109999342,90.59361169999465,90.09319109999342,90.59361169999465,90.09319109999342,90.59361169999465,90.09319109999342,None,,,,,,,,,,,,,,,,,,,,,,,,,,,,,,,,,,,,,,,,,,11034,001,2024_Jan_16_1059,nback,2021.2.3,60.15551403904486,
1-back,instructions\back-1.png,conditions\1back-p.xlsx,instructions\1-BACK.png,"(25, 15)",practice,1,3,stim\gray.png,stim\gray.png,stim\yellow.png,stim\gray.png,left,0,0,0,0,0,1,1,1,0,16,16,16,,,,,,,,,,,,,,,,,,,,,,,,,,,91.59489429998212,92.59649920000811,91.59489429998212,92.59649920000811,91.59489429998212,92.59649920000811,91.59489429998212,92.59649920000811,right,0,0.3832708999980241,91.59489429998212,None,91.59489429998212,None,91.59489429998212,92.09589729999425,91.59489429998212,92.09589729999425,91.59489429998212,92.09589729999425,91.59489429998212,92.09589729999425,91.59489429998212,None,,,,,,,,,,,,,,,,,,,,,,,,,,,,,,,,,,,,,,,,,,11034,001,2024_Jan_16_1059,nback,2021.2.3,60.15551403904486,
1-back,instructions\back-1.png,conditions\1back-p.xlsx,instructions\1-BACK.png,"(25, 15)",practice,1,1,stim\yellow.png,stim\gray.png,stim\gray.png,stim\gray.png,right,0,0,0,0,0,1,1,1,0,17,17,17,,,,,,,,,,,,,,,,,,,,,,,,,,,93.0973670000094,94.09882089999155,93.0973670000094,94.09882089999155,93.0973670000094,94.09882089999155,93.0973670000094,94.09882089999155,right,1,1.2166464000183623,93.0973670000094,None,93.0973670000094,None,93.0973670000094,93.59899120000773,93.0973670000094,93.59899120000773,93.0973670000094,93.59899120000773,93.0973670000094,93.59899120000773,93.0973670000094,None,,,,,,,,,,,,,,,,,,,,,,,,,,,,,,,,,,,,,,,,,,11034,001,2024_Jan_16_1059,nback,2021.2.3,60.15551403904486,
1-back,instructions\back-1.png,conditions\1back-p.xlsx,instructions\1-BACK.png,"(25, 15)",practice,1,4,stim\gray.png,stim\gray.png,stim\gray.png,stim\yellow.png,up,0,0,0,0,0,1,1,1,0,18,18,18,,,,,,,,,,,,,,,,,,,,,,,,,,,94.599699399987,95.60126520000631,94.599699399987,95.60126520000631,94.599699399987,95.60126520000631,94.599699399987,95.60126520000631,up,1,0.4104150000202935,94.599699399987,None,94.599699399987,None,94.599699399987,95.101113599987,94.599699399987,95.101113599987,94.599699399987,95.101113599987,94.599699399987,95.101113599987,94.599699399987,None,,,,,,,,,,,,,,,,,,,,,,,,,,,,,,,,,,,,,,,,,,11034,001,2024_Jan_16_1059,nback,2021.2.3,60.15551403904486,
1-back,instructions\back-1.png,conditions\1back-p.xlsx,instructions\1-BACK.png,"(25, 15)",practice,1,2,stim\gray.png,stim\yellow.png,stim\gray.png,stim\gray.png,down,0,0,0,0,0,1,1,1,0,19,19,19,,,,,,,,,,,,,,,,,,,,,,,,,,,96.10190589999547,97.1033322000003,96.10190589999547,97.1033322000003,96.10190589999547,97.1033322000003,96.10190589999547,97.1033322000003,down,1,0.31701160001102835,96.10190589999547,None,96.10190589999547,None,96.10190589999547,96.60271949999151,96.10190589999547,96.60271949999151,96.10190589999547,96.60271949999151,96.10190589999547,96.60271949999151,96.10190589999547,None,,,,,,,,,,,,,,,,,,,,,,,,,,,,,,,,,,,,,,,,,,11034,001,2024_Jan_16_1059,nback,2021.2.3,60.15551403904486,
1-back,instructions\back-1.png,conditions\1back-p.xlsx,instructions\1-BACK.png,"(25, 15)",,,,,,,,,0,0,0,0,0,1,1,1,,,,,,,,,,,,,,,,,,,,,,,,,,,,,,,,,,,,,,,,,,,,,,,,,,,,,,,,,,,,,,,,,,,,,,,,,,,,,,,,,,,,,,,,,,,,,,,,,11034,001,2024_Jan_16_1059,nback,2021.2.3,60.15551403904486,
2-back,instructions\back-2.png,conditions\2back-p.xlsx,instructions\2-BACK.png,"(25, 15)",practice,2,1,stim\yellow.png,stim\gray.png,stim\gray.png,stim\gray.png,None,0,0,0,0,0,2,2,2,0,0,0,0,,,,,,,,,,,,,,,,,97.77114269998856,None,space,3.2801741000148468,97.77114269998856,None,101.22616369999014,105.73432799999136,105.66734889999498,None,106.10160850000102,107.10193159998744,106.10160850000102,107.10193159998744,106.10160850000102,107.10193159998744,106.10160850000102,107.10193159998744,None,1,,106.10160850000102,None,106.10160850000102,None,106.10160850000102,106.60185730000376,106.10160850000102,106.60185730000376,106.10160850000102,106.60185730000376,106.10160850000102,106.60185730000376,106.10160850000102,None,,,,,,,,,,,,,,,,,,,,,,,,,,,,,,,,,,,,,,,,,,11034,001,2024_Jan_16_1059,nback,2021.2.3,60.15551403904486,
2-back,instructions\back-2.png,conditions\2back-p.xlsx,instructions\2-BACK.png,"(25, 15)",practice,2,2,stim\gray.png,stim\yellow.png,stim\gray.png,stim\gray.png,None,0,0,0,0,0,2,2,2,0,1,1,1,,,,,,,,,,,,,,,,,,,,,,,,,,,107.58581739998772,108.58753200000501,107.58581739998772,108.58753200000501,107.58581739998772,108.58753200000501,107.58581739998772,108.58753200000501,None,1,,107.58581739998772,None,107.58581739998772,None,107.58581739998772,108.08669769999688,107.58581739998772,108.08669769999688,107.58581739998772,108.08669769999688,107.58581739998772,108.08669769999688,107.58581739998772,None,,,,,,,,,,,,,,,,,,,,,,,,,,,,,,,,,,,,,,,,,,11034,001,2024_Jan_16_1059,nback,2021.2.3,60.15551403904486,
2-back,instructions\back-2.png,conditions\2back-p.xlsx,instructions\2-BACK.png,"(25, 15)",practice,2,3,stim\gray.png,stim\gray.png,stim\yellow.png,stim\gray.png,up,0,0,0,0,0,2,2,2,0,2,2,2,,,,,,,,,,,,,,,,,,,,,,,,,,,109.08817509998335,110.09107339999173,109.08817509998335,110.09107339999173,109.08817509998335,110.09107339999173,109.08817509998335,110.09107339999173,up,1,0.28245220001554117,109.08817509998335,None,109.08817509998335,None,109.08817509998335,109.58887199999299,109.08817509998335,109.58887199999299,109.08817509998335,109.58887199999299,109.08817509998335,109.58887199999299,109.08817509998335,None,,,,,,,,,,,,,,,,,,,,,,,,,,,,,,,,,,,,,,,,,,11034,001,2024_Jan_16_1059,nback,2021.2.3,60.15551403904486,
2-back,instructions\back-2.png,conditions\2back-p.xlsx,instructions\2-BACK.png,"(25, 15)",practice,2,4,stim\gray.png,stim\gray.png,stim\gray.png,stim\yellow.png,left,0,0,0,0,0,2,2,2,0,3,3,3,,,,,,,,,,,,,,,,,,,,,,,,,,,110.59041410000646,111.59178699998301,110.59041410000646,111.59178699998301,110.59041410000646,111.59178699998301,110.59041410000646,111.59178699998301,left,1,0.23626919998787344,110.59041410000646,None,110.59041410000646,None,110.59041410000646,111.09130900001037,110.59041410000646,111.09130900001037,110.59041410000646,111.09130900001037,110.59041410000646,111.09130900001037,110.59041410000646,None,,,,,,,,,,,,,,,,,,,,,,,,,,,,,,,,,,,,,,,,,,11034,001,2024_Jan_16_1059,nback,2021.2.3,60.15551403904486,
2-back,instructions\back-2.png,conditions\2back-p.xlsx,instructions\2-BACK.png,"(25, 15)",practice,2,2,stim\gray.png,stim\yellow.png,stim\gray.png,stim\gray.png,right,0,0,0,0,0,2,2,2,0,4,4,4,,,,,,,,,,,,,,,,,,,,,,,,,,,112.09278549998999,113.09436260000803,112.09278549998999,113.09436260000803,112.09278549998999,113.09436260000803,112.09278549998999,113.09436260000803,right,1,0.2137831999862101,112.09278549998999,None,112.09278549998999,None,112.09278549998999,112.5933944999997,112.09278549998999,112.5933944999997,112.09278549998999,112.5933944999997,112.09278549998999,112.5933944999997,112.09278549998999,None,,,,,,,,,,,,,,,,,,,,,,,,,,,,,,,,,,,,,,,,,,11034,001,2024_Jan_16_1059,nback,2021.2.3,60.15551403904486,
2-back,instructions\back-2.png,conditions\2back-p.xlsx,instructions\2-BACK.png,"(25, 15)",practice,2,1,stim\yellow.png,stim\gray.png,stim\gray.png,stim\gray.png,down,0,0,0,0,0,2,2,2,0,5,5,5,,,,,,,,,,,,,,,,,,,,,,,,,,,113.59505329999956,114.59647369998856,113.59505329999956,114.59647369998856,113.59505329999956,114.59647369998856,113.59505329999956,114.59647369998856,down,1,0.17608890001429245,113.59505329999956,None,113.59505329999956,None,113.59505329999956,114.09579299998586,113.59505329999956,114.09579299998586,113.59505329999956,114.09579299998586,113.59505329999956,114.09579299998586,113.59505329999956,None,,,,,,,,,,,,,,,,,,,,,,,,,,,,,,,,,,,,,,,,,,11034,001,2024_Jan_16_1059,nback,2021.2.3,60.15551403904486,
2-back,instructions\back-2.png,conditions\2back-p.xlsx,instructions\2-BACK.png,"(25, 15)",practice,2,4,stim\gray.png,stim\gray.png,stim\gray.png,stim\yellow.png,left,0,0,0,0,0,2,2,2,0,6,6,6,,,,,,,,,,,,,,,,,,,,,,,,,,,115.08039049999206,116.08267750000232,115.08039049999206,116.08267750000232,115.08039049999206,116.08267750000232,115.08039049999206,116.08267750000232,left,1,0.21048420001170598,115.08039049999206,None,115.08039049999206,None,115.08039049999206,115.58195429999614,115.08039049999206,115.58195429999614,115.08039049999206,115.58195429999614,115.08039049999206,115.58195429999614,115.08039049999206,None,,,,,,,,,,,,,,,,,,,,,,,,,,,,,,,,,,,,,,,,,,11034,001,2024_Jan_16_1059,nback,2021.2.3,60.15551403904486,
2-back,instructions\back-2.png,conditions\2back-p.xlsx,instructions\2-BACK.png,"(25, 15)",practice,2,3,stim\gray.png,stim\gray.png,stim\yellow.png,stim\gray.png,up,0,0,0,0,0,2,2,2,0,7,7,7,,,,,,,,,,,,,,,,,,,,,,,,,,,116.58275100000901,117.5847991000046,116.58275100000901,117.5847991000046,116.58275100000901,117.5847991000046,116.58275100000901,117.5847991000046,up,1,0.1959398000035435,116.58275100000901,None,116.58275100000901,None,116.58275100000901,117.08438179999939,116.58275100000901,117.08438179999939,116.58275100000901,117.08438179999939,116.58275100000901,117.08438179999939,116.58275100000901,None,,,,,,,,,,,,,,,,,,,,,,,,,,,,,,,,,,,,,,,,,,11034,001,2024_Jan_16_1059,nback,2021.2.3,60.15551403904486,
2-back,instructions\back-2.png,conditions\2back-p.xlsx,instructions\2-BACK.png,"(25, 15)",practice,2,3,stim\gray.png,stim\gray.png,stim\yellow.png,stim\gray.png,down,0,0,0,0,0,2,2,2,0,8,8,8,,,,,,,,,,,,,,,,,,,,,,,,,,,118.0850197999971,119.08809730000212,118.0850197999971,119.08809730000212,118.0850197999971,119.08809730000212,118.0850197999971,119.08809730000212,down,1,0.26172010001027957,118.0850197999971,None,118.0850197999971,None,118.0850197999971,118.58721810000134,118.0850197999971,118.58721810000134,118.0850197999971,118.58721810000134,118.0850197999971,118.58721810000134,118.0850197999971,None,,,,,,,,,,,,,,,,,,,,,,,,,,,,,,,,,,,,,,,,,,11034,001,2024_Jan_16_1059,nback,2021.2.3,60.15551403904486,
2-back,instructions\back-2.png,conditions\2back-p.xlsx,instructions\2-BACK.png,"(25, 15)",practice,2,4,stim\gray.png,stim\gray.png,stim\gray.png,stim\yellow.png,right,0,0,0,0,0,2,2,2,0,9,9,9,,,,,,,,,,,,,,,,,,,,,,,,,,,119.58734979998553,120.58906470000511,119.58734979998553,120.58906470000511,119.58734979998553,120.58906470000511,119.58734979998553,120.58906470000511,right,1,0.24007349999737926,119.58734979998553,None,119.58734979998553,None,119.58734979998553,120.08865689998493,119.58734979998553,120.08865689998493,119.58734979998553,120.08865689998493,119.58734979998553,120.08865689998493,119.58734979998553,None,,,,,,,,,,,,,,,,,,,,,,,,,,,,,,,,,,,,,,,,,,11034,001,2024_Jan_16_1059,nback,2021.2.3,60.15551403904486,
2-back,instructions\back-2.png,conditions\2back-p.xlsx,instructions\2-BACK.png,"(25, 15)",practice,2,1,stim\yellow.png,stim\gray.png,stim\gray.png,stim\gray.png,right,0,0,0,0,0,2,2,2,0,10,10,10,,,,,,,,,,,,,,,,,,,,,,,,,,,121.08949119999306,122.09094809999806,121.08949119999306,122.09094809999806,121.08949119999306,122.09094809999806,121.08949119999306,122.09094809999806,right,1,0.28132139999070205,121.08949119999306,None,121.08949119999306,None,121.08949119999306,121.59090929999365,121.08949119999306,121.59090929999365,121.08949119999306,121.59090929999365,121.08949119999306,121.59090929999365,121.08949119999306,None,,,,,,,,,,,,,,,,,,,,,,,,,,,,,,,,,,,,,,,,,,11034,001,2024_Jan_16_1059,nback,2021.2.3,60.15551403904486,
2-back,instructions\back-2.png,conditions\2back-p.xlsx,instructions\2-BACK.png,"(25, 15)",practice,2,2,stim\gray.png,stim\yellow.png,stim\gray.png,stim\gray.png,down,0,0,0,0,0,2,2,2,0,11,11,11,,,,,,,,,,,,,,,,,,,,,,,,,,,122.59160169999814,123.59513899998274,122.59160169999814,123.59513899998274,122.59160169999814,123.59513899998274,122.59160169999814,123.59513899998274,down,1,0.22742710000602528,122.59160169999814,None,122.59160169999814,None,122.59160169999814,123.09360930000548,122.59160169999814,123.09360930000548,122.59160169999814,123.09360930000548,122.59160169999814,123.09360930000548,122.59160169999814,None,,,,,,,,,,,,,,,,,,,,,,,,,,,,,,,,,,,,,,,,,,11034,001,2024_Jan_16_1059,nback,2021.2.3,60.15551403904486,
2-back,instructions\back-2.png,conditions\2back-p.xlsx,instructions\2-BACK.png,"(25, 15)",practice,2,4,stim\gray.png,stim\gray.png,stim\gray.png,stim\yellow.png,up,0,0,0,0,0,2,2,2,0,12,12,12,,,,,,,,,,,,,,,,,,,,,,,,,,,124.09501409999211,125.09585009998409,124.09501409999211,125.09585009998409,124.09501409999211,125.09585009998409,124.09501409999211,125.09585009998409,up,1,0.21982669999124482,124.09501409999211,None,124.09501409999211,None,124.09501409999211,124.59549119998701,124.09501409999211,124.59549119998701,124.09501409999211,124.59549119998701,124.09501409999211,124.59549119998701,124.09501409999211,None,,,,,,,,,,,,,,,,,,,,,,,,,,,,,,,,,,,,,,,,,,11034,001,2024_Jan_16_1059,nback,2021.2.3,60.15551403904486,
2-back,instructions\back-2.png,conditions\2back-p.xlsx,instructions\2-BACK.png,"(25, 15)",practice,2,3,stim\gray.png,stim\gray.png,stim\yellow.png,stim\gray.png,left,0,0,0,0,0,2,2,2,0,13,13,13,,,,,,,,,,,,,,,,,,,,,,,,,,,125.59757849999005,126.59841279999819,125.59757849999005,126.59841279999819,125.59757849999005,126.59841279999819,125.59757849999005,126.59841279999819,left,1,0.1899730000004638,125.59757849999005,None,125.59757849999005,None,125.59757849999005,126.09730900000432,125.59757849999005,126.09730900000432,125.59757849999005,126.09730900000432,125.59757849999005,126.09730900000432,125.59757849999005,None,,,,,,,,,,,,,,,,,,,,,,,,,,,,,,,,,,,,,,,,,,11034,001,2024_Jan_16_1059,nback,2021.2.3,60.15551403904486,
2-back,instructions\back-2.png,conditions\2back-p.xlsx,instructions\2-BACK.png,"(25, 15)",practice,2,1,stim\yellow.png,stim\gray.png,stim\gray.png,stim\gray.png,down,0,0,0,0,0,2,2,2,0,14,14,14,,,,,,,,,,,,,,,,,,,,,,,,,,,127.08197209998616,128.084875200002,127.08197209998616,128.084875200002,127.08197209998616,128.084875200002,127.08197209998616,128.084875200002,down,1,0.2168140999856405,127.08197209998616,None,127.08197209998616,None,127.08197209998616,127.58279960000073,127.08197209998616,127.58279960000073,127.08197209998616,127.58279960000073,127.08197209998616,127.58279960000073,127.08197209998616,None,,,,,,,,,,,,,,,,,,,,,,,,,,,,,,,,,,,,,,,,,,11034,001,2024_Jan_16_1059,nback,2021.2.3,60.15551403904486,
2-back,instructions\back-2.png,conditions\2back-p.xlsx,instructions\2-BACK.png,"(25, 15)",practice,2,2,stim\gray.png,stim\yellow.png,stim\gray.png,stim\gray.png,right,0,0,0,0,0,2,2,2,0,15,15,15,,,,,,,,,,,,,,,,,,,,,,,,,,,128.58440980000887,129.5857232999988,128.58440980000887,129.5857232999988,128.58440980000887,129.5857232999988,128.58440980000887,129.5857232999988,right,1,0.1628474000026472,128.58440980000887,None,128.58440980000887,None,128.58440980000887,129.08501169999363,128.58440980000887,129.08501169999363,128.58440980000887,129.08501169999363,128.58440980000887,129.08501169999363,128.58440980000887,None,,,,,,,,,,,,,,,,,,,,,,,,,,,,,,,,,,,,,,,,,,11034,001,2024_Jan_16_1059,nback,2021.2.3,60.15551403904486,
2-back,instructions\back-2.png,conditions\2back-p.xlsx,instructions\2-BACK.png,"(25, 15)",practice,2,3,stim\gray.png,stim\gray.png,stim\yellow.png,stim\gray.png,up,0,0,0,0,0,2,2,2,0,16,16,16,,,,,,,,,,,,,,,,,,,,,,,,,,,130.0865930999862,131.0879913000099,130.0865930999862,131.0879913000099,130.0865930999862,131.0879913000099,130.0865930999862,131.0879913000099,up,1,0.47653169999830425,130.0865930999862,None,130.0865930999862,None,130.0865930999862,130.5873850999924,130.0865930999862,130.5873850999924,130.0865930999862,130.5873850999924,130.0865930999862,130.5873850999924,130.0865930999862,None,,,,,,,,,,,,,,,,,,,,,,,,,,,,,,,,,,,,,,,,,,11034,001,2024_Jan_16_1059,nback,2021.2.3,60.15551403904486,
2-back,instructions\back-2.png,conditions\2back-p.xlsx,instructions\2-BACK.png,"(25, 15)",practice,2,1,stim\yellow.png,stim\gray.png,stim\gray.png,stim\gray.png,left,0,0,0,0,0,2,2,2,0,17,17,17,,,,,,,,,,,,,,,,,,,,,,,,,,,131.5886901000049,132.59040690000984,131.5886901000049,132.59040690000984,131.5886901000049,132.59040690000984,131.5886901000049,132.59040690000984,up,0,0.5905157999950461,131.5886901000049,None,131.5886901000049,None,131.5886901000049,132.0900033999933,131.5886901000049,132.0900033999933,131.5886901000049,132.0900033999933,131.5886901000049,132.0900033999933,131.5886901000049,None,,,,,,,,,,,,,,,,,,,,,,,,,,,,,,,,,,,,,,,,,,11034,001,2024_Jan_16_1059,nback,2021.2.3,60.15551403904486,
2-back,instructions\back-2.png,conditions\2back-p.xlsx,instructions\2-BACK.png,"(25, 15)",practice,2,4,stim\gray.png,stim\gray.png,stim\gray.png,stim\yellow.png,right,0,0,0,0,0,2,2,2,0,18,18,18,,,,,,,,,,,,,,,,,,,,,,,,,,,133.09097900000052,134.09306429998833,133.09097900000052,134.09306429998833,133.09097900000052,134.09306429998833,133.09097900000052,134.09306429998833,right,1,0.8086355999985244,133.09097900000052,None,133.09097900000052,None,133.09097900000052,133.59188490000088,133.09097900000052,133.59188490000088,133.09097900000052,133.59188490000088,133.09097900000052,133.59188490000088,133.09097900000052,None,,,,,,,,,,,,,,,,,,,,,,,,,,,,,,,,,,,,,,,,,,11034,001,2024_Jan_16_1059,nback,2021.2.3,60.15551403904486,
2-back,instructions\back-2.png,conditions\2back-p.xlsx,instructions\2-BACK.png,"(25, 15)",practice,2,2,stim\gray.png,stim\yellow.png,stim\gray.png,stim\gray.png,up,0,0,0,0,0,2,2,2,0,19,19,19,,,,,,,,,,,,,,,,,,,,,,,,,,,134.59318759999587,135.5956096999871,134.59318759999587,135.5956096999871,134.59318759999587,135.5956096999871,134.59318759999587,135.5956096999871,down,0,1.0739071000134572,134.59318759999587,None,134.59318759999587,None,134.59318759999587,135.09419820000767,134.59318759999587,135.09419820000767,134.59318759999587,135.09419820000767,134.59318759999587,135.09419820000767,134.59318759999587,None,,,,,,,,,,,,,,,,,,,,,,,,,,,,,,,,,,,,,,,,,,11034,001,2024_Jan_16_1059,nback,2021.2.3,60.15551403904486,
2-back,instructions\back-2.png,conditions\2back-p.xlsx,instructions\2-BACK.png,"(25, 15)",,,,,,,,,0,0,0,0,0,2,2,2,,,,,,,,,,,,,,,,,,,,,,,,,,,,,,,,,,,,,,,,,,,,,,,,,,,,,,,,,,,,,,,,,,,,,,,,,,,,,,,,,,,,,,,,,,,,,,,,,11034,001,2024_Jan_16_1059,nback,2021.2.3,60.15551403904486,
,,,,,,,,,,,,,0,0,0,0,,,,,,,,,,,,,,,,,,,,,,,,,,,,,,,,,,,,,,,,,,,,,,,,,,,,,,,,,,,,136.07957609998994,None,space,29.172807099996135,136.07957609998994,None,,,,,,,,,,,,,,,,,,,,,,,,,,,,,,,,,,,,11034,001,2024_Jan_16_1059,nback,2021.2.3,60.15551403904486,
,,,,,,,,,,,,,,,,,,,,,,,,,,,,,,,,,,,,,,,,,,,,,,,,,,,,,,,,,,,,,,,,,,,,,,,,,,,,,,,,,,165.27335539998603,None,space,3.1233176000241656,165.27335539998603,None,,,,,,,,,,,,,,,,,,,,,,,,,,,,,,11034,001,2024_Jan_16_1059,nback,2021.2.3,60.15551403904486,
1-back,instructions\back-1.png,conditions\11back-e.xlsx,,,experiment,1,3,stim\gray.png,stim\gray.png,stim\yellow.png,stim\gray.png,None,,,,,,,,,,,,,0,0,0,5,0,0,0,0,,,,,,,,,,,,,,,168.6445604999899,173.15318319998914,173.08652189999702,None,,,,,,,,,,,,,,,,,,,,,,,,,,,,,,,,,,,,,,None,1,173.45194319999428,None,173.45194319999428,None,173.45194319999428,174.45597479998833,173.45194319999428,174.45597479998833,173.45194319999428,174.45597479998833,173.45194319999428,174.45597479998833,173.45194319999428,173.9528100999887,173.45194319999428,173.9528100999887,173.45194319999428,173.9528100999887,173.45194319999428,173.9528100999887,173.45194319999428,None,,,,,,11034,001,2024_Jan_16_1059,nback,2021.2.3,60.15551403904486,
1-back,instructions\back-1.png,conditions\11back-e.xlsx,,,experiment,1,1,stim\yellow.png,stim\gray.png,stim\gray.png,stim\gray.png,right,,,,,,,,,,,,,0,0,0,5,0,1,1,1,,,,,,,,,,,,,,,,,,,,,,,,,,,,,,,,,,,,,,,,,,,,,,,,,,,,,,,,right,1,174.93769389999215,None,174.93769389999215,None,174.93769389999215,175.93917309999233,174.93769389999215,175.93917309999233,174.93769389999215,175.93917309999233,174.93769389999215,175.93917309999233,174.93769389999215,175.43851259999792,174.93769389999215,175.43851259999792,174.93769389999215,175.43851259999792,174.93769389999215,175.43851259999792,174.93769389999215,None,0.37113520002458245,,,,,11034,001,2024_Jan_16_1059,nback,2021.2.3,60.15551403904486,
1-back,instructions\back-1.png,conditions\11back-e.xlsx,,,experiment,1,4,stim\gray.png,stim\gray.png,stim\gray.png,stim\yellow.png,up,,,,,,,,,,,,,0,0,0,5,0,2,2,2,,,,,,,,,,,,,,,,,,,,,,,,,,,,,,,,,,,,,,,,,,,,,,,,,,,,,,,,up,1,176.4396815999935,None,176.4396815999935,None,176.4396815999935,177.44144950000918,176.4396815999935,177.44144950000918,176.4396815999935,177.44144950000918,176.4396815999935,177.44144950000918,176.4396815999935,176.9406817999843,176.4396815999935,176.9406817999843,176.4396815999935,176.9406817999843,176.4396815999935,176.9406817999843,176.4396815999935,None,0.23656869999831542,,,,,11034,001,2024_Jan_16_1059,nback,2021.2.3,60.15551403904486,
1-back,instructions\back-1.png,conditions\11back-e.xlsx,,,experiment,1,2,stim\gray.png,stim\yellow.png,stim\gray.png,stim\gray.png,down,,,,,,,,,,,,,0,0,0,5,0,3,3,3,,,,,,,,,,,,,,,,,,,,,,,,,,,,,,,,,,,,,,,,,,,,,,,,,,,,,,,,down,1,177.9423262999917,None,177.9423262999917,None,177.9423262999917,178.94363779999549,177.9423262999917,178.94363779999549,177.9423262999917,178.94363779999549,177.9423262999917,178.94363779999549,177.9423262999917,178.44299549999414,177.9423262999917,178.44299549999414,177.9423262999917,178.44299549999414,177.9423262999917,178.44299549999414,177.9423262999917,None,0.2063270999933593,,,,,11034,001,2024_Jan_16_1059,nback,2021.2.3,60.15551403904486,
1-back,instructions\back-1.png,conditions\11back-e.xlsx,,,experiment,1,1,stim\yellow.png,stim\gray.png,stim\gray.png,stim\gray.png,left,,,,,,,,,,,,,0,0,0,5,0,4,4,4,,,,,,,,,,,,,,,,,,,,,,,,,,,,,,,,,,,,,,,,,,,,,,,,,,,,,,,,left,1,179.44469350000145,None,179.44469350000145,None,179.44469350000145,180.44631500000833,179.44469350000145,180.44631500000833,179.44469350000145,180.44631500000833,179.44469350000145,180.44631500000833,179.44469350000145,179.94510640000226,179.44469350000145,179.94510640000226,179.44469350000145,179.94510640000226,179.44469350000145,179.94510640000226,179.44469350000145,None,0.21706799999810755,,,,,11034,001,2024_Jan_16_1059,nback,2021.2.3,60.15551403904486,
1-back,instructions\back-1.png,conditions\11back-e.xlsx,,,experiment,1,2,stim\gray.png,stim\yellow.png,stim\gray.png,stim\gray.png,up,,,,,,,,,,,,,0,0,0,5,0,5,5,5,,,,,,,,,,,,,,,,,,,,,,,,,,,,,,,,,,,,,,,,,,,,,,,,,,,,,,,,up,1,180.94730549998349,None,180.94730549998349,None,180.94730549998349,181.9489753000089,180.94730549998349,181.9489753000089,180.94730549998349,181.9489753000089,180.94730549998349,181.9489753000089,180.94730549998349,181.44845309999073,180.94730549998349,181.44845309999073,180.94730549998349,181.44845309999073,180.94730549998349,181.44845309999073,180.94730549998349,None,0.1934113999886904,,,,,11034,001,2024_Jan_16_1059,nback,2021.2.3,60.15551403904486,
1-back,instructions\back-1.png,conditions\11back-e.xlsx,,,experiment,1,3,stim\gray.png,stim\gray.png,stim\yellow.png,stim\gray.png,left,,,,,,,,,,,,,0,0,0,5,0,6,6,6,,,,,,,,,,,,,,,,,,,,,,,,,,,,,,,,,,,,,,,,,,,,,,,,,,,,,,,,left,1,182.43217250000453,None,182.43217250000453,None,182.43217250000453,183.43390090001049,182.43217250000453,183.43390090001049,182.43217250000453,183.43390090001049,182.43217250000453,183.43390090001049,182.43217250000453,182.93294339999557,182.43217250000453,182.93294339999557,182.43217250000453,182.93294339999557,182.43217250000453,182.93294339999557,182.43217250000453,None,0.1804575999849476,,,,,11034,001,2024_Jan_16_1059,nback,2021.2.3,60.15551403904486,
1-back,instructions\back-1.png,conditions\11back-e.xlsx,,,experiment,1,4,stim\gray.png,stim\gray.png,stim\gray.png,stim\yellow.png,right,,,,,,,,,,,,,0,0,0,5,0,7,7,7,,,,,,,,,,,,,,,,,,,,,,,,,,,,,,,,,,,,,,,,,,,,,,,,,,,,,,,,right,1,183.93443299998762,None,183.93443299998762,None,183.93443299998762,184.93680639998638,183.93443299998762,184.93680639998638,183.93443299998762,184.93680639998638,183.93443299998762,184.93680639998638,183.93443299998762,184.4351967999828,183.93443299998762,184.4351967999828,183.93443299998762,184.4351967999828,183.93443299998762,184.4351967999828,183.93443299998762,None,0.2223183999885805,,,,,11034,001,2024_Jan_16_1059,nback,2021.2.3,60.15551403904486,
1-back,instructions\back-1.png,conditions\11back-e.xlsx,,,experiment,1,4,stim\gray.png,stim\gray.png,stim\gray.png,stim\yellow.png,down,,,,,,,,,,,,,0,0,0,5,0,8,8,8,,,,,,,,,,,,,,,,,,,,,,,,,,,,,,,,,,,,,,,,,,,,,,,,,,,,,,,,down,1,185.43694590000086,None,185.43694590000086,None,185.43694590000086,186.43814119999297,185.43694590000086,186.43814119999297,185.43694590000086,186.43814119999297,185.43694590000086,186.43814119999297,185.43694590000086,185.93750420000288,185.43694590000086,185.93750420000288,185.43694590000086,185.93750420000288,185.43694590000086,185.93750420000288,185.43694590000086,None,0.30401170000550337,,,,,11034,001,2024_Jan_16_1059,nback,2021.2.3,60.15551403904486,
1-back,instructions\back-1.png,conditions\11back-e.xlsx,,,experiment,1,3,stim\gray.png,stim\gray.png,stim\yellow.png,stim\gray.png,down,,,,,,,,,,,,,0,0,0,5,0,9,9,9,,,,,,,,,,,,,,,,,,,,,,,,,,,,,,,,,,,,,,,,,,,,,,,,,,,,,,,,down,1,186.93907749999198,None,186.93907749999198,None,186.93907749999198,187.94168819999322,186.93907749999198,187.94168819999322,186.93907749999198,187.94168819999322,186.93907749999198,187.94168819999322,186.93907749999198,187.43986159999622,186.93907749999198,187.43986159999622,186.93907749999198,187.43986159999622,186.93907749999198,187.43986159999622,186.93907749999198,None,0.21864979999372736,,,,,11034,001,2024_Jan_16_1059,nback,2021.2.3,60.15551403904486,
1-back,instructions\back-1.png,conditions\11back-e.xlsx,,,experiment,1,1,stim\yellow.png,stim\gray.png,stim\gray.png,stim\gray.png,right,,,,,,,,,,,,,0,0,0,5,0,10,10,10,,,,,,,,,,,,,,,,,,,,,,,,,,,,,,,,,,,,,,,,,,,,,,,,,,,,,,,,right,1,188.44142729998566,None,188.44142729998566,None,188.44142729998566,189.4429528999899,188.44142729998566,189.4429528999899,188.44142729998566,189.4429528999899,188.44142729998566,189.4429528999899,188.44142729998566,188.94300219998695,188.44142729998566,188.94300219998695,188.44142729998566,188.94300219998695,188.44142729998566,188.94300219998695,188.44142729998566,None,0.23559500000556,,,,,11034,001,2024_Jan_16_1059,nback,2021.2.3,60.15551403904486,
1-back,instructions\back-1.png,conditions\11back-e.xlsx,,,experiment,1,2,stim\gray.png,stim\yellow.png,stim\gray.png,stim\gray.png,up,,,,,,,,,,,,,0,0,0,5,0,11,11,11,,,,,,,,,,,,,,,,,,,,,,,,,,,,,,,,,,,,,,,,,,,,,,,,,,,,,,,,up,1,189.9435712999839,None,189.9435712999839,None,189.9435712999839,190.94514339999296,189.9435712999839,190.94514339999296,189.9435712999839,190.94514339999296,189.9435712999839,190.94514339999296,189.9435712999839,190.44496849999996,189.9435712999839,190.44496849999996,189.9435712999839,190.44496849999996,189.9435712999839,190.44496849999996,189.9435712999839,None,0.18949789999169298,,,,,11034,001,2024_Jan_16_1059,nback,2021.2.3,60.15551403904486,
1-back,instructions\back-1.png,conditions\11back-e.xlsx,,,experiment,1,3,stim\gray.png,stim\gray.png,stim\yellow.png,stim\gray.png,left,,,,,,,,,,,,,0,0,0,5,0,12,12,12,,,,,,,,,,,,,,,,,,,,,,,,,,,,,,,,,,,,,,,,,,,,,,,,,,,,,,,,left,1,191.44614600000205,None,191.44614600000205,None,191.44614600000205,192.44832389999647,191.44614600000205,192.44832389999647,191.44614600000205,192.44832389999647,191.44614600000205,192.44832389999647,191.44614600000205,191.94657060000463,191.44614600000205,191.94657060000463,191.44614600000205,191.94657060000463,191.44614600000205,191.94657060000463,191.44614600000205,None,0.19259439999586903,,,,,11034,001,2024_Jan_16_1059,nback,2021.2.3,60.15551403904486,
1-back,instructions\back-1.png,conditions\11back-e.xlsx,,,experiment,1,4,stim\gray.png,stim\gray.png,stim\gray.png,stim\yellow.png,right,,,,,,,,,,,,,0,0,0,5,0,13,13,13,,,,,,,,,,,,,,,,,,,,,,,,,,,,,,,,,,,,,,,,,,,,,,,,,,,,,,,,right,1,192.9314432000101,None,192.9314432000101,None,192.9314432000101,193.9329155999876,192.9314432000101,193.9329155999876,192.9314432000101,193.9329155999876,192.9314432000101,193.9329155999876,192.9314432000101,193.43256819999078,192.9314432000101,193.43256819999078,192.9314432000101,193.43256819999078,192.9314432000101,193.43256819999078,192.9314432000101,None,0.5456781999964733,,,,,11034,001,2024_Jan_16_1059,nback,2021.2.3,60.15551403904486,
1-back,instructions\back-1.png,conditions\11back-e.xlsx,,,experiment,1,1,stim\yellow.png,stim\gray.png,stim\gray.png,stim\gray.png,down,,,,,,,,,,,,,0,0,0,5,0,14,14,14,,,,,,,,,,,,,,,,,,,,,,,,,,,,,,,,,,,,,,,,,,,,,,,,,,,,,,,,down,1,194.43377489998238,None,194.43377489998238,None,194.43377489998238,195.43516279998585,194.43377489998238,195.43516279998585,194.43377489998238,195.43516279998585,194.43377489998238,195.43516279998585,194.43377489998238,194.93528390000574,194.43377489998238,194.93528390000574,194.43377489998238,194.93528390000574,194.43377489998238,194.93528390000574,194.43377489998238,None,0.21938490000320598,,,,,11034,001,2024_Jan_16_1059,nback,2021.2.3,60.15551403904486,
1-back,instructions\back-1.png,conditions\11back-e.xlsx,,,experiment,1,2,stim\gray.png,stim\yellow.png,stim\gray.png,stim\gray.png,up,,,,,,,,,,,,,0,0,0,5,0,15,15,15,,,,,,,,,,,,,,,,,,,,,,,,,,,,,,,,,,,,,,,,,,,,,,,,,,,,,,,,up,1,195.93617000000086,None,195.93617000000086,None,195.93617000000086,196.93766579998191,195.93617000000086,196.93766579998191,195.93617000000086,196.93766579998191,195.93617000000086,196.93766579998191,195.93617000000086,196.43682100001024,195.93617000000086,196.43682100001024,195.93617000000086,196.43682100001024,195.93617000000086,196.43682100001024,195.93617000000086,None,0.24508870000136085,,,,,11034,001,2024_Jan_16_1059,nback,2021.2.3,60.15551403904486,
1-back,instructions\back-1.png,conditions\11back-e.xlsx,,,experiment,1,2,stim\gray.png,stim\yellow.png,stim\gray.png,stim\gray.png,left,,,,,,,,,,,,,0,0,0,5,0,16,16,16,,,,,,,,,,,,,,,,,,,,,,,,,,,,,,,,,,,,,,,,,,,,,,,,,,,,,,,,left,1,197.43824299998232,None,197.43824299998232,None,197.43824299998232,198.44032619998325,197.43824299998232,198.44032619998325,197.43824299998232,198.44032619998325,197.43824299998232,198.44032619998325,197.43824299998232,197.93975289998343,197.43824299998232,197.93975289998343,197.43824299998232,197.93975289998343,197.43824299998232,197.93975289998343,197.43824299998232,None,0.2148184000106994,,,,,11034,001,2024_Jan_16_1059,nback,2021.2.3,60.15551403904486,
1-back,instructions\back-1.png,conditions\11back-e.xlsx,,,experiment,1,1,stim\yellow.png,stim\gray.png,stim\gray.png,stim\gray.png,left,,,,,,,,,,,,,0,0,0,5,0,17,17,17,,,,,,,,,,,,,,,,,,,,,,,,,,,,,,,,,,,,,,,,,,,,,,,,,,,,,,,,left,1,198.9405596999859,None,198.9405596999859,None,198.9405596999859,199.94212170000537,198.9405596999859,199.94212170000537,198.9405596999859,199.94212170000537,198.9405596999859,199.94212170000537,198.9405596999859,199.44144259998575,198.9405596999859,199.44144259998575,198.9405596999859,199.44144259998575,198.9405596999859,199.44144259998575,198.9405596999859,None,0.20877409999957308,,,,,11034,001,2024_Jan_16_1059,nback,2021.2.3,60.15551403904486,
1-back,instructions\back-1.png,conditions\11back-e.xlsx,,,experiment,1,4,stim\gray.png,stim\gray.png,stim\gray.png,stim\yellow.png,up,,,,,,,,,,,,,0,0,0,5,0,18,18,18,,,,,,,,,,,,,,,,,,,,,,,,,,,,,,,,,,,,,,,,,,,,,,,,,,,,,,,,up,1,200.44283739998355,None,200.44283739998355,None,200.44283739998355,201.4443239000102,200.44283739998355,201.4443239000102,200.44283739998355,201.4443239000102,200.44283739998355,201.4443239000102,200.44283739998355,200.94404070000746,200.44283739998355,200.94404070000746,200.44283739998355,200.94404070000746,200.44283739998355,200.94404070000746,200.44283739998355,None,0.21828109998023137,,,,,11034,001,2024_Jan_16_1059,nback,2021.2.3,60.15551403904486,
1-back,instructions\back-1.png,conditions\11back-e.xlsx,,,experiment,1,3,stim\gray.png,stim\gray.png,stim\yellow.png,stim\gray.png,down,,,,,,,,,,,,,0,0,0,5,0,19,19,19,,,,,,,,,,,,,,,,,,,,,,,,,,,,,,,,,,,,,,,,,,,,,,,,,,,,,,,,down,1,201.94562210000004,None,201.94562210000004,None,201.94562210000004,202.9463861999975,201.94562210000004,202.9463861999975,201.94562210000004,202.9463861999975,201.94562210000004,202.9463861999975,201.94562210000004,202.44573839998338,201.94562210000004,202.44573839998338,201.94562210000004,202.44573839998338,201.94562210000004,202.44573839998338,201.94562210000004,None,0.26758699998026714,,,,,11034,001,2024_Jan_16_1059,nback,2021.2.3,60.15551403904486,
1-back,instructions\back-1.png,conditions\11back-e.xlsx,,,,,,,,,,,,,,,,,,,,,,,0,0,0,5,,,,,,,,,,,,,,,,,,,,,,,,,,,,,,,,,,,,,,,,,,,,,,,,,,,,,,,,,,,,,,,,,,,,,,,,,,,,,,,,,,,,,203.44743840000592,None,,,11034,001,2024_Jan_16_1059,nback,2021.2.3,60.15551403904486,
1-back,instructions\back-1.png,conditions\14back-e.xlsx,,,experiment,1,3,stim\gray.png,stim\gray.png,stim\yellow.png,stim\gray.png,None,,,,,,,,,,,,,0,1,1,14,0,0,0,0,,,,,,,,,,,,,,,204.56559879999259,209.07256890001008,209.03914149999036,None,,,,,,,,,,,,,,,,,,,,,,,,,,,,,,,,,,,,,,right,0,209.45733539998764,None,209.45733539998764,None,209.45733539998764,210.45777629999793,209.45733539998764,210.45777629999793,209.45733539998764,210.45777629999793,209.45733539998764,210.45777629999793,209.45733539998764,209.95761250000214,209.45733539998764,209.95761250000214,209.45733539998764,209.95761250000214,209.45733539998764,209.95761250000214,209.45733539998764,None,0.48450659998343326,,,,,11034,001,2024_Jan_16_1059,nback,2021.2.3,60.15551403904486,
1-back,instructions\back-1.png,conditions\14back-e.xlsx,,,experiment,1,2,stim\gray.png,stim\yellow.png,stim\gray.png,stim\gray.png,right,,,,,,,,,,,,,0,1,1,14,0,1,1,1,,,,,,,,,,,,,,,,,,,,,,,,,,,,,,,,,,,,,,,,,,,,,,,,,,,,,,,,right,1,210.94320790001075,None,210.94320790001075,None,210.94320790001075,211.9432894999918,210.94320790001075,211.9432894999918,210.94320790001075,211.9432894999918,210.94320790001075,211.9432894999918,210.94320790001075,211.4428260999848,210.94320790001075,211.4428260999848,210.94320790001075,211.4428260999848,210.94320790001075,211.4428260999848,210.94320790001075,None,0.262475399998948,,,,,11034,001,2024_Jan_16_1059,nback,2021.2.3,60.15551403904486,
1-back,instructions\back-1.png,conditions\14back-e.xlsx,,,experiment,1,3,stim\gray.png,stim\gray.png,stim\yellow.png,stim\gray.png,left,,,,,,,,,,,,,0,1,1,14,0,2,2,2,,,,,,,,,,,,,,,,,,,,,,,,,,,,,,,,,,,,,,,,,,,,,,,,,,,,,,,,left,1,212.4442987999937,None,212.4442987999937,None,212.4442987999937,213.44685340000433,212.4442987999937,213.44685340000433,212.4442987999937,213.44685340000433,212.4442987999937,213.44685340000433,212.4442987999937,212.9449706999876,212.4442987999937,212.9449706999876,212.4442987999937,212.9449706999876,212.4442987999937,212.9449706999876,212.4442987999937,None,0.24198570000589825,,,,,11034,001,2024_Jan_16_1059,nback,2021.2.3,60.15551403904486,
1-back,instructions\back-1.png,conditions\14back-e.xlsx,,,experiment,1,1,stim\yellow.png,stim\gray.png,stim\gray.png,stim\gray.png,right,,,,,,,,,,,,,0,1,1,14,0,3,3,3,,,,,,,,,,,,,,,,,,,,,,,,,,,,,,,,,,,,,,,,,,,,,,,,,,,,,,,,right,1,213.94661069998983,None,213.94661069998983,None,213.94661069998983,214.9479100999888,213.94661069998983,214.9479100999888,213.94661069998983,214.9479100999888,213.94661069998983,214.9479100999888,213.94661069998983,214.44741600000998,213.94661069998983,214.44741600000998,213.94661069998983,214.44741600000998,213.94661069998983,214.44741600000998,213.94661069998983,None,0.17934589998912998,,,,,11034,001,2024_Jan_16_1059,nback,2021.2.3,60.15551403904486,
1-back,instructions\back-1.png,conditions\14back-e.xlsx,,,experiment,1,2,stim\gray.png,stim\yellow.png,stim\gray.png,stim\gray.png,up,,,,,,,,,,,,,0,1,1,14,0,4,4,4,,,,,,,,,,,,,,,,,,,,,,,,,,,,,,,,,,,,,,,,,,,,,,,,,,,,,,,,up,1,215.43194740000763,None,215.43194740000763,None,215.43194740000763,216.433566599997,215.43194740000763,216.433566599997,215.43194740000763,216.433566599997,215.43194740000763,216.433566599997,215.43194740000763,215.93363169999793,215.43194740000763,215.93363169999793,215.43194740000763,215.93363169999793,215.43194740000763,215.93363169999793,215.43194740000763,None,0.2060320999880787,,,,,11034,001,2024_Jan_16_1059,nback,2021.2.3,60.15551403904486,
1-back,instructions\back-1.png,conditions\14back-e.xlsx,,,experiment,1,4,stim\gray.png,stim\gray.png,stim\gray.png,stim\yellow.png,left,,,,,,,,,,,,,0,1,1,14,0,5,5,5,,,,,,,,,,,,,,,,,,,,,,,,,,,,,,,,,,,,,,,,,,,,,,,,,,,,,,,,left,1,216.93471699999645,None,216.93471699999645,None,216.93471699999645,217.93590589999803,216.93471699999645,217.93590589999803,216.93471699999645,217.93590589999803,216.93471699999645,217.93590589999803,216.93471699999645,217.43585000000894,216.93471699999645,217.43585000000894,216.93471699999645,217.43585000000894,216.93471699999645,217.43585000000894,216.93471699999645,None,0.23097689999849536,,,,,11034,001,2024_Jan_16_1059,nback,2021.2.3,60.15551403904486,
1-back,instructions\back-1.png,conditions\14back-e.xlsx,,,experiment,1,3,stim\gray.png,stim\gray.png,stim\yellow.png,stim\gray.png,down,,,,,,,,,,,,,0,1,1,14,0,6,6,6,,,,,,,,,,,,,,,,,,,,,,,,,,,,,,,,,,,,,,,,,,,,,,,,,,,,,,,,down,1,218.43671390000964,None,218.43671390000964,None,218.43671390000964,219.43819630000507,218.43671390000964,219.43819630000507,218.43671390000964,219.43819630000507,218.43671390000964,219.43819630000507,218.43671390000964,218.93773599999258,218.43671390000964,218.93773599999258,218.43671390000964,218.93773599999258,218.43671390000964,218.93773599999258,218.43671390000964,None,0.25713789998553693,,,,,11034,001,2024_Jan_16_1059,nback,2021.2.3,60.15551403904486,
1-back,instructions\back-1.png,conditions\14back-e.xlsx,,,experiment,1,1,stim\yellow.png,stim\gray.png,stim\gray.png,stim\gray.png,right,,,,,,,,,,,,,0,1,1,14,0,7,7,7,,,,,,,,,,,,,,,,,,,,,,,,,,,,,,,,,,,,,,,,,,,,,,,,,,,,,,,,right,1,219.9389353999868,None,219.9389353999868,None,219.9389353999868,220.94134009999107,219.9389353999868,220.94134009999107,219.9389353999868,220.94134009999107,219.9389353999868,220.94134009999107,219.9389353999868,220.43970449999324,219.9389353999868,220.43970449999324,219.9389353999868,220.43970449999324,219.9389353999868,220.43970449999324,219.9389353999868,None,0.267218299995875,,,,,11034,001,2024_Jan_16_1059,nback,2021.2.3,60.15551403904486,
1-back,instructions\back-1.png,conditions\14back-e.xlsx,,,experiment,1,3,stim\gray.png,stim\gray.png,stim\yellow.png,stim\gray.png,up,,,,,,,,,,,,,0,1,1,14,0,8,8,8,,,,,,,,,,,,,,,,,,,,,,,,,,,,,,,,,,,,,,,,,,,,,,,,,,,,,,,,up,1,221.44125579998945,None,221.44125579998945,None,221.44125579998945,222.442716199992,221.44125579998945,222.442716199992,221.44125579998945,222.442716199992,221.44125579998945,222.442716199992,221.44125579998945,221.94184849999147,221.44125579998945,221.94184849999147,221.44125579998945,221.94184849999147,221.44125579998945,221.94184849999147,221.44125579998945,None,0.19694349999190308,,,,,11034,001,2024_Jan_16_1059,nback,2021.2.3,60.15551403904486,
1-back,instructions\back-1.png,conditions\14back-e.xlsx,,,experiment,1,2,stim\gray.png,stim\yellow.png,stim\gray.png,stim\gray.png,right,,,,,,,,,,,,,0,1,1,14,0,9,9,9,,,,,,,,,,,,,,,,,,,,,,,,,,,,,,,,,,,,,,,,,,,,,,,,,,,,,,,,right,1,222.94474469998386,None,222.94474469998386,None,222.94474469998386,223.9449202999822,222.94474469998386,223.9449202999822,222.94474469998386,223.9449202999822,222.94474469998386,223.9449202999822,222.94474469998386,223.44504259998212,222.94474469998386,223.44504259998212,222.94474469998386,223.44504259998212,222.94474469998386,223.44504259998212,222.94474469998386,None,0.22128019999945536,,,,,11034,001,2024_Jan_16_1059,nback,2021.2.3,60.15551403904486,
1-back,instructions\back-1.png,conditions\14back-e.xlsx,,,experiment,1,4,stim\gray.png,stim\gray.png,stim\gray.png,stim\yellow.png,left,,,,,,,,,,,,,0,1,1,14,0,10,10,10,,,,,,,,,,,,,,,,,,,,,,,,,,,,,,,,,,,,,,,,,,,,,,,,,,,,,,,,left,1,224.44568730000174,None,224.44568730000174,None,224.44568730000174,225.44725789999939,224.44568730000174,225.44725789999939,224.44568730000174,225.44725789999939,224.44568730000174,225.44725789999939,224.44568730000174,224.94634289998794,224.44568730000174,224.94634289998794,224.44568730000174,224.94634289998794,224.44568730000174,224.94634289998794,224.44568730000174,None,0.2642264000023715,,,,,11034,001,2024_Jan_16_1059,nback,2021.2.3,60.15551403904486,
1-back,instructions\back-1.png,conditions\14back-e.xlsx,,,experiment,1,2,stim\gray.png,stim\yellow.png,stim\gray.png,stim\gray.png,down,,,,,,,,,,,,,0,1,1,14,0,11,11,11,,,,,,,,,,,,,,,,,,,,,,,,,,,,,,,,,,,,,,,,,,,,,,,,,,,,,,,,down,1,225.94810740000685,None,225.94810740000685,None,225.94810740000685,226.94930859998567,225.94810740000685,226.94930859998567,225.94810740000685,226.94930859998567,225.94810740000685,226.94930859998567,225.94810740000685,226.44874379999237,225.94810740000685,226.44874379999237,225.94810740000685,226.44874379999237,225.94810740000685,226.44874379999237,225.94810740000685,None,0.17801869998220354,,,,,11034,001,2024_Jan_16_1059,nback,2021.2.3,60.15551403904486,
1-back,instructions\back-1.png,conditions\14back-e.xlsx,,,experiment,1,4,stim\gray.png,stim\gray.png,stim\gray.png,stim\yellow.png,left,,,,,,,,,,,,,0,1,1,14,0,12,12,12,,,,,,,,,,,,,,,,,,,,,,,,,,,,,,,,,,,,,,,,,,,,,,,,,,,,,,,,left,1,227.4335225999821,None,227.4335225999821,None,227.4335225999821,228.4349016000051,227.4335225999821,228.4349016000051,227.4335225999821,228.4349016000051,227.4335225999821,228.4349016000051,227.4335225999821,227.9347095999983,227.4335225999821,227.9347095999983,227.4335225999821,227.9347095999983,227.4335225999821,227.9347095999983,227.4335225999821,None,0.29239469999447465,,,,,11034,001,2024_Jan_16_1059,nback,2021.2.3,60.15551403904486,
1-back,instructions\back-1.png,conditions\14back-e.xlsx,,,experiment,1,1,stim\yellow.png,stim\gray.png,stim\gray.png,stim\gray.png,down,,,,,,,,,,,,,0,1,1,14,0,13,13,13,,,,,,,,,,,,,,,,,,,,,,,,,,,,,,,,,,,,,,,,,,,,,,,,,,,,,,,,down,1,228.9363158000051,None,228.9363158000051,None,228.9363158000051,229.9373082999955,228.9363158000051,229.9373082999955,228.9363158000051,229.9373082999955,228.9363158000051,229.9373082999955,228.9363158000051,229.43734149998636,228.9363158000051,229.43734149998636,228.9363158000051,229.43734149998636,228.9363158000051,229.43734149998636,228.9363158000051,None,0.605607899982715,,,,,11034,001,2024_Jan_16_1059,nback,2021.2.3,60.15551403904486,
1-back,instructions\back-1.png,conditions\14back-e.xlsx,,,experiment,1,1,stim\yellow.png,stim\gray.png,stim\gray.png,stim\gray.png,up,,,,,,,,,,,,,0,1,1,14,0,14,14,14,,,,,,,,,,,,,,,,,,,,,,,,,,,,,,,,,,,,,,,,,,,,,,,,,,,,,,,,up,1,230.43815679999534,None,230.43815679999534,None,230.43815679999534,231.44014439999592,230.43815679999534,231.44014439999592,230.43815679999534,231.44014439999592,230.43815679999534,231.44014439999592,230.43815679999534,230.93955579999601,230.43815679999534,230.93955579999601,230.43815679999534,230.93955579999601,230.43815679999534,230.93955579999601,230.43815679999534,None,0.20849260000977665,,,,,11034,001,2024_Jan_16_1059,nback,2021.2.3,60.15551403904486,
1-back,instructions\back-1.png,conditions\14back-e.xlsx,,,experiment,1,4,stim\gray.png,stim\gray.png,stim\gray.png,stim\yellow.png,up,,,,,,,,,,,,,0,1,1,14,0,15,15,15,,,,,,,,,,,,,,,,,,,,,,,,,,,,,,,,,,,,,,,,,,,,,,,,,,,,,,,,up,1,231.94041129999096,None,231.94041129999096,None,231.94041129999096,232.9419152000046,231.94041129999096,232.9419152000046,231.94041129999096,232.9419152000046,231.94041129999096,232.9419152000046,231.94041129999096,232.4411695000017,231.94041129999096,232.4411695000017,231.94041129999096,232.4411695000017,231.94041129999096,232.4411695000017,231.94041129999096,None,0.19368610001401976,,,,,11034,001,2024_Jan_16_1059,nback,2021.2.3,60.15551403904486,
1-back,instructions\back-1.png,conditions\14back-e.xlsx,,,experiment,1,1,stim\yellow.png,stim\gray.png,stim\gray.png,stim\gray.png,down,,,,,,,,,,,,,0,1,1,14,0,16,16,16,,,,,,,,,,,,,,,,,,,,,,,,,,,,,,,,,,,,,,,,,,,,,,,,,,,,,,,,down,1,233.4426564000023,None,233.4426564000023,None,233.4426564000023,234.44412629998988,233.4426564000023,234.44412629998988,233.4426564000023,234.44412629998988,233.4426564000023,234.44412629998988,233.4426564000023,233.94328300000052,233.4426564000023,233.94328300000052,233.4426564000023,233.94328300000052,233.4426564000023,233.94328300000052,233.4426564000023,None,0.2352567000198178,,,,,11034,001,2024_Jan_16_1059,nback,2021.2.3,60.15551403904486,
1-back,instructions\back-1.png,conditions\14back-e.xlsx,,,experiment,1,3,stim\gray.png,stim\gray.png,stim\yellow.png,stim\gray.png,up,,,,,,,,,,,,,0,1,1,14,0,17,17,17,,,,,,,,,,,,,,,,,,,,,,,,,,,,,,,,,,,,,,,,,,,,,,,,,,,,,,,,up,1,234.94496279998566,None,234.94496279998566,None,234.94496279998566,235.94629779999377,234.94496279998566,235.94629779999377,234.94496279998566,235.94629779999377,234.94496279998566,235.94629779999377,234.94496279998566,235.44683529998292,234.94496279998566,235.44683529998292,234.94496279998566,235.44683529998292,234.94496279998566,235.44683529998292,234.94496279998566,None,0.30218430000240915,,,,,11034,001,2024_Jan_16_1059,nback,2021.2.3,60.15551403904486,
1-back,instructions\back-1.png,conditions\14back-e.xlsx,,,experiment,1,2,stim\gray.png,stim\yellow.png,stim\gray.png,stim\gray.png,right,,,,,,,,,,,,,0,1,1,14,0,18,18,18,,,,,,,,,,,,,,,,,,,,,,,,,,,,,,,,,,,,,,,,,,,,,,,,,,,,,,,,right,1,236.4472170000081,None,236.4472170000081,None,236.4472170000081,237.44965870000306,236.4472170000081,237.44965870000306,236.4472170000081,237.44965870000306,236.4472170000081,237.44965870000306,236.4472170000081,236.94930159999058,236.4472170000081,236.94930159999058,236.4472170000081,236.94930159999058,236.4472170000081,236.94930159999058,236.4472170000081,None,0.2632982999784872,,,,,11034,001,2024_Jan_16_1059,nback,2021.2.3,60.15551403904486,
1-back,instructions\back-1.png,conditions\14back-e.xlsx,,,experiment,1,4,stim\gray.png,stim\gray.png,stim\gray.png,stim\yellow.png,left,,,,,,,,,,,,,0,1,1,14,0,19,19,19,,,,,,,,,,,,,,,,,,,,,,,,,,,,,,,,,,,,,,,,,,,,,,,,,,,,,,,,left,1,237.93277690000832,None,237.93277690000832,None,237.93277690000832,238.93440309999278,237.93277690000832,238.93440309999278,237.93277690000832,238.93440309999278,237.93277690000832,238.93440309999278,237.93277690000832,238.43345519999275,237.93277690000832,238.43345519999275,237.93277690000832,238.43345519999275,237.93277690000832,238.43345519999275,237.93277690000832,None,0.35382799999206327,,,,,11034,001,2024_Jan_16_1059,nback,2021.2.3,60.15551403904486,
1-back,instructions\back-1.png,conditions\14back-e.xlsx,,,,,,,,,,,,,,,,,,,,,,,0,1,1,14,,,,,,,,,,,,,,,,,,,,,,,,,,,,,,,,,,,,,,,,,,,,,,,,,,,,,,,,,,,,,,,,,,,,,,,,,,,,,,,,,,,,,239.43491680000443,None,,,11034,001,2024_Jan_16_1059,nback,2021.2.3,60.15551403904486,
1-back,instructions\back-1.png,conditions\12back-e.xlsx,,,experiment,1,2,stim\gray.png,stim\yellow.png,stim\gray.png,stim\gray.png,None,,,,,,,,,,,,,0,2,2,6,0,0,0,0,,,,,,,,,,,,,,,240.58748849999392,245.09484279999742,245.0621126999904,None,,,,,,,,,,,,,,,,,,,,,,,,,,,,,,,,,,,,,,right,0,245.46105479999096,None,245.46105479999096,None,245.46105479999096,246.46294269998907,245.46105479999096,246.46294269998907,245.46105479999096,246.46294269998907,245.46105479999096,246.46294269998907,245.46105479999096,245.96152290000464,245.46105479999096,245.96152290000464,245.46105479999096,245.96152290000464,245.46105479999096,245.96152290000464,245.46105479999096,None,0.6735049999842886,,,,,11034,001,2024_Jan_16_1059,nback,2021.2.3,60.15551403904486,
1-back,instructions\back-1.png,conditions\12back-e.xlsx,,,experiment,1,3,stim\gray.png,stim\gray.png,stim\yellow.png,stim\gray.png,left,,,,,,,,,,,,,0,2,2,6,0,1,1,1,,,,,,,,,,,,,,,,,,,,,,,,,,,,,,,,,,,,,,,,,,,,,,,,,,,,,,,,right,0,246.94640839999192,None,246.94640839999192,None,246.94640839999192,247.94775610000943,246.94640839999192,247.94775610000943,246.94640839999192,247.94775610000943,246.94640839999192,247.94775610000943,246.94640839999192,247.44712070000242,246.94640839999192,247.44712070000242,246.94640839999192,247.44712070000242,246.94640839999192,247.44712070000242,246.94640839999192,None,0.28464919998077676,,,,,11034,001,2024_Jan_16_1059,nback,2021.2.3,60.15551403904486,
1-back,instructions\back-1.png,conditions\12back-e.xlsx,,,experiment,1,4,stim\gray.png,stim\gray.png,stim\gray.png,stim\yellow.png,right,,,,,,,,,,,,,0,2,2,6,0,2,2,2,,,,,,,,,,,,,,,,,,,,,,,,,,,,,,,,,,,,,,,,,,,,,,,,,,,,,,,,right,1,248.4318675000104,None,248.4318675000104,None,248.4318675000104,249.43424100000993,248.4318675000104,249.43424100000993,248.4318675000104,249.43424100000993,248.4318675000104,249.43424100000993,248.4318675000104,248.93325499998173,248.4318675000104,248.93325499998173,248.4318675000104,248.93325499998173,248.4318675000104,248.93325499998173,248.4318675000104,None,0.342725700000301,,,,,11034,001,2024_Jan_16_1059,nback,2021.2.3,60.15551403904486,
1-back,instructions\back-1.png,conditions\12back-e.xlsx,,,experiment,1,3,stim\gray.png,stim\gray.png,stim\yellow.png,stim\gray.png,down,,,,,,,,,,,,,0,2,2,6,0,3,3,3,,,,,,,,,,,,,,,,,,,,,,,,,,,,,,,,,,,,,,,,,,,,,,,,,,,,,,,,down,1,249.93433200000436,None,249.93433200000436,None,249.93433200000436,250.93573399999877,249.93433200000436,250.93573399999877,249.93433200000436,250.93573399999877,249.93433200000436,250.93573399999877,249.93433200000436,250.43509169999743,249.93433200000436,250.43509169999743,249.93433200000436,250.43509169999743,249.93433200000436,250.43509169999743,249.93433200000436,None,0.15201930000330321,,,,,11034,001,2024_Jan_16_1059,nback,2021.2.3,60.15551403904486,
1-back,instructions\back-1.png,conditions\12back-e.xlsx,,,experiment,1,1,stim\yellow.png,stim\gray.png,stim\gray.png,stim\gray.png,right,,,,,,,,,,,,,0,2,2,6,0,4,4,4,,,,,,,,,,,,,,,,,,,,,,,,,,,,,,,,,,,,,,,,,,,,,,,,,,,,,,,,right,1,251.4364498000068,None,251.4364498000068,None,251.4364498000068,252.43803069999558,251.4364498000068,252.43803069999558,251.4364498000068,252.43803069999558,251.4364498000068,252.43803069999558,251.4364498000068,251.9372130999982,251.4364498000068,251.9372130999982,251.4364498000068,251.9372130999982,251.4364498000068,251.9372130999982,251.4364498000068,None,0.226173100003507,,,,,11034,001,2024_Jan_16_1059,nback,2021.2.3,60.15551403904486,
1-back,instructions\back-1.png,conditions\12back-e.xlsx,,,experiment,1,2,stim\gray.png,stim\yellow.png,stim\gray.png,stim\gray.png,up,,,,,,,,,,,,,0,2,2,6,0,5,5,5,,,,,,,,,,,,,,,,,,,,,,,,,,,,,,,,,,,,,,,,,,,,,,,,,,,,,,,,up,1,252.93867689999752,None,252.93867689999752,None,252.93867689999752,253.94021549998433,252.93867689999752,253.94021549998433,252.93867689999752,253.94021549998433,252.93867689999752,253.94021549998433,252.93867689999752,253.43946510000387,252.93867689999752,253.43946510000387,252.93867689999752,253.43946510000387,252.93867689999752,253.43946510000387,252.93867689999752,None,0.22812559999874793,,,,,11034,001,2024_Jan_16_1059,nback,2021.2.3,60.15551403904486,
1-back,instructions\back-1.png,conditions\12back-e.xlsx,,,experiment,1,2,stim\gray.png,stim\yellow.png,stim\gray.png,stim\gray.png,left,,,,,,,,,,,,,0,2,2,6,0,6,6,6,,,,,,,,,,,,,,,,,,,,,,,,,,,,,,,,,,,,,,,,,,,,,,,,,,,,,,,,left,1,254.4417596999847,None,254.4417596999847,None,254.4417596999847,255.44246099999873,254.4417596999847,255.44246099999873,254.4417596999847,255.44246099999873,254.4417596999847,255.44246099999873,254.4417596999847,254.9417032999918,254.4417596999847,254.9417032999918,254.4417596999847,254.9417032999918,254.4417596999847,254.9417032999918,254.4417596999847,None,0.2296271999948658,,,,,11034,001,2024_Jan_16_1059,nback,2021.2.3,60.15551403904486,
1-back,instructions\back-1.png,conditions\12back-e.xlsx,,,experiment,1,4,stim\gray.png,stim\gray.png,stim\gray.png,stim\yellow.png,left,,,,,,,,,,,,,0,2,2,6,0,7,7,7,,,,,,,,,,,,,,,,,,,,,,,,,,,,,,,,,,,,,,,,,,,,,,,,,,,,,,,,left,1,255.94333629999892,None,255.94333629999892,None,255.94333629999892,256.94555249999394,255.94333629999892,256.94555249999394,255.94333629999892,256.94555249999394,255.94333629999892,256.94555249999394,255.94333629999892,256.44402309998986,255.94333629999892,256.44402309998986,255.94333629999892,256.44402309998986,255.94333629999892,256.44402309998986,255.94333629999892,None,0.279472900001565,,,,,11034,001,2024_Jan_16_1059,nback,2021.2.3,60.15551403904486,
1-back,instructions\back-1.png,conditions\12back-e.xlsx,,,experiment,1,1,stim\yellow.png,stim\gray.png,stim\gray.png,stim\gray.png,down,,,,,,,,,,,,,0,2,2,6,0,8,8,8,,,,,,,,,,,,,,,,,,,,,,,,,,,,,,,,,,,,,,,,,,,,,,,,,,,,,,,,down,1,257.44527950001066,None,257.44527950001066,None,257.44527950001066,258.447045399982,257.44527950001066,258.447045399982,257.44527950001066,258.447045399982,257.44527950001066,258.447045399982,257.44527950001066,257.94636440000613,257.44527950001066,257.94636440000613,257.44527950001066,257.94636440000613,257.44527950001066,257.94636440000613,257.44527950001066,None,0.24220570002216846,,,,,11034,001,2024_Jan_16_1059,nback,2021.2.3,60.15551403904486,
1-back,instructions\back-1.png,conditions\12back-e.xlsx,,,experiment,1,3,stim\gray.png,stim\gray.png,stim\yellow.png,stim\gray.png,up,,,,,,,,,,,,,0,2,2,6,0,9,9,9,,,,,,,,,,,,,,,,,,,,,,,,,,,,,,,,,,,,,,,,,,,,,,,,,,,,,,,,up,1,258.93138749999343,None,258.93138749999343,None,258.93138749999343,259.9326276000065,258.93138749999343,259.9326276000065,258.93138749999343,259.9326276000065,258.93138749999343,259.9326276000065,258.93138749999343,259.4320902999898,258.93138749999343,259.4320902999898,258.93138749999343,259.4320902999898,258.93138749999343,259.4320902999898,258.93138749999343,None,0.2999850000196602,,,,,11034,001,2024_Jan_16_1059,nback,2021.2.3,60.15551403904486,
1-back,instructions\back-1.png,conditions\12back-e.xlsx,,,experiment,1,4,stim\gray.png,stim\gray.png,stim\gray.png,stim\yellow.png,right,,,,,,,,,,,,,0,2,2,6,0,10,10,10,,,,,,,,,,,,,,,,,,,,,,,,,,,,,,,,,,,,,,,,,,,,,,,,,,,,,,,,right,1,260.43345029998454,None,260.43345029998454,None,260.43345029998454,261.43577260000166,260.43345029998454,261.43577260000166,260.43345029998454,261.43577260000166,260.43345029998454,261.43577260000166,260.43345029998454,260.9340981999994,260.43345029998454,260.9340981999994,260.43345029998454,260.9340981999994,260.43345029998454,260.9340981999994,260.43345029998454,None,0.2781051999772899,,,,,11034,001,2024_Jan_16_1059,nback,2021.2.3,60.15551403904486,
1-back,instructions\back-1.png,conditions\12back-e.xlsx,,,experiment,1,3,stim\gray.png,stim\gray.png,stim\yellow.png,stim\gray.png,down,,,,,,,,,,,,,0,2,2,6,0,11,11,11,,,,,,,,,,,,,,,,,,,,,,,,,,,,,,,,,,,,,,,,,,,,,,,,,,,,,,,,down,1,261.9361457999912,None,261.9361457999912,None,261.9361457999912,262.93739740000456,261.9361457999912,262.93739740000456,261.9361457999912,262.93739740000456,261.9361457999912,262.93739740000456,261.9361457999912,262.4374490999908,261.9361457999912,262.4374490999908,261.9361457999912,262.4374490999908,261.9361457999912,262.4374490999908,261.9361457999912,None,0.2388263999891933,,,,,11034,001,2024_Jan_16_1059,nback,2021.2.3,60.15551403904486,
1-back,instructions\back-1.png,conditions\12back-e.xlsx,,,experiment,1,1,stim\yellow.png,stim\gray.png,stim\gray.png,stim\gray.png,left,,,,,,,,,,,,,0,2,2,6,0,12,12,12,,,,,,,,,,,,,,,,,,,,,,,,,,,,,,,,,,,,,,,,,,,,,,,,,,,,,,,,right,0,263.43798499999684,None,263.43798499999684,None,263.43798499999684,264.44006719999015,263.43798499999684,264.44006719999015,263.43798499999684,264.44006719999015,263.43798499999684,264.44006719999015,263.43798499999684,263.93932539998787,263.43798499999684,263.93932539998787,263.43798499999684,263.93932539998787,263.43798499999684,263.93932539998787,263.43798499999684,None,0.3368774999980815,,,,,11034,001,2024_Jan_16_1059,nback,2021.2.3,60.15551403904486,
1-back,instructions\back-1.png,conditions\12back-e.xlsx,,,experiment,1,4,stim\gray.png,stim\gray.png,stim\gray.png,stim\yellow.png,up,,,,,,,,,,,,,0,2,2,6,0,13,13,13,,,,,,,,,,,,,,,,,,,,,,,,,,,,,,,,,,,,,,,,,,,,,,,,,,,,,,,,up,1,264.9400609000004,None,264.9400609000004,None,264.9400609000004,265.94230309998966,264.9400609000004,265.94230309998966,264.9400609000004,265.94230309998966,264.9400609000004,265.94230309998966,264.9400609000004,265.44154939998407,264.9400609000004,265.44154939998407,264.9400609000004,265.44154939998407,264.9400609000004,265.44154939998407,264.9400609000004,None,0.26711709998198785,,,,,11034,001,2024_Jan_16_1059,nback,2021.2.3,60.15551403904486,
1-back,instructions\back-1.png,conditions\12back-e.xlsx,,,experiment,1,1,stim\yellow.png,stim\gray.png,stim\gray.png,stim\gray.png,down,,,,,,,,,,,,,0,2,2,6,0,14,14,14,,,,,,,,,,,,,,,,,,,,,,,,,,,,,,,,,,,,,,,,,,,,,,,,,,,,,,,,down,1,266.44233570000506,None,266.44233570000506,None,266.44233570000506,267.44392719998723,266.44233570000506,267.44392719998723,266.44233570000506,267.44392719998723,266.44233570000506,267.44392719998723,266.44233570000506,266.9432315999875,266.44233570000506,266.9432315999875,266.44233570000506,266.9432315999875,266.44233570000506,266.9432315999875,266.44233570000506,None,0.2450014999776613,,,,,11034,001,2024_Jan_16_1059,nback,2021.2.3,60.15551403904486,
1-back,instructions\back-1.png,conditions\12back-e.xlsx,,,experiment,1,2,stim\gray.png,stim\yellow.png,stim\gray.png,stim\gray.png,up,,,,,,,,,,,,,0,2,2,6,0,15,15,15,,,,,,,,,,,,,,,,,,,,,,,,,,,,,,,,,,,,,,,,,,,,,,,,,,,,,,,,up,1,267.94514419999905,None,267.94514419999905,None,267.94514419999905,268.94686500000535,267.94514419999905,268.94686500000535,267.94514419999905,268.94686500000535,267.94514419999905,268.94686500000535,267.94514419999905,268.44554570000037,267.94514419999905,268.44554570000037,267.94514419999905,268.44554570000037,267.94514419999905,268.44554570000037,267.94514419999905,None,0.271027500013588,,,,,11034,001,2024_Jan_16_1059,nback,2021.2.3,60.15551403904486,
1-back,instructions\back-1.png,conditions\12back-e.xlsx,,,experiment,1,1,stim\yellow.png,stim\gray.png,stim\gray.png,stim\gray.png,left,,,,,,,,,,,,,0,2,2,6,0,16,16,16,,,,,,,,,,,,,,,,,,,,,,,,,,,,,,,,,,,,,,,,,,,,,,,,,,,,,,,,left,1,269.447897999984,None,269.447897999984,None,269.447897999984,270.44850969998515,269.447897999984,270.44850969998515,269.447897999984,270.44850969998515,269.447897999984,270.44850969998515,269.447897999984,269.94843910000054,269.447897999984,269.94843910000054,269.447897999984,269.94843910000054,269.447897999984,269.94843910000054,269.447897999984,None,0.3433026999991853,,,,,11034,001,2024_Jan_16_1059,nback,2021.2.3,60.15551403904486,
1-back,instructions\back-1.png,conditions\12back-e.xlsx,,,experiment,1,3,stim\gray.png,stim\gray.png,stim\yellow.png,stim\gray.png,up,,,,,,,,,,,,,0,2,2,6,0,17,17,17,,,,,,,,,,,,,,,,,,,,,,,,,,,,,,,,,,,,,,,,,,,,,,,,,,,,,,,,up,1,270.93265390000306,None,270.93265390000306,None,270.93265390000306,271.934990299982,270.93265390000306,271.934990299982,270.93265390000306,271.934990299982,270.93265390000306,271.934990299982,270.93265390000306,271.43341040000087,270.93265390000306,271.43341040000087,270.93265390000306,271.43341040000087,270.93265390000306,271.43341040000087,270.93265390000306,None,0.29921480000484735,,,,,11034,001,2024_Jan_16_1059,nback,2021.2.3,60.15551403904486,
1-back,instructions\back-1.png,conditions\12back-e.xlsx,,,experiment,1,2,stim\gray.png,stim\yellow.png,stim\gray.png,stim\gray.png,right,,,,,,,,,,,,,0,2,2,6,0,18,18,18,,,,,,,,,,,,,,,,,,,,,,,,,,,,,,,,,,,,,,,,,,,,,,,,,,,,,,,,right,1,272.4358140999975,None,272.4358140999975,None,272.4358140999975,273.4366344999871,272.4358140999975,273.4366344999871,272.4358140999975,273.4366344999871,272.4358140999975,273.4366344999871,272.4358140999975,272.93564509999123,272.4358140999975,272.93564509999123,272.4358140999975,272.93564509999123,272.4358140999975,272.93564509999123,272.4358140999975,None,0.2277207000006456,,,,,11034,001,2024_Jan_16_1059,nback,2021.2.3,60.15551403904486,
1-back,instructions\back-1.png,conditions\12back-e.xlsx,,,experiment,1,4,stim\gray.png,stim\gray.png,stim\gray.png,stim\yellow.png,left,,,,,,,,,,,,,0,2,2,6,0,19,19,19,,,,,,,,,,,,,,,,,,,,,,,,,,,,,,,,,,,,,,,,,,,,,,,,,,,,,,,,left,1,273.93701090000104,None,273.93701090000104,None,273.93701090000104,274.93855649998295,273.93701090000104,274.93855649998295,273.93701090000104,274.93855649998295,273.93701090000104,274.93855649998295,273.93701090000104,274.4379631000047,273.93701090000104,274.4379631000047,273.93701090000104,274.4379631000047,273.93701090000104,274.4379631000047,273.93701090000104,None,0.2464087999833282,,,,,11034,001,2024_Jan_16_1059,nback,2021.2.3,60.15551403904486,
1-back,instructions\back-1.png,conditions\12back-e.xlsx,,,,,,,,,,,,,,,,,,,,,,,0,2,2,6,,,,,,,,,,,,,,,,,,,,,,,,,,,,,,,,,,,,,,,,,,,,,,,,,,,,,,,,,,,,,,,,,,,,,,,,,,,,,,,,,,,,,275.4404607999895,None,,,11034,001,2024_Jan_16_1059,nback,2021.2.3,60.15551403904486,
2-back,instructions\back-2.png,conditions\20back-e.xlsx,,,experiment,2,2,stim\gray.png,stim\yellow.png,stim\gray.png,stim\gray.png,None,,,,,,,,,,,,,0,3,3,2,0,0,0,0,,,,,,,,,,,,,,,276.60776869999245,281.1155488000077,281.04831419998663,None,,,,,,,,,,,,,,,,,,,,,,,,,,,,,,,,,,,,,,None,1,281.45013009998365,None,281.45013009998365,None,281.45013009998365,282.44998370000394,281.45013009998365,282.44998370000394,281.45013009998365,282.44998370000394,281.45013009998365,282.44998370000394,281.45013009998365,281.9501125999959,281.45013009998365,281.9501125999959,281.45013009998365,281.9501125999959,281.45013009998365,281.9501125999959,281.45013009998365,None,,,,,,11034,001,2024_Jan_16_1059,nback,2021.2.3,60.15551403904486,
2-back,instructions\back-2.png,conditions\20back-e.xlsx,,,experiment,2,1,stim\yellow.png,stim\gray.png,stim\gray.png,stim\gray.png,None,,,,,,,,,,,,,0,3,3,2,0,1,1,1,,,,,,,,,,,,,,,,,,,,,,,,,,,,,,,,,,,,,,,,,,,,,,,,,,,,,,,,left,0,282.934007999982,None,282.934007999982,None,282.934007999982,283.93620419999934,282.934007999982,283.93620419999934,282.934007999982,283.93620419999934,282.934007999982,283.93620419999934,282.934007999982,283.4355443000095,282.934007999982,283.4355443000095,282.934007999982,283.4355443000095,282.934007999982,283.4355443000095,282.934007999982,None,1.3138455000007525,,,,,11034,001,2024_Jan_16_1059,nback,2021.2.3,60.15551403904486,
2-back,instructions\back-2.png,conditions\20back-e.xlsx,,,experiment,2,4,stim\gray.png,stim\gray.png,stim\gray.png,stim\yellow.png,left,,,,,,,,,,,,,0,3,3,2,0,2,2,2,,,,,,,,,,,,,,,,,,,,,,,,,,,,,,,,,,,,,,,,,,,,,,,,,,,,,,,,up,0,284.43621580000035,None,284.43621580000035,None,284.43621580000035,285.43858680000994,284.43621580000035,285.43858680000994,284.43621580000035,285.43858680000994,284.43621580000035,285.43858680000994,284.43621580000035,284.9369243999827,284.43621580000035,284.9369243999827,284.43621580000035,284.9369243999827,284.43621580000035,284.9369243999827,284.43621580000035,None,1.0675217999960296,,,,,11034,001,2024_Jan_16_1059,nback,2021.2.3,60.15551403904486,
2-back,instructions\back-2.png,conditions\20back-e.xlsx,,,experiment,2,3,stim\gray.png,stim\gray.png,stim\yellow.png,stim\gray.png,up,,,,,,,,,,,,,0,3,3,2,0,3,3,3,,,,,,,,,,,,,,,,,,,,,,,,,,,,,,,,,,,,,,,,,,,,,,,,,,,,,,,,up,1,285.9386187999917,None,285.9386187999917,None,285.9386187999917,286.94005319999997,285.9386187999917,286.94005319999997,285.9386187999917,286.94005319999997,285.9386187999917,286.94005319999997,285.9386187999917,286.43940129998373,285.9386187999917,286.43940129998373,285.9386187999917,286.43940129998373,285.9386187999917,286.43940129998373,285.9386187999917,None,0.2850643999991007,,,,,11034,001,2024_Jan_16_1059,nback,2021.2.3,60.15551403904486,
2-back,instructions\back-2.png,conditions\20back-e.xlsx,,,experiment,2,1,stim\yellow.png,stim\gray.png,stim\gray.png,stim\gray.png,down,,,,,,,,,,,,,0,3,3,2,0,4,4,4,,,,,,,,,,,,,,,,,,,,,,,,,,,,,,,,,,,,,,,,,,,,,,,,,,,,,,,,down,1,287.44089199998416,None,287.44089199998416,None,287.44089199998416,288.442389200005,287.44089199998416,288.442389200005,287.44089199998416,288.442389200005,287.44089199998416,288.442389200005,287.44089199998416,287.94155230000615,287.44089199998416,287.94155230000615,287.44089199998416,287.94155230000615,287.44089199998416,287.94155230000615,287.44089199998416,None,0.18353569999453612,,,,,11034,001,2024_Jan_16_1059,nback,2021.2.3,60.15551403904486,
2-back,instructions\back-2.png,conditions\20back-e.xlsx,,,experiment,2,2,stim\gray.png,stim\yellow.png,stim\gray.png,stim\gray.png,right,,,,,,,,,,,,,0,3,3,2,0,5,5,5,,,,,,,,,,,,,,,,,,,,,,,,,,,,,,,,,,,,,,,,,,,,,,,,,,,,,,,,right,1,288.94343579999986,None,288.94343579999986,None,288.94343579999986,289.94468909999705,288.94343579999986,289.94468909999705,288.94343579999986,289.94468909999705,288.94343579999986,289.94468909999705,288.94343579999986,289.4440491999849,288.94343579999986,289.4440491999849,288.94343579999986,289.4440491999849,288.94343579999986,289.4440491999849,288.94343579999986,None,0.23235219999332912,,,,,11034,001,2024_Jan_16_1059,nback,2021.2.3,60.15551403904486,
2-back,instructions\back-2.png,conditions\20back-e.xlsx,,,experiment,2,3,stim\gray.png,stim\gray.png,stim\yellow.png,stim\gray.png,up,,,,,,,,,,,,,0,3,3,2,0,6,6,6,,,,,,,,,,,,,,,,,,,,,,,,,,,,,,,,,,,,,,,,,,,,,,,,,,,,,,,,up,1,290.44526919999043,None,290.44526919999043,None,290.44526919999043,291.4477084999962,290.44526919999043,291.4477084999962,290.44526919999043,291.4477084999962,290.44526919999043,291.4477084999962,290.44526919999043,290.94617320000543,290.44526919999043,290.94617320000543,290.44526919999043,290.94617320000543,290.44526919999043,290.94617320000543,290.44526919999043,None,0.2106443000084255,,,,,11034,001,2024_Jan_16_1059,nback,2021.2.3,60.15551403904486,
2-back,instructions\back-2.png,conditions\20back-e.xlsx,,,experiment,2,4,stim\gray.png,stim\gray.png,stim\gray.png,stim\yellow.png,left,,,,,,,,,,,,,0,3,3,2,0,7,7,7,,,,,,,,,,,,,,,,,,,,,,,,,,,,,,,,,,,,,,,,,,,,,,,,,,,,,,,,left,1,291.9477292000083,None,291.9477292000083,None,291.9477292000083,292.94950789998984,291.9477292000083,292.94950789998984,291.9477292000083,292.94950789998984,291.9477292000083,292.94950789998984,291.9477292000083,292.44839020000654,291.9477292000083,292.44839020000654,291.9477292000083,292.44839020000654,291.9477292000083,292.44839020000654,291.9477292000083,None,0.21221299999160692,,,,,11034,001,2024_Jan_16_1059,nback,2021.2.3,60.15551403904486,
2-back,instructions\back-2.png,conditions\20back-e.xlsx,,,experiment,2,3,stim\gray.png,stim\gray.png,stim\yellow.png,stim\gray.png,right,,,,,,,,,,,,,0,3,3,2,0,8,8,8,,,,,,,,,,,,,,,,,,,,,,,,,,,,,,,,,,,,,,,,,,,,,,,,,,,,,,,,right,1,293.4331843999971,None,293.4331843999971,None,293.4331843999971,294.43483529999503,293.4331843999971,294.43483529999503,293.4331843999971,294.43483529999503,293.4331843999971,294.43483529999503,293.4331843999971,293.9338996000006,293.4331843999971,293.9338996000006,293.4331843999971,293.9338996000006,293.4331843999971,293.9338996000006,293.4331843999971,None,0.23111519997473806,,,,,11034,001,2024_Jan_16_1059,nback,2021.2.3,60.15551403904486,
2-back,instructions\back-2.png,conditions\20back-e.xlsx,,,experiment,2,4,stim\gray.png,stim\gray.png,stim\gray.png,stim\yellow.png,down,,,,,,,,,,,,,0,3,3,2,0,9,9,9,,,,,,,,,,,,,,,,,,,,,,,,,,,,,,,,,,,,,,,,,,,,,,,,,,,,,,,,None,0,294.9353742999956,None,294.9353742999956,None,294.9353742999956,295.9369994000008,294.9353742999956,295.9369994000008,294.9353742999956,295.9369994000008,294.9353742999956,295.9369994000008,294.9353742999956,295.4362653999997,294.9353742999956,295.4362653999997,294.9353742999956,295.4362653999997,294.9353742999956,295.4362653999997,294.9353742999956,None,,,,,,11034,001,2024_Jan_16_1059,nback,2021.2.3,60.15551403904486,
2-back,instructions\back-2.png,conditions\20back-e.xlsx,,,experiment,2,1,stim\yellow.png,stim\gray.png,stim\gray.png,stim\gray.png,right,,,,,,,,,,,,,0,3,3,2,0,10,10,10,,,,,,,,,,,,,,,,,,,,,,,,,,,,,,,,,,,,,,,,,,,,,,,,,,,,,,,,None,0,296.4378036999842,None,296.4378036999842,None,296.4378036999842,297.43927080000867,296.4378036999842,297.43927080000867,296.4378036999842,297.43927080000867,296.4378036999842,297.43927080000867,296.4378036999842,296.9385559000075,296.4378036999842,296.9385559000075,296.4378036999842,296.9385559000075,296.4378036999842,296.9385559000075,296.4378036999842,None,,,,,,11034,001,2024_Jan_16_1059,nback,2021.2.3,60.15551403904486,
2-back,instructions\back-2.png,conditions\20back-e.xlsx,,,experiment,2,2,stim\gray.png,stim\yellow.png,stim\gray.png,stim\gray.png,down,,,,,,,,,,,,,0,3,3,2,0,11,11,11,,,,,,,,,,,,,,,,,,,,,,,,,,,,,,,,,,,,,,,,,,,,,,,,,,,,,,,,down,1,297.9401004999818,None,297.9401004999818,None,297.9401004999818,298.941487700009,297.9401004999818,298.941487700009,297.9401004999818,298.941487700009,297.9401004999818,298.941487700009,297.9401004999818,298.44076530000893,297.9401004999818,298.44076530000893,297.9401004999818,298.44076530000893,297.9401004999818,298.44076530000893,297.9401004999818,None,0.2039733999990858,,,,,11034,001,2024_Jan_16_1059,nback,2021.2.3,60.15551403904486,
2-back,instructions\back-2.png,conditions\20back-e.xlsx,,,experiment,2,3,stim\gray.png,stim\gray.png,stim\yellow.png,stim\gray.png,up,,,,,,,,,,,,,0,3,3,2,0,12,12,12,,,,,,,,,,,,,,,,,,,,,,,,,,,,,,,,,,,,,,,,,,,,,,,,,,,,,,,,up,1,299.44249950000085,None,299.44249950000085,None,299.44249950000085,300.4438344000082,299.44249950000085,300.4438344000082,299.44249950000085,300.4438344000082,299.44249950000085,300.4438344000082,299.44249950000085,299.94307099998696,299.44249950000085,299.94307099998696,299.44249950000085,299.94307099998696,299.44249950000085,299.94307099998696,299.44249950000085,None,0.20554460000130348,,,,,11034,001,2024_Jan_16_1059,nback,2021.2.3,60.15551403904486,
2-back,instructions\back-2.png,conditions\20back-e.xlsx,,,experiment,2,1,stim\yellow.png,stim\gray.png,stim\gray.png,stim\gray.png,left,,,,,,,,,,,,,0,3,3,2,0,13,13,13,,,,,,,,,,,,,,,,,,,,,,,,,,,,,,,,,,,,,,,,,,,,,,,,,,,,,,,,left,1,300.94447950000176,None,300.94447950000176,None,300.94447950000176,301.94840930000646,300.94447950000176,301.94840930000646,300.94447950000176,301.94840930000646,300.94447950000176,301.94840930000646,300.94447950000176,301.4452431999962,300.94447950000176,301.4452431999962,300.94447950000176,301.4452431999962,300.94447950000176,301.4452431999962,300.94447950000176,None,0.20786189998034388,,,,,11034,001,2024_Jan_16_1059,nback,2021.2.3,60.15551403904486,
2-back,instructions\back-2.png,conditions\20back-e.xlsx,,,experiment,2,4,stim\gray.png,stim\gray.png,stim\gray.png,stim\yellow.png,right,,,,,,,,,,,,,0,3,3,2,0,14,14,14,,,,,,,,,,,,,,,,,,,,,,,,,,,,,,,,,,,,,,,,,,,,,,,,,,,,,,,,right,1,302.44677650000085,None,302.44677650000085,None,302.44677650000085,303.44824500000686,302.44677650000085,303.44824500000686,302.44677650000085,303.44824500000686,302.44677650000085,303.44824500000686,302.44677650000085,302.9477848999959,302.44677650000085,302.9477848999959,302.44677650000085,302.9477848999959,302.44677650000085,302.9477848999959,302.44677650000085,None,0.22549460001755506,,,,,11034,001,2024_Jan_16_1059,nback,2021.2.3,60.15551403904486,
2-back,instructions\back-2.png,conditions\20back-e.xlsx,,,experiment,2,2,stim\gray.png,stim\yellow.png,stim\gray.png,stim\gray.png,up,,,,,,,,,,,,,0,3,3,2,0,15,15,15,,,,,,,,,,,,,,,,,,,,,,,,,,,,,,,,,,,,,,,,,,,,,,,,,,,,,,,,left,0,303.9323914999841,None,303.9323914999841,None,303.9323914999841,304.9346491000033,303.9323914999841,304.9346491000033,303.9323914999841,304.9346491000033,303.9323914999841,304.9346491000033,303.9323914999841,304.433629999985,303.9323914999841,304.433629999985,303.9323914999841,304.433629999985,303.9323914999841,304.433629999985,303.9323914999841,None,0.4357407999923453,,,,,11034,001,2024_Jan_16_1059,nback,2021.2.3,60.15551403904486,
2-back,instructions\back-2.png,conditions\20back-e.xlsx,,,experiment,2,4,stim\gray.png,stim\gray.png,stim\gray.png,stim\yellow.png,down,,,,,,,,,,,,,0,3,3,2,0,16,16,16,,,,,,,,,,,,,,,,,,,,,,,,,,,,,,,,,,,,,,,,,,,,,,,,,,,,,,,,down,1,305.4346916000068,None,305.4346916000068,None,305.4346916000068,306.43634409998776,305.4346916000068,306.43634409998776,305.4346916000068,306.43634409998776,305.4346916000068,306.43634409998776,305.4346916000068,305.9361569999892,305.4346916000068,305.9361569999892,305.4346916000068,305.9361569999892,305.4346916000068,305.9361569999892,305.4346916000068,None,0.3665501000068616,,,,,11034,001,2024_Jan_16_1059,nback,2021.2.3,60.15551403904486,
