backseq,backinstr,backfile,instruction,size_in,Trialtype,back,number,P1,P2,P3,P4,corrAns,trials_practice.thisRepN,trials_practice.thisTrialN,trials_practice.thisN,trials_practice.thisIndex,trials.thisRepN,trials.thisTrialN,trials.thisN,trials.thisIndex,trials_3.thisRepN,trials_3.thisTrialN,trials_3.thisN,trials_3.thisIndex,trials_2.thisRepN,trials_2.thisTrialN,trials_2.thisN,trials_2.thisIndex,trials_4.thisRepN,trials_4.thisTrialN,trials_4.thisN,trials_4.thisIndex,image.started,image.stopped,image_2.started,image_2.stopped,key_resp.keys,key_resp.rt,key_resp.started,key_resp.stopped,image_3.started,image_3.stopped,key_resp_2.keys,key_resp_2.rt,key_resp_2.started,key_resp_2.stopped,image_4.started,image_4.stopped,text.started,text.stopped,H1.started,H1.stopped,H2.started,H2.stopped,H3.started,H3.stopped,H4.started,H4.stopped,key_resp_3.keys,key_resp_3.corr,key_resp_3.rt,key_resp_3.started,key_resp_3.stopped,text_4.started,text_4.stopped,F1.started,F1.stopped,F2.started,F2.stopped,F3.started,F3.stopped,F4.started,F4.stopped,image_7.started,image_7.stopped,text_5.started,text_5.stopped,key_resp_6.keys,key_resp_6.rt,key_resp_6.started,key_resp_6.stopped,image_5.started,image_5.stopped,key_resp_4.keys,key_resp_4.rt,key_resp_4.started,key_resp_4.stopped,key_resp_5.keys,key_resp_5.corr,key_resp_5.started,key_resp_5.stopped,text_3.started,text_3.stopped,H1_2.started,H1_2.stopped,H2_2.started,H2_2.stopped,H3_2.started,H3_2.stopped,H4_2.started,H4_2.stopped,F1_2.started,F1_2.stopped,F2_2.started,F2_2.stopped,F3_2.started,F3_2.stopped,F4_2.started,F4_2.stopped,image_8.started,image_8.stopped,key_resp_5.rt,text_2.started,text_2.stopped,image_6.started,image_6.stopped,participant,session,date,expName,psychopyVersion,frameRate,
,,,,,,,,,,,,,,,,,,,,,,,,,,,,,,,,,10.549935099901631,None,11.435034400084987,None,space,38.68980609998107,11.435034400084987,None,,,,,,,,,,,,,,,,,,,,,,,,,,,,,,,,,,,,,,,,,,,,,,,,,,,,,,,,,,,,,,,,,,,,,,,,,,,,,11038,001,2024_Mar_11_1635,nback,2021.2.3,59.83706367487503,
0-back,instructions\back-0.png,conditions\0back-p.xlsx,instructions\0-BACK.png,"(15, 8)",practice,0,1,stim\yellow.png,stim\gray.png,stim\gray.png,stim\gray.png,up,0,0,0,0,0,0,0,0,0,0,0,0,,,,,,,,,,,,,,,,,50.19277790002525,None,space,2.540436400100589,50.19277790002525,None,52.980576700065285,57.48738160007633,57.40524229989387,None,57.788888100069016,58.789189599920064,57.788888100069016,58.789189599920064,57.788888100069016,58.789189599920064,57.788888100069016,58.789189599920064,up,1,0.5601655000355095,57.788888100069016,None,57.788888100069016,None,57.788888100069016,58.28872950002551,57.788888100069016,58.28872950002551,57.788888100069016,58.28872950002551,57.788888100069016,58.28872950002551,57.788888100069016,None,,,,,,,,,,,,,,,,,,,,,,,,,,,,,,,,,,,,,,,,,,11038,001,2024_Mar_11_1635,nback,2021.2.3,59.83706367487503,
0-back,instructions\back-0.png,conditions\0back-p.xlsx,instructions\0-BACK.png,"(15, 8)",practice,0,2,stim\gray.png,stim\yellow.png,stim\gray.png,stim\gray.png,left,0,0,0,0,0,0,0,0,0,1,1,1,,,,,,,,,,,,,,,,,,,,,,,,,,,59.291084700031206,60.292475499911234,59.291084700031206,60.292475499911234,59.291084700031206,60.292475499911234,59.291084700031206,60.292475499911234,left,1,0.52984179998748,59.291084700031206,None,59.291084700031206,None,59.291084700031206,59.79094560001977,59.291084700031206,59.79094560001977,59.291084700031206,59.79094560001977,59.291084700031206,59.79094560001977,59.291084700031206,None,,,,,,,,,,,,,,,,,,,,,,,,,,,,,,,,,,,,,,,,,,11038,001,2024_Mar_11_1635,nback,2021.2.3,59.83706367487503,
0-back,instructions\back-0.png,conditions\0back-p.xlsx,instructions\0-BACK.png,"(15, 8)",practice,0,3,stim\gray.png,stim\gray.png,stim\yellow.png,stim\gray.png,right,0,0,0,0,0,0,0,0,0,2,2,2,,,,,,,,,,,,,,,,,,,,,,,,,,,60.77698819991201,61.77738009998575,60.77698819991201,61.77738009998575,60.77698819991201,61.77738009998575,60.77698819991201,61.77738009998575,right,1,0.38017260003834963,60.77698819991201,None,60.77698819991201,None,60.77698819991201,61.27663239999674,60.77698819991201,61.27663239999674,60.77698819991201,61.27663239999674,60.77698819991201,61.27663239999674,60.77698819991201,None,,,,,,,,,,,,,,,,,,,,,,,,,,,,,,,,,,,,,,,,,,11038,001,2024_Mar_11_1635,nback,2021.2.3,59.83706367487503,
0-back,instructions\back-0.png,conditions\0back-p.xlsx,instructions\0-BACK.png,"(15, 8)",practice,0,4,stim\gray.png,stim\gray.png,stim\gray.png,stim\yellow.png,down,0,0,0,0,0,0,0,0,0,3,3,3,,,,,,,,,,,,,,,,,,,,,,,,,,,62.27786979987286,63.27954560006037,62.27786979987286,63.27954560006037,62.27786979987286,63.27954560006037,62.27786979987286,63.27954560006037,down,1,0.3185298000462353,62.27786979987286,None,62.27786979987286,None,62.27786979987286,62.77866449998692,62.27786979987286,62.77866449998692,62.27786979987286,62.77866449998692,62.27786979987286,62.77866449998692,62.27786979987286,None,,,,,,,,,,,,,,,,,,,,,,,,,,,,,,,,,,,,,,,,,,11038,001,2024_Mar_11_1635,nback,2021.2.3,59.83706367487503,
0-back,instructions\back-0.png,conditions\0back-p.xlsx,instructions\0-BACK.png,"(15, 8)",practice,0,2,stim\gray.png,stim\yellow.png,stim\gray.png,stim\gray.png,left,0,0,0,0,0,0,0,0,0,4,4,4,,,,,,,,,,,,,,,,,,,,,,,,,,,63.780272299889475,64.78181599988602,63.780272299889475,64.78181599988602,63.780272299889475,64.78181599988602,63.780272299889475,64.78181599988602,left,1,0.38476400007493794,63.780272299889475,None,63.780272299889475,None,63.780272299889475,64.28130879998207,63.780272299889475,64.28130879998207,63.780272299889475,64.28130879998207,63.780272299889475,64.28130879998207,63.780272299889475,None,,,,,,,,,,,,,,,,,,,,,,,,,,,,,,,,,,,,,,,,,,11038,001,2024_Mar_11_1635,nback,2021.2.3,59.83706367487503,
0-back,instructions\back-0.png,conditions\0back-p.xlsx,instructions\0-BACK.png,"(15, 8)",practice,0,1,stim\yellow.png,stim\gray.png,stim\gray.png,stim\gray.png,up,0,0,0,0,0,0,0,0,0,5,5,5,,,,,,,,,,,,,,,,,,,,,,,,,,,65.28270419989713,66.2845556999091,65.28270419989713,66.2845556999091,65.28270419989713,66.2845556999091,65.28270419989713,66.2845556999091,up,1,0.3547127000056207,65.28270419989713,None,65.28270419989713,None,65.28270419989713,65.78453579987399,65.28270419989713,65.78453579987399,65.28270419989713,65.78453579987399,65.28270419989713,65.78453579987399,65.28270419989713,None,,,,,,,,,,,,,,,,,,,,,,,,,,,,,,,,,,,,,,,,,,11038,001,2024_Mar_11_1635,nback,2021.2.3,59.83706367487503,
0-back,instructions\back-0.png,conditions\0back-p.xlsx,instructions\0-BACK.png,"(15, 8)",practice,0,4,stim\gray.png,stim\gray.png,stim\gray.png,stim\yellow.png,down,0,0,0,0,0,0,0,0,0,6,6,6,,,,,,,,,,,,,,,,,,,,,,,,,,,66.76908320002258,67.77059479989111,66.76908320002258,67.77059479989111,66.76908320002258,67.77059479989111,66.76908320002258,67.77059479989111,down,1,0.5166136999614537,66.76908320002258,None,66.76908320002258,None,66.76908320002258,67.26972089987248,66.76908320002258,67.26972089987248,66.76908320002258,67.26972089987248,66.76908320002258,67.26972089987248,66.76908320002258,None,,,,,,,,,,,,,,,,,,,,,,,,,,,,,,,,,,,,,,,,,,11038,001,2024_Mar_11_1635,nback,2021.2.3,59.83706367487503,
0-back,instructions\back-0.png,conditions\0back-p.xlsx,instructions\0-BACK.png,"(15, 8)",practice,0,3,stim\gray.png,stim\gray.png,stim\yellow.png,stim\gray.png,right,0,0,0,0,0,0,0,0,0,7,7,7,,,,,,,,,,,,,,,,,,,,,,,,,,,68.27032330003567,69.27277170005254,68.27032330003567,69.27277170005254,68.27032330003567,69.27277170005254,68.27032330003567,69.27277170005254,right,1,0.3758826998528093,68.27032330003567,None,68.27032330003567,None,68.27032330003567,68.77252479991876,68.27032330003567,68.77252479991876,68.27032330003567,68.77252479991876,68.27032330003567,68.77252479991876,68.27032330003567,None,,,,,,,,,,,,,,,,,,,,,,,,,,,,,,,,,,,,,,,,,,11038,001,2024_Mar_11_1635,nback,2021.2.3,59.83706367487503,
0-back,instructions\back-0.png,conditions\0back-p.xlsx,instructions\0-BACK.png,"(15, 8)",practice,0,3,stim\gray.png,stim\gray.png,stim\yellow.png,stim\gray.png,right,0,0,0,0,0,0,0,0,0,8,8,8,,,,,,,,,,,,,,,,,,,,,,,,,,,69.77262920001522,70.77413080004044,69.77262920001522,70.77413080004044,69.77262920001522,70.77413080004044,69.77262920001522,70.77413080004044,right,1,0.3446342998649925,69.77262920001522,None,69.77262920001522,None,69.77262920001522,70.27338430006057,69.77262920001522,70.27338430006057,69.77262920001522,70.27338430006057,69.77262920001522,70.27338430006057,69.77262920001522,None,,,,,,,,,,,,,,,,,,,,,,,,,,,,,,,,,,,,,,,,,,11038,001,2024_Mar_11_1635,nback,2021.2.3,59.83706367487503,
0-back,instructions\back-0.png,conditions\0back-p.xlsx,instructions\0-BACK.png,"(15, 8)",practice,0,4,stim\gray.png,stim\gray.png,stim\gray.png,stim\yellow.png,down,0,0,0,0,0,0,0,0,0,9,9,9,,,,,,,,,,,,,,,,,,,,,,,,,,,71.27464889991097,72.27784859994426,71.27464889991097,72.27784859994426,71.27464889991097,72.27784859994426,71.27464889991097,72.27784859994426,down,1,0.37893570004962385,71.27464889991097,None,71.27464889991097,None,71.27464889991097,71.7765893000178,71.27464889991097,71.7765893000178,71.27464889991097,71.7765893000178,71.27464889991097,71.7765893000178,71.27464889991097,None,,,,,,,,,,,,,,,,,,,,,,,,,,,,,,,,,,,,,,,,,,11038,001,2024_Mar_11_1635,nback,2021.2.3,59.83706367487503,
0-back,instructions\back-0.png,conditions\0back-p.xlsx,instructions\0-BACK.png,"(15, 8)",practice,0,1,stim\yellow.png,stim\gray.png,stim\gray.png,stim\gray.png,up,0,0,0,0,0,0,0,0,0,10,10,10,,,,,,,,,,,,,,,,,,,,,,,,,,,72.77725829998963,73.77863970003091,72.77725829998963,73.77863970003091,72.77725829998963,73.77863970003091,72.77725829998963,73.77863970003091,up,1,0.308257200056687,72.77725829998963,None,72.77725829998963,None,72.77725829998963,73.27916310005821,72.77725829998963,73.27916310005821,72.77725829998963,73.27916310005821,72.77725829998963,73.27916310005821,72.77725829998963,None,,,,,,,,,,,,,,,,,,,,,,,,,,,,,,,,,,,,,,,,,,11038,001,2024_Mar_11_1635,nback,2021.2.3,59.83706367487503,
0-back,instructions\back-0.png,conditions\0back-p.xlsx,instructions\0-BACK.png,"(15, 8)",practice,0,2,stim\gray.png,stim\yellow.png,stim\gray.png,stim\gray.png,left,0,0,0,0,0,0,0,0,0,11,11,11,,,,,,,,,,,,,,,,,,,,,,,,,,,74.2795754999388,75.28165889997035,74.2795754999388,75.28165889997035,74.2795754999388,75.28165889997035,74.2795754999388,75.28165889997035,left,1,0.31027230015024543,74.2795754999388,None,74.2795754999388,None,74.2795754999388,74.78107589995489,74.2795754999388,74.78107589995489,74.2795754999388,74.78107589995489,74.2795754999388,74.78107589995489,74.2795754999388,None,,,,,,,,,,,,,,,,,,,,,,,,,,,,,,,,,,,,,,,,,,11038,001,2024_Mar_11_1635,nback,2021.2.3,59.83706367487503,
0-back,instructions\back-0.png,conditions\0back-p.xlsx,instructions\0-BACK.png,"(15, 8)",practice,0,4,stim\gray.png,stim\gray.png,stim\gray.png,stim\yellow.png,down,0,0,0,0,0,0,0,0,0,12,12,12,,,,,,,,,,,,,,,,,,,,,,,,,,,75.78267210000195,76.78322550002486,75.78267210000195,76.78322550002486,75.78267210000195,76.78322550002486,75.78267210000195,76.78322550002486,down,1,0.342620600014925,75.78267210000195,None,75.78267210000195,None,75.78267210000195,76.28247400000691,75.78267210000195,76.28247400000691,75.78267210000195,76.28247400000691,75.78267210000195,76.28247400000691,75.78267210000195,None,,,,,,,,,,,,,,,,,,,,,,,,,,,,,,,,,,,,,,,,,,11038,001,2024_Mar_11_1635,nback,2021.2.3,59.83706367487503,
0-back,instructions\back-0.png,conditions\0back-p.xlsx,instructions\0-BACK.png,"(15, 8)",practice,0,3,stim\gray.png,stim\gray.png,stim\yellow.png,stim\gray.png,right,0,0,0,0,0,0,0,0,0,13,13,13,,,,,,,,,,,,,,,,,,,,,,,,,,,77.2840467998758,78.2861953000538,77.2840467998758,78.2861953000538,77.2840467998758,78.2861953000538,77.2840467998758,78.2861953000538,right,1,0.2975029000081122,77.2840467998758,None,77.2840467998758,None,77.2840467998758,77.78477729996666,77.2840467998758,77.78477729996666,77.2840467998758,77.78477729996666,77.2840467998758,77.78477729996666,77.2840467998758,None,,,,,,,,,,,,,,,,,,,,,,,,,,,,,,,,,,,,,,,,,,11038,001,2024_Mar_11_1635,nback,2021.2.3,59.83706367487503,
0-back,instructions\back-0.png,conditions\0back-p.xlsx,instructions\0-BACK.png,"(15, 8)",practice,0,1,stim\yellow.png,stim\gray.png,stim\gray.png,stim\gray.png,up,0,0,0,0,0,0,0,0,0,14,14,14,,,,,,,,,,,,,,,,,,,,,,,,,,,78.76964409998618,79.77117349999025,78.76964409998618,79.77117349999025,78.76964409998618,79.77117349999025,78.76964409998618,79.77117349999025,up,1,0.29173690010793507,78.76964409998618,None,78.76964409998618,None,78.76964409998618,79.27035990008153,78.76964409998618,79.27035990008153,78.76964409998618,79.27035990008153,78.76964409998618,79.27035990008153,78.76964409998618,None,,,,,,,,,,,,,,,,,,,,,,,,,,,,,,,,,,,,,,,,,,11038,001,2024_Mar_11_1635,nback,2021.2.3,59.83706367487503,
0-back,instructions\back-0.png,conditions\0back-p.xlsx,instructions\0-BACK.png,"(15, 8)",practice,0,2,stim\gray.png,stim\yellow.png,stim\gray.png,stim\gray.png,left,0,0,0,0,0,0,0,0,0,15,15,15,,,,,,,,,,,,,,,,,,,,,,,,,,,80.2739128000103,81.2744899999816,80.2739128000103,81.2744899999816,80.2739128000103,81.2744899999816,80.2739128000103,81.2744899999816,left,1,0.3070485999342054,80.2739128000103,None,80.2739128000103,None,80.2739128000103,80.78978900006041,80.2739128000103,80.78978900006041,80.2739128000103,80.78978900006041,80.2739128000103,80.78978900006041,80.2739128000103,None,,,,,,,,,,,,,,,,,,,,,,,,,,,,,,,,,,,,,,,,,,11038,001,2024_Mar_11_1635,nback,2021.2.3,59.83706367487503,
0-back,instructions\back-0.png,conditions\0back-p.xlsx,instructions\0-BACK.png,"(15, 8)",practice,0,3,stim\gray.png,stim\gray.png,stim\yellow.png,stim\gray.png,right,0,0,0,0,0,0,0,0,0,16,16,16,,,,,,,,,,,,,,,,,,,,,,,,,,,81.77409529988654,82.77567490004003,81.77409529988654,82.77567490004003,81.77409529988654,82.77567490004003,81.77409529988654,82.77567490004003,right,1,0.327478599967435,81.77409529988654,None,81.77409529988654,None,81.77409529988654,82.27568749990314,81.77409529988654,82.27568749990314,81.77409529988654,82.27568749990314,81.77409529988654,82.27568749990314,81.77409529988654,None,,,,,,,,,,,,,,,,,,,,,,,,,,,,,,,,,,,,,,,,,,11038,001,2024_Mar_11_1635,nback,2021.2.3,59.83706367487503,
0-back,instructions\back-0.png,conditions\0back-p.xlsx,instructions\0-BACK.png,"(15, 8)",practice,0,1,stim\yellow.png,stim\gray.png,stim\gray.png,stim\gray.png,up,0,0,0,0,0,0,0,0,0,17,17,17,,,,,,,,,,,,,,,,,,,,,,,,,,,83.27626079996116,84.27927389997058,83.27626079996116,84.27927389997058,83.27626079996116,84.27927389997058,83.27626079996116,84.27927389997058,up,1,0.41797200008295476,83.27626079996116,None,83.27626079996116,None,83.27626079996116,83.77716180006973,83.27626079996116,83.77716180006973,83.27626079996116,83.77716180006973,83.27626079996116,83.77716180006973,83.27626079996116,None,,,,,,,,,,,,,,,,,,,,,,,,,,,,,,,,,,,,,,,,,,11038,001,2024_Mar_11_1635,nback,2021.2.3,59.83706367487503,
0-back,instructions\back-0.png,conditions\0back-p.xlsx,instructions\0-BACK.png,"(15, 8)",practice,0,4,stim\gray.png,stim\gray.png,stim\gray.png,stim\yellow.png,down,0,0,0,0,0,0,0,0,0,18,18,18,,,,,,,,,,,,,,,,,,,,,,,,,,,84.77860670001246,85.78217749996111,84.77860670001246,85.78217749996111,84.77860670001246,85.78217749996111,84.77860670001246,85.78217749996111,down,1,0.30669510015286505,84.77860670001246,None,84.77860670001246,None,84.77860670001246,85.2801371999085,84.77860670001246,85.2801371999085,84.77860670001246,85.2801371999085,84.77860670001246,85.2801371999085,84.77860670001246,None,,,,,,,,,,,,,,,,,,,,,,,,,,,,,,,,,,,,,,,,,,11038,001,2024_Mar_11_1635,nback,2021.2.3,59.83706367487503,
0-back,instructions\back-0.png,conditions\0back-p.xlsx,instructions\0-BACK.png,"(15, 8)",practice,0,2,stim\gray.png,stim\yellow.png,stim\gray.png,stim\gray.png,left,0,0,0,0,0,0,0,0,0,19,19,19,,,,,,,,,,,,,,,,,,,,,,,,,,,86.28234939998947,87.28323179995641,86.28234939998947,87.28323179995641,86.28234939998947,87.28323179995641,86.28234939998947,87.28323179995641,left,1,0.30722360010258853,86.28234939998947,None,86.28234939998947,None,86.28234939998947,86.7816389000509,86.28234939998947,86.7816389000509,86.28234939998947,86.7816389000509,86.28234939998947,86.7816389000509,86.28234939998947,None,,,,,,,,,,,,,,,,,,,,,,,,,,,,,,,,,,,,,,,,,,11038,001,2024_Mar_11_1635,nback,2021.2.3,59.83706367487503,
0-back,instructions\back-0.png,conditions\0back-p.xlsx,instructions\0-BACK.png,"(15, 8)",,,,,,,,,0,0,0,0,0,0,0,0,,,,,,,,,,,,,,,,,,,,,,,,,,,,,,,,,,,,,,,,,,,,,,,,,,,,,,,,,,,,,,,,,,,,,,,,,,,,,,,,,,,,,,,,,,,,,,,,,11038,001,2024_Mar_11_1635,nback,2021.2.3,59.83706367487503,
1-back,instructions\back-1.png,conditions\1back-p.xlsx,instructions\1-BACK.png,"(25, 15)",practice,1,1,stim\yellow.png,stim\gray.png,stim\gray.png,stim\gray.png,None,0,0,0,0,0,1,1,1,0,0,0,0,,,,,,,,,,,,,,,,,87.98363979998976,None,space,12.453941900050268,87.98363979998976,None,100.61883819987997,105.12640820001252,105.11013669986278,None,105.49435559986159,106.49465120001696,105.49435559986159,106.49465120001696,105.49435559986159,106.49465120001696,105.49435559986159,106.49465120001696,None,1,,105.49435559986159,None,105.49435559986159,None,105.49435559986159,105.9939621000085,105.49435559986159,105.9939621000085,105.49435559986159,105.9939621000085,105.49435559986159,105.9939621000085,105.49435559986159,None,,,,,,,,,,,,,,,,,,,,,,,,,,,,,,,,,,,,,,,,,,11038,001,2024_Mar_11_1635,nback,2021.2.3,59.83706367487503,
1-back,instructions\back-1.png,conditions\1back-p.xlsx,instructions\1-BACK.png,"(25, 15)",practice,1,2,stim\gray.png,stim\yellow.png,stim\gray.png,stim\gray.png,up,0,0,0,0,0,1,1,1,0,1,1,1,,,,,,,,,,,,,,,,,,,,,,,,,,,106.9792424000334,107.98109770007432,106.9792424000334,107.98109770007432,106.9792424000334,107.98109770007432,106.9792424000334,107.98109770007432,up,1,0.386845099972561,106.9792424000334,None,106.9792424000334,None,106.9792424000334,107.48074929998256,106.9792424000334,107.48074929998256,106.9792424000334,107.48074929998256,106.9792424000334,107.48074929998256,106.9792424000334,None,,,,,,,,,,,,,,,,,,,,,,,,,,,,,,,,,,,,,,,,,,11038,001,2024_Mar_11_1635,nback,2021.2.3,59.83706367487503,
1-back,instructions\back-1.png,conditions\1back-p.xlsx,instructions\1-BACK.png,"(25, 15)",practice,1,3,stim\gray.png,stim\gray.png,stim\yellow.png,stim\gray.png,left,0,0,0,0,0,1,1,1,0,2,2,2,,,,,,,,,,,,,,,,,,,,,,,,,,,108.48195530008525,109.48237739992328,108.48195530008525,109.48237739992328,108.48195530008525,109.48237739992328,108.48195530008525,109.48237739992328,left,1,0.251864799996838,108.48195530008525,None,108.48195530008525,None,108.48195530008525,108.9821532999631,108.48195530008525,108.9821532999631,108.48195530008525,108.9821532999631,108.48195530008525,108.9821532999631,108.48195530008525,None,,,,,,,,,,,,,,,,,,,,,,,,,,,,,,,,,,,,,,,,,,11038,001,2024_Mar_11_1635,nback,2021.2.3,59.83706367487503,
1-back,instructions\back-1.png,conditions\1back-p.xlsx,instructions\1-BACK.png,"(25, 15)",practice,1,4,stim\gray.png,stim\gray.png,stim\gray.png,stim\yellow.png,right,0,0,0,0,0,1,1,1,0,3,3,3,,,,,,,,,,,,,,,,,,,,,,,,,,,109.9829647000879,110.9854178999085,109.9829647000879,110.9854178999085,109.9829647000879,110.9854178999085,109.9829647000879,110.9854178999085,down,0,1.3354903999716043,109.9829647000879,None,109.9829647000879,None,109.9829647000879,110.48405979992822,109.9829647000879,110.48405979992822,109.9829647000879,110.48405979992822,109.9829647000879,110.48405979992822,109.9829647000879,None,,,,,,,,,,,,,,,,,,,,,,,,,,,,,,,,,,,,,,,,,,11038,001,2024_Mar_11_1635,nback,2021.2.3,59.83706367487503,
1-back,instructions\back-1.png,conditions\1back-p.xlsx,instructions\1-BACK.png,"(25, 15)",practice,1,2,stim\gray.png,stim\yellow.png,stim\gray.png,stim\gray.png,down,0,0,0,0,0,1,1,1,0,4,4,4,,,,,,,,,,,,,,,,,,,,,,,,,,,111.48547449987382,112.48793369997293,111.48547449987382,112.48793369997293,111.48547449987382,112.48793369997293,111.48547449987382,112.48793369997293,left,0,1.1928018999751657,111.48547449987382,None,111.48547449987382,None,111.48547449987382,111.9868580000475,111.48547449987382,111.9868580000475,111.48547449987382,111.9868580000475,111.48547449987382,111.9868580000475,111.48547449987382,None,,,,,,,,,,,,,,,,,,,,,,,,,,,,,,,,,,,,,,,,,,11038,001,2024_Mar_11_1635,nback,2021.2.3,59.83706367487503,
1-back,instructions\back-1.png,conditions\1back-p.xlsx,instructions\1-BACK.png,"(25, 15)",practice,1,1,stim\yellow.png,stim\gray.png,stim\gray.png,stim\gray.png,left,0,0,0,0,0,1,1,1,0,5,5,5,,,,,,,,,,,,,,,,,,,,,,,,,,,112.98764729988761,113.99004879989661,112.98764729988761,113.99004879989661,112.98764729988761,113.99004879989661,112.98764729988761,113.99004879989661,up,0,1.2590155999641865,112.98764729988761,None,112.98764729988761,None,112.98764729988761,113.4885511000175,112.98764729988761,113.4885511000175,112.98764729988761,113.4885511000175,112.98764729988761,113.4885511000175,112.98764729988761,None,,,,,,,,,,,,,,,,,,,,,,,,,,,,,,,,,,,,,,,,,,11038,001,2024_Mar_11_1635,nback,2021.2.3,59.83706367487503,
1-back,instructions\back-1.png,conditions\1back-p.xlsx,instructions\1-BACK.png,"(25, 15)",practice,1,4,stim\gray.png,stim\gray.png,stim\gray.png,stim\yellow.png,up,0,0,0,0,0,1,1,1,0,6,6,6,,,,,,,,,,,,,,,,,,,,,,,,,,,114.48969289986417,115.49150100001134,114.48969289986417,115.49150100001134,114.48969289986417,115.49150100001134,114.48969289986417,115.49150100001134,down,0,1.116896399995312,114.48969289986417,None,114.48969289986417,None,114.48969289986417,114.99193269992247,114.48969289986417,114.99193269992247,114.48969289986417,114.99193269992247,114.48969289986417,114.99193269992247,114.48969289986417,None,,,,,,,,,,,,,,,,,,,,,,,,,,,,,,,,,,,,,,,,,,11038,001,2024_Mar_11_1635,nback,2021.2.3,59.83706367487503,
1-back,instructions\back-1.png,conditions\1back-p.xlsx,instructions\1-BACK.png,"(25, 15)",practice,1,3,stim\gray.png,stim\gray.png,stim\yellow.png,stim\gray.png,down,0,0,0,0,0,1,1,1,0,7,7,7,,,,,,,,,,,,,,,,,,,,,,,,,,,115.97556370007806,116.97704489994794,115.97556370007806,116.97704489994794,115.97556370007806,116.97704489994794,115.97556370007806,116.97704489994794,right,0,1.0386218999046832,115.97556370007806,None,115.97556370007806,None,115.97556370007806,116.47728660004213,115.97556370007806,116.47728660004213,115.97556370007806,116.47728660004213,115.97556370007806,116.47728660004213,115.97556370007806,None,,,,,,,,,,,,,,,,,,,,,,,,,,,,,,,,,,,,,,,,,,11038,001,2024_Mar_11_1635,nback,2021.2.3,59.83706367487503,
1-back,instructions\back-1.png,conditions\1back-p.xlsx,instructions\1-BACK.png,"(25, 15)",practice,1,3,stim\gray.png,stim\gray.png,stim\yellow.png,stim\gray.png,right,0,0,0,0,0,1,1,1,0,8,8,8,,,,,,,,,,,,,,,,,,,,,,,,,,,117.47827779990621,118.47947519994341,117.47827779990621,118.47947519994341,117.47827779990621,118.47947519994341,117.47827779990621,118.47947519994341,right,1,1.2559708999469876,117.47827779990621,None,117.47827779990621,None,117.47827779990621,117.97870079986751,117.47827779990621,117.97870079986751,117.47827779990621,117.97870079986751,117.47827779990621,117.97870079986751,117.47827779990621,None,,,,,,,,,,,,,,,,,,,,,,,,,,,,,,,,,,,,,,,,,,11038,001,2024_Mar_11_1635,nback,2021.2.3,59.83706367487503,
1-back,instructions\back-1.png,conditions\1back-p.xlsx,instructions\1-BACK.png,"(25, 15)",practice,1,4,stim\gray.png,stim\gray.png,stim\gray.png,stim\yellow.png,right,0,0,0,0,0,1,1,1,0,9,9,9,,,,,,,,,,,,,,,,,,,,,,,,,,,118.9800001999829,119.98264309996739,118.9800001999829,119.98264309996739,118.9800001999829,119.98264309996739,118.9800001999829,119.98264309996739,down,0,1.4262476998846978,118.9800001999829,None,118.9800001999829,None,118.9800001999829,119.48143490008079,118.9800001999829,119.48143490008079,118.9800001999829,119.48143490008079,118.9800001999829,119.48143490008079,118.9800001999829,None,,,,,,,,,,,,,,,,,,,,,,,,,,,,,,,,,,,,,,,,,,11038,001,2024_Mar_11_1635,nback,2021.2.3,59.83706367487503,
1-back,instructions\back-1.png,conditions\1back-p.xlsx,instructions\1-BACK.png,"(25, 15)",practice,1,1,stim\yellow.png,stim\gray.png,stim\gray.png,stim\gray.png,down,0,0,0,0,0,1,1,1,0,10,10,10,,,,,,,,,,,,,,,,,,,,,,,,,,,120.48231579991989,121.48396910005249,120.48231579991989,121.48396910005249,120.48231579991989,121.48396910005249,120.48231579991989,121.48396910005249,None,0,,120.48231579991989,None,120.48231579991989,None,120.48231579991989,120.98412939999253,120.48231579991989,120.98412939999253,120.48231579991989,120.98412939999253,120.48231579991989,120.98412939999253,120.48231579991989,None,,,,,,,,,,,,,,,,,,,,,,,,,,,,,,,,,,,,,,,,,,11038,001,2024_Mar_11_1635,nback,2021.2.3,59.83706367487503,
1-back,instructions\back-1.png,conditions\1back-p.xlsx,instructions\1-BACK.png,"(25, 15)",practice,1,2,stim\gray.png,stim\yellow.png,stim\gray.png,stim\gray.png,up,0,0,0,0,0,1,1,1,0,11,11,11,,,,,,,,,,,,,,,,,,,,,,,,,,,121.98465029988438,122.98726579989307,121.98465029988438,122.98726579989307,121.98465029988438,122.98726579989307,121.98465029988438,122.98726579989307,left,0,1.4381111999973655,121.98465029988438,None,121.98465029988438,None,121.98465029988438,122.48645379999653,121.98465029988438,122.48645379999653,121.98465029988438,122.48645379999653,121.98465029988438,122.48645379999653,121.98465029988438,None,,,,,,,,,,,,,,,,,,,,,,,,,,,,,,,,,,,,,,,,,,11038,001,2024_Mar_11_1635,nback,2021.2.3,59.83706367487503,
1-back,instructions\back-1.png,conditions\1back-p.xlsx,instructions\1-BACK.png,"(25, 15)",practice,1,4,stim\gray.png,stim\gray.png,stim\gray.png,stim\yellow.png,left,0,0,0,0,0,1,1,1,0,12,12,12,,,,,,,,,,,,,,,,,,,,,,,,,,,123.48808600008488,124.48841009987518,123.48808600008488,124.48841009987518,123.48808600008488,124.48841009987518,123.48808600008488,124.48841009987518,down,0,1.454490999924019,123.48808600008488,None,123.48808600008488,None,123.48808600008488,123.98895869986154,123.48808600008488,123.98895869986154,123.48808600008488,123.98895869986154,123.48808600008488,123.98895869986154,123.48808600008488,None,,,,,,,,,,,,,,,,,,,,,,,,,,,,,,,,,,,,,,,,,,11038,001,2024_Mar_11_1635,nback,2021.2.3,59.83706367487503,
1-back,instructions\back-1.png,conditions\1back-p.xlsx,instructions\1-BACK.png,"(25, 15)",practice,1,3,stim\gray.png,stim\gray.png,stim\yellow.png,stim\gray.png,down,0,0,0,0,0,1,1,1,0,13,13,13,,,,,,,,,,,,,,,,,,,,,,,,,,,124.98923980002292,125.9907098999247,124.98923980002292,125.9907098999247,124.98923980002292,125.9907098999247,124.98923980002292,125.9907098999247,None,0,,124.98923980002292,None,124.98923980002292,None,124.98923980002292,125.489970699884,124.98923980002292,125.489970699884,124.98923980002292,125.489970699884,124.98923980002292,125.489970699884,124.98923980002292,None,,,,,,,,,,,,,,,,,,,,,,,,,,,,,,,,,,,,,,,,,,11038,001,2024_Mar_11_1635,nback,2021.2.3,59.83706367487503,
1-back,instructions\back-1.png,conditions\1back-p.xlsx,instructions\1-BACK.png,"(25, 15)",practice,1,1,stim\yellow.png,stim\gray.png,stim\gray.png,stim\gray.png,right,0,0,0,0,0,1,1,1,0,14,14,14,,,,,,,,,,,,,,,,,,,,,,,,,,,126.47574850008823,127.47713109990582,126.47574850008823,127.47713109990582,126.47574850008823,127.47713109990582,126.47574850008823,127.47713109990582,right,1,0.1555415999609977,126.47574850008823,None,126.47574850008823,None,126.47574850008823,126.9756231000647,126.47574850008823,126.9756231000647,126.47574850008823,126.9756231000647,126.47574850008823,126.9756231000647,126.47574850008823,None,,,,,,,,,,,,,,,,,,,,,,,,,,,,,,,,,,,,,,,,,,11038,001,2024_Mar_11_1635,nback,2021.2.3,59.83706367487503,
1-back,instructions\back-1.png,conditions\1back-p.xlsx,instructions\1-BACK.png,"(25, 15)",practice,1,2,stim\gray.png,stim\yellow.png,stim\gray.png,stim\gray.png,up,0,0,0,0,0,1,1,1,0,15,15,15,,,,,,,,,,,,,,,,,,,,,,,,,,,127.97698569996282,128.97864219988696,127.97698569996282,128.97864219988696,127.97698569996282,128.97864219988696,127.97698569996282,128.97864219988696,up,1,0.11068639997392893,127.97698569996282,None,127.97698569996282,None,127.97698569996282,128.47793280007318,127.97698569996282,128.47793280007318,127.97698569996282,128.47793280007318,127.97698569996282,128.47793280007318,127.97698569996282,None,,,,,,,,,,,,,,,,,,,,,,,,,,,,,,,,,,,,,,,,,,11038,001,2024_Mar_11_1635,nback,2021.2.3,59.83706367487503,
1-back,instructions\back-1.png,conditions\1back-p.xlsx,instructions\1-BACK.png,"(25, 15)",practice,1,3,stim\gray.png,stim\gray.png,stim\yellow.png,stim\gray.png,left,0,0,0,0,0,1,1,1,0,16,16,16,,,,,,,,,,,,,,,,,,,,,,,,,,,129.47943710000254,130.48122070007958,129.47943710000254,130.48122070007958,129.47943710000254,130.48122070007958,129.47943710000254,130.48122070007958,left,1,0.14372680010274053,129.47943710000254,None,129.47943710000254,None,129.47943710000254,129.98080320004374,129.47943710000254,129.98080320004374,129.47943710000254,129.98080320004374,129.47943710000254,129.98080320004374,129.47943710000254,None,,,,,,,,,,,,,,,,,,,,,,,,,,,,,,,,,,,,,,,,,,11038,001,2024_Mar_11_1635,nback,2021.2.3,59.83706367487503,
1-back,instructions\back-1.png,conditions\1back-p.xlsx,instructions\1-BACK.png,"(25, 15)",practice,1,1,stim\yellow.png,stim\gray.png,stim\gray.png,stim\gray.png,right,0,0,0,0,0,1,1,1,0,17,17,17,,,,,,,,,,,,,,,,,,,,,,,,,,,130.9815289999824,131.9837599999737,130.9815289999824,131.9837599999737,130.9815289999824,131.9837599999737,130.9815289999824,131.9837599999737,right,1,0.08152220002375543,130.9815289999824,None,130.9815289999824,None,130.9815289999824,131.48248740006238,130.9815289999824,131.48248740006238,130.9815289999824,131.48248740006238,130.9815289999824,131.48248740006238,130.9815289999824,None,,,,,,,,,,,,,,,,,,,,,,,,,,,,,,,,,,,,,,,,,,11038,001,2024_Mar_11_1635,nback,2021.2.3,59.83706367487503,
1-back,instructions\back-1.png,conditions\1back-p.xlsx,instructions\1-BACK.png,"(25, 15)",practice,1,4,stim\gray.png,stim\gray.png,stim\gray.png,stim\yellow.png,up,0,0,0,0,0,1,1,1,0,18,18,18,,,,,,,,,,,,,,,,,,,,,,,,,,,132.48375339992344,133.48513960000128,132.48375339992344,133.48513960000128,132.48375339992344,133.48513960000128,132.48375339992344,133.48513960000128,up,1,0.09865300008095801,132.48375339992344,None,132.48375339992344,None,132.48375339992344,132.98486540000886,132.48375339992344,132.98486540000886,132.48375339992344,132.98486540000886,132.48375339992344,132.98486540000886,132.48375339992344,None,,,,,,,,,,,,,,,,,,,,,,,,,,,,,,,,,,,,,,,,,,11038,001,2024_Mar_11_1635,nback,2021.2.3,59.83706367487503,
1-back,instructions\back-1.png,conditions\1back-p.xlsx,instructions\1-BACK.png,"(25, 15)",practice,1,2,stim\gray.png,stim\yellow.png,stim\gray.png,stim\gray.png,down,0,0,0,0,0,1,1,1,0,19,19,19,,,,,,,,,,,,,,,,,,,,,,,,,,,133.98766430001706,134.98786540003493,133.98766430001706,134.98786540003493,133.98766430001706,134.98786540003493,133.98766430001706,134.98786540003493,down,1,0.09107730002142489,133.98766430001706,None,133.98766430001706,None,133.98766430001706,134.4876721999608,133.98766430001706,134.4876721999608,133.98766430001706,134.4876721999608,133.98766430001706,134.4876721999608,133.98766430001706,None,,,,,,,,,,,,,,,,,,,,,,,,,,,,,,,,,,,,,,,,,,11038,001,2024_Mar_11_1635,nback,2021.2.3,59.83706367487503,
1-back,instructions\back-1.png,conditions\1back-p.xlsx,instructions\1-BACK.png,"(25, 15)",,,,,,,,,0,0,0,0,0,1,1,1,,,,,,,,,,,,,,,,,,,,,,,,,,,,,,,,,,,,,,,,,,,,,,,,,,,,,,,,,,,,,,,,,,,,,,,,,,,,,,,,,,,,,,,,,,,,,,,,,11038,001,2024_Mar_11_1635,nback,2021.2.3,59.83706367487503,
2-back,instructions\back-2.png,conditions\2back-p.xlsx,instructions\2-BACK.png,"(25, 15)",practice,2,1,stim\yellow.png,stim\gray.png,stim\gray.png,stim\gray.png,None,0,0,0,0,0,2,2,2,0,0,0,0,,,,,,,,,,,,,,,,,135.68794289999641,None,space,2.487526500131935,135.68794289999641,None,138.35929409996606,142.8668823998887,142.80015209992416,None,143.21787200006656,144.21869600005448,143.21787200006656,144.21869600005448,143.21787200006656,144.21869600005448,143.21787200006656,144.21869600005448,None,1,,143.21787200006656,None,143.21787200006656,None,143.21787200006656,143.7181067999918,143.21787200006656,143.7181067999918,143.21787200006656,143.7181067999918,143.21787200006656,143.7181067999918,143.21787200006656,None,,,,,,,,,,,,,,,,,,,,,,,,,,,,,,,,,,,,,,,,,,11038,001,2024_Mar_11_1635,nback,2021.2.3,59.83706367487503,
2-back,instructions\back-2.png,conditions\2back-p.xlsx,instructions\2-BACK.png,"(25, 15)",practice,2,2,stim\gray.png,stim\yellow.png,stim\gray.png,stim\gray.png,None,0,0,0,0,0,2,2,2,0,1,1,1,,,,,,,,,,,,,,,,,,,,,,,,,,,144.70215729996562,145.70466100005433,144.70215729996562,145.70466100005433,144.70215729996562,145.70466100005433,144.70215729996562,145.70466100005433,None,1,,144.70215729996562,None,144.70215729996562,None,144.70215729996562,145.2041382000316,144.70215729996562,145.2041382000316,144.70215729996562,145.2041382000316,144.70215729996562,145.2041382000316,144.70215729996562,None,,,,,,,,,,,,,,,,,,,,,,,,,,,,,,,,,,,,,,,,,,11038,001,2024_Mar_11_1635,nback,2021.2.3,59.83706367487503,
2-back,instructions\back-2.png,conditions\2back-p.xlsx,instructions\2-BACK.png,"(25, 15)",practice,2,3,stim\gray.png,stim\gray.png,stim\yellow.png,stim\gray.png,up,0,0,0,0,0,2,2,2,0,2,2,2,,,,,,,,,,,,,,,,,,,,,,,,,,,146.2045247000642,147.20612109987997,146.2045247000642,147.20612109987997,146.2045247000642,147.20612109987997,146.2045247000642,147.20612109987997,up,1,0.19457880011759698,146.2045247000642,None,146.2045247000642,None,146.2045247000642,146.70665359986015,146.2045247000642,146.70665359986015,146.2045247000642,146.70665359986015,146.2045247000642,146.70665359986015,146.2045247000642,None,,,,,,,,,,,,,,,,,,,,,,,,,,,,,,,,,,,,,,,,,,11038,001,2024_Mar_11_1635,nback,2021.2.3,59.83706367487503,
2-back,instructions\back-2.png,conditions\2back-p.xlsx,instructions\2-BACK.png,"(25, 15)",practice,2,4,stim\gray.png,stim\gray.png,stim\gray.png,stim\yellow.png,left,0,0,0,0,0,2,2,2,0,3,3,3,,,,,,,,,,,,,,,,,,,,,,,,,,,147.70770690008067,148.71051050000824,147.70770690008067,148.71051050000824,147.70770690008067,148.71051050000824,147.70770690008067,148.71051050000824,left,1,0.1714188999030739,147.70770690008067,None,147.70770690008067,None,147.70770690008067,148.20840679993853,147.70770690008067,148.20840679993853,147.70770690008067,148.20840679993853,147.70770690008067,148.20840679993853,147.70770690008067,None,,,,,,,,,,,,,,,,,,,,,,,,,,,,,,,,,,,,,,,,,,11038,001,2024_Mar_11_1635,nback,2021.2.3,59.83706367487503,
2-back,instructions\back-2.png,conditions\2back-p.xlsx,instructions\2-BACK.png,"(25, 15)",practice,2,2,stim\gray.png,stim\yellow.png,stim\gray.png,stim\gray.png,right,0,0,0,0,0,2,2,2,0,4,4,4,,,,,,,,,,,,,,,,,,,,,,,,,,,149.20917290006764,150.21053120004945,149.20917290006764,150.21053120004945,149.20917290006764,150.21053120004945,149.20917290006764,150.21053120004945,down,0,1.4703937999438494,149.20917290006764,None,149.20917290006764,None,149.20917290006764,149.70975219993852,149.20917290006764,149.70975219993852,149.20917290006764,149.70975219993852,149.20917290006764,149.70975219993852,149.20917290006764,None,,,,,,,,,,,,,,,,,,,,,,,,,,,,,,,,,,,,,,,,,,11038,001,2024_Mar_11_1635,nback,2021.2.3,59.83706367487503,
2-back,instructions\back-2.png,conditions\2back-p.xlsx,instructions\2-BACK.png,"(25, 15)",practice,2,1,stim\yellow.png,stim\gray.png,stim\gray.png,stim\gray.png,down,0,0,0,0,0,2,2,2,0,5,5,5,,,,,,,,,,,,,,,,,,,,,,,,,,,150.71119499998167,151.71290170005523,150.71119499998167,151.71290170005523,150.71119499998167,151.71290170005523,150.71119499998167,151.71290170005523,left,0,1.4564213999547064,150.71119499998167,None,150.71119499998167,None,150.71119499998167,151.2121653999202,150.71119499998167,151.2121653999202,150.71119499998167,151.2121653999202,150.71119499998167,151.2121653999202,150.71119499998167,None,,,,,,,,,,,,,,,,,,,,,,,,,,,,,,,,,,,,,,,,,,11038,001,2024_Mar_11_1635,nback,2021.2.3,59.83706367487503,
2-back,instructions\back-2.png,conditions\2back-p.xlsx,instructions\2-BACK.png,"(25, 15)",practice,2,4,stim\gray.png,stim\gray.png,stim\gray.png,stim\yellow.png,left,0,0,0,0,0,2,2,2,0,6,6,6,,,,,,,,,,,,,,,,,,,,,,,,,,,152.2145396999549,153.21592230000533,152.2145396999549,153.21592230000533,152.2145396999549,153.21592230000533,152.2145396999549,153.21592230000533,up,0,1.4084810002241284,152.2145396999549,None,152.2145396999549,None,152.2145396999549,152.71514240000397,152.2145396999549,152.71514240000397,152.2145396999549,152.71514240000397,152.2145396999549,152.71514240000397,152.2145396999549,None,,,,,,,,,,,,,,,,,,,,,,,,,,,,,,,,,,,,,,,,,,11038,001,2024_Mar_11_1635,nback,2021.2.3,59.83706367487503,
2-back,instructions\back-2.png,conditions\2back-p.xlsx,instructions\2-BACK.png,"(25, 15)",practice,2,3,stim\gray.png,stim\gray.png,stim\yellow.png,stim\gray.png,up,0,0,0,0,0,2,2,2,0,7,7,7,,,,,,,,,,,,,,,,,,,,,,,,,,,153.7001986000687,154.70172120002098,153.7001986000687,154.70172120002098,153.7001986000687,154.70172120002098,153.7001986000687,154.70172120002098,None,0,,153.7001986000687,None,153.7001986000687,None,153.7001986000687,154.20096889999695,153.7001986000687,154.20096889999695,153.7001986000687,154.20096889999695,153.7001986000687,154.20096889999695,153.7001986000687,None,,,,,,,,,,,,,,,,,,,,,,,,,,,,,,,,,,,,,,,,,,11038,001,2024_Mar_11_1635,nback,2021.2.3,59.83706367487503,
2-back,instructions\back-2.png,conditions\2back-p.xlsx,instructions\2-BACK.png,"(25, 15)",practice,2,3,stim\gray.png,stim\gray.png,stim\yellow.png,stim\gray.png,down,0,0,0,0,0,2,2,2,0,8,8,8,,,,,,,,,,,,,,,,,,,,,,,,,,,155.20153039996512,156.2036131999921,155.20153039996512,156.2036131999921,155.20153039996512,156.2036131999921,155.20153039996512,156.2036131999921,down,1,0.2779095999430865,155.20153039996512,None,155.20153039996512,None,155.20153039996512,155.70214709988795,155.20153039996512,155.70214709988795,155.20153039996512,155.70214709988795,155.20153039996512,155.70214709988795,155.20153039996512,None,,,,,,,,,,,,,,,,,,,,,,,,,,,,,,,,,,,,,,,,,,11038,001,2024_Mar_11_1635,nback,2021.2.3,59.83706367487503,
2-back,instructions\back-2.png,conditions\2back-p.xlsx,instructions\2-BACK.png,"(25, 15)",practice,2,4,stim\gray.png,stim\gray.png,stim\gray.png,stim\yellow.png,right,0,0,0,0,0,2,2,2,0,9,9,9,,,,,,,,,,,,,,,,,,,,,,,,,,,156.7035906999372,157.70627050008625,156.7035906999372,157.70627050008625,156.7035906999372,157.70627050008625,156.7035906999372,157.70627050008625,right,1,0.3515832000412047,156.7035906999372,None,156.7035906999372,None,156.7035906999372,157.20609720004722,156.7035906999372,157.20609720004722,156.7035906999372,157.20609720004722,156.7035906999372,157.20609720004722,156.7035906999372,None,,,,,,,,,,,,,,,,,,,,,,,,,,,,,,,,,,,,,,,,,,11038,001,2024_Mar_11_1635,nback,2021.2.3,59.83706367487503,
2-back,instructions\back-2.png,conditions\2back-p.xlsx,instructions\2-BACK.png,"(25, 15)",practice,2,1,stim\yellow.png,stim\gray.png,stim\gray.png,stim\gray.png,right,0,0,0,0,0,2,2,2,0,10,10,10,,,,,,,,,,,,,,,,,,,,,,,,,,,158.2075711998623,159.2075944999233,158.2075711998623,159.2075944999233,158.2075711998623,159.2075944999233,158.2075711998623,159.2075944999233,down,0,0.3119402998127043,158.2075711998623,None,158.2075711998623,None,158.2075711998623,158.70681159989908,158.2075711998623,158.70681159989908,158.2075711998623,158.70681159989908,158.2075711998623,158.70681159989908,158.2075711998623,None,,,,,,,,,,,,,,,,,,,,,,,,,,,,,,,,,,,,,,,,,,11038,001,2024_Mar_11_1635,nback,2021.2.3,59.83706367487503,
2-back,instructions\back-2.png,conditions\2back-p.xlsx,instructions\2-BACK.png,"(25, 15)",practice,2,2,stim\gray.png,stim\yellow.png,stim\gray.png,stim\gray.png,down,0,0,0,0,0,2,2,2,0,11,11,11,,,,,,,,,,,,,,,,,,,,,,,,,,,159.70829669991508,160.71049600001425,159.70829669991508,160.71049600001425,159.70829669991508,160.71049600001425,159.70829669991508,160.71049600001425,left,0,0.5475405000615865,159.70829669991508,None,159.70829669991508,None,159.70829669991508,160.20905920001678,159.70829669991508,160.20905920001678,159.70829669991508,160.20905920001678,159.70829669991508,160.20905920001678,159.70829669991508,None,,,,,,,,,,,,,,,,,,,,,,,,,,,,,,,,,,,,,,,,,,11038,001,2024_Mar_11_1635,nback,2021.2.3,59.83706367487503,
2-back,instructions\back-2.png,conditions\2back-p.xlsx,instructions\2-BACK.png,"(25, 15)",practice,2,4,stim\gray.png,stim\gray.png,stim\gray.png,stim\yellow.png,up,0,0,0,0,0,2,2,2,0,12,12,12,,,,,,,,,,,,,,,,,,,,,,,,,,,161.21066179987974,162.21274399990216,161.21066179987974,162.21274399990216,161.21066179987974,162.21274399990216,161.21066179987974,162.21274399990216,None,0,,161.21066179987974,None,161.21066179987974,None,161.21066179987974,161.71240759990178,161.21066179987974,161.71240759990178,161.21066179987974,161.71240759990178,161.21066179987974,161.71240759990178,161.21066179987974,None,,,,,,,,,,,,,,,,,,,,,,,,,,,,,,,,,,,,,,,,,,11038,001,2024_Mar_11_1635,nback,2021.2.3,59.83706367487503,
2-back,instructions\back-2.png,conditions\2back-p.xlsx,instructions\2-BACK.png,"(25, 15)",practice,2,3,stim\gray.png,stim\gray.png,stim\yellow.png,stim\gray.png,left,0,0,0,0,0,2,2,2,0,13,13,13,,,,,,,,,,,,,,,,,,,,,,,,,,,162.71274119988084,163.71497659990564,162.71274119988084,163.71497659990564,162.71274119988084,163.71497659990564,162.71274119988084,163.71497659990564,left,1,0.21515740011818707,162.71274119988084,None,162.71274119988084,None,162.71274119988084,163.21455250005238,162.71274119988084,163.21455250005238,162.71274119988084,163.21455250005238,162.71274119988084,163.21455250005238,162.71274119988084,None,,,,,,,,,,,,,,,,,,,,,,,,,,,,,,,,,,,,,,,,,,11038,001,2024_Mar_11_1635,nback,2021.2.3,59.83706367487503,
2-back,instructions\back-2.png,conditions\2back-p.xlsx,instructions\2-BACK.png,"(25, 15)",practice,2,1,stim\yellow.png,stim\gray.png,stim\gray.png,stim\gray.png,down,0,0,0,0,0,2,2,2,0,14,14,14,,,,,,,,,,,,,,,,,,,,,,,,,,,164.1983008000534,165.20054410002194,164.1983008000534,165.20054410002194,164.1983008000534,165.20054410002194,164.1983008000534,165.20054410002194,down,1,0.20926690008491278,164.1983008000534,None,164.1983008000534,None,164.1983008000534,164.7002568000462,164.1983008000534,164.7002568000462,164.1983008000534,164.7002568000462,164.1983008000534,164.7002568000462,164.1983008000534,None,,,,,,,,,,,,,,,,,,,,,,,,,,,,,,,,,,,,,,,,,,11038,001,2024_Mar_11_1635,nback,2021.2.3,59.83706367487503,
2-back,instructions\back-2.png,conditions\2back-p.xlsx,instructions\2-BACK.png,"(25, 15)",practice,2,2,stim\gray.png,stim\yellow.png,stim\gray.png,stim\gray.png,right,0,0,0,0,0,2,2,2,0,15,15,15,,,,,,,,,,,,,,,,,,,,,,,,,,,165.70078040007502,166.70231779990718,165.70078040007502,166.70231779990718,165.70078040007502,166.70231779990718,165.70078040007502,166.70231779990718,right,1,0.2508366999682039,165.70078040007502,None,165.70078040007502,None,165.70078040007502,166.20166249992326,165.70078040007502,166.20166249992326,165.70078040007502,166.20166249992326,165.70078040007502,166.20166249992326,165.70078040007502,None,,,,,,,,,,,,,,,,,,,,,,,,,,,,,,,,,,,,,,,,,,11038,001,2024_Mar_11_1635,nback,2021.2.3,59.83706367487503,
2-back,instructions\back-2.png,conditions\2back-p.xlsx,instructions\2-BACK.png,"(25, 15)",practice,2,3,stim\gray.png,stim\gray.png,stim\yellow.png,stim\gray.png,up,0,0,0,0,0,2,2,2,0,16,16,16,,,,,,,,,,,,,,,,,,,,,,,,,,,167.20293210004456,168.20511059998535,167.20293210004456,168.20511059998535,167.20293210004456,168.20511059998535,167.20293210004456,168.20511059998535,up,1,0.18095879978500307,167.20293210004456,None,167.20293210004456,None,167.20293210004456,167.70371609996073,167.20293210004456,167.70371609996073,167.20293210004456,167.70371609996073,167.20293210004456,167.70371609996073,167.20293210004456,None,,,,,,,,,,,,,,,,,,,,,,,,,,,,,,,,,,,,,,,,,,11038,001,2024_Mar_11_1635,nback,2021.2.3,59.83706367487503,
2-back,instructions\back-2.png,conditions\2back-p.xlsx,instructions\2-BACK.png,"(25, 15)",practice,2,1,stim\yellow.png,stim\gray.png,stim\gray.png,stim\gray.png,left,0,0,0,0,0,2,2,2,0,17,17,17,,,,,,,,,,,,,,,,,,,,,,,,,,,168.70530689996667,169.70748979994096,168.70530689996667,169.70748979994096,168.70530689996667,169.70748979994096,168.70530689996667,169.70748979994096,left,1,0.2864520000293851,168.70530689996667,None,168.70530689996667,None,168.70530689996667,169.20624179998413,168.70530689996667,169.20624179998413,168.70530689996667,169.20624179998413,168.70530689996667,169.20624179998413,168.70530689996667,None,,,,,,,,,,,,,,,,,,,,,,,,,,,,,,,,,,,,,,,,,,11038,001,2024_Mar_11_1635,nback,2021.2.3,59.83706367487503,
2-back,instructions\back-2.png,conditions\2back-p.xlsx,instructions\2-BACK.png,"(25, 15)",practice,2,4,stim\gray.png,stim\gray.png,stim\gray.png,stim\yellow.png,right,0,0,0,0,0,2,2,2,0,18,18,18,,,,,,,,,,,,,,,,,,,,,,,,,,,170.20736310002394,171.2093853999395,170.20736310002394,171.2093853999395,170.20736310002394,171.2093853999395,170.20736310002394,171.2093853999395,None,0,,170.20736310002394,None,170.20736310002394,None,170.20736310002394,170.7081230999902,170.20736310002394,170.7081230999902,170.20736310002394,170.7081230999902,170.20736310002394,170.7081230999902,170.20736310002394,None,,,,,,,,,,,,,,,,,,,,,,,,,,,,,,,,,,,,,,,,,,11038,001,2024_Mar_11_1635,nback,2021.2.3,59.83706367487503,
2-back,instructions\back-2.png,conditions\2back-p.xlsx,instructions\2-BACK.png,"(25, 15)",practice,2,2,stim\gray.png,stim\yellow.png,stim\gray.png,stim\gray.png,up,0,0,0,0,0,2,2,2,0,19,19,19,,,,,,,,,,,,,,,,,,,,,,,,,,,171.7105485999491,172.7120670999866,171.7105485999491,172.7120670999866,171.7105485999491,172.7120670999866,171.7105485999491,172.7120670999866,down,0,0.32127840002067387,171.7105485999491,None,171.7105485999491,None,171.7105485999491,172.21127790003084,171.7105485999491,172.21127790003084,171.7105485999491,172.21127790003084,171.7105485999491,172.21127790003084,171.7105485999491,None,,,,,,,,,,,,,,,,,,,,,,,,,,,,,,,,,,,,,,,,,,11038,001,2024_Mar_11_1635,nback,2021.2.3,59.83706367487503,
2-back,instructions\back-2.png,conditions\2back-p.xlsx,instructions\2-BACK.png,"(25, 15)",,,,,,,,,0,0,0,0,0,2,2,2,,,,,,,,,,,,,,,,,,,,,,,,,,,,,,,,,,,,,,,,,,,,,,,,,,,,,,,,,,,,,,,,,,,,,,,,,,,,,,,,,,,,,,,,,,,,,,,,,11038,001,2024_Mar_11_1635,nback,2021.2.3,59.83706367487503,
,,,,,,,,,,,,,0,0,0,0,,,,,,,,,,,,,,,,,,,,,,,,,,,,,,,,,,,,,,,,,,,,,,,,,,,,,,,,,,,,173.21197399985977,None,space,27.980745299952105,173.21197399985977,None,,,,,,,,,,,,,,,,,,,,,,,,,,,,,,,,,,,,11038,001,2024_Mar_11_1635,nback,2021.2.3,59.83706367487503,
,,,,,,,,,,,,,,,,,,,,,,,,,,,,,,,,,,,,,,,,,,,,,,,,,,,,,,,,,,,,,,,,,,,,,,,,,,,,,,,,,,201.22085809987038,None,space,6.611703000031412,201.22085809987038,None,,,,,,,,,,,,,,,,,,,,,,,,,,,,,,11038,001,2024_Mar_11_1635,nback,2021.2.3,59.83706367487503,
2-back,instructions\back-2.png,conditions\23back-e.xlsx,,,experiment,2,2,stim\gray.png,stim\yellow.png,stim\gray.png,stim\gray.png,None,,,,,,,,,,,,,0,0,0,9,0,0,0,0,,,,,,,,,,,,,,,208.04778890009038,212.55599829996936,212.53799399989657,None,,,,,,,,,,,,,,,,,,,,,,,,,,,,,,,,,,,,,,None,1,212.87192000006326,None,212.87192000006326,None,212.87192000006326,213.87387000001036,212.87192000006326,213.87387000001036,212.87192000006326,213.87387000001036,212.87192000006326,213.87387000001036,212.87192000006326,213.37267960002646,212.87192000006326,213.37267960002646,212.87192000006326,213.37267960002646,212.87192000006326,213.37267960002646,212.87192000006326,None,,,,,,11038,001,2024_Mar_11_1635,nback,2021.2.3,59.83706367487503,
2-back,instructions\back-2.png,conditions\23back-e.xlsx,,,experiment,2,4,stim\gray.png,stim\gray.png,stim\gray.png,stim\yellow.png,None,,,,,,,,,,,,,0,0,0,9,0,1,1,1,,,,,,,,,,,,,,,,,,,,,,,,,,,,,,,,,,,,,,,,,,,,,,,,,,,,,,,,None,1,214.35741079994477,None,214.35741079994477,None,214.35741079994477,215.35936819994822,214.35741079994477,215.35936819994822,214.35741079994477,215.35936819994822,214.35741079994477,215.35936819994822,214.35741079994477,214.85852220002562,214.35741079994477,214.85852220002562,214.35741079994477,214.85852220002562,214.35741079994477,214.85852220002562,214.35741079994477,None,,,,,,11038,001,2024_Mar_11_1635,nback,2021.2.3,59.83706367487503,
2-back,instructions\back-2.png,conditions\23back-e.xlsx,,,experiment,2,3,stim\gray.png,stim\gray.png,stim\yellow.png,stim\gray.png,left,,,,,,,,,,,,,0,0,0,9,0,2,2,2,,,,,,,,,,,,,,,,,,,,,,,,,,,,,,,,,,,,,,,,,,,,,,,,,,,,,,,,left,1,215.8595392999705,None,215.8595392999705,None,215.8595392999705,216.86178679997101,215.8595392999705,216.86178679997101,215.8595392999705,216.86178679997101,215.8595392999705,216.86178679997101,215.8595392999705,216.3612315999344,215.8595392999705,216.3612315999344,215.8595392999705,216.3612315999344,215.8595392999705,216.3612315999344,215.8595392999705,None,0.21353670000098646,,,,,11038,001,2024_Mar_11_1635,nback,2021.2.3,59.83706367487503,
2-back,instructions\back-2.png,conditions\23back-e.xlsx,,,experiment,2,2,stim\gray.png,stim\yellow.png,stim\gray.png,stim\gray.png,down,,,,,,,,,,,,,0,0,0,9,0,3,3,3,,,,,,,,,,,,,,,,,,,,,,,,,,,,,,,,,,,,,,,,,,,,,,,,,,,,,,,,down,1,217.36268560006283,None,217.36268560006283,None,217.36268560006283,218.36400429997593,217.36268560006283,218.36400429997593,217.36268560006283,218.36400429997593,217.36268560006283,218.36400429997593,217.36268560006283,217.86309719993733,217.36268560006283,217.86309719993733,217.36268560006283,217.86309719993733,217.36268560006283,217.86309719993733,217.36268560006283,None,0.19130410021170974,,,,,11038,001,2024_Mar_11_1635,nback,2021.2.3,59.83706367487503,
2-back,instructions\back-2.png,conditions\23back-e.xlsx,,,experiment,2,1,stim\yellow.png,stim\gray.png,stim\gray.png,stim\gray.png,right,,,,,,,,,,,,,0,0,0,9,0,4,4,4,,,,,,,,,,,,,,,,,,,,,,,,,,,,,,,,,,,,,,,,,,,,,,,,,,,,,,,,right,1,218.86409289995208,None,218.86409289995208,None,218.86409289995208,219.86670210002922,218.86409289995208,219.86670210002922,218.86409289995208,219.86670210002922,218.86409289995208,219.86670210002922,218.86409289995208,219.36606879997998,218.86409289995208,219.36606879997998,218.86409289995208,219.36606879997998,218.86409289995208,219.36606879997998,218.86409289995208,None,0.17711670021526515,,,,,11038,001,2024_Mar_11_1635,nback,2021.2.3,59.83706367487503,
2-back,instructions\back-2.png,conditions\23back-e.xlsx,,,experiment,2,2,stim\gray.png,stim\yellow.png,stim\gray.png,stim\gray.png,left,,,,,,,,,,,,,0,0,0,9,0,5,5,5,,,,,,,,,,,,,,,,,,,,,,,,,,,,,,,,,,,,,,,,,,,,,,,,,,,,,,,,left,1,220.36636579991318,None,220.36636579991318,None,220.36636579991318,221.36839329986833,220.36636579991318,221.36839329986833,220.36636579991318,221.36839329986833,220.36636579991318,221.36839329986833,220.36636579991318,220.86786270001903,220.36636579991318,220.86786270001903,220.36636579991318,220.86786270001903,220.36636579991318,220.86786270001903,220.36636579991318,None,0.10753610008396208,,,,,11038,001,2024_Mar_11_1635,nback,2021.2.3,59.83706367487503,
2-back,instructions\back-2.png,conditions\23back-e.xlsx,,,experiment,2,4,stim\gray.png,stim\gray.png,stim\gray.png,stim\yellow.png,up,,,,,,,,,,,,,0,0,0,9,0,6,6,6,,,,,,,,,,,,,,,,,,,,,,,,,,,,,,,,,,,,,,,,,,,,,,,,,,,,,,,,None,0,221.85202710004523,None,221.85202710004523,None,221.85202710004523,222.85439760005102,221.85202710004523,222.85439760005102,221.85202710004523,222.85439760005102,221.85202710004523,222.85439760005102,221.85202710004523,222.35344769991934,221.85202710004523,222.35344769991934,221.85202710004523,222.35344769991934,221.85202710004523,222.35344769991934,221.85202710004523,None,,,,,,11038,001,2024_Mar_11_1635,nback,2021.2.3,59.83706367487503,
2-back,instructions\back-2.png,conditions\23back-e.xlsx,,,experiment,2,3,stim\gray.png,stim\gray.png,stim\yellow.png,stim\gray.png,left,,,,,,,,,,,,,0,0,0,9,0,7,7,7,,,,,,,,,,,,,,,,,,,,,,,,,,,,,,,,,,,,,,,,,,,,,,,,,,,,,,,,left,1,223.35416730004363,None,223.35416730004363,None,223.35416730004363,224.3559830999002,223.35416730004363,224.3559830999002,223.35416730004363,224.3559830999002,223.35416730004363,224.3559830999002,223.35416730004363,223.8556927999016,223.35416730004363,223.8556927999016,223.35416730004363,223.8556927999016,223.35416730004363,223.8556927999016,223.35416730004363,None,0.047467000083997846,,,,,11038,001,2024_Mar_11_1635,nback,2021.2.3,59.83706367487503,
2-back,instructions\back-2.png,conditions\23back-e.xlsx,,,experiment,2,4,stim\gray.png,stim\gray.png,stim\gray.png,stim\yellow.png,down,,,,,,,,,,,,,0,0,0,9,0,8,8,8,,,,,,,,,,,,,,,,,,,,,,,,,,,,,,,,,,,,,,,,,,,,,,,,,,,,,,,,down,1,224.85646749986336,None,224.85646749986336,None,224.85646749986336,225.85816899989732,224.85646749986336,225.85816899989732,224.85646749986336,225.85816899989732,224.85646749986336,225.85816899989732,224.85646749986336,225.35718619986437,224.85646749986336,225.35718619986437,224.85646749986336,225.35718619986437,224.85646749986336,225.35718619986437,224.85646749986336,None,0.04912750003859401,,,,,11038,001,2024_Mar_11_1635,nback,2021.2.3,59.83706367487503,
2-back,instructions\back-2.png,conditions\23back-e.xlsx,,,experiment,2,1,stim\yellow.png,stim\gray.png,stim\gray.png,stim\gray.png,right,,,,,,,,,,,,,0,0,0,9,0,9,9,9,,,,,,,,,,,,,,,,,,,,,,,,,,,,,,,,,,,,,,,,,,,,,,,,,,,,,,,,down,0,226.35881139989942,None,226.35881139989942,None,226.35881139989942,227.36109600006603,226.35881139989942,227.36109600006603,226.35881139989942,227.36109600006603,226.35881139989942,227.36109600006603,226.35881139989942,226.8599187999498,226.35881139989942,226.8599187999498,226.35881139989942,226.8599187999498,226.35881139989942,226.8599187999498,226.35881139989942,None,1.4506256999447942,,,,,11038,001,2024_Mar_11_1635,nback,2021.2.3,59.83706367487503,
2-back,instructions\back-2.png,conditions\23back-e.xlsx,,,experiment,2,4,stim\gray.png,stim\gray.png,stim\gray.png,stim\yellow.png,down,,,,,,,,,,,,,0,0,0,9,0,10,10,10,,,,,,,,,,,,,,,,,,,,,,,,,,,,,,,,,,,,,,,,,,,,,,,,,,,,,,,,None,0,227.86086590006016,None,227.86086590006016,None,227.86086590006016,228.8624257000629,227.86086590006016,228.8624257000629,227.86086590006016,228.8624257000629,227.86086590006016,228.8624257000629,227.86086590006016,228.36245659994893,227.86086590006016,228.36245659994893,227.86086590006016,228.36245659994893,227.86086590006016,228.36245659994893,227.86086590006016,None,,,,,,11038,001,2024_Mar_11_1635,nback,2021.2.3,59.83706367487503,
2-back,instructions\back-2.png,conditions\23back-e.xlsx,,,experiment,2,1,stim\yellow.png,stim\gray.png,stim\gray.png,stim\gray.png,up,,,,,,,,,,,,,0,0,0,9,0,11,11,11,,,,,,,,,,,,,,,,,,,,,,,,,,,,,,,,,,,,,,,,,,,,,,,,,,,,,,,,up,1,229.36482920008712,None,229.36482920008712,None,229.36482920008712,230.3650754999835,229.36482920008712,230.3650754999835,229.36482920008712,230.3650754999835,229.36482920008712,230.3650754999835,229.36482920008712,229.86472479999065,229.36482920008712,229.86472479999065,229.36482920008712,229.86472479999065,229.36482920008712,229.86472479999065,229.36482920008712,None,0.09314920008182526,,,,,11038,001,2024_Mar_11_1635,nback,2021.2.3,59.83706367487503,
2-back,instructions\back-2.png,conditions\23back-e.xlsx,,,experiment,2,2,stim\gray.png,stim\yellow.png,stim\gray.png,stim\gray.png,down,,,,,,,,,,,,,0,0,0,9,0,12,12,12,,,,,,,,,,,,,,,,,,,,,,,,,,,,,,,,,,,,,,,,,,,,,,,,,,,,,,,,down,1,230.86639799992554,None,230.86639799992554,None,230.86639799992554,231.86742329993285,230.86639799992554,231.86742329993285,230.86639799992554,231.86742329993285,230.86639799992554,231.86742329993285,230.86639799992554,231.36692860000767,230.86639799992554,231.36692860000767,230.86639799992554,231.36692860000767,230.86639799992554,231.36692860000767,230.86639799992554,None,0.07097809994593263,,,,,11038,001,2024_Mar_11_1635,nback,2021.2.3,59.83706367487503,
2-back,instructions\back-2.png,conditions\23back-e.xlsx,,,experiment,2,3,stim\gray.png,stim\gray.png,stim\yellow.png,stim\gray.png,up,,,,,,,,,,,,,0,0,0,9,0,13,13,13,,,,,,,,,,,,,,,,,,,,,,,,,,,,,,,,,,,,,,,,,,,,,,,,,,,,,,,,up,1,232.3525103998836,None,232.3525103998836,None,232.3525103998836,233.35366169991903,232.3525103998836,233.35366169991903,232.3525103998836,233.35366169991903,232.3525103998836,233.35366169991903,232.3525103998836,232.8518246000167,232.3525103998836,232.8518246000167,232.3525103998836,232.8518246000167,232.3525103998836,232.8518246000167,232.3525103998836,None,0.08082040003500879,,,,,11038,001,2024_Mar_11_1635,nback,2021.2.3,59.83706367487503,
2-back,instructions\back-2.png,conditions\23back-e.xlsx,,,experiment,2,4,stim\gray.png,stim\gray.png,stim\gray.png,stim\yellow.png,left,,,,,,,,,,,,,0,0,0,9,0,14,14,14,,,,,,,,,,,,,,,,,,,,,,,,,,,,,,,,,,,,,,,,,,,,,,,,,,,,,,,,right,0,233.85348009993322,None,233.85348009993322,None,233.85348009993322,234.8553601000458,233.85348009993322,234.8553601000458,233.85348009993322,234.8553601000458,233.85348009993322,234.8553601000458,233.85348009993322,234.35502490005456,233.85348009993322,234.35502490005456,233.85348009993322,234.35502490005456,233.85348009993322,234.35502490005456,233.85348009993322,None,1.4441130999475718,,,,,11038,001,2024_Mar_11_1635,nback,2021.2.3,59.83706367487503,
2-back,instructions\back-2.png,conditions\23back-e.xlsx,,,experiment,2,3,stim\gray.png,stim\gray.png,stim\yellow.png,stim\gray.png,right,,,,,,,,,,,,,0,0,0,9,0,15,15,15,,,,,,,,,,,,,,,,,,,,,,,,,,,,,,,,,,,,,,,,,,,,,,,,,,,,,,,,down,0,235.35570529988036,None,235.35570529988036,None,235.35570529988036,236.35815669992007,235.35570529988036,236.35815669992007,235.35570529988036,236.35815669992007,235.35570529988036,236.35815669992007,235.35570529988036,235.85768410004675,235.35570529988036,235.85768410004675,235.35570529988036,235.85768410004675,235.35570529988036,235.85768410004675,235.35570529988036,None,1.4298576000146568,,,,,11038,001,2024_Mar_11_1635,nback,2021.2.3,59.83706367487503,
2-back,instructions\back-2.png,conditions\23back-e.xlsx,,,experiment,2,2,stim\gray.png,stim\yellow.png,stim\gray.png,stim\gray.png,down,,,,,,,,,,,,,0,0,0,9,0,16,16,16,,,,,,,,,,,,,,,,,,,,,,,,,,,,,,,,,,,,,,,,,,,,,,,,,,,,,,,,None,0,236.85846960009076,None,236.85846960009076,None,236.85846960009076,237.8604214999359,236.85846960009076,237.8604214999359,236.85846960009076,237.8604214999359,236.85846960009076,237.8604214999359,236.85846960009076,237.35861420002766,236.85846960009076,237.35861420002766,236.85846960009076,237.35861420002766,236.85846960009076,237.35861420002766,236.85846960009076,None,,,,,,11038,001,2024_Mar_11_1635,nback,2021.2.3,59.83706367487503,
2-back,instructions\back-2.png,conditions\23back-e.xlsx,,,experiment,2,1,stim\yellow.png,stim\gray.png,stim\gray.png,stim\gray.png,right,,,,,,,,,,,,,0,0,0,9,0,17,17,17,,,,,,,,,,,,,,,,,,,,,,,,,,,,,,,,,,,,,,,,,,,,,,,,,,,,,,,,None,0,238.360406300053,None,238.360406300053,None,238.360406300053,239.36253879987635,238.360406300053,239.36253879987635,238.360406300053,239.36253879987635,238.360406300053,239.36253879987635,238.360406300053,238.86165269999765,238.360406300053,238.86165269999765,238.360406300053,238.86165269999765,238.360406300053,238.86165269999765,238.360406300053,None,,,,,,11038,001,2024_Mar_11_1635,nback,2021.2.3,59.83706367487503,
2-back,instructions\back-2.png,conditions\23back-e.xlsx,,,experiment,2,3,stim\gray.png,stim\gray.png,stim\yellow.png,stim\gray.png,left,,,,,,,,,,,,,0,0,0,9,0,18,18,18,,,,,,,,,,,,,,,,,,,,,,,,,,,,,,,,,,,,,,,,,,,,,,,,,,,,,,,,left,1,239.86256180005148,None,239.86256180005148,None,239.86256180005148,240.86468970007263,239.86256180005148,240.86468970007263,239.86256180005148,240.86468970007263,239.86256180005148,240.86468970007263,239.86256180005148,240.3631678998936,239.86256180005148,240.3631678998936,239.86256180005148,240.3631678998936,239.86256180005148,240.3631678998936,239.86256180005148,None,0.05938889994286001,,,,,11038,001,2024_Mar_11_1635,nback,2021.2.3,59.83706367487503,
2-back,instructions\back-2.png,conditions\23back-e.xlsx,,,experiment,2,1,stim\yellow.png,stim\gray.png,stim\gray.png,stim\gray.png,up,,,,,,,,,,,,,0,0,0,9,0,19,19,19,,,,,,,,,,,,,,,,,,,,,,,,,,,,,,,,,,,,,,,,,,,,,,,,,,,,,,,,up,1,241.36469419999048,None,241.36469419999048,None,241.36469419999048,242.3663488999009,241.36469419999048,242.3663488999009,241.36469419999048,242.3663488999009,241.36469419999048,242.3663488999009,241.36469419999048,241.8662526998669,241.36469419999048,241.8662526998669,241.36469419999048,241.8662526998669,241.36469419999048,241.8662526998669,241.36469419999048,None,0.06875599990598857,,,,,11038,001,2024_Mar_11_1635,nback,2021.2.3,59.83706367487503,
2-back,instructions\back-2.png,conditions\23back-e.xlsx,,,,,,,,,,,,,,,,,,,,,,,0,0,0,9,,,,,,,,,,,,,,,,,,,,,,,,,,,,,,,,,,,,,,,,,,,,,,,,,,,,,,,,,,,,,,,,,,,,,,,,,,,,,,,,,,,,,242.86702640005387,None,,,11038,001,2024_Mar_11_1635,nback,2021.2.3,59.83706367487503,
2-back,instructions\back-2.png,conditions\21back-e.xlsx,,,experiment,2,3,stim\gray.png,stim\gray.png,stim\yellow.png,stim\gray.png,None,,,,,,,,,,,,,0,1,1,3,0,0,0,0,,,,,,,,,,,,,,,243.98528759996407,248.4922519000247,248.475940000033,None,,,,,,,,,,,,,,,,,,,,,,,,,,,,,,,,,,,,,,None,1,248.877526700031,None,248.877526700031,None,248.877526700031,249.87804970005527,248.877526700031,249.87804970005527,248.877526700031,249.87804970005527,248.877526700031,249.87804970005527,248.877526700031,249.3767864999827,248.877526700031,249.3767864999827,248.877526700031,249.3767864999827,248.877526700031,249.3767864999827,248.877526700031,None,,,,,,11038,001,2024_Mar_11_1635,nback,2021.2.3,59.83706367487503,
2-back,instructions\back-2.png,conditions\21back-e.xlsx,,,experiment,2,4,stim\gray.png,stim\gray.png,stim\gray.png,stim\yellow.png,None,,,,,,,,,,,,,0,1,1,3,0,1,1,1,,,,,,,,,,,,,,,,,,,,,,,,,,,,,,,,,,,,,,,,,,,,,,,,,,,,,,,,None,1,250.36162439989857,None,250.36162439989857,None,250.36162439989857,251.36334819998592,250.36162439989857,251.36334819998592,250.36162439989857,251.36334819998592,250.36162439989857,251.36334819998592,250.36162439989857,250.86239859997295,250.36162439989857,250.86239859997295,250.36162439989857,250.86239859997295,250.36162439989857,250.86239859997295,250.36162439989857,None,,,,,,11038,001,2024_Mar_11_1635,nback,2021.2.3,59.83706367487503,
2-back,instructions\back-2.png,conditions\21back-e.xlsx,,,experiment,2,1,stim\yellow.png,stim\gray.png,stim\gray.png,stim\gray.png,right,,,,,,,,,,,,,0,1,1,3,0,2,2,2,,,,,,,,,,,,,,,,,,,,,,,,,,,,,,,,,,,,,,,,,,,,,,,,,,,,,,,,right,1,251.86402700003237,None,251.86402700003237,None,251.86402700003237,252.86530639999546,251.86402700003237,252.86530639999546,251.86402700003237,252.86530639999546,251.86402700003237,252.86530639999546,251.86402700003237,252.364646299975,251.86402700003237,252.364646299975,251.86402700003237,252.364646299975,251.86402700003237,252.364646299975,251.86402700003237,None,0.16248699999414384,,,,,11038,001,2024_Mar_11_1635,nback,2021.2.3,59.83706367487503,
2-back,instructions\back-2.png,conditions\21back-e.xlsx,,,experiment,2,2,stim\gray.png,stim\yellow.png,stim\gray.png,stim\gray.png,down,,,,,,,,,,,,,0,1,1,3,0,3,3,3,,,,,,,,,,,,,,,,,,,,,,,,,,,,,,,,,,,,,,,,,,,,,,,,,,,,,,,,down,1,253.36696949996985,None,253.36696949996985,None,253.36696949996985,254.36868910002522,253.36696949996985,254.36868910002522,253.36696949996985,254.36868910002522,253.36696949996985,254.36868910002522,253.36696949996985,253.8682854999788,253.36696949996985,253.8682854999788,253.36696949996985,253.8682854999788,253.36696949996985,253.8682854999788,253.36696949996985,None,0.08337639993987978,,,,,11038,001,2024_Mar_11_1635,nback,2021.2.3,59.83706367487503,
2-back,instructions\back-2.png,conditions\21back-e.xlsx,,,experiment,2,1,stim\yellow.png,stim\gray.png,stim\gray.png,stim\gray.png,up,,,,,,,,,,,,,0,1,1,3,0,4,4,4,,,,,,,,,,,,,,,,,,,,,,,,,,,,,,,,,,,,,,,,,,,,,,,,,,,,,,,,up,1,254.852455599932,None,254.852455599932,None,254.852455599932,255.85364759992808,254.852455599932,255.85364759992808,254.852455599932,255.85364759992808,254.852455599932,255.85364759992808,254.852455599932,255.35295299999416,254.852455599932,255.35295299999416,254.852455599932,255.35295299999416,254.852455599932,255.35295299999416,254.852455599932,None,0.18943429994396865,,,,,11038,001,2024_Mar_11_1635,nback,2021.2.3,59.83706367487503,
2-back,instructions\back-2.png,conditions\21back-e.xlsx,,,experiment,2,2,stim\gray.png,stim\yellow.png,stim\gray.png,stim\gray.png,left,,,,,,,,,,,,,0,1,1,3,0,5,5,5,,,,,,,,,,,,,,,,,,,,,,,,,,,,,,,,,,,,,,,,,,,,,,,,,,,,,,,,left,1,256.3540550998878,None,256.3540550998878,None,256.3540550998878,257.3558137998916,256.3540550998878,257.3558137998916,256.3540550998878,257.3558137998916,256.3540550998878,257.3558137998916,256.3540550998878,256.85595649993047,256.3540550998878,256.85595649993047,256.3540550998878,256.85595649993047,256.3540550998878,256.85595649993047,256.3540550998878,None,0.040149400010704994,,,,,11038,001,2024_Mar_11_1635,nback,2021.2.3,59.83706367487503,
2-back,instructions\back-2.png,conditions\21back-e.xlsx,,,experiment,2,3,stim\gray.png,stim\gray.png,stim\yellow.png,stim\gray.png,up,,,,,,,,,,,,,0,1,1,3,0,6,6,6,,,,,,,,,,,,,,,,,,,,,,,,,,,,,,,,,,,,,,,,,,,,,,,,,,,,,,,,up,1,257.8561767998617,None,257.8561767998617,None,257.8561767998617,258.85885119996965,257.8561767998617,258.85885119996965,257.8561767998617,258.85885119996965,257.8561767998617,258.85885119996965,257.8561767998617,258.3580624999013,257.8561767998617,258.3580624999013,257.8561767998617,258.3580624999013,257.8561767998617,258.3580624999013,257.8561767998617,None,0.050150099908933043,,,,,11038,001,2024_Mar_11_1635,nback,2021.2.3,59.83706367487503,
2-back,instructions\back-2.png,conditions\21back-e.xlsx,,,experiment,2,4,stim\gray.png,stim\gray.png,stim\gray.png,stim\yellow.png,left,,,,,,,,,,,,,0,1,1,3,0,7,7,7,,,,,,,,,,,,,,,,,,,,,,,,,,,,,,,,,,,,,,,,,,,,,,,,,,,,,,,,left,1,259.35954330000095,None,259.35954330000095,None,259.35954330000095,260.36095519992523,259.35954330000095,260.36095519992523,259.35954330000095,260.36095519992523,259.35954330000095,260.36095519992523,259.35954330000095,259.8598513000179,259.35954330000095,259.8598513000179,259.35954330000095,259.8598513000179,259.35954330000095,259.8598513000179,259.35954330000095,None,0.035415499936789274,,,,,11038,001,2024_Mar_11_1635,nback,2021.2.3,59.83706367487503,
2-back,instructions\back-2.png,conditions\21back-e.xlsx,,,experiment,2,3,stim\gray.png,stim\gray.png,stim\yellow.png,stim\gray.png,right,,,,,,,,,,,,,0,1,1,3,0,8,8,8,,,,,,,,,,,,,,,,,,,,,,,,,,,,,,,,,,,,,,,,,,,,,,,,,,,,,,,,right,1,260.8608111999929,None,260.8608111999929,None,260.8608111999929,261.86269149999134,260.8608111999929,261.86269149999134,260.8608111999929,261.86269149999134,260.8608111999929,261.86269149999134,260.8608111999929,261.3626121999696,260.8608111999929,261.3626121999696,260.8608111999929,261.3626121999696,260.8608111999929,261.3626121999696,260.8608111999929,None,0.02133380016312003,,,,,11038,001,2024_Mar_11_1635,nback,2021.2.3,59.83706367487503,
2-back,instructions\back-2.png,conditions\21back-e.xlsx,,,experiment,2,1,stim\yellow.png,stim\gray.png,stim\gray.png,stim\gray.png,down,,,,,,,,,,,,,0,1,1,3,0,9,9,9,,,,,,,,,,,,,,,,,,,,,,,,,,,,,,,,,,,,,,,,,,,,,,,,,,,,,,,,down,1,262.36395659996197,None,262.36395659996197,None,262.36395659996197,263.36460580001585,262.36395659996197,263.36460580001585,262.36395659996197,263.36460580001585,262.36395659996197,263.36460580001585,262.36395659996197,262.86394939990714,262.36395659996197,262.86394939990714,262.36395659996197,262.86394939990714,262.36395659996197,262.86394939990714,262.36395659996197,None,0.039115500170737505,,,,,11038,001,2024_Mar_11_1635,nback,2021.2.3,59.83706367487503,
2-back,instructions\back-2.png,conditions\21back-e.xlsx,,,experiment,2,4,stim\gray.png,stim\gray.png,stim\gray.png,stim\yellow.png,right,,,,,,,,,,,,,0,1,1,3,0,10,10,10,,,,,,,,,,,,,,,,,,,,,,,,,,,,,,,,,,,,,,,,,,,,,,,,,,,,,,,,right,1,263.86523090000264,None,263.86523090000264,None,263.86523090000264,264.8668724000454,263.86523090000264,264.8668724000454,263.86523090000264,264.8668724000454,263.86523090000264,264.8668724000454,263.86523090000264,264.3662101998925,263.86523090000264,264.3662101998925,263.86523090000264,264.3662101998925,263.86523090000264,264.3662101998925,263.86523090000264,None,0.14518540003336966,,,,,11038,001,2024_Mar_11_1635,nback,2021.2.3,59.83706367487503,
2-back,instructions\back-2.png,conditions\21back-e.xlsx,,,experiment,2,2,stim\gray.png,stim\yellow.png,stim\gray.png,stim\gray.png,up,,,,,,,,,,,,,0,1,1,3,0,11,11,11,,,,,,,,,,,,,,,,,,,,,,,,,,,,,,,,,,,,,,,,,,,,,,,,,,,,,,,,up,1,265.3517483000178,None,265.3517483000178,None,265.3517483000178,266.35295099997893,265.3517483000178,266.35295099997893,265.3517483000178,266.35295099997893,265.3517483000178,266.35295099997893,265.3517483000178,265.8529008999467,265.3517483000178,265.8529008999467,265.3517483000178,265.8529008999467,265.3517483000178,265.8529008999467,265.3517483000178,None,0.10689019993878901,,,,,11038,001,2024_Mar_11_1635,nback,2021.2.3,59.83706367487503,
2-back,instructions\back-2.png,conditions\21back-e.xlsx,,,experiment,2,4,stim\gray.png,stim\gray.png,stim\gray.png,stim\yellow.png,down,,,,,,,,,,,,,0,1,1,3,0,12,12,12,,,,,,,,,,,,,,,,,,,,,,,,,,,,,,,,,,,,,,,,,,,,,,,,,,,,,,,,None,0,266.853066300042,None,266.853066300042,None,266.853066300042,267.85535859991796,266.853066300042,267.85535859991796,266.853066300042,267.85535859991796,266.853066300042,267.85535859991796,266.853066300042,267.35399179998785,266.853066300042,267.35399179998785,266.853066300042,267.35399179998785,266.853066300042,267.35399179998785,266.853066300042,None,,,,,,11038,001,2024_Mar_11_1635,nback,2021.2.3,59.83706367487503,
2-back,instructions\back-2.png,conditions\21back-e.xlsx,,,experiment,2,3,stim\gray.png,stim\gray.png,stim\yellow.png,stim\gray.png,left,,,,,,,,,,,,,0,1,1,3,0,13,13,13,,,,,,,,,,,,,,,,,,,,,,,,,,,,,,,,,,,,,,,,,,,,,,,,,,,,,,,,left,1,268.35544970002957,None,268.35544970002957,None,268.35544970002957,269.35777650005184,268.35544970002957,269.35777650005184,268.35544970002957,269.35777650005184,268.35544970002957,269.35777650005184,268.35544970002957,268.85617240006104,268.35544970002957,268.85617240006104,268.35544970002957,268.85617240006104,268.35544970002957,268.85617240006104,268.35544970002957,None,0.0791052000131458,,,,,11038,001,2024_Mar_11_1635,nback,2021.2.3,59.83706367487503,
2-back,instructions\back-2.png,conditions\21back-e.xlsx,,,experiment,2,1,stim\yellow.png,stim\gray.png,stim\gray.png,stim\gray.png,down,,,,,,,,,,,,,0,1,1,3,0,14,14,14,,,,,,,,,,,,,,,,,,,,,,,,,,,,,,,,,,,,,,,,,,,,,,,,,,,,,,,,down,1,269.8580346000381,None,269.8580346000381,None,269.8580346000381,270.85913469991647,269.8580346000381,270.85913469991647,269.8580346000381,270.85913469991647,269.8580346000381,270.85913469991647,269.8580346000381,270.35851980000734,269.8580346000381,270.35851980000734,269.8580346000381,270.35851980000734,269.8580346000381,270.35851980000734,269.8580346000381,None,0.0647394999396056,,,,,11038,001,2024_Mar_11_1635,nback,2021.2.3,59.83706367487503,
2-back,instructions\back-2.png,conditions\21back-e.xlsx,,,experiment,2,2,stim\gray.png,stim\yellow.png,stim\gray.png,stim\gray.png,right,,,,,,,,,,,,,0,1,1,3,0,15,15,15,,,,,,,,,,,,,,,,,,,,,,,,,,,,,,,,,,,,,,,,,,,,,,,,,,,,,,,,right,1,271.36013170005754,None,271.36013170005754,None,271.36013170005754,272.36139219999313,271.36013170005754,272.36139219999313,271.36013170005754,272.36139219999313,271.36013170005754,272.36139219999313,271.36013170005754,271.8615858000703,271.36013170005754,271.8615858000703,271.36013170005754,271.8615858000703,271.36013170005754,271.8615858000703,271.36013170005754,None,0.18625000002793968,,,,,11038,001,2024_Mar_11_1635,nback,2021.2.3,59.83706367487503,
2-back,instructions\back-2.png,conditions\21back-e.xlsx,,,experiment,2,2,stim\gray.png,stim\yellow.png,stim\gray.png,stim\gray.png,up,,,,,,,,,,,,,0,1,1,3,0,16,16,16,,,,,,,,,,,,,,,,,,,,,,,,,,,,,,,,,,,,,,,,,,,,,,,,,,,,,,,,up,1,272.8624422000721,None,272.8624422000721,None,272.8624422000721,273.86374909989536,272.8624422000721,273.86374909989536,272.8624422000721,273.86374909989536,272.8624422000721,273.86374909989536,272.8624422000721,273.3635970999021,272.8624422000721,273.3635970999021,272.8624422000721,273.3635970999021,272.8624422000721,273.3635970999021,272.8624422000721,None,0.14807490003295243,,,,,11038,001,2024_Mar_11_1635,nback,2021.2.3,59.83706367487503,
2-back,instructions\back-2.png,conditions\21back-e.xlsx,,,experiment,2,1,stim\yellow.png,stim\gray.png,stim\gray.png,stim\gray.png,left,,,,,,,,,,,,,0,1,1,3,0,17,17,17,,,,,,,,,,,,,,,,,,,,,,,,,,,,,,,,,,,,,,,,,,,,,,,,,,,,,,,,left,1,274.36449120007455,None,274.36449120007455,None,274.36449120007455,275.3663099000696,274.36449120007455,275.3663099000696,274.36449120007455,275.3663099000696,274.36449120007455,275.3663099000696,274.36449120007455,274.8654620000161,274.36449120007455,274.8654620000161,274.36449120007455,274.8654620000161,274.36449120007455,274.8654620000161,274.36449120007455,None,0.14274469995871186,,,,,11038,001,2024_Mar_11_1635,nback,2021.2.3,59.83706367487503,
2-back,instructions\back-2.png,conditions\21back-e.xlsx,,,experiment,2,4,stim\gray.png,stim\gray.png,stim\gray.png,stim\yellow.png,left,,,,,,,,,,,,,0,1,1,3,0,18,18,18,,,,,,,,,,,,,,,,,,,,,,,,,,,,,,,,,,,,,,,,,,,,,,,,,,,,,,,,left,1,275.8669545999728,None,275.8669545999728,None,275.8669545999728,276.86846309993416,275.8669545999728,276.86846309993416,275.8669545999728,276.86846309993416,275.8669545999728,276.86846309993416,275.8669545999728,276.3684399998747,275.8669545999728,276.3684399998747,275.8669545999728,276.3684399998747,275.8669545999728,276.3684399998747,275.8669545999728,None,0.09584289998747408,,,,,11038,001,2024_Mar_11_1635,nback,2021.2.3,59.83706367487503,
2-back,instructions\back-2.png,conditions\21back-e.xlsx,,,experiment,2,3,stim\gray.png,stim\gray.png,stim\yellow.png,stim\gray.png,up,,,,,,,,,,,,,0,1,1,3,0,19,19,19,,,,,,,,,,,,,,,,,,,,,,,,,,,,,,,,,,,,,,,,,,,,,,,,,,,,,,,,up,1,277.35233099991456,None,277.35233099991456,None,277.35233099991456,278.3537951998878,277.35233099991456,278.3537951998878,277.35233099991456,278.3537951998878,277.35233099991456,278.3537951998878,277.35233099991456,277.85335449990816,277.35233099991456,277.85335449990816,277.35233099991456,277.85335449990816,277.35233099991456,277.85335449990816,277.35233099991456,None,0.154912400059402,,,,,11038,001,2024_Mar_11_1635,nback,2021.2.3,59.83706367487503,
2-back,instructions\back-2.png,conditions\21back-e.xlsx,,,,,,,,,,,,,,,,,,,,,,,0,1,1,3,,,,,,,,,,,,,,,,,,,,,,,,,,,,,,,,,,,,,,,,,,,,,,,,,,,,,,,,,,,,,,,,,,,,,,,,,,,,,,,,,,,,,278.8550916998647,None,,,11038,001,2024_Mar_11_1635,nback,2021.2.3,59.83706367487503,
2-back,instructions\back-2.png,conditions\24back-e.xlsx,,,experiment,2,1,stim\yellow.png,stim\gray.png,stim\gray.png,stim\gray.png,None,,,,,,,,,,,,,0,2,2,12,0,0,0,0,,,,,,,,,,,,,,,279.9902868999634,284.4971586000174,284.4631539999973,None,,,,,,,,,,,,,,,,,,,,,,,,,,,,,,,,,,,,,,None,1,284.88200669991784,None,284.88200669991784,None,284.88200669991784,285.88260719995014,284.88200669991784,285.88260719995014,284.88200669991784,285.88260719995014,284.88200669991784,285.88260719995014,284.88200669991784,285.38212489988655,284.88200669991784,285.38212489988655,284.88200669991784,285.38212489988655,284.88200669991784,285.38212489988655,284.88200669991784,None,,,,,,11038,001,2024_Mar_11_1635,nback,2021.2.3,59.83706367487503,
2-back,instructions\back-2.png,conditions\24back-e.xlsx,,,experiment,2,2,stim\gray.png,stim\yellow.png,stim\gray.png,stim\gray.png,None,,,,,,,,,,,,,0,2,2,12,0,1,1,1,,,,,,,,,,,,,,,,,,,,,,,,,,,,,,,,,,,,,,,,,,,,,,,,,,,,,,,,None,1,286.36596830002964,None,286.36596830002964,None,286.36596830002964,287.3683291999623,286.36596830002964,287.3683291999623,286.36596830002964,287.3683291999623,286.36596830002964,287.3683291999623,286.36596830002964,286.8667721999809,286.36596830002964,286.8667721999809,286.36596830002964,286.8667721999809,286.36596830002964,286.8667721999809,286.36596830002964,None,,,,,,11038,001,2024_Mar_11_1635,nback,2021.2.3,59.83706367487503,
2-back,instructions\back-2.png,conditions\24back-e.xlsx,,,experiment,2,1,stim\yellow.png,stim\gray.png,stim\gray.png,stim\gray.png,up,,,,,,,,,,,,,0,2,2,12,0,2,2,2,,,,,,,,,,,,,,,,,,,,,,,,,,,,,,,,,,,,,,,,,,,,,,,,,,,,,,,,up,1,287.8515405000653,None,287.8515405000653,None,287.8515405000653,288.85378169990145,287.8515405000653,288.85378169990145,287.8515405000653,288.85378169990145,287.8515405000653,288.85378169990145,287.8515405000653,288.35281479987316,287.8515405000653,288.35281479987316,287.8515405000653,288.35281479987316,287.8515405000653,288.35281479987316,287.8515405000653,None,0.1997227999381721,,,,,11038,001,2024_Mar_11_1635,nback,2021.2.3,59.83706367487503,
2-back,instructions\back-2.png,conditions\24back-e.xlsx,,,experiment,2,4,stim\gray.png,stim\gray.png,stim\gray.png,stim\yellow.png,left,,,,,,,,,,,,,0,2,2,12,0,3,3,3,,,,,,,,,,,,,,,,,,,,,,,,,,,,,,,,,,,,,,,,,,,,,,,,,,,,,,,,left,1,289.35385359986685,None,289.35385359986685,None,289.35385359986685,290.3553212999832,289.35385359986685,290.3553212999832,289.35385359986685,290.3553212999832,289.35385359986685,290.3553212999832,289.35385359986685,289.85534669994377,289.35385359986685,289.85534669994377,289.35385359986685,289.85534669994377,289.35385359986685,289.85534669994377,289.35385359986685,None,0.2580525001976639,,,,,11038,001,2024_Mar_11_1635,nback,2021.2.3,59.83706367487503,
2-back,instructions\back-2.png,conditions\24back-e.xlsx,,,experiment,2,3,stim\gray.png,stim\gray.png,stim\yellow.png,stim\gray.png,up,,,,,,,,,,,,,0,2,2,12,0,4,4,4,,,,,,,,,,,,,,,,,,,,,,,,,,,,,,,,,,,,,,,,,,,,,,,,,,,,,,,,up,1,290.8559022999834,None,290.8559022999834,None,290.8559022999834,291.85777359991334,290.8559022999834,291.85777359991334,290.8559022999834,291.85777359991334,290.8559022999834,291.85777359991334,290.8559022999834,291.3573660000693,290.8559022999834,291.3573660000693,290.8559022999834,291.3573660000693,290.8559022999834,291.3573660000693,290.8559022999834,None,0.20317220012657344,,,,,11038,001,2024_Mar_11_1635,nback,2021.2.3,59.83706367487503,
2-back,instructions\back-2.png,conditions\24back-e.xlsx,,,experiment,2,4,stim\gray.png,stim\gray.png,stim\gray.png,stim\yellow.png,down,,,,,,,,,,,,,0,2,2,12,0,5,5,5,,,,,,,,,,,,,,,,,,,,,,,,,,,,,,,,,,,,,,,,,,,,,,,,,,,,,,,,down,1,292.3582540000789,None,292.3582540000789,None,292.3582540000789,293.3599123999011,292.3582540000789,293.3599123999011,292.3582540000789,293.3599123999011,292.3582540000789,293.3599123999011,292.3582540000789,292.8590126999188,292.3582540000789,292.8590126999188,292.3582540000789,292.8590126999188,292.3582540000789,292.8590126999188,292.3582540000789,None,0.1731086999643594,,,,,11038,001,2024_Mar_11_1635,nback,2021.2.3,59.83706367487503,
2-back,instructions\back-2.png,conditions\24back-e.xlsx,,,experiment,2,3,stim\gray.png,stim\gray.png,stim\yellow.png,stim\gray.png,right,,,,,,,,,,,,,0,2,2,12,0,6,6,6,,,,,,,,,,,,,,,,,,,,,,,,,,,,,,,,,,,,,,,,,,,,,,,,,,,,,,,,right,1,293.86048429994844,None,293.86048429994844,None,293.86048429994844,294.8628090999555,293.86048429994844,294.8628090999555,293.86048429994844,294.8628090999555,293.86048429994844,294.8628090999555,293.86048429994844,294.36286540003493,293.86048429994844,294.36286540003493,293.86048429994844,294.36286540003493,293.86048429994844,294.36286540003493,293.86048429994844,None,0.21478789998218417,,,,,11038,001,2024_Mar_11_1635,nback,2021.2.3,59.83706367487503,
2-back,instructions\back-2.png,conditions\24back-e.xlsx,,,experiment,2,2,stim\gray.png,stim\yellow.png,stim\gray.png,stim\gray.png,down,,,,,,,,,,,,,0,2,2,12,0,7,7,7,,,,,,,,,,,,,,,,,,,,,,,,,,,,,,,,,,,,,,,,,,,,,,,,,,,,,,,,down,1,295.36297250003554,None,295.36297250003554,None,295.36297250003554,296.3655405000318,295.36297250003554,296.3655405000318,295.36297250003554,296.3655405000318,295.36297250003554,296.3655405000318,295.36297250003554,295.8642627999652,295.36297250003554,295.8642627999652,295.36297250003554,295.8642627999652,295.36297250003554,295.8642627999652,295.36297250003554,None,0.16842669993638992,,,,,11038,001,2024_Mar_11_1635,nback,2021.2.3,59.83706367487503,
2-back,instructions\back-2.png,conditions\24back-e.xlsx,,,experiment,2,4,stim\gray.png,stim\gray.png,stim\gray.png,stim\yellow.png,right,,,,,,,,,,,,,0,2,2,12,0,8,8,8,,,,,,,,,,,,,,,,,,,,,,,,,,,,,,,,,,,,,,,,,,,,,,,,,,,,,,,,right,1,296.8651735999156,None,296.8651735999156,None,296.8651735999156,297.86764509999193,296.8651735999156,297.86764509999193,296.8651735999156,297.86764509999193,296.8651735999156,297.86764509999193,296.8651735999156,297.36593199986964,296.8651735999156,297.36593199986964,296.8651735999156,297.36593199986964,296.8651735999156,297.36593199986964,296.8651735999156,None,0.09782030014321208,,,,,11038,001,2024_Mar_11_1635,nback,2021.2.3,59.83706367487503,
2-back,instructions\back-2.png,conditions\24back-e.xlsx,,,experiment,2,1,stim\yellow.png,stim\gray.png,stim\gray.png,stim\gray.png,left,,,,,,,,,,,,,0,2,2,12,0,9,9,9,,,,,,,,,,,,,,,,,,,,,,,,,,,,,,,,,,,,,,,,,,,,,,,,,,,,,,,,left,1,298.3507207999937,None,298.3507207999937,None,298.3507207999937,299.3525865999982,298.3507207999937,299.3525865999982,298.3507207999937,299.3525865999982,298.3507207999937,299.3525865999982,298.3507207999937,298.85148909990676,298.3507207999937,298.85148909990676,298.3507207999937,298.85148909990676,298.3507207999937,298.85148909990676,298.3507207999937,None,0.08468999993056059,,,,,11038,001,2024_Mar_11_1635,nback,2021.2.3,59.83706367487503,
2-back,instructions\back-2.png,conditions\24back-e.xlsx,,,experiment,2,3,stim\gray.png,stim\gray.png,stim\yellow.png,stim\gray.png,down,,,,,,,,,,,,,0,2,2,12,0,10,10,10,,,,,,,,,,,,,,,,,,,,,,,,,,,,,,,,,,,,,,,,,,,,,,,,,,,,,,,,down,1,299.85381969995797,None,299.85381969995797,None,299.85381969995797,300.8553674998693,299.85381969995797,300.8553674998693,299.85381969995797,300.8553674998693,299.85381969995797,300.8553674998693,299.85381969995797,300.35384200001135,299.85381969995797,300.35384200001135,299.85381969995797,300.35384200001135,299.85381969995797,300.35384200001135,299.85381969995797,None,0.19074270012788475,,,,,11038,001,2024_Mar_11_1635,nback,2021.2.3,59.83706367487503,
2-back,instructions\back-2.png,conditions\24back-e.xlsx,,,experiment,2,1,stim\yellow.png,stim\gray.png,stim\gray.png,stim\gray.png,up,,,,,,,,,,,,,0,2,2,12,0,11,11,11,,,,,,,,,,,,,,,,,,,,,,,,,,,,,,,,,,,,,,,,,,,,,,,,,,,,,,,,up,1,301.35543129988946,None,301.35543129988946,None,301.35543129988946,302.3567886999808,301.35543129988946,302.3567886999808,301.35543129988946,302.3567886999808,301.35543129988946,302.3567886999808,301.35543129988946,301.8567126998678,301.35543129988946,301.8567126998678,301.35543129988946,301.8567126998678,301.35543129988946,301.8567126998678,301.35543129988946,None,0.11208560015074909,,,,,11038,001,2024_Mar_11_1635,nback,2021.2.3,59.83706367487503,
2-back,instructions\back-2.png,conditions\24back-e.xlsx,,,experiment,2,2,stim\gray.png,stim\yellow.png,stim\gray.png,stim\gray.png,right,,,,,,,,,,,,,0,2,2,12,0,12,12,12,,,,,,,,,,,,,,,,,,,,,,,,,,,,,,,,,,,,,,,,,,,,,,,,,,,,,,,,right,1,302.85844970005564,None,302.85844970005564,None,302.85844970005564,303.85896319989115,302.85844970005564,303.85896319989115,302.85844970005564,303.85896319989115,302.85844970005564,303.85896319989115,302.85844970005564,303.3582109999843,302.85844970005564,303.3582109999843,302.85844970005564,303.3582109999843,302.85844970005564,303.3582109999843,302.85844970005564,None,0.08962740004062653,,,,,11038,001,2024_Mar_11_1635,nback,2021.2.3,59.83706367487503,
2-back,instructions\back-2.png,conditions\24back-e.xlsx,,,experiment,2,4,stim\gray.png,stim\gray.png,stim\gray.png,stim\yellow.png,up,,,,,,,,,,,,,0,2,2,12,0,13,13,13,,,,,,,,,,,,,,,,,,,,,,,,,,,,,,,,,,,,,,,,,,,,,,,,,,,,,,,,up,1,304.36034999997355,None,304.36034999997355,None,304.36034999997355,305.36133809993044,304.36034999997355,305.36133809993044,304.36034999997355,305.36133809993044,304.36034999997355,305.36133809993044,304.36034999997355,304.86104979994707,304.36034999997355,304.86104979994707,304.36034999997355,304.86104979994707,304.36034999997355,304.86104979994707,304.36034999997355,None,0.03573700017295778,,,,,11038,001,2024_Mar_11_1635,nback,2021.2.3,59.83706367487503,
2-back,instructions\back-2.png,conditions\24back-e.xlsx,,,experiment,2,3,stim\gray.png,stim\gray.png,stim\yellow.png,stim\gray.png,left,,,,,,,,,,,,,0,2,2,12,0,14,14,14,,,,,,,,,,,,,,,,,,,,,,,,,,,,,,,,,,,,,,,,,,,,,,,,,,,,,,,,left,1,305.8619806000497,None,305.8619806000497,None,305.8619806000497,306.86342830001377,305.8619806000497,306.86342830001377,305.8619806000497,306.86342830001377,305.8619806000497,306.86342830001377,305.8619806000497,306.3633036999963,305.8619806000497,306.3633036999963,305.8619806000497,306.3633036999963,305.8619806000497,306.3633036999963,305.8619806000497,None,0.029569600010290742,,,,,11038,001,2024_Mar_11_1635,nback,2021.2.3,59.83706367487503,
2-back,instructions\back-2.png,conditions\24back-e.xlsx,,,experiment,2,2,stim\gray.png,stim\yellow.png,stim\gray.png,stim\gray.png,down,,,,,,,,,,,,,0,2,2,12,0,15,15,15,,,,,,,,,,,,,,,,,,,,,,,,,,,,,,,,,,,,,,,,,,,,,,,,,,,,,,,,down,1,307.36415329994634,None,307.36415329994634,None,307.36415329994634,308.3664722999092,307.36415329994634,308.3664722999092,307.36415329994634,308.3664722999092,307.36415329994634,308.3664722999092,307.36415329994634,307.865913500078,307.36415329994634,307.865913500078,307.36415329994634,307.865913500078,307.36415329994634,307.865913500078,307.36415329994634,None,0.10311869997531176,,,,,11038,001,2024_Mar_11_1635,nback,2021.2.3,59.83706367487503,
2-back,instructions\back-2.png,conditions\24back-e.xlsx,,,experiment,2,4,stim\gray.png,stim\gray.png,stim\gray.png,stim\yellow.png,right,,,,,,,,,,,,,0,2,2,12,0,16,16,16,,,,,,,,,,,,,,,,,,,,,,,,,,,,,,,,,,,,,,,,,,,,,,,,,,,,,,,,right,1,308.8664770000614,None,308.8664770000614,None,308.8664770000614,309.86812549992464,308.8664770000614,309.86812549992464,308.8664770000614,309.86812549992464,308.8664770000614,309.86812549992464,308.8664770000614,309.36723760003224,308.8664770000614,309.36723760003224,308.8664770000614,309.36723760003224,308.8664770000614,309.36723760003224,308.8664770000614,None,0.19336950010620058,,,,,11038,001,2024_Mar_11_1635,nback,2021.2.3,59.83706367487503,
2-back,instructions\back-2.png,conditions\24back-e.xlsx,,,experiment,2,3,stim\gray.png,stim\gray.png,stim\yellow.png,stim\gray.png,left,,,,,,,,,,,,,0,2,2,12,0,17,17,17,,,,,,,,,,,,,,,,,,,,,,,,,,,,,,,,,,,,,,,,,,,,,,,,,,,,,,,,left,1,310.35208470001817,None,310.35208470001817,None,310.35208470001817,311.353690299904,310.35208470001817,311.353690299904,310.35208470001817,311.353690299904,310.35208470001817,311.353690299904,310.35208470001817,310.8529024000745,310.35208470001817,310.8529024000745,310.35208470001817,310.8529024000745,310.35208470001817,310.8529024000745,310.35208470001817,None,0.1560690999031067,,,,,11038,001,2024_Mar_11_1635,nback,2021.2.3,59.83706367487503,
2-back,instructions\back-2.png,conditions\24back-e.xlsx,,,experiment,2,1,stim\yellow.png,stim\gray.png,stim\gray.png,stim\gray.png,down,,,,,,,,,,,,,0,2,2,12,0,18,18,18,,,,,,,,,,,,,,,,,,,,,,,,,,,,,,,,,,,,,,,,,,,,,,,,,,,,,,,,down,1,311.85444889985956,None,311.85444889985956,None,311.85444889985956,312.8568360998761,311.85444889985956,312.8568360998761,311.85444889985956,312.8568360998761,311.85444889985956,312.8568360998761,311.85444889985956,312.35504939989187,311.85444889985956,312.35504939989187,311.85444889985956,312.35504939989187,311.85444889985956,312.35504939989187,311.85444889985956,None,0.08525949995964766,,,,,11038,001,2024_Mar_11_1635,nback,2021.2.3,59.83706367487503,
2-back,instructions\back-2.png,conditions\24back-e.xlsx,,,experiment,2,2,stim\gray.png,stim\yellow.png,stim\gray.png,stim\gray.png,right,,,,,,,,,,,,,0,2,2,12,0,19,19,19,,,,,,,,,,,,,,,,,,,,,,,,,,,,,,,,,,,,,,,,,,,,,,,,,,,,,,,,right,1,313.35671509988606,None,313.35671509988606,None,313.35671509988606,314.3580555000808,313.35671509988606,314.3580555000808,313.35671509988606,314.3580555000808,313.35671509988606,314.3580555000808,313.35671509988606,313.85747010004707,313.35671509988606,313.85747010004707,313.35671509988606,313.85747010004707,313.35671509988606,313.85747010004707,313.35671509988606,None,0.06310669984668493,,,,,11038,001,2024_Mar_11_1635,nback,2021.2.3,59.83706367487503,
2-back,instructions\back-2.png,conditions\24back-e.xlsx,,,,,,,,,,,,,,,,,,,,,,,0,2,2,12,,,,,,,,,,,,,,,,,,,,,,,,,,,,,,,,,,,,,,,,,,,,,,,,,,,,,,,,,,,,,,,,,,,,,,,,,,,,,,,,,,,,,314.85909290006384,None,,,11038,001,2024_Mar_11_1635,nback,2021.2.3,59.83706367487503,
2-back,instructions\back-2.png,conditions\22back-e.xlsx,,,experiment,2,2,stim\gray.png,stim\yellow.png,stim\gray.png,stim\gray.png,None,,,,,,,,,,,,,0,3,3,8,0,0,0,0,,,,,,,,,,,,,,,316.0107855000533,320.5177142000757,320.48468529991806,None,,,,,,,,,,,,,,,,,,,,,,,,,,,,,,,,,,,,,,None,1,320.86831719987094,None,320.86831719987094,None,320.86831719987094,321.8693731999956,320.86831719987094,321.8693731999956,320.86831719987094,321.8693731999956,320.86831719987094,321.8693731999956,320.86831719987094,321.3693649000488,320.86831719987094,321.3693649000488,320.86831719987094,321.3693649000488,320.86831719987094,321.3693649000488,320.86831719987094,None,,,,,,11038,001,2024_Mar_11_1635,nback,2021.2.3,59.83706367487503,
2-back,instructions\back-2.png,conditions\22back-e.xlsx,,,experiment,2,3,stim\gray.png,stim\gray.png,stim\yellow.png,stim\gray.png,None,,,,,,,,,,,,,0,3,3,8,0,1,1,1,,,,,,,,,,,,,,,,,,,,,,,,,,,,,,,,,,,,,,,,,,,,,,,,,,,,,,,,None,1,322.354474700056,None,322.354474700056,None,322.354474700056,323.35557959997095,322.354474700056,323.35557959997095,322.354474700056,323.35557959997095,322.354474700056,323.35557959997095,322.354474700056,322.85513719986193,322.354474700056,322.85513719986193,322.354474700056,322.85513719986193,322.354474700056,322.85513719986193,322.354474700056,None,,,,,,11038,001,2024_Mar_11_1635,nback,2021.2.3,59.83706367487503,
2-back,instructions\back-2.png,conditions\22back-e.xlsx,,,experiment,2,1,stim\yellow.png,stim\gray.png,stim\gray.png,stim\gray.png,left,,,,,,,,,,,,,0,3,3,8,0,2,2,2,,,,,,,,,,,,,,,,,,,,,,,,,,,,,,,,,,,,,,,,,,,,,,,,,,,,,,,,left,1,323.85720010008663,None,323.85720010008663,None,323.85720010008663,324.8582685000729,323.85720010008663,324.8582685000729,323.85720010008663,324.8582685000729,323.85720010008663,324.8582685000729,323.85720010008663,324.3566274000332,323.85720010008663,324.3566274000332,323.85720010008663,324.3566274000332,323.85720010008663,324.3566274000332,323.85720010008663,None,0.29884689999744296,,,,,11038,001,2024_Mar_11_1635,nback,2021.2.3,59.83706367487503,
2-back,instructions\back-2.png,conditions\22back-e.xlsx,,,experiment,2,2,stim\gray.png,stim\yellow.png,stim\gray.png,stim\gray.png,right,,,,,,,,,,,,,0,3,3,8,0,3,3,3,,,,,,,,,,,,,,,,,,,,,,,,,,,,,,,,,,,,,,,,,,,,,,,,,,,,,,,,right,1,325.3581351998728,None,325.3581351998728,None,325.3581351998728,326.36046739993617,325.3581351998728,326.36046739993617,325.3581351998728,326.36046739993617,325.3581351998728,326.36046739993617,325.3581351998728,325.8597512000706,325.3581351998728,325.8597512000706,325.3581351998728,325.8597512000706,325.3581351998728,325.8597512000706,325.3581351998728,None,0.2059104999061674,,,,,11038,001,2024_Mar_11_1635,nback,2021.2.3,59.83706367487503,
2-back,instructions\back-2.png,conditions\22back-e.xlsx,,,experiment,2,1,stim\yellow.png,stim\gray.png,stim\gray.png,stim\gray.png,up,,,,,,,,,,,,,0,3,3,8,0,4,4,4,,,,,,,,,,,,,,,,,,,,,,,,,,,,,,,,,,,,,,,,,,,,,,,,,,,,,,,,up,1,326.86029069987126,None,326.86029069987126,None,326.86029069987126,327.86192509997636,326.86029069987126,327.86192509997636,326.86029069987126,327.86192509997636,326.86029069987126,327.86192509997636,326.86029069987126,327.36149249994196,326.86029069987126,327.36149249994196,326.86029069987126,327.36149249994196,326.86029069987126,327.36149249994196,326.86029069987126,None,0.09577319980598986,,,,,11038,001,2024_Mar_11_1635,nback,2021.2.3,59.83706367487503,
2-back,instructions\back-2.png,conditions\22back-e.xlsx,,,experiment,2,4,stim\gray.png,stim\gray.png,stim\gray.png,stim\yellow.png,left,,,,,,,,,,,,,0,3,3,8,0,5,5,5,,,,,,,,,,,,,,,,,,,,,,,,,,,,,,,,,,,,,,,,,,,,,,,,,,,,,,,,left,1,328.36275979992934,None,328.36275979992934,None,328.36275979992934,329.3650539999362,328.36275979992934,329.3650539999362,328.36275979992934,329.3650539999362,328.36275979992934,329.3650539999362,328.36275979992934,328.86466369987465,328.36275979992934,328.86466369987465,328.36275979992934,328.86466369987465,328.36275979992934,328.86466369987465,328.36275979992934,None,0.23450210015289485,,,,,11038,001,2024_Mar_11_1635,nback,2021.2.3,59.83706367487503,
2-back,instructions\back-2.png,conditions\22back-e.xlsx,,,experiment,2,3,stim\gray.png,stim\gray.png,stim\yellow.png,stim\gray.png,up,,,,,,,,,,,,,0,3,3,8,0,6,6,6,,,,,,,,,,,,,,,,,,,,,,,,,,,,,,,,,,,,,,,,,,,,,,,,,,,,,,,,up,1,329.8649190000724,None,329.8649190000724,None,329.8649190000724,330.8675227998756,329.8649190000724,330.8675227998756,329.8649190000724,330.8675227998756,329.8649190000724,330.8675227998756,329.8649190000724,330.3656307000201,329.8649190000724,330.3656307000201,329.8649190000724,330.3656307000201,329.8649190000724,330.3656307000201,329.8649190000724,None,0.23527239984832704,,,,,11038,001,2024_Mar_11_1635,nback,2021.2.3,59.83706367487503,
2-back,instructions\back-2.png,conditions\22back-e.xlsx,,,experiment,2,1,stim\yellow.png,stim\gray.png,stim\gray.png,stim\gray.png,down,,,,,,,,,,,,,0,3,3,8,0,7,7,7,,,,,,,,,,,,,,,,,,,,,,,,,,,,,,,,,,,,,,,,,,,,,,,,,,,,,,,,down,1,331.350560199935,None,331.350560199935,None,331.350560199935,332.3524994000327,331.350560199935,332.3524994000327,331.350560199935,332.3524994000327,331.350560199935,332.3524994000327,331.350560199935,331.8512160999235,331.350560199935,331.8512160999235,331.350560199935,331.8512160999235,331.350560199935,331.8512160999235,331.350560199935,None,0.18972869985736907,,,,,11038,001,2024_Mar_11_1635,nback,2021.2.3,59.83706367487503,
2-back,instructions\back-2.png,conditions\22back-e.xlsx,,,experiment,2,2,stim\gray.png,stim\yellow.png,stim\gray.png,stim\gray.png,right,,,,,,,,,,,,,0,3,3,8,0,8,8,8,,,,,,,,,,,,,,,,,,,,,,,,,,,,,,,,,,,,,,,,,,,,,,,,,,,,,,,,right,1,332.85262929997407,None,332.85262929997407,None,332.85262929997407,333.85519049991854,332.85262929997407,333.85519049991854,332.85262929997407,333.85519049991854,332.85262929997407,333.85519049991854,332.85262929997407,333.3542031000834,332.85262929997407,333.3542031000834,332.85262929997407,333.3542031000834,332.85262929997407,333.3542031000834,332.85262929997407,None,0.10335160000249743,,,,,11038,001,2024_Mar_11_1635,nback,2021.2.3,59.83706367487503,
2-back,instructions\back-2.png,conditions\22back-e.xlsx,,,experiment,2,1,stim\yellow.png,stim\gray.png,stim\gray.png,stim\gray.png,up,,,,,,,,,,,,,0,3,3,8,0,9,9,9,,,,,,,,,,,,,,,,,,,,,,,,,,,,,,,,,,,,,,,,,,,,,,,,,,,,,,,,up,1,334.3558859999757,None,334.3558859999757,None,334.3558859999757,335.35720229987055,334.3558859999757,335.35720229987055,334.3558859999757,335.35720229987055,334.3558859999757,335.35720229987055,334.3558859999757,334.8567210000474,334.3558859999757,334.8567210000474,334.3558859999757,334.8567210000474,334.3558859999757,334.8567210000474,334.3558859999757,None,0.03273630002513528,,,,,11038,001,2024_Mar_11_1635,nback,2021.2.3,59.83706367487503,
2-back,instructions\back-2.png,conditions\22back-e.xlsx,,,experiment,2,4,stim\gray.png,stim\gray.png,stim\gray.png,stim\yellow.png,left,,,,,,,,,,,,,0,3,3,8,0,10,10,10,,,,,,,,,,,,,,,,,,,,,,,,,,,,,,,,,,,,,,,,,,,,,,,,,,,,,,,,left,1,335.85840600007214,None,335.85840600007214,None,335.85840600007214,336.85944449994713,335.85840600007214,336.85944449994713,335.85840600007214,336.85944449994713,335.85840600007214,336.85944449994713,335.85840600007214,336.35799170006067,335.85840600007214,336.35799170006067,335.85840600007214,336.35799170006067,335.85840600007214,336.35799170006067,335.85840600007214,None,0.21799529995769262,,,,,11038,001,2024_Mar_11_1635,nback,2021.2.3,59.83706367487503,
2-back,instructions\back-2.png,conditions\22back-e.xlsx,,,experiment,2,2,stim\gray.png,stim\yellow.png,stim\gray.png,stim\gray.png,up,,,,,,,,,,,,,0,3,3,8,0,11,11,11,,,,,,,,,,,,,,,,,,,,,,,,,,,,,,,,,,,,,,,,,,,,,,,,,,,,,,,,up,1,337.3595038000494,None,337.3595038000494,None,337.3595038000494,338.36190099990927,337.3595038000494,338.36190099990927,337.3595038000494,338.36190099990927,337.3595038000494,338.36190099990927,337.3595038000494,337.8614272000268,337.3595038000494,337.8614272000268,337.3595038000494,337.8614272000268,337.3595038000494,337.8614272000268,337.3595038000494,None,0.18909600004553795,,,,,11038,001,2024_Mar_11_1635,nback,2021.2.3,59.83706367487503,
2-back,instructions\back-2.png,conditions\22back-e.xlsx,,,experiment,2,4,stim\gray.png,stim\gray.png,stim\gray.png,stim\yellow.png,down,,,,,,,,,,,,,0,3,3,8,0,12,12,12,,,,,,,,,,,,,,,,,,,,,,,,,,,,,,,,,,,,,,,,,,,,,,,,,,,,,,,,down,1,338.86183639988303,None,338.86183639988303,None,338.86183639988303,339.86433960008435,338.86183639988303,339.86433960008435,338.86183639988303,339.86433960008435,338.86183639988303,339.86433960008435,338.86183639988303,339.36337010003626,338.86183639988303,339.36337010003626,338.86183639988303,339.36337010003626,338.86183639988303,339.36337010003626,338.86183639988303,None,0.15125930006615818,,,,,11038,001,2024_Mar_11_1635,nback,2021.2.3,59.83706367487503,
2-back,instructions\back-2.png,conditions\22back-e.xlsx,,,experiment,2,3,stim\gray.png,stim\gray.png,stim\yellow.png,stim\gray.png,left,,,,,,,,,,,,,0,3,3,8,0,13,13,13,,,,,,,,,,,,,,,,,,,,,,,,,,,,,,,,,,,,,,,,,,,,,,,,,,,,,,,,left,1,340.3639080999419,None,340.3639080999419,None,340.3639080999419,341.36618010001257,340.3639080999419,341.36618010001257,340.3639080999419,341.36618010001257,340.3639080999419,341.36618010001257,340.3639080999419,340.86490960000083,340.3639080999419,340.86490960000083,340.3639080999419,340.86490960000083,340.3639080999419,340.86490960000083,340.3639080999419,None,0.16903379978612065,,,,,11038,001,2024_Mar_11_1635,nback,2021.2.3,59.83706367487503,
2-back,instructions\back-2.png,conditions\22back-e.xlsx,,,experiment,2,3,stim\gray.png,stim\gray.png,stim\yellow.png,stim\gray.png,down,,,,,,,,,,,,,0,3,3,8,0,14,14,14,,,,,,,,,,,,,,,,,,,,,,,,,,,,,,,,,,,,,,,,,,,,,,,,,,,,,,,,down,1,341.86645099986345,None,341.86645099986345,None,341.86645099986345,342.8684030000586,341.86645099986345,342.8684030000586,341.86645099986345,342.8684030000586,341.86645099986345,342.8684030000586,341.86645099986345,342.3679291999433,341.86645099986345,342.3679291999433,341.86645099986345,342.3679291999433,341.86645099986345,342.3679291999433,341.86645099986345,None,0.09828260005451739,,,,,11038,001,2024_Mar_11_1635,nback,2021.2.3,59.83706367487503,
2-back,instructions\back-2.png,conditions\22back-e.xlsx,,,experiment,2,4,stim\gray.png,stim\gray.png,stim\gray.png,stim\yellow.png,right,,,,,,,,,,,,,0,3,3,8,0,15,15,15,,,,,,,,,,,,,,,,,,,,,,,,,,,,,,,,,,,,,,,,,,,,,,,,,,,,,,,,right,1,343.352029300062,None,343.352029300062,None,343.352029300062,344.3535360000096,343.352029300062,344.3535360000096,343.352029300062,344.3535360000096,343.352029300062,344.3535360000096,343.352029300062,343.8534190999344,343.352029300062,343.8534190999344,343.352029300062,343.8534190999344,343.352029300062,343.8534190999344,343.352029300062,None,1.4446213999763131,,,,,11038,001,2024_Mar_11_1635,nback,2021.2.3,59.83706367487503,
2-back,instructions\back-2.png,conditions\22back-e.xlsx,,,experiment,2,2,stim\gray.png,stim\yellow.png,stim\gray.png,stim\gray.png,right,,,,,,,,,,,,,0,3,3,8,0,16,16,16,,,,,,,,,,,,,,,,,,,,,,,,,,,,,,,,,,,,,,,,,,,,,,,,,,,,,,,,down,0,344.85405259998515,None,344.85405259998515,None,344.85405259998515,345.85561269987375,344.85405259998515,345.85561269987375,344.85405259998515,345.85561269987375,344.85405259998515,345.85561269987375,344.85405259998515,345.3546887000557,344.85405259998515,345.3546887000557,344.85405259998515,345.3546887000557,344.85405259998515,345.3546887000557,344.85405259998515,None,1.4626414999365807,,,,,11038,001,2024_Mar_11_1635,nback,2021.2.3,59.83706367487503,
2-back,instructions\back-2.png,conditions\22back-e.xlsx,,,experiment,2,1,stim\yellow.png,stim\gray.png,stim\gray.png,stim\gray.png,down,,,,,,,,,,,,,0,3,3,8,0,17,17,17,,,,,,,,,,,,,,,,,,,,,,,,,,,,,,,,,,,,,,,,,,,,,,,,,,,,,,,,left,0,346.3563898000866,None,346.3563898000866,None,346.3563898000866,347.35859790001996,346.3563898000866,347.35859790001996,346.3563898000866,347.35859790001996,346.3563898000866,347.35859790001996,346.3563898000866,346.85840749996714,346.3563898000866,346.85840749996714,346.3563898000866,346.85840749996714,346.3563898000866,346.85840749996714,346.3563898000866,None,1.4403399999719113,,,,,11038,001,2024_Mar_11_1635,nback,2021.2.3,59.83706367487503,
