backseq,backinstr,backfile,instruction,size_in,Trialtype,back,number,P1,P2,P3,P4,corrAns,trials_practice.thisRepN,trials_practice.thisTrialN,trials_practice.thisN,trials_practice.thisIndex,trials.thisRepN,trials.thisTrialN,trials.thisN,trials.thisIndex,trials_3.thisRepN,trials_3.thisTrialN,trials_3.thisN,trials_3.thisIndex,trials_2.thisRepN,trials_2.thisTrialN,trials_2.thisN,trials_2.thisIndex,trials_4.thisRepN,trials_4.thisTrialN,trials_4.thisN,trials_4.thisIndex,image.started,image.stopped,image_2.started,image_2.stopped,key_resp.keys,key_resp.rt,key_resp.started,key_resp.stopped,image_3.started,image_3.stopped,key_resp_2.keys,key_resp_2.rt,key_resp_2.started,key_resp_2.stopped,image_4.started,image_4.stopped,text.started,text.stopped,H1.started,H1.stopped,H2.started,H2.stopped,H3.started,H3.stopped,H4.started,H4.stopped,key_resp_3.keys,key_resp_3.corr,key_resp_3.rt,key_resp_3.started,key_resp_3.stopped,text_4.started,text_4.stopped,F1.started,F1.stopped,F2.started,F2.stopped,F3.started,F3.stopped,F4.started,F4.stopped,image_7.started,image_7.stopped,text_5.started,text_5.stopped,key_resp_6.keys,key_resp_6.rt,key_resp_6.started,key_resp_6.stopped,image_5.started,image_5.stopped,key_resp_4.keys,key_resp_4.rt,key_resp_4.started,key_resp_4.stopped,key_resp_5.keys,key_resp_5.corr,key_resp_5.rt,key_resp_5.started,key_resp_5.stopped,text_3.started,text_3.stopped,H1_2.started,H1_2.stopped,H2_2.started,H2_2.stopped,H3_2.started,H3_2.stopped,H4_2.started,H4_2.stopped,F1_2.started,F1_2.stopped,F2_2.started,F2_2.stopped,F3_2.started,F3_2.stopped,F4_2.started,F4_2.stopped,image_8.started,image_8.stopped,text_2.started,text_2.stopped,image_6.started,image_6.stopped,participant,session,date,expName,psychopyVersion,frameRate,
,,,,,,,,,,,,,,,,,,,,,,,,,,,,,,,,,8.9384798000101,None,9.890841800021008,None,space,1.586884899996221,9.890841800021008,None,,,,,,,,,,,,,,,,,,,,,,,,,,,,,,,,,,,,,,,,,,,,,,,,,,,,,,,,,,,,,,,,,,,,,,,,,,,,,11036,001,2024_Mar_10_1501,nback,2021.2.3,59.79255570080238,
0-back,instructions\back-0.png,conditions\0back-p.xlsx,instructions\0-BACK.png,"(15, 8)",practice,0,1,stim\yellow.png,stim\gray.png,stim\gray.png,stim\gray.png,up,0,0,0,0,0,0,0,0,0,0,0,0,,,,,,,,,,,,,,,,,11.525317300111055,None,space,5.544594499981031,11.525317300111055,None,17.199925400083885,21.70754550001584,21.69164720014669,None,22.12632740009576,23.126955799991265,22.12632740009576,23.126955799991265,22.12632740009576,23.126955799991265,22.12632740009576,23.126955799991265,up,1,0.7358792999293655,22.12632740009576,None,22.12632740009576,None,22.12632740009576,22.626581200165674,22.12632740009576,22.626581200165674,22.12632740009576,22.626581200165674,22.12632740009576,22.626581200165674,22.12632740009576,None,,,,,,,,,,,,,,,,,,,,,,,,,,,,,,,,,,,,,,,,,,11036,001,2024_Mar_10_1501,nback,2021.2.3,59.79255570080238,
0-back,instructions\back-0.png,conditions\0back-p.xlsx,instructions\0-BACK.png,"(15, 8)",practice,0,2,stim\gray.png,stim\yellow.png,stim\gray.png,stim\gray.png,left,0,0,0,0,0,0,0,0,0,1,1,1,,,,,,,,,,,,,,,,,,,,,,,,,,,23.610415500123054,24.612928400048986,23.610415500123054,24.612928400048986,23.610415500123054,24.612928400048986,23.610415500123054,24.612928400048986,left,1,0.5642007999122143,23.610415500123054,None,23.610415500123054,None,23.610415500123054,24.111793900141492,23.610415500123054,24.111793900141492,23.610415500123054,24.111793900141492,23.610415500123054,24.111793900141492,23.610415500123054,None,,,,,,,,,,,,,,,,,,,,,,,,,,,,,,,,,,,,,,,,,,11036,001,2024_Mar_10_1501,nback,2021.2.3,59.79255570080238,
0-back,instructions\back-0.png,conditions\0back-p.xlsx,instructions\0-BACK.png,"(15, 8)",practice,0,3,stim\gray.png,stim\gray.png,stim\yellow.png,stim\gray.png,right,0,0,0,0,0,0,0,0,0,2,2,2,,,,,,,,,,,,,,,,,,,,,,,,,,,25.113194900099188,26.114990700036287,25.113194900099188,26.114990700036287,25.113194900099188,26.114990700036287,25.113194900099188,26.114990700036287,right,1,0.3891819999553263,25.113194900099188,None,25.113194900099188,None,25.113194900099188,25.61372490017675,25.113194900099188,25.61372490017675,25.113194900099188,25.61372490017675,25.113194900099188,25.61372490017675,25.113194900099188,None,,,,,,,,,,,,,,,,,,,,,,,,,,,,,,,,,,,,,,,,,,11036,001,2024_Mar_10_1501,nback,2021.2.3,59.79255570080238,
0-back,instructions\back-0.png,conditions\0back-p.xlsx,instructions\0-BACK.png,"(15, 8)",practice,0,4,stim\gray.png,stim\gray.png,stim\gray.png,stim\yellow.png,down,0,0,0,0,0,0,0,0,0,3,3,3,,,,,,,,,,,,,,,,,,,,,,,,,,,26.615066200029105,27.616626100149006,26.615066200029105,27.616626100149006,26.615066200029105,27.616626100149006,26.615066200029105,27.616626100149006,down,1,0.3271153001114726,26.615066200029105,None,26.615066200029105,None,26.615066200029105,27.11674079997465,26.615066200029105,27.11674079997465,26.615066200029105,27.11674079997465,26.615066200029105,27.11674079997465,26.615066200029105,None,,,,,,,,,,,,,,,,,,,,,,,,,,,,,,,,,,,,,,,,,,11036,001,2024_Mar_10_1501,nback,2021.2.3,59.79255570080238,
0-back,instructions\back-0.png,conditions\0back-p.xlsx,instructions\0-BACK.png,"(15, 8)",practice,0,2,stim\gray.png,stim\yellow.png,stim\gray.png,stim\gray.png,left,0,0,0,0,0,0,0,0,0,4,4,4,,,,,,,,,,,,,,,,,,,,,,,,,,,28.117097000125796,29.11874149995856,28.117097000125796,29.11874149995856,28.117097000125796,29.11874149995856,28.117097000125796,29.11874149995856,left,1,0.393244800157845,28.117097000125796,None,28.117097000125796,None,28.117097000125796,28.618034000042826,28.117097000125796,28.618034000042826,28.117097000125796,28.618034000042826,28.117097000125796,28.618034000042826,28.117097000125796,None,,,,,,,,,,,,,,,,,,,,,,,,,,,,,,,,,,,,,,,,,,11036,001,2024_Mar_10_1501,nback,2021.2.3,59.79255570080238,
0-back,instructions\back-0.png,conditions\0back-p.xlsx,instructions\0-BACK.png,"(15, 8)",practice,0,1,stim\yellow.png,stim\gray.png,stim\gray.png,stim\gray.png,up,0,0,0,0,0,0,0,0,0,5,5,5,,,,,,,,,,,,,,,,,,,,,,,,,,,29.602937299991027,30.605246900115162,29.602937299991027,30.605246900115162,29.602937299991027,30.605246900115162,29.602937299991027,30.605246900115162,up,1,0.40308550000190735,29.602937299991027,None,29.602937299991027,None,29.602937299991027,30.103648600168526,29.602937299991027,30.103648600168526,29.602937299991027,30.103648600168526,29.602937299991027,30.103648600168526,29.602937299991027,None,,,,,,,,,,,,,,,,,,,,,,,,,,,,,,,,,,,,,,,,,,11036,001,2024_Mar_10_1501,nback,2021.2.3,59.79255570080238,
0-back,instructions\back-0.png,conditions\0back-p.xlsx,instructions\0-BACK.png,"(15, 8)",practice,0,4,stim\gray.png,stim\gray.png,stim\gray.png,stim\yellow.png,down,0,0,0,0,0,0,0,0,0,6,6,6,,,,,,,,,,,,,,,,,,,,,,,,,,,31.105071200057864,32.1066950999666,31.105071200057864,32.1066950999666,31.105071200057864,32.1066950999666,31.105071200057864,32.1066950999666,down,1,0.5093354999553412,31.105071200057864,None,31.105071200057864,None,31.105071200057864,31.606522700050846,31.105071200057864,31.606522700050846,31.105071200057864,31.606522700050846,31.105071200057864,31.606522700050846,31.105071200057864,None,,,,,,,,,,,,,,,,,,,,,,,,,,,,,,,,,,,,,,,,,,11036,001,2024_Mar_10_1501,nback,2021.2.3,59.79255570080238,
0-back,instructions\back-0.png,conditions\0back-p.xlsx,instructions\0-BACK.png,"(15, 8)",practice,0,3,stim\gray.png,stim\gray.png,stim\yellow.png,stim\gray.png,right,0,0,0,0,0,0,0,0,0,7,7,7,,,,,,,,,,,,,,,,,,,,,,,,,,,32.60748050012626,33.60919090011157,32.60748050012626,33.60919090011157,32.60748050012626,33.60919090011157,32.60748050012626,33.60919090011157,right,1,0.3589975000359118,32.60748050012626,None,32.60748050012626,None,32.60748050012626,33.10918650007807,32.60748050012626,33.10918650007807,32.60748050012626,33.10918650007807,32.60748050012626,33.10918650007807,32.60748050012626,None,,,,,,,,,,,,,,,,,,,,,,,,,,,,,,,,,,,,,,,,,,11036,001,2024_Mar_10_1501,nback,2021.2.3,59.79255570080238,
0-back,instructions\back-0.png,conditions\0back-p.xlsx,instructions\0-BACK.png,"(15, 8)",practice,0,3,stim\gray.png,stim\gray.png,stim\yellow.png,stim\gray.png,right,0,0,0,0,0,0,0,0,0,8,8,8,,,,,,,,,,,,,,,,,,,,,,,,,,,34.10977320000529,35.1115240000654,34.10977320000529,35.1115240000654,34.10977320000529,35.1115240000654,34.10977320000529,35.1115240000654,right,1,0.3923888998106122,34.10977320000529,None,34.10977320000529,None,34.10977320000529,34.610369300004095,34.10977320000529,34.610369300004095,34.10977320000529,34.610369300004095,34.10977320000529,34.610369300004095,34.10977320000529,None,,,,,,,,,,,,,,,,,,,,,,,,,,,,,,,,,,,,,,,,,,11036,001,2024_Mar_10_1501,nback,2021.2.3,59.79255570080238,
0-back,instructions\back-0.png,conditions\0back-p.xlsx,instructions\0-BACK.png,"(15, 8)",practice,0,4,stim\gray.png,stim\gray.png,stim\gray.png,stim\yellow.png,down,0,0,0,0,0,0,0,0,0,9,9,9,,,,,,,,,,,,,,,,,,,,,,,,,,,35.61155720008537,36.61396970017813,35.61155720008537,36.61396970017813,35.61155720008537,36.61396970017813,35.61155720008537,36.61396970017813,down,1,0.49905320000834763,35.61155720008537,None,35.61155720008537,None,35.61155720008537,36.11271769995801,35.61155720008537,36.11271769995801,35.61155720008537,36.11271769995801,35.61155720008537,36.11271769995801,35.61155720008537,None,,,,,,,,,,,,,,,,,,,,,,,,,,,,,,,,,,,,,,,,,,11036,001,2024_Mar_10_1501,nback,2021.2.3,59.79255570080238,
0-back,instructions\back-0.png,conditions\0back-p.xlsx,instructions\0-BACK.png,"(15, 8)",practice,0,1,stim\yellow.png,stim\gray.png,stim\gray.png,stim\gray.png,up,0,0,0,0,0,0,0,0,0,10,10,10,,,,,,,,,,,,,,,,,,,,,,,,,,,37.11544690001756,38.11573110008612,37.11544690001756,38.11573110008612,37.11544690001756,38.11573110008612,37.11544690001756,38.11573110008612,up,1,0.4109362999442965,37.11544690001756,None,37.11544690001756,None,37.11544690001756,37.61505490005948,37.11544690001756,37.61505490005948,37.11544690001756,37.61505490005948,37.11544690001756,37.61505490005948,37.11544690001756,None,,,,,,,,,,,,,,,,,,,,,,,,,,,,,,,,,,,,,,,,,,11036,001,2024_Mar_10_1501,nback,2021.2.3,59.79255570080238,
0-back,instructions\back-0.png,conditions\0back-p.xlsx,instructions\0-BACK.png,"(15, 8)",practice,0,2,stim\gray.png,stim\yellow.png,stim\gray.png,stim\gray.png,left,0,0,0,0,0,0,0,0,0,11,11,11,,,,,,,,,,,,,,,,,,,,,,,,,,,38.61639229999855,39.618686500005424,38.61639229999855,39.618686500005424,38.61639229999855,39.618686500005424,38.61639229999855,39.618686500005424,left,1,0.29416669998317957,38.61639229999855,None,38.61639229999855,None,38.61639229999855,39.118022199952975,38.61639229999855,39.118022199952975,38.61639229999855,39.118022199952975,38.61639229999855,39.118022199952975,38.61639229999855,None,,,,,,,,,,,,,,,,,,,,,,,,,,,,,,,,,,,,,,,,,,11036,001,2024_Mar_10_1501,nback,2021.2.3,59.79255570080238,
0-back,instructions\back-0.png,conditions\0back-p.xlsx,instructions\0-BACK.png,"(15, 8)",practice,0,4,stim\gray.png,stim\gray.png,stim\gray.png,stim\yellow.png,down,0,0,0,0,0,0,0,0,0,12,12,12,,,,,,,,,,,,,,,,,,,,,,,,,,,40.118717200122774,41.12090910016559,40.118717200122774,41.12090910016559,40.118717200122774,41.12090910016559,40.118717200122774,41.12090910016559,down,1,0.3918735000770539,40.118717200122774,None,40.118717200122774,None,40.118717200122774,40.61963169998489,40.118717200122774,40.61963169998489,40.118717200122774,40.61963169998489,40.118717200122774,40.61963169998489,40.118717200122774,None,,,,,,,,,,,,,,,,,,,,,,,,,,,,,,,,,,,,,,,,,,11036,001,2024_Mar_10_1501,nback,2021.2.3,59.79255570080238,
0-back,instructions\back-0.png,conditions\0back-p.xlsx,instructions\0-BACK.png,"(15, 8)",practice,0,3,stim\gray.png,stim\gray.png,stim\yellow.png,stim\gray.png,right,0,0,0,0,0,0,0,0,0,13,13,13,,,,,,,,,,,,,,,,,,,,,,,,,,,41.6041627000086,42.60666070017032,41.6041627000086,42.60666070017032,41.6041627000086,42.60666070017032,41.6041627000086,42.60666070017032,right,1,0.322569299954921,41.6041627000086,None,41.6041627000086,None,41.6041627000086,42.10522669996135,41.6041627000086,42.10522669996135,41.6041627000086,42.10522669996135,41.6041627000086,42.10522669996135,41.6041627000086,None,,,,,,,,,,,,,,,,,,,,,,,,,,,,,,,,,,,,,,,,,,11036,001,2024_Mar_10_1501,nback,2021.2.3,59.79255570080238,
0-back,instructions\back-0.png,conditions\0back-p.xlsx,instructions\0-BACK.png,"(15, 8)",practice,0,1,stim\yellow.png,stim\gray.png,stim\gray.png,stim\gray.png,up,0,0,0,0,0,0,0,0,0,14,14,14,,,,,,,,,,,,,,,,,,,,,,,,,,,43.10670380014926,44.109431999968365,43.10670380014926,44.109431999968365,43.10670380014926,44.109431999968365,43.10670380014926,44.109431999968365,up,1,0.3800117000937462,43.10670380014926,None,43.10670380014926,None,43.10670380014926,43.607334200059995,43.10670380014926,43.607334200059995,43.10670380014926,43.607334200059995,43.10670380014926,43.607334200059995,43.10670380014926,None,,,,,,,,,,,,,,,,,,,,,,,,,,,,,,,,,,,,,,,,,,11036,001,2024_Mar_10_1501,nback,2021.2.3,59.79255570080238,
0-back,instructions\back-0.png,conditions\0back-p.xlsx,instructions\0-BACK.png,"(15, 8)",practice,0,2,stim\gray.png,stim\yellow.png,stim\gray.png,stim\gray.png,left,0,0,0,0,0,0,0,0,0,15,15,15,,,,,,,,,,,,,,,,,,,,,,,,,,,44.60889480006881,45.61029310012236,44.60889480006881,45.61029310012236,44.60889480006881,45.61029310012236,44.60889480006881,45.61029310012236,left,1,0.3428319999948144,44.60889480006881,None,44.60889480006881,None,44.60889480006881,45.10970519995317,44.60889480006881,45.10970519995317,44.60889480006881,45.10970519995317,44.60889480006881,45.10970519995317,44.60889480006881,None,,,,,,,,,,,,,,,,,,,,,,,,,,,,,,,,,,,,,,,,,,11036,001,2024_Mar_10_1501,nback,2021.2.3,59.79255570080238,
0-back,instructions\back-0.png,conditions\0back-p.xlsx,instructions\0-BACK.png,"(15, 8)",practice,0,3,stim\gray.png,stim\gray.png,stim\yellow.png,stim\gray.png,right,0,0,0,0,0,0,0,0,0,16,16,16,,,,,,,,,,,,,,,,,,,,,,,,,,,46.11213560006581,47.113323900150135,46.11213560006581,47.113323900150135,46.11213560006581,47.113323900150135,46.11213560006581,47.113323900150135,right,1,0.4071319999638945,46.11213560006581,None,46.11213560006581,None,46.11213560006581,46.61295019998215,46.11213560006581,46.61295019998215,46.11213560006581,46.61295019998215,46.11213560006581,46.61295019998215,46.11213560006581,None,,,,,,,,,,,,,,,,,,,,,,,,,,,,,,,,,,,,,,,,,,11036,001,2024_Mar_10_1501,nback,2021.2.3,59.79255570080238,
0-back,instructions\back-0.png,conditions\0back-p.xlsx,instructions\0-BACK.png,"(15, 8)",practice,0,1,stim\yellow.png,stim\gray.png,stim\gray.png,stim\gray.png,up,0,0,0,0,0,0,0,0,0,17,17,17,,,,,,,,,,,,,,,,,,,,,,,,,,,47.61319699999876,48.614967399975285,47.61319699999876,48.614967399975285,47.61319699999876,48.614967399975285,47.61319699999876,48.614967399975285,up,1,0.4733637999743223,47.61319699999876,None,47.61319699999876,None,47.61319699999876,48.11507500009611,47.61319699999876,48.11507500009611,47.61319699999876,48.11507500009611,47.61319699999876,48.11507500009611,47.61319699999876,None,,,,,,,,,,,,,,,,,,,,,,,,,,,,,,,,,,,,,,,,,,11036,001,2024_Mar_10_1501,nback,2021.2.3,59.79255570080238,
0-back,instructions\back-0.png,conditions\0back-p.xlsx,instructions\0-BACK.png,"(15, 8)",practice,0,4,stim\gray.png,stim\gray.png,stim\gray.png,stim\yellow.png,down,0,0,0,0,0,0,0,0,0,18,18,18,,,,,,,,,,,,,,,,,,,,,,,,,,,49.11553750000894,50.11797230015509,49.11553750000894,50.11797230015509,49.11553750000894,50.11797230015509,49.11553750000894,50.11797230015509,down,1,0.3550295000895858,49.11553750000894,None,49.11553750000894,None,49.11553750000894,49.61752610001713,49.11553750000894,49.61752610001713,49.11553750000894,49.61752610001713,49.11553750000894,49.61752610001713,49.11553750000894,None,,,,,,,,,,,,,,,,,,,,,,,,,,,,,,,,,,,,,,,,,,11036,001,2024_Mar_10_1501,nback,2021.2.3,59.79255570080238,
0-back,instructions\back-0.png,conditions\0back-p.xlsx,instructions\0-BACK.png,"(15, 8)",practice,0,2,stim\gray.png,stim\yellow.png,stim\gray.png,stim\gray.png,left,0,0,0,0,0,0,0,0,0,19,19,19,,,,,,,,,,,,,,,,,,,,,,,,,,,50.617971500149,51.62033020006493,50.617971500149,51.62033020006493,50.617971500149,51.62033020006493,50.617971500149,51.62033020006493,left,1,0.2689487999305129,50.617971500149,None,50.617971500149,None,50.617971500149,51.118593000108376,50.617971500149,51.118593000108376,50.617971500149,51.118593000108376,50.617971500149,51.118593000108376,50.617971500149,None,,,,,,,,,,,,,,,,,,,,,,,,,,,,,,,,,,,,,,,,,,11036,001,2024_Mar_10_1501,nback,2021.2.3,59.79255570080238,
0-back,instructions\back-0.png,conditions\0back-p.xlsx,instructions\0-BACK.png,"(15, 8)",,,,,,,,,0,0,0,0,0,0,0,0,,,,,,,,,,,,,,,,,,,,,,,,,,,,,,,,,,,,,,,,,,,,,,,,,,,,,,,,,,,,,,,,,,,,,,,,,,,,,,,,,,,,,,,,,,,,,,,,,11036,001,2024_Mar_10_1501,nback,2021.2.3,59.79255570080238,
1-back,instructions\back-1.png,conditions\1back-p.xlsx,instructions\1-BACK.png,"(25, 15)",practice,1,1,stim\yellow.png,stim\gray.png,stim\gray.png,stim\gray.png,None,0,0,0,0,0,1,1,1,0,0,0,0,,,,,,,,,,,,,,,,,52.22052770014852,None,space,3.619003900093958,52.22052770014852,None,55.95938400016166,60.46698800008744,60.44942479999736,None,60.88361190003343,61.88604410015978,60.88361190003343,61.88604410015978,60.88361190003343,61.88604410015978,60.88361190003343,61.88604410015978,None,1,,60.88361190003343,None,60.88361190003343,None,60.88361190003343,61.384149100165814,60.88361190003343,61.384149100165814,60.88361190003343,61.384149100165814,60.88361190003343,61.384149100165814,60.88361190003343,None,,,,,,,,,,,,,,,,,,,,,,,,,,,,,,,,,,,,,,,,,,11036,001,2024_Mar_10_1501,nback,2021.2.3,59.79255570080238,
1-back,instructions\back-1.png,conditions\1back-p.xlsx,instructions\1-BACK.png,"(25, 15)",practice,1,2,stim\gray.png,stim\yellow.png,stim\gray.png,stim\gray.png,up,0,0,0,0,0,1,1,1,0,1,1,1,,,,,,,,,,,,,,,,,,,,,,,,,,,62.36897379998118,63.373011799994856,62.36897379998118,63.373011799994856,62.36897379998118,63.373011799994856,62.36897379998118,63.373011799994856,up,1,0.4079587999731302,62.36897379998118,None,62.36897379998118,None,62.36897379998118,62.8696969000157,62.36897379998118,62.8696969000157,62.36897379998118,62.8696969000157,62.36897379998118,62.8696969000157,62.36897379998118,None,,,,,,,,,,,,,,,,,,,,,,,,,,,,,,,,,,,,,,,,,,11036,001,2024_Mar_10_1501,nback,2021.2.3,59.79255570080238,
1-back,instructions\back-1.png,conditions\1back-p.xlsx,instructions\1-BACK.png,"(25, 15)",practice,1,3,stim\gray.png,stim\gray.png,stim\yellow.png,stim\gray.png,left,0,0,0,0,0,1,1,1,0,2,2,2,,,,,,,,,,,,,,,,,,,,,,,,,,,63.87110300012864,64.87298770016059,63.87110300012864,64.87298770016059,63.87110300012864,64.87298770016059,63.87110300012864,64.87298770016059,left,1,0.28056870005093515,63.87110300012864,None,63.87110300012864,None,63.87110300012864,64.37202540016733,63.87110300012864,64.37202540016733,63.87110300012864,64.37202540016733,63.87110300012864,64.37202540016733,63.87110300012864,None,,,,,,,,,,,,,,,,,,,,,,,,,,,,,,,,,,,,,,,,,,11036,001,2024_Mar_10_1501,nback,2021.2.3,59.79255570080238,
1-back,instructions\back-1.png,conditions\1back-p.xlsx,instructions\1-BACK.png,"(25, 15)",practice,1,4,stim\gray.png,stim\gray.png,stim\gray.png,stim\yellow.png,right,0,0,0,0,0,1,1,1,0,3,3,3,,,,,,,,,,,,,,,,,,,,,,,,,,,65.37349699996412,66.37501049996354,65.37349699996412,66.37501049996354,65.37349699996412,66.37501049996354,65.37349699996412,66.37501049996354,right,1,0.29044470004737377,65.37349699996412,None,65.37349699996412,None,65.37349699996412,65.87430829997174,65.37349699996412,65.87430829997174,65.37349699996412,65.87430829997174,65.37349699996412,65.87430829997174,65.37349699996412,None,,,,,,,,,,,,,,,,,,,,,,,,,,,,,,,,,,,,,,,,,,11036,001,2024_Mar_10_1501,nback,2021.2.3,59.79255570080238,
1-back,instructions\back-1.png,conditions\1back-p.xlsx,instructions\1-BACK.png,"(25, 15)",practice,1,2,stim\gray.png,stim\yellow.png,stim\gray.png,stim\gray.png,down,0,0,0,0,0,1,1,1,0,4,4,4,,,,,,,,,,,,,,,,,,,,,,,,,,,66.87588579999283,67.87814160017297,66.87588579999283,67.87814160017297,66.87588579999283,67.87814160017297,66.87588579999283,67.87814160017297,down,1,0.22760239988565445,66.87588579999283,None,66.87588579999283,None,66.87588579999283,67.37639930006117,66.87588579999283,67.37639930006117,66.87588579999283,67.37639930006117,66.87588579999283,67.37639930006117,66.87588579999283,None,,,,,,,,,,,,,,,,,,,,,,,,,,,,,,,,,,,,,,,,,,11036,001,2024_Mar_10_1501,nback,2021.2.3,59.79255570080238,
1-back,instructions\back-1.png,conditions\1back-p.xlsx,instructions\1-BACK.png,"(25, 15)",practice,1,1,stim\yellow.png,stim\gray.png,stim\gray.png,stim\gray.png,left,0,0,0,0,0,1,1,1,0,5,5,5,,,,,,,,,,,,,,,,,,,,,,,,,,,68.37832220015116,69.38040060014464,68.37832220015116,69.38040060014464,68.37832220015116,69.38040060014464,68.37832220015116,69.38040060014464,left,1,0.2529307999648154,68.37832220015116,None,68.37832220015116,None,68.37832220015116,68.87948500015773,68.37832220015116,68.87948500015773,68.37832220015116,68.87948500015773,68.37832220015116,68.87948500015773,68.37832220015116,None,,,,,,,,,,,,,,,,,,,,,,,,,,,,,,,,,,,,,,,,,,11036,001,2024_Mar_10_1501,nback,2021.2.3,59.79255570080238,
1-back,instructions\back-1.png,conditions\1back-p.xlsx,instructions\1-BACK.png,"(25, 15)",practice,1,4,stim\gray.png,stim\gray.png,stim\gray.png,stim\yellow.png,up,0,0,0,0,0,1,1,1,0,6,6,6,,,,,,,,,,,,,,,,,,,,,,,,,,,69.8636419000104,70.86591630009934,69.8636419000104,70.86591630009934,69.8636419000104,70.86591630009934,69.8636419000104,70.86591630009934,up,1,0.22434810013510287,69.8636419000104,None,69.8636419000104,None,69.8636419000104,70.36534430016764,69.8636419000104,70.36534430016764,69.8636419000104,70.36534430016764,69.8636419000104,70.36534430016764,69.8636419000104,None,,,,,,,,,,,,,,,,,,,,,,,,,,,,,,,,,,,,,,,,,,11036,001,2024_Mar_10_1501,nback,2021.2.3,59.79255570080238,
1-back,instructions\back-1.png,conditions\1back-p.xlsx,instructions\1-BACK.png,"(25, 15)",practice,1,3,stim\gray.png,stim\gray.png,stim\yellow.png,stim\gray.png,down,0,0,0,0,0,1,1,1,0,7,7,7,,,,,,,,,,,,,,,,,,,,,,,,,,,71.36592320003547,72.36722950008698,71.36592320003547,72.36722950008698,71.36592320003547,72.36722950008698,71.36592320003547,72.36722950008698,down,1,0.24941970012150705,71.36592320003547,None,71.36592320003547,None,71.36592320003547,71.8666495999787,71.36592320003547,71.8666495999787,71.36592320003547,71.8666495999787,71.36592320003547,71.8666495999787,71.36592320003547,None,,,,,,,,,,,,,,,,,,,,,,,,,,,,,,,,,,,,,,,,,,11036,001,2024_Mar_10_1501,nback,2021.2.3,59.79255570080238,
1-back,instructions\back-1.png,conditions\1back-p.xlsx,instructions\1-BACK.png,"(25, 15)",practice,1,3,stim\gray.png,stim\gray.png,stim\yellow.png,stim\gray.png,right,0,0,0,0,0,1,1,1,0,8,8,8,,,,,,,,,,,,,,,,,,,,,,,,,,,72.8680204001721,73.87014340003952,72.8680204001721,73.87014340003952,72.8680204001721,73.87014340003952,72.8680204001721,73.87014340003952,right,1,0.24343419983051717,72.8680204001721,None,72.8680204001721,None,72.8680204001721,73.36963750002906,72.8680204001721,73.36963750002906,72.8680204001721,73.36963750002906,72.8680204001721,73.36963750002906,72.8680204001721,None,,,,,,,,,,,,,,,,,,,,,,,,,,,,,,,,,,,,,,,,,,11036,001,2024_Mar_10_1501,nback,2021.2.3,59.79255570080238,
1-back,instructions\back-1.png,conditions\1back-p.xlsx,instructions\1-BACK.png,"(25, 15)",practice,1,4,stim\gray.png,stim\gray.png,stim\gray.png,stim\yellow.png,right,0,0,0,0,0,1,1,1,0,9,9,9,,,,,,,,,,,,,,,,,,,,,,,,,,,74.37048929999582,75.37191880005412,74.37048929999582,75.37191880005412,74.37048929999582,75.37191880005412,74.37048929999582,75.37191880005412,right,1,0.23680660012178123,74.37048929999582,None,74.37048929999582,None,74.37048929999582,74.87093710014597,74.37048929999582,74.87093710014597,74.37048929999582,74.87093710014597,74.37048929999582,74.87093710014597,74.37048929999582,None,,,,,,,,,,,,,,,,,,,,,,,,,,,,,,,,,,,,,,,,,,11036,001,2024_Mar_10_1501,nback,2021.2.3,59.79255570080238,
1-back,instructions\back-1.png,conditions\1back-p.xlsx,instructions\1-BACK.png,"(25, 15)",practice,1,1,stim\yellow.png,stim\gray.png,stim\gray.png,stim\gray.png,down,0,0,0,0,0,1,1,1,0,10,10,10,,,,,,,,,,,,,,,,,,,,,,,,,,,75.87254520016722,76.87503130012192,75.87254520016722,76.87503130012192,75.87254520016722,76.87503130012192,75.87254520016722,76.87503130012192,down,1,0.31128149991855025,75.87254520016722,None,75.87254520016722,None,75.87254520016722,76.37365810014307,75.87254520016722,76.37365810014307,75.87254520016722,76.37365810014307,75.87254520016722,76.37365810014307,75.87254520016722,None,,,,,,,,,,,,,,,,,,,,,,,,,,,,,,,,,,,,,,,,,,11036,001,2024_Mar_10_1501,nback,2021.2.3,59.79255570080238,
1-back,instructions\back-1.png,conditions\1back-p.xlsx,instructions\1-BACK.png,"(25, 15)",practice,1,2,stim\gray.png,stim\yellow.png,stim\gray.png,stim\gray.png,up,0,0,0,0,0,1,1,1,0,11,11,11,,,,,,,,,,,,,,,,,,,,,,,,,,,77.3762303001713,78.37709369999357,77.3762303001713,78.37709369999357,77.3762303001713,78.37709369999357,77.3762303001713,78.37709369999357,up,1,0.2883339999243617,77.3762303001713,None,77.3762303001713,None,77.3762303001713,77.87683330010623,77.3762303001713,77.87683330010623,77.3762303001713,77.87683330010623,77.3762303001713,77.87683330010623,77.3762303001713,None,,,,,,,,,,,,,,,,,,,,,,,,,,,,,,,,,,,,,,,,,,11036,001,2024_Mar_10_1501,nback,2021.2.3,59.79255570080238,
1-back,instructions\back-1.png,conditions\1back-p.xlsx,instructions\1-BACK.png,"(25, 15)",practice,1,4,stim\gray.png,stim\gray.png,stim\gray.png,stim\yellow.png,left,0,0,0,0,0,1,1,1,0,12,12,12,,,,,,,,,,,,,,,,,,,,,,,,,,,78.87719570007175,79.87868320010602,78.87719570007175,79.87868320010602,78.87719570007175,79.87868320010602,78.87719570007175,79.87868320010602,left,1,0.2345853999722749,78.87719570007175,None,78.87719570007175,None,78.87719570007175,79.37809929996729,78.87719570007175,79.37809929996729,78.87719570007175,79.37809929996729,78.87719570007175,79.37809929996729,78.87719570007175,None,,,,,,,,,,,,,,,,,,,,,,,,,,,,,,,,,,,,,,,,,,11036,001,2024_Mar_10_1501,nback,2021.2.3,59.79255570080238,
1-back,instructions\back-1.png,conditions\1back-p.xlsx,instructions\1-BACK.png,"(25, 15)",practice,1,3,stim\gray.png,stim\gray.png,stim\yellow.png,stim\gray.png,down,0,0,0,0,0,1,1,1,0,13,13,13,,,,,,,,,,,,,,,,,,,,,,,,,,,80.37940710014664,81.38094209996052,80.37940710014664,81.38094209996052,80.37940710014664,81.38094209996052,80.37940710014664,81.38094209996052,down,1,0.2455084000248462,80.37940710014664,None,80.37940710014664,None,80.37940710014664,80.8810400001239,80.37940710014664,80.8810400001239,80.37940710014664,80.8810400001239,80.37940710014664,80.8810400001239,80.37940710014664,None,,,,,,,,,,,,,,,,,,,,,,,,,,,,,,,,,,,,,,,,,,11036,001,2024_Mar_10_1501,nback,2021.2.3,59.79255570080238,
1-back,instructions\back-1.png,conditions\1back-p.xlsx,instructions\1-BACK.png,"(25, 15)",practice,1,1,stim\yellow.png,stim\gray.png,stim\gray.png,stim\gray.png,right,0,0,0,0,0,1,1,1,0,14,14,14,,,,,,,,,,,,,,,,,,,,,,,,,,,81.86512790014967,82.86724409996532,81.86512790014967,82.86724409996532,81.86512790014967,82.86724409996532,81.86512790014967,82.86724409996532,right,1,0.30279240012168884,81.86512790014967,None,81.86512790014967,None,81.86512790014967,82.36583160003647,81.86512790014967,82.36583160003647,81.86512790014967,82.36583160003647,81.86512790014967,82.36583160003647,81.86512790014967,None,,,,,,,,,,,,,,,,,,,,,,,,,,,,,,,,,,,,,,,,,,11036,001,2024_Mar_10_1501,nback,2021.2.3,59.79255570080238,
1-back,instructions\back-1.png,conditions\1back-p.xlsx,instructions\1-BACK.png,"(25, 15)",practice,1,2,stim\gray.png,stim\yellow.png,stim\gray.png,stim\gray.png,up,0,0,0,0,0,1,1,1,0,15,15,15,,,,,,,,,,,,,,,,,,,,,,,,,,,83.36750719998963,84.36897860001773,83.36750719998963,84.36897860001773,83.36750719998963,84.36897860001773,83.36750719998963,84.36897860001773,up,1,0.34432170004583895,83.36750719998963,None,83.36750719998963,None,83.36750719998963,83.86789979995228,83.36750719998963,83.86789979995228,83.36750719998963,83.86789979995228,83.36750719998963,83.86789979995228,83.36750719998963,None,,,,,,,,,,,,,,,,,,,,,,,,,,,,,,,,,,,,,,,,,,11036,001,2024_Mar_10_1501,nback,2021.2.3,59.79255570080238,
1-back,instructions\back-1.png,conditions\1back-p.xlsx,instructions\1-BACK.png,"(25, 15)",practice,1,3,stim\gray.png,stim\gray.png,stim\yellow.png,stim\gray.png,left,0,0,0,0,0,1,1,1,0,16,16,16,,,,,,,,,,,,,,,,,,,,,,,,,,,84.86952840001322,85.87151610013098,84.86952840001322,85.87151610013098,84.86952840001322,85.87151610013098,84.86952840001322,85.87151610013098,left,1,0.3222759000491351,84.86952840001322,None,84.86952840001322,None,84.86952840001322,85.37140449997969,84.86952840001322,85.37140449997969,84.86952840001322,85.37140449997969,84.86952840001322,85.37140449997969,84.86952840001322,None,,,,,,,,,,,,,,,,,,,,,,,,,,,,,,,,,,,,,,,,,,11036,001,2024_Mar_10_1501,nback,2021.2.3,59.79255570080238,
1-back,instructions\back-1.png,conditions\1back-p.xlsx,instructions\1-BACK.png,"(25, 15)",practice,1,1,stim\yellow.png,stim\gray.png,stim\gray.png,stim\gray.png,right,0,0,0,0,0,1,1,1,0,17,17,17,,,,,,,,,,,,,,,,,,,,,,,,,,,86.3718526000157,87.37416959996335,86.3718526000157,87.37416959996335,86.3718526000157,87.37416959996335,86.3718526000157,87.37416959996335,right,1,0.196043899981305,86.3718526000157,None,86.3718526000157,None,86.3718526000157,86.87344100000337,86.3718526000157,86.87344100000337,86.3718526000157,86.87344100000337,86.3718526000157,86.87344100000337,86.3718526000157,None,,,,,,,,,,,,,,,,,,,,,,,,,,,,,,,,,,,,,,,,,,11036,001,2024_Mar_10_1501,nback,2021.2.3,59.79255570080238,
1-back,instructions\back-1.png,conditions\1back-p.xlsx,instructions\1-BACK.png,"(25, 15)",practice,1,4,stim\gray.png,stim\gray.png,stim\gray.png,stim\yellow.png,up,0,0,0,0,0,1,1,1,0,18,18,18,,,,,,,,,,,,,,,,,,,,,,,,,,,87.87420059996657,88.87603659997694,87.87420059996657,88.87603659997694,87.87420059996657,88.87603659997694,87.87420059996657,88.87603659997694,up,1,0.2459726999513805,87.87420059996657,None,87.87420059996657,None,87.87420059996657,88.37567239999771,87.87420059996657,88.37567239999771,87.87420059996657,88.37567239999771,87.87420059996657,88.37567239999771,87.87420059996657,None,,,,,,,,,,,,,,,,,,,,,,,,,,,,,,,,,,,,,,,,,,11036,001,2024_Mar_10_1501,nback,2021.2.3,59.79255570080238,
1-back,instructions\back-1.png,conditions\1back-p.xlsx,instructions\1-BACK.png,"(25, 15)",practice,1,2,stim\gray.png,stim\yellow.png,stim\gray.png,stim\gray.png,down,0,0,0,0,0,1,1,1,0,19,19,19,,,,,,,,,,,,,,,,,,,,,,,,,,,89.37755480012856,90.37789150001481,89.37755480012856,90.37789150001481,89.37755480012856,90.37789150001481,89.37755480012856,90.37789150001481,down,1,0.32646250003017485,89.37755480012856,None,89.37755480012856,None,89.37755480012856,89.87760390015319,89.37755480012856,89.87760390015319,89.37755480012856,89.87760390015319,89.37755480012856,89.87760390015319,89.37755480012856,None,,,,,,,,,,,,,,,,,,,,,,,,,,,,,,,,,,,,,,,,,,11036,001,2024_Mar_10_1501,nback,2021.2.3,59.79255570080238,
1-back,instructions\back-1.png,conditions\1back-p.xlsx,instructions\1-BACK.png,"(25, 15)",,,,,,,,,0,0,0,0,0,1,1,1,,,,,,,,,,,,,,,,,,,,,,,,,,,,,,,,,,,,,,,,,,,,,,,,,,,,,,,,,,,,,,,,,,,,,,,,,,,,,,,,,,,,,,,,,,,,,,,,,11036,001,2024_Mar_10_1501,nback,2021.2.3,59.79255570080238,
2-back,instructions\back-2.png,conditions\2back-p.xlsx,instructions\2-BACK.png,"(25, 15)",practice,2,1,stim\yellow.png,stim\gray.png,stim\gray.png,stim\gray.png,None,0,0,0,0,0,2,2,2,0,0,0,0,,,,,,,,,,,,,,,,,90.9953841001261,None,space,3.036716900067404,90.9953841001261,None,94.15018590004183,98.65889140008949,98.62554579996504,None,99.07695830008015,100.07713860017247,99.07695830008015,100.07713860017247,99.07695830008015,100.07713860017247,99.07695830008015,100.07713860017247,None,1,,99.07695830008015,None,99.07695830008015,None,99.07695830008015,99.5917855000589,99.07695830008015,99.5917855000589,99.07695830008015,99.5917855000589,99.07695830008015,99.5917855000589,99.07695830008015,None,,,,,,,,,,,,,,,,,,,,,,,,,,,,,,,,,,,,,,,,,,11036,001,2024_Mar_10_1501,nback,2021.2.3,59.79255570080238,
2-back,instructions\back-2.png,conditions\2back-p.xlsx,instructions\2-BACK.png,"(25, 15)",practice,2,2,stim\gray.png,stim\yellow.png,stim\gray.png,stim\gray.png,None,0,0,0,0,0,2,2,2,0,1,1,1,,,,,,,,,,,,,,,,,,,,,,,,,,,100.55963070015423,101.5613492000848,100.55963070015423,101.5613492000848,100.55963070015423,101.5613492000848,100.55963070015423,101.5613492000848,None,1,,100.55963070015423,None,100.55963070015423,None,100.55963070015423,101.06141269998625,100.55963070015423,101.06141269998625,100.55963070015423,101.06141269998625,100.55963070015423,101.06141269998625,100.55963070015423,None,,,,,,,,,,,,,,,,,,,,,,,,,,,,,,,,,,,,,,,,,,11036,001,2024_Mar_10_1501,nback,2021.2.3,59.79255570080238,
2-back,instructions\back-2.png,conditions\2back-p.xlsx,instructions\2-BACK.png,"(25, 15)",practice,2,3,stim\gray.png,stim\gray.png,stim\yellow.png,stim\gray.png,up,0,0,0,0,0,2,2,2,0,2,2,2,,,,,,,,,,,,,,,,,,,,,,,,,,,102.06214840011671,103.06464590015821,102.06214840011671,103.06464590015821,102.06214840011671,103.06464590015821,102.06214840011671,103.06464590015821,up,1,0.26641299994662404,102.06214840011671,None,102.06214840011671,None,102.06214840011671,102.56375760002993,102.06214840011671,102.56375760002993,102.06214840011671,102.56375760002993,102.06214840011671,102.56375760002993,102.06214840011671,None,,,,,,,,,,,,,,,,,,,,,,,,,,,,,,,,,,,,,,,,,,11036,001,2024_Mar_10_1501,nback,2021.2.3,59.79255570080238,
2-back,instructions\back-2.png,conditions\2back-p.xlsx,instructions\2-BACK.png,"(25, 15)",practice,2,4,stim\gray.png,stim\gray.png,stim\gray.png,stim\yellow.png,left,0,0,0,0,0,2,2,2,0,3,3,3,,,,,,,,,,,,,,,,,,,,,,,,,,,103.56568340002559,104.56691809999757,103.56568340002559,104.56691809999757,103.56568340002559,104.56691809999757,103.56568340002559,104.56691809999757,left,1,0.2746994998306036,103.56568340002559,None,103.56568340002559,None,103.56568340002559,104.06598579999991,103.56568340002559,104.06598579999991,103.56568340002559,104.06598579999991,103.56568340002559,104.06598579999991,103.56568340002559,None,,,,,,,,,,,,,,,,,,,,,,,,,,,,,,,,,,,,,,,,,,11036,001,2024_Mar_10_1501,nback,2021.2.3,59.79255570080238,
2-back,instructions\back-2.png,conditions\2back-p.xlsx,instructions\2-BACK.png,"(25, 15)",practice,2,2,stim\gray.png,stim\yellow.png,stim\gray.png,stim\gray.png,right,0,0,0,0,0,2,2,2,0,4,4,4,,,,,,,,,,,,,,,,,,,,,,,,,,,105.06746020005085,106.06908520008437,105.06746020005085,106.06908520008437,105.06746020005085,106.06908520008437,105.06746020005085,106.06908520008437,right,1,0.2768732998520136,105.06746020005085,None,105.06746020005085,None,105.06746020005085,105.56797239999287,105.06746020005085,105.56797239999287,105.06746020005085,105.56797239999287,105.06746020005085,105.56797239999287,105.06746020005085,None,,,,,,,,,,,,,,,,,,,,,,,,,,,,,,,,,,,,,,,,,,11036,001,2024_Mar_10_1501,nback,2021.2.3,59.79255570080238,
2-back,instructions\back-2.png,conditions\2back-p.xlsx,instructions\2-BACK.png,"(25, 15)",practice,2,1,stim\yellow.png,stim\gray.png,stim\gray.png,stim\gray.png,down,0,0,0,0,0,2,2,2,0,5,5,5,,,,,,,,,,,,,,,,,,,,,,,,,,,106.56899520009756,107.57136279996485,106.56899520009756,107.57136279996485,106.56899520009756,107.57136279996485,106.56899520009756,107.57136279996485,down,1,0.2555321000982076,106.56899520009756,None,106.56899520009756,None,106.56899520009756,107.0705493001733,106.56899520009756,107.0705493001733,106.56899520009756,107.0705493001733,106.56899520009756,107.0705493001733,106.56899520009756,None,,,,,,,,,,,,,,,,,,,,,,,,,,,,,,,,,,,,,,,,,,11036,001,2024_Mar_10_1501,nback,2021.2.3,59.79255570080238,
2-back,instructions\back-2.png,conditions\2back-p.xlsx,instructions\2-BACK.png,"(25, 15)",practice,2,4,stim\gray.png,stim\gray.png,stim\gray.png,stim\yellow.png,left,0,0,0,0,0,2,2,2,0,6,6,6,,,,,,,,,,,,,,,,,,,,,,,,,,,108.05444700014777,109.05617880006321,108.05444700014777,109.05617880006321,108.05444700014777,109.05617880006321,108.05444700014777,109.05617880006321,left,1,0.31407490000128746,108.05444700014777,None,108.05444700014777,None,108.05444700014777,108.5556205001194,108.05444700014777,108.5556205001194,108.05444700014777,108.5556205001194,108.05444700014777,108.5556205001194,108.05444700014777,None,,,,,,,,,,,,,,,,,,,,,,,,,,,,,,,,,,,,,,,,,,11036,001,2024_Mar_10_1501,nback,2021.2.3,59.79255570080238,
2-back,instructions\back-2.png,conditions\2back-p.xlsx,instructions\2-BACK.png,"(25, 15)",practice,2,3,stim\gray.png,stim\gray.png,stim\yellow.png,stim\gray.png,up,0,0,0,0,0,2,2,2,0,7,7,7,,,,,,,,,,,,,,,,,,,,,,,,,,,109.55674790008925,110.55913870013319,109.55674790008925,110.55913870013319,109.55674790008925,110.55913870013319,109.55674790008925,110.55913870013319,up,1,0.24368579988367856,109.55674790008925,None,109.55674790008925,None,109.55674790008925,110.05843610013835,109.55674790008925,110.05843610013835,109.55674790008925,110.05843610013835,109.55674790008925,110.05843610013835,109.55674790008925,None,,,,,,,,,,,,,,,,,,,,,,,,,,,,,,,,,,,,,,,,,,11036,001,2024_Mar_10_1501,nback,2021.2.3,59.79255570080238,
2-back,instructions\back-2.png,conditions\2back-p.xlsx,instructions\2-BACK.png,"(25, 15)",practice,2,3,stim\gray.png,stim\gray.png,stim\yellow.png,stim\gray.png,down,0,0,0,0,0,2,2,2,0,8,8,8,,,,,,,,,,,,,,,,,,,,,,,,,,,111.05904470011592,112.06138600013219,111.05904470011592,112.06138600013219,111.05904470011592,112.06138600013219,111.05904470011592,112.06138600013219,down,1,0.2457023998722434,111.05904470011592,None,111.05904470011592,None,111.05904470011592,111.55964069999754,111.05904470011592,111.55964069999754,111.05904470011592,111.55964069999754,111.05904470011592,111.55964069999754,111.05904470011592,None,,,,,,,,,,,,,,,,,,,,,,,,,,,,,,,,,,,,,,,,,,11036,001,2024_Mar_10_1501,nback,2021.2.3,59.79255570080238,
2-back,instructions\back-2.png,conditions\2back-p.xlsx,instructions\2-BACK.png,"(25, 15)",practice,2,4,stim\gray.png,stim\gray.png,stim\gray.png,stim\yellow.png,right,0,0,0,0,0,2,2,2,0,9,9,9,,,,,,,,,,,,,,,,,,,,,,,,,,,112.56162829999812,113.56361409998499,112.56162829999812,113.56361409998499,112.56162829999812,113.56361409998499,112.56162829999812,113.56361409998499,right,1,0.20747120003215969,112.56162829999812,None,112.56162829999812,None,112.56162829999812,113.0621114000678,112.56162829999812,113.0621114000678,112.56162829999812,113.0621114000678,112.56162829999812,113.0621114000678,112.56162829999812,None,,,,,,,,,,,,,,,,,,,,,,,,,,,,,,,,,,,,,,,,,,11036,001,2024_Mar_10_1501,nback,2021.2.3,59.79255570080238,
2-back,instructions\back-2.png,conditions\2back-p.xlsx,instructions\2-BACK.png,"(25, 15)",practice,2,1,stim\yellow.png,stim\gray.png,stim\gray.png,stim\gray.png,right,0,0,0,0,0,2,2,2,0,10,10,10,,,,,,,,,,,,,,,,,,,,,,,,,,,114.06396339996718,115.0650839000009,114.06396339996718,115.0650839000009,114.06396339996718,115.0650839000009,114.06396339996718,115.0650839000009,right,1,0.1766515001654625,114.06396339996718,None,114.06396339996718,None,114.06396339996718,114.5643072000239,114.06396339996718,114.5643072000239,114.06396339996718,114.5643072000239,114.06396339996718,114.5643072000239,114.06396339996718,None,,,,,,,,,,,,,,,,,,,,,,,,,,,,,,,,,,,,,,,,,,11036,001,2024_Mar_10_1501,nback,2021.2.3,59.79255570080238,
2-back,instructions\back-2.png,conditions\2back-p.xlsx,instructions\2-BACK.png,"(25, 15)",practice,2,2,stim\gray.png,stim\yellow.png,stim\gray.png,stim\gray.png,down,0,0,0,0,0,2,2,2,0,11,11,11,,,,,,,,,,,,,,,,,,,,,,,,,,,115.56593250017613,116.5674546000082,115.56593250017613,116.5674546000082,115.56593250017613,116.5674546000082,115.56593250017613,116.5674546000082,down,1,0.20320279989391565,115.56593250017613,None,115.56593250017613,None,115.56593250017613,116.06669540004805,115.56593250017613,116.06669540004805,115.56593250017613,116.06669540004805,115.56593250017613,116.06669540004805,115.56593250017613,None,,,,,,,,,,,,,,,,,,,,,,,,,,,,,,,,,,,,,,,,,,11036,001,2024_Mar_10_1501,nback,2021.2.3,59.79255570080238,
2-back,instructions\back-2.png,conditions\2back-p.xlsx,instructions\2-BACK.png,"(25, 15)",practice,2,4,stim\gray.png,stim\gray.png,stim\gray.png,stim\yellow.png,up,0,0,0,0,0,2,2,2,0,12,12,12,,,,,,,,,,,,,,,,,,,,,,,,,,,117.06837039999664,118.070373600116,117.06837039999664,118.070373600116,117.06837039999664,118.070373600116,117.06837039999664,118.070373600116,up,1,0.17223160015419126,117.06837039999664,None,117.06837039999664,None,117.06837039999664,117.56985480012372,117.06837039999664,117.56985480012372,117.06837039999664,117.56985480012372,117.06837039999664,117.56985480012372,117.06837039999664,None,,,,,,,,,,,,,,,,,,,,,,,,,,,,,,,,,,,,,,,,,,11036,001,2024_Mar_10_1501,nback,2021.2.3,59.79255570080238,
2-back,instructions\back-2.png,conditions\2back-p.xlsx,instructions\2-BACK.png,"(25, 15)",practice,2,3,stim\gray.png,stim\gray.png,stim\yellow.png,stim\gray.png,left,0,0,0,0,0,2,2,2,0,13,13,13,,,,,,,,,,,,,,,,,,,,,,,,,,,118.5536609000992,119.55596420005895,118.5536609000992,119.55596420005895,118.5536609000992,119.55596420005895,118.5536609000992,119.55596420005895,left,1,0.2150956999976188,118.5536609000992,None,118.5536609000992,None,118.5536609000992,119.05455080000684,118.5536609000992,119.05455080000684,118.5536609000992,119.05455080000684,118.5536609000992,119.05455080000684,118.5536609000992,None,,,,,,,,,,,,,,,,,,,,,,,,,,,,,,,,,,,,,,,,,,11036,001,2024_Mar_10_1501,nback,2021.2.3,59.79255570080238,
2-back,instructions\back-2.png,conditions\2back-p.xlsx,instructions\2-BACK.png,"(25, 15)",practice,2,1,stim\yellow.png,stim\gray.png,stim\gray.png,stim\gray.png,down,0,0,0,0,0,2,2,2,0,14,14,14,,,,,,,,,,,,,,,,,,,,,,,,,,,120.0559698001016,121.05756400013342,120.0559698001016,121.05756400013342,120.0559698001016,121.05756400013342,120.0559698001016,121.05756400013342,down,1,0.26482899999246,120.0559698001016,None,120.0559698001016,None,120.0559698001016,120.55658780015074,120.0559698001016,120.55658780015074,120.0559698001016,120.55658780015074,120.0559698001016,120.55658780015074,120.0559698001016,None,,,,,,,,,,,,,,,,,,,,,,,,,,,,,,,,,,,,,,,,,,11036,001,2024_Mar_10_1501,nback,2021.2.3,59.79255570080238,
2-back,instructions\back-2.png,conditions\2back-p.xlsx,instructions\2-BACK.png,"(25, 15)",practice,2,2,stim\gray.png,stim\yellow.png,stim\gray.png,stim\gray.png,right,0,0,0,0,0,2,2,2,0,15,15,15,,,,,,,,,,,,,,,,,,,,,,,,,,,121.55830370006151,122.56080450001173,121.55830370006151,122.56080450001173,121.55830370006151,122.56080450001173,121.55830370006151,122.56080450001173,right,1,0.29118609987199306,121.55830370006151,None,121.55830370006151,None,121.55830370006151,122.05899950000457,121.55830370006151,122.05899950000457,121.55830370006151,122.05899950000457,121.55830370006151,122.05899950000457,121.55830370006151,None,,,,,,,,,,,,,,,,,,,,,,,,,,,,,,,,,,,,,,,,,,11036,001,2024_Mar_10_1501,nback,2021.2.3,59.79255570080238,
2-back,instructions\back-2.png,conditions\2back-p.xlsx,instructions\2-BACK.png,"(25, 15)",practice,2,3,stim\gray.png,stim\gray.png,stim\yellow.png,stim\gray.png,up,0,0,0,0,0,2,2,2,0,16,16,16,,,,,,,,,,,,,,,,,,,,,,,,,,,123.06061140005477,124.06210219999775,123.06061140005477,124.06210219999775,123.06061140005477,124.06210219999775,123.06061140005477,124.06210219999775,up,1,0.25204749987460673,123.06061140005477,None,123.06061140005477,None,123.06061140005477,123.56115510012023,123.06061140005477,123.56115510012023,123.06061140005477,123.56115510012023,123.06061140005477,123.56115510012023,123.06061140005477,None,,,,,,,,,,,,,,,,,,,,,,,,,,,,,,,,,,,,,,,,,,11036,001,2024_Mar_10_1501,nback,2021.2.3,59.79255570080238,
2-back,instructions\back-2.png,conditions\2back-p.xlsx,instructions\2-BACK.png,"(25, 15)",practice,2,1,stim\yellow.png,stim\gray.png,stim\gray.png,stim\gray.png,left,0,0,0,0,0,2,2,2,0,17,17,17,,,,,,,,,,,,,,,,,,,,,,,,,,,124.56266910000704,125.56551100010984,124.56266910000704,125.56551100010984,124.56266910000704,125.56551100010984,124.56266910000704,125.56551100010984,left,1,0.22245100000873208,124.56266910000704,None,124.56266910000704,None,124.56266910000704,125.06404980015941,124.56266910000704,125.06404980015941,124.56266910000704,125.06404980015941,124.56266910000704,125.06404980015941,124.56266910000704,None,,,,,,,,,,,,,,,,,,,,,,,,,,,,,,,,,,,,,,,,,,11036,001,2024_Mar_10_1501,nback,2021.2.3,59.79255570080238,
2-back,instructions\back-2.png,conditions\2back-p.xlsx,instructions\2-BACK.png,"(25, 15)",practice,2,4,stim\gray.png,stim\gray.png,stim\gray.png,stim\yellow.png,right,0,0,0,0,0,2,2,2,0,18,18,18,,,,,,,,,,,,,,,,,,,,,,,,,,,126.06481030001305,127.06654170015827,126.06481030001305,127.06654170015827,126.06481030001305,127.06654170015827,126.06481030001305,127.06654170015827,right,1,0.20818850002251565,126.06481030001305,None,126.06481030001305,None,126.06481030001305,126.56638370011933,126.06481030001305,126.56638370011933,126.06481030001305,126.56638370011933,126.06481030001305,126.56638370011933,126.06481030001305,None,,,,,,,,,,,,,,,,,,,,,,,,,,,,,,,,,,,,,,,,,,11036,001,2024_Mar_10_1501,nback,2021.2.3,59.79255570080238,
2-back,instructions\back-2.png,conditions\2back-p.xlsx,instructions\2-BACK.png,"(25, 15)",practice,2,2,stim\gray.png,stim\yellow.png,stim\gray.png,stim\gray.png,up,0,0,0,0,0,2,2,2,0,19,19,19,,,,,,,,,,,,,,,,,,,,,,,,,,,127.56873239995912,128.56961870007217,127.56873239995912,128.56961870007217,127.56873239995912,128.56961870007217,127.56873239995912,128.56961870007217,up,1,0.08868080005049706,127.56873239995912,None,127.56873239995912,None,127.56873239995912,128.06794600002468,127.56873239995912,128.06794600002468,127.56873239995912,128.06794600002468,127.56873239995912,128.06794600002468,127.56873239995912,None,,,,,,,,,,,,,,,,,,,,,,,,,,,,,,,,,,,,,,,,,,11036,001,2024_Mar_10_1501,nback,2021.2.3,59.79255570080238,
2-back,instructions\back-2.png,conditions\2back-p.xlsx,instructions\2-BACK.png,"(25, 15)",,,,,,,,,0,0,0,0,0,2,2,2,,,,,,,,,,,,,,,,,,,,,,,,,,,,,,,,,,,,,,,,,,,,,,,,,,,,,,,,,,,,,,,,,,,,,,,,,,,,,,,,,,,,,,,,,,,,,,,,,11036,001,2024_Mar_10_1501,nback,2021.2.3,59.79255570080238,
,,,,,,,,,,,,,0,0,0,0,,,,,,,,,,,,,,,,,,,,,,,,,,,,,,,,,,,,,,,,,,,,,,,,,,,,,,,,,,,,129.07016240013763,None,space,19.05145199992694,129.07016240013763,None,,,,,,,,,,,,,,,,,,,,,,,,,,,,,,,,,,,,11036,001,2024_Mar_10_1501,nback,2021.2.3,59.79255570080238,
,,,,,,,,,,,,,,,,,,,,,,,,,,,,,,,,,,,,,,,,,,,,,,,,,,,,,,,,,,,,,,,,,,,,,,,,,,,,,,,,,,148.14826670009643,None,space,5.229520400054753,148.14826670009643,None,,,,,,,,,,,,,,,,,,,,,,,,,,,,,,11036,001,2024_Mar_10_1501,nback,2021.2.3,59.79255570080238,
0-back,instructions\back-0.png,conditions\01back-e.xlsx,,,experiment,0,2,stim\gray.png,stim\yellow.png,stim\gray.png,stim\gray.png,left,,,,,,,,,,,,,0,0,0,4,0,0,0,0,,,,,,,,,,,,,,,153.540352600161,158.04843139997683,157.99650300014764,None,,,,,,,,,,,,,,,,,,,,,,,,,,,,,,,,,,,,,,left,1,0.82713310001418,158.43058459996246,None,158.43058459996246,None,158.43058459996246,159.43285079998896,158.43058459996246,159.43285079998896,158.43058459996246,159.43285079998896,158.43058459996246,159.43285079998896,158.43058459996246,158.93250540015288,158.43058459996246,158.93250540015288,158.43058459996246,158.93250540015288,158.43058459996246,158.93250540015288,158.43058459996246,None,,,,,11036,001,2024_Mar_10_1501,nback,2021.2.3,59.79255570080238,
0-back,instructions\back-0.png,conditions\01back-e.xlsx,,,experiment,0,4,stim\gray.png,stim\gray.png,stim\gray.png,stim\yellow.png,down,,,,,,,,,,,,,0,0,0,4,0,1,1,1,,,,,,,,,,,,,,,,,,,,,,,,,,,,,,,,,,,,,,,,,,,,,,,,,,,,,,,,down,1,0.5817106999456882,159.91664910013787,None,159.91664910013787,None,159.91664910013787,160.91924279998057,159.91664910013787,160.91924279998057,159.91664910013787,160.91924279998057,159.91664910013787,160.91924279998057,159.91664910013787,160.41717869997956,159.91664910013787,160.41717869997956,159.91664910013787,160.41717869997956,159.91664910013787,160.41717869997956,159.91664910013787,None,,,,,11036,001,2024_Mar_10_1501,nback,2021.2.3,59.79255570080238,
0-back,instructions\back-0.png,conditions\01back-e.xlsx,,,experiment,0,1,stim\yellow.png,stim\gray.png,stim\gray.png,stim\gray.png,up,,,,,,,,,,,,,0,0,0,4,0,2,2,2,,,,,,,,,,,,,,,,,,,,,,,,,,,,,,,,,,,,,,,,,,,,,,,,,,,,,,,,up,1,0.3665779000148177,161.41920180013403,None,161.41920180013403,None,161.41920180013403,162.42000599997118,161.41920180013403,162.42000599997118,161.41920180013403,162.42000599997118,161.41920180013403,162.42000599997118,161.41920180013403,161.91918330010958,161.41920180013403,161.91918330010958,161.41920180013403,161.91918330010958,161.41920180013403,161.91918330010958,161.41920180013403,None,,,,,11036,001,2024_Mar_10_1501,nback,2021.2.3,59.79255570080238,
0-back,instructions\back-0.png,conditions\01back-e.xlsx,,,experiment,0,2,stim\gray.png,stim\yellow.png,stim\gray.png,stim\gray.png,left,,,,,,,,,,,,,0,0,0,4,0,3,3,3,,,,,,,,,,,,,,,,,,,,,,,,,,,,,,,,,,,,,,,,,,,,,,,,,,,,,,,,left,1,0.43458679993636906,162.92048650002107,None,162.92048650002107,None,162.92048650002107,163.9220662000589,162.92048650002107,163.9220662000589,162.92048650002107,163.9220662000589,162.92048650002107,163.9220662000589,162.92048650002107,163.42214160016738,162.92048650002107,163.42214160016738,162.92048650002107,163.42214160016738,162.92048650002107,163.42214160016738,162.92048650002107,None,,,,,11036,001,2024_Mar_10_1501,nback,2021.2.3,59.79255570080238,
0-back,instructions\back-0.png,conditions\01back-e.xlsx,,,experiment,0,3,stim\gray.png,stim\gray.png,stim\yellow.png,stim\gray.png,right,,,,,,,,,,,,,0,0,0,4,0,4,4,4,,,,,,,,,,,,,,,,,,,,,,,,,,,,,,,,,,,,,,,,,,,,,,,,,,,,,,,,right,1,0.3313988000154495,164.42279560002498,None,164.42279560002498,None,164.42279560002498,165.42543289996684,164.42279560002498,165.42543289996684,164.42279560002498,165.42543289996684,164.42279560002498,165.42543289996684,164.42279560002498,164.92448409995995,164.42279560002498,164.92448409995995,164.42279560002498,164.92448409995995,164.42279560002498,164.92448409995995,164.42279560002498,None,,,,,11036,001,2024_Mar_10_1501,nback,2021.2.3,59.79255570080238,
0-back,instructions\back-0.png,conditions\01back-e.xlsx,,,experiment,0,1,stim\yellow.png,stim\gray.png,stim\gray.png,stim\gray.png,up,,,,,,,,,,,,,0,0,0,4,0,5,5,5,,,,,,,,,,,,,,,,,,,,,,,,,,,,,,,,,,,,,,,,,,,,,,,,,,,,,,,,up,1,0.276696200016886,165.92521629994735,None,165.92521629994735,None,165.92521629994735,166.92788480012678,165.92521629994735,166.92788480012678,165.92521629994735,166.92788480012678,165.92521629994735,166.92788480012678,165.92521629994735,166.42695090011694,165.92521629994735,166.42695090011694,165.92521629994735,166.42695090011694,165.92521629994735,166.42695090011694,165.92521629994735,None,,,,,11036,001,2024_Mar_10_1501,nback,2021.2.3,59.79255570080238,
0-back,instructions\back-0.png,conditions\01back-e.xlsx,,,experiment,0,4,stim\gray.png,stim\gray.png,stim\gray.png,stim\yellow.png,down,,,,,,,,,,,,,0,0,0,4,0,6,6,6,,,,,,,,,,,,,,,,,,,,,,,,,,,,,,,,,,,,,,,,,,,,,,,,,,,,,,,,down,1,0.5271441000513732,167.41067440016195,None,167.41067440016195,None,167.41067440016195,168.4128618000541,167.41067440016195,168.4128618000541,167.41067440016195,168.4128618000541,167.41067440016195,168.4128618000541,167.41067440016195,167.91150610009208,167.41067440016195,167.91150610009208,167.41067440016195,167.91150610009208,167.41067440016195,167.91150610009208,167.41067440016195,None,,,,,11036,001,2024_Mar_10_1501,nback,2021.2.3,59.79255570080238,
0-back,instructions\back-0.png,conditions\01back-e.xlsx,,,experiment,0,3,stim\gray.png,stim\gray.png,stim\yellow.png,stim\gray.png,right,,,,,,,,,,,,,0,0,0,4,0,7,7,7,,,,,,,,,,,,,,,,,,,,,,,,,,,,,,,,,,,,,,,,,,,,,,,,,,,,,,,,right,1,0.34534010011702776,168.91301300004125,None,168.91301300004125,None,168.91301300004125,169.91529290005565,168.91301300004125,169.91529290005565,168.91301300004125,169.91529290005565,168.91301300004125,169.91529290005565,168.91301300004125,169.41438259999268,168.91301300004125,169.41438259999268,168.91301300004125,169.41438259999268,168.91301300004125,169.41438259999268,168.91301300004125,None,,,,,11036,001,2024_Mar_10_1501,nback,2021.2.3,59.79255570080238,
0-back,instructions\back-0.png,conditions\01back-e.xlsx,,,experiment,0,4,stim\gray.png,stim\gray.png,stim\gray.png,stim\yellow.png,down,,,,,,,,,,,,,0,0,0,4,0,8,8,8,,,,,,,,,,,,,,,,,,,,,,,,,,,,,,,,,,,,,,,,,,,,,,,,,,,,,,,,down,1,0.5789202000014484,170.4152095001191,None,170.4152095001191,None,170.4152095001191,171.41713860002346,170.4152095001191,171.41713860002346,170.4152095001191,171.41713860002346,170.4152095001191,171.41713860002346,170.4152095001191,170.9165166001767,170.4152095001191,170.9165166001767,170.4152095001191,170.9165166001767,170.4152095001191,170.9165166001767,170.4152095001191,None,,,,,11036,001,2024_Mar_10_1501,nback,2021.2.3,59.79255570080238,
0-back,instructions\back-0.png,conditions\01back-e.xlsx,,,experiment,0,3,stim\gray.png,stim\gray.png,stim\yellow.png,stim\gray.png,right,,,,,,,,,,,,,0,0,0,4,0,9,9,9,,,,,,,,,,,,,,,,,,,,,,,,,,,,,,,,,,,,,,,,,,,,,,,,,,,,,,,,right,1,0.38133310014382005,171.91740280017257,None,171.91740280017257,None,171.91740280017257,172.91959289996885,171.91740280017257,172.91959289996885,171.91740280017257,172.91959289996885,171.91740280017257,172.91959289996885,171.91740280017257,172.41833400004543,171.91740280017257,172.41833400004543,171.91740280017257,172.41833400004543,171.91740280017257,172.41833400004543,171.91740280017257,None,,,,,11036,001,2024_Mar_10_1501,nback,2021.2.3,59.79255570080238,
0-back,instructions\back-0.png,conditions\01back-e.xlsx,,,experiment,0,3,stim\gray.png,stim\gray.png,stim\yellow.png,stim\gray.png,right,,,,,,,,,,,,,0,0,0,4,0,10,10,10,,,,,,,,,,,,,,,,,,,,,,,,,,,,,,,,,,,,,,,,,,,,,,,,,,,,,,,,right,1,0.3663739000912756,173.41970880003646,None,173.41970880003646,None,173.41970880003646,174.42242079996504,173.41970880003646,174.42242079996504,173.41970880003646,174.42242079996504,173.41970880003646,174.42242079996504,173.41970880003646,173.9211446000263,173.41970880003646,173.9211446000263,173.41970880003646,173.9211446000263,173.41970880003646,173.9211446000263,173.41970880003646,None,,,,,11036,001,2024_Mar_10_1501,nback,2021.2.3,59.79255570080238,
0-back,instructions\back-0.png,conditions\01back-e.xlsx,,,experiment,0,1,stim\yellow.png,stim\gray.png,stim\gray.png,stim\gray.png,up,,,,,,,,,,,,,0,0,0,4,0,11,11,11,,,,,,,,,,,,,,,,,,,,,,,,,,,,,,,,,,,,,,,,,,,,,,,,,,,,,,,,up,1,0.3049619998782873,174.92195120011456,None,174.92195120011456,None,174.92195120011456,175.92426400003023,174.92195120011456,175.92426400003023,174.92195120011456,175.92426400003023,174.92195120011456,175.92426400003023,174.92195120011456,175.42273949994706,174.92195120011456,175.42273949994706,174.92195120011456,175.42273949994706,174.92195120011456,175.42273949994706,174.92195120011456,None,,,,,11036,001,2024_Mar_10_1501,nback,2021.2.3,59.79255570080238,
0-back,instructions\back-0.png,conditions\01back-e.xlsx,,,experiment,0,3,stim\gray.png,stim\gray.png,stim\yellow.png,stim\gray.png,right,,,,,,,,,,,,,0,0,0,4,0,12,12,12,,,,,,,,,,,,,,,,,,,,,,,,,,,,,,,,,,,,,,,,,,,,,,,,,,,,,,,,right,1,0.37803929997608066,176.42432030010968,None,176.42432030010968,None,176.42432030010968,177.42578739998862,176.42432030010968,177.42578739998862,176.42432030010968,177.42578739998862,176.42432030010968,177.42578739998862,176.42432030010968,176.92520259995945,176.42432030010968,176.92520259995945,176.42432030010968,176.92520259995945,176.42432030010968,176.92520259995945,176.42432030010968,None,,,,,11036,001,2024_Mar_10_1501,nback,2021.2.3,59.79255570080238,
0-back,instructions\back-0.png,conditions\01back-e.xlsx,,,experiment,0,1,stim\yellow.png,stim\gray.png,stim\gray.png,stim\gray.png,up,,,,,,,,,,,,,0,0,0,4,0,13,13,13,,,,,,,,,,,,,,,,,,,,,,,,,,,,,,,,,,,,,,,,,,,,,,,,,,,,,,,,up,1,0.43581599998287857,177.91027880017646,None,177.91027880017646,None,177.91027880017646,178.9121999000199,177.91027880017646,178.9121999000199,177.91027880017646,178.9121999000199,177.91027880017646,178.9121999000199,177.91027880017646,178.41124629997648,177.91027880017646,178.41124629997648,177.91027880017646,178.41124629997648,177.91027880017646,178.41124629997648,177.91027880017646,None,,,,,11036,001,2024_Mar_10_1501,nback,2021.2.3,59.79255570080238,
0-back,instructions\back-0.png,conditions\01back-e.xlsx,,,experiment,0,4,stim\gray.png,stim\gray.png,stim\gray.png,stim\yellow.png,down,,,,,,,,,,,,,0,0,0,4,0,14,14,14,,,,,,,,,,,,,,,,,,,,,,,,,,,,,,,,,,,,,,,,,,,,,,,,,,,,,,,,down,1,0.4143035998567939,179.41215580003336,None,179.41215580003336,None,179.41215580003336,180.41432580002584,179.41215580003336,180.41432580002584,179.41215580003336,180.41432580002584,179.41215580003336,180.41432580002584,179.41215580003336,179.91455340012908,179.41215580003336,179.91455340012908,179.41215580003336,179.91455340012908,179.41215580003336,179.91455340012908,179.41215580003336,None,,,,,11036,001,2024_Mar_10_1501,nback,2021.2.3,59.79255570080238,
0-back,instructions\back-0.png,conditions\01back-e.xlsx,,,experiment,0,2,stim\gray.png,stim\yellow.png,stim\gray.png,stim\gray.png,left,,,,,,,,,,,,,0,0,0,4,0,15,15,15,,,,,,,,,,,,,,,,,,,,,,,,,,,,,,,,,,,,,,,,,,,,,,,,,,,,,,,,left,1,0.3367061000317335,180.91422230005264,None,180.91422230005264,None,180.91422230005264,181.9158801001031,180.91422230005264,181.9158801001031,180.91422230005264,181.9158801001031,180.91422230005264,181.9158801001031,180.91422230005264,181.4158886000514,180.91422230005264,181.4158886000514,180.91422230005264,181.4158886000514,180.91422230005264,181.4158886000514,180.91422230005264,None,,,,,11036,001,2024_Mar_10_1501,nback,2021.2.3,59.79255570080238,
0-back,instructions\back-0.png,conditions\01back-e.xlsx,,,experiment,0,1,stim\yellow.png,stim\gray.png,stim\gray.png,stim\gray.png,up,,,,,,,,,,,,,0,0,0,4,0,16,16,16,,,,,,,,,,,,,,,,,,,,,,,,,,,,,,,,,,,,,,,,,,,,,,,,,,,,,,,,up,1,0.40875079995021224,182.41773950005881,None,182.41773950005881,None,182.41773950005881,183.418232700089,182.41773950005881,183.418232700089,182.41773950005881,183.418232700089,182.41773950005881,183.418232700089,182.41773950005881,182.91733680013567,182.41773950005881,182.91733680013567,182.41773950005881,182.91733680013567,182.41773950005881,182.91733680013567,182.41773950005881,None,,,,,11036,001,2024_Mar_10_1501,nback,2021.2.3,59.79255570080238,
0-back,instructions\back-0.png,conditions\01back-e.xlsx,,,experiment,0,2,stim\gray.png,stim\yellow.png,stim\gray.png,stim\gray.png,left,,,,,,,,,,,,,0,0,0,4,0,17,17,17,,,,,,,,,,,,,,,,,,,,,,,,,,,,,,,,,,,,,,,,,,,,,,,,,,,,,,,,left,1,0.4765988001599908,183.91892620013095,None,183.91892620013095,None,183.91892620013095,184.92133000004105,183.91892620013095,184.92133000004105,183.91892620013095,184.92133000004105,183.91892620013095,184.92133000004105,183.91892620013095,184.41980310017243,183.91892620013095,184.41980310017243,183.91892620013095,184.41980310017243,183.91892620013095,184.41980310017243,183.91892620013095,None,,,,,11036,001,2024_Mar_10_1501,nback,2021.2.3,59.79255570080238,
0-back,instructions\back-0.png,conditions\01back-e.xlsx,,,experiment,0,4,stim\gray.png,stim\gray.png,stim\gray.png,stim\yellow.png,down,,,,,,,,,,,,,0,0,0,4,0,18,18,18,,,,,,,,,,,,,,,,,,,,,,,,,,,,,,,,,,,,,,,,,,,,,,,,,,,,,,,,None,0,,185.42128710006364,None,185.42128710006364,None,185.42128710006364,186.42278480017558,185.42128710006364,186.42278480017558,185.42128710006364,186.42278480017558,185.42128710006364,186.42278480017558,185.42128710006364,185.92248090007342,185.42128710006364,185.92248090007342,185.42128710006364,185.92248090007342,185.42128710006364,185.92248090007342,185.42128710006364,None,,,,,11036,001,2024_Mar_10_1501,nback,2021.2.3,59.79255570080238,
0-back,instructions\back-0.png,conditions\01back-e.xlsx,,,experiment,0,2,stim\gray.png,stim\yellow.png,stim\gray.png,stim\gray.png,left,,,,,,,,,,,,,0,0,0,4,0,19,19,19,,,,,,,,,,,,,,,,,,,,,,,,,,,,,,,,,,,,,,,,,,,,,,,,,,,,,,,,left,1,0.39132819999940693,186.92352430010214,None,186.92352430010214,None,186.92352430010214,187.92505810013972,186.92352430010214,187.92505810013972,186.92352430010214,187.92505810013972,186.92352430010214,187.92505810013972,186.92352430010214,187.4242773000151,186.92352430010214,187.4242773000151,186.92352430010214,187.4242773000151,186.92352430010214,187.4242773000151,186.92352430010214,None,,,,,11036,001,2024_Mar_10_1501,nback,2021.2.3,59.79255570080238,
0-back,instructions\back-0.png,conditions\01back-e.xlsx,,,,,,,,,,,,,,,,,,,,,,,0,0,0,4,,,,,,,,,,,,,,,,,,,,,,,,,,,,,,,,,,,,,,,,,,,,,,,,,,,,,,,,,,,,,,,,,,,,,,,,,,,,,,,,,,,,,188.4264762001112,None,,,11036,001,2024_Mar_10_1501,nback,2021.2.3,59.79255570080238,
2-back,instructions\back-2.png,conditions\21back-e.xlsx,,,experiment,2,3,stim\gray.png,stim\gray.png,stim\yellow.png,stim\gray.png,None,,,,,,,,,,,,,0,1,1,3,0,0,0,0,,,,,,,,,,,,,,,189.52753900014795,194.03531830012798,194.00148710003123,None,,,,,,,,,,,,,,,,,,,,,,,,,,,,,,,,,,,,,,None,1,,194.4368118001148,None,194.4368118001148,None,194.4368118001148,195.43773250002414,194.4368118001148,195.43773250002414,194.4368118001148,195.43773250002414,194.4368118001148,195.43773250002414,194.4368118001148,194.93562410003506,194.4368118001148,194.93562410003506,194.4368118001148,194.93562410003506,194.4368118001148,194.93562410003506,194.4368118001148,None,,,,,11036,001,2024_Mar_10_1501,nback,2021.2.3,59.79255570080238,
2-back,instructions\back-2.png,conditions\21back-e.xlsx,,,experiment,2,4,stim\gray.png,stim\gray.png,stim\gray.png,stim\yellow.png,None,,,,,,,,,,,,,0,1,1,3,0,1,1,1,,,,,,,,,,,,,,,,,,,,,,,,,,,,,,,,,,,,,,,,,,,,,,,,,,,,,,,,None,1,,195.920389899984,None,195.920389899984,None,195.920389899984,196.92289280006662,195.920389899984,196.92289280006662,195.920389899984,196.92289280006662,195.920389899984,196.92289280006662,195.920389899984,196.42114780005068,195.920389899984,196.42114780005068,195.920389899984,196.42114780005068,195.920389899984,196.42114780005068,195.920389899984,None,,,,,11036,001,2024_Mar_10_1501,nback,2021.2.3,59.79255570080238,
2-back,instructions\back-2.png,conditions\21back-e.xlsx,,,experiment,2,1,stim\yellow.png,stim\gray.png,stim\gray.png,stim\gray.png,right,,,,,,,,,,,,,0,1,1,3,0,2,2,2,,,,,,,,,,,,,,,,,,,,,,,,,,,,,,,,,,,,,,,,,,,,,,,,,,,,,,,,right,1,0.21185459988191724,197.4230380000081,None,197.4230380000081,None,197.4230380000081,198.42472110013478,197.4230380000081,198.42472110013478,197.4230380000081,198.42472110013478,197.4230380000081,198.42472110013478,197.4230380000081,197.9234190999996,197.4230380000081,197.9234190999996,197.4230380000081,197.9234190999996,197.4230380000081,197.9234190999996,197.4230380000081,None,,,,,11036,001,2024_Mar_10_1501,nback,2021.2.3,59.79255570080238,
2-back,instructions\back-2.png,conditions\21back-e.xlsx,,,experiment,2,2,stim\gray.png,stim\yellow.png,stim\gray.png,stim\gray.png,down,,,,,,,,,,,,,0,1,1,3,0,3,3,3,,,,,,,,,,,,,,,,,,,,,,,,,,,,,,,,,,,,,,,,,,,,,,,,,,,,,,,,down,1,0.22216790006496012,198.92480260017328,None,198.92480260017328,None,198.92480260017328,199.92749990010634,198.92480260017328,199.92749990010634,198.92480260017328,199.92749990010634,198.92480260017328,199.92749990010634,198.92480260017328,199.42642739997245,198.92480260017328,199.42642739997245,198.92480260017328,199.42642739997245,198.92480260017328,199.42642739997245,198.92480260017328,None,,,,,11036,001,2024_Mar_10_1501,nback,2021.2.3,59.79255570080238,
2-back,instructions\back-2.png,conditions\21back-e.xlsx,,,experiment,2,1,stim\yellow.png,stim\gray.png,stim\gray.png,stim\gray.png,up,,,,,,,,,,,,,0,1,1,3,0,4,4,4,,,,,,,,,,,,,,,,,,,,,,,,,,,,,,,,,,,,,,,,,,,,,,,,,,,,,,,,up,1,0.24789300002157688,200.41156899998896,None,200.41156899998896,None,200.41156899998896,201.41280620009638,200.41156899998896,201.41280620009638,200.41156899998896,201.41280620009638,200.41156899998896,201.41280620009638,200.41156899998896,200.91116819996387,200.41156899998896,200.91116819996387,200.41156899998896,200.91116819996387,200.41156899998896,200.91116819996387,200.41156899998896,None,,,,,11036,001,2024_Mar_10_1501,nback,2021.2.3,59.79255570080238,
2-back,instructions\back-2.png,conditions\21back-e.xlsx,,,experiment,2,2,stim\gray.png,stim\yellow.png,stim\gray.png,stim\gray.png,left,,,,,,,,,,,,,0,1,1,3,0,5,5,5,,,,,,,,,,,,,,,,,,,,,,,,,,,,,,,,,,,,,,,,,,,,,,,,,,,,,,,,left,1,0.2348874001763761,201.912746099988,None,201.912746099988,None,201.912746099988,202.91496540000662,201.912746099988,202.91496540000662,201.912746099988,202.91496540000662,201.912746099988,202.91496540000662,201.912746099988,202.41418029996566,201.912746099988,202.41418029996566,201.912746099988,202.41418029996566,201.912746099988,202.41418029996566,201.912746099988,None,,,,,11036,001,2024_Mar_10_1501,nback,2021.2.3,59.79255570080238,
2-back,instructions\back-2.png,conditions\21back-e.xlsx,,,experiment,2,3,stim\gray.png,stim\gray.png,stim\yellow.png,stim\gray.png,up,,,,,,,,,,,,,0,1,1,3,0,6,6,6,,,,,,,,,,,,,,,,,,,,,,,,,,,,,,,,,,,,,,,,,,,,,,,,,,,,,,,,up,1,0.22731039999052882,203.41570680006407,None,203.41570680006407,None,203.41570680006407,204.41745970002376,203.41570680006407,204.41745970002376,203.41570680006407,204.41745970002376,203.41570680006407,204.41745970002376,203.41570680006407,203.91584300016984,203.41570680006407,203.91584300016984,203.41570680006407,203.91584300016984,203.41570680006407,203.91584300016984,203.41570680006407,None,,,,,11036,001,2024_Mar_10_1501,nback,2021.2.3,59.79255570080238,
2-back,instructions\back-2.png,conditions\21back-e.xlsx,,,experiment,2,4,stim\gray.png,stim\gray.png,stim\gray.png,stim\yellow.png,left,,,,,,,,,,,,,0,1,1,3,0,7,7,7,,,,,,,,,,,,,,,,,,,,,,,,,,,,,,,,,,,,,,,,,,,,,,,,,,,,,,,,left,1,0.2461853998247534,204.91714180004783,None,204.91714180004783,None,204.91714180004783,205.9188676001504,204.91714180004783,205.9188676001504,204.91714180004783,205.9188676001504,204.91714180004783,205.9188676001504,204.91714180004783,205.41872230009176,204.91714180004783,205.41872230009176,204.91714180004783,205.41872230009176,204.91714180004783,205.41872230009176,204.91714180004783,None,,,,,11036,001,2024_Mar_10_1501,nback,2021.2.3,59.79255570080238,
2-back,instructions\back-2.png,conditions\21back-e.xlsx,,,experiment,2,3,stim\gray.png,stim\gray.png,stim\yellow.png,stim\gray.png,right,,,,,,,,,,,,,0,1,1,3,0,8,8,8,,,,,,,,,,,,,,,,,,,,,,,,,,,,,,,,,,,,,,,,,,,,,,,,,,,,,,,,right,1,0.38472589990124106,206.4194795000367,None,206.4194795000367,None,206.4194795000367,207.42114860005677,206.4194795000367,207.42114860005677,206.4194795000367,207.42114860005677,206.4194795000367,207.42114860005677,206.4194795000367,206.92035330017097,206.4194795000367,206.92035330017097,206.4194795000367,206.92035330017097,206.4194795000367,206.92035330017097,206.4194795000367,None,,,,,11036,001,2024_Mar_10_1501,nback,2021.2.3,59.79255570080238,
2-back,instructions\back-2.png,conditions\21back-e.xlsx,,,experiment,2,1,stim\yellow.png,stim\gray.png,stim\gray.png,stim\gray.png,down,,,,,,,,,,,,,0,1,1,3,0,9,9,9,,,,,,,,,,,,,,,,,,,,,,,,,,,,,,,,,,,,,,,,,,,,,,,,,,,,,,,,down,1,0.39331399998627603,207.9218370001763,None,207.9218370001763,None,207.9218370001763,208.92334170010872,207.9218370001763,208.92334170010872,207.9218370001763,208.92334170010872,207.9218370001763,208.92334170010872,207.9218370001763,208.42338689998724,207.9218370001763,208.42338689998724,207.9218370001763,208.42338689998724,207.9218370001763,208.42338689998724,207.9218370001763,None,,,,,11036,001,2024_Mar_10_1501,nback,2021.2.3,59.79255570080238,
2-back,instructions\back-2.png,conditions\21back-e.xlsx,,,experiment,2,4,stim\gray.png,stim\gray.png,stim\gray.png,stim\yellow.png,right,,,,,,,,,,,,,0,1,1,3,0,10,10,10,,,,,,,,,,,,,,,,,,,,,,,,,,,,,,,,,,,,,,,,,,,,,,,,,,,,,,,,right,1,0.33131109992973506,209.42411860008724,None,209.42411860008724,None,209.42411860008724,210.4265557001345,209.42411860008724,210.4265557001345,209.42411860008724,210.4265557001345,209.42411860008724,210.4265557001345,209.42411860008724,209.92566800001077,209.42411860008724,209.92566800001077,209.42411860008724,209.92566800001077,209.42411860008724,209.92566800001077,209.42411860008724,None,,,,,11036,001,2024_Mar_10_1501,nback,2021.2.3,59.79255570080238,
2-back,instructions\back-2.png,conditions\21back-e.xlsx,,,experiment,2,2,stim\gray.png,stim\yellow.png,stim\gray.png,stim\gray.png,up,,,,,,,,,,,,,0,1,1,3,0,11,11,11,,,,,,,,,,,,,,,,,,,,,,,,,,,,,,,,,,,,,,,,,,,,,,,,,,,,,,,,up,1,0.3567220000550151,210.92640640004538,None,210.92640640004538,None,210.92640640004538,211.92878519999795,210.92640640004538,211.92878519999795,210.92640640004538,211.92878519999795,210.92640640004538,211.92878519999795,210.92640640004538,211.42777870013379,210.92640640004538,211.42777870013379,210.92640640004538,211.42777870013379,210.92640640004538,211.42777870013379,210.92640640004538,None,,,,,11036,001,2024_Mar_10_1501,nback,2021.2.3,59.79255570080238,
2-back,instructions\back-2.png,conditions\21back-e.xlsx,,,experiment,2,4,stim\gray.png,stim\gray.png,stim\gray.png,stim\yellow.png,down,,,,,,,,,,,,,0,1,1,3,0,12,12,12,,,,,,,,,,,,,,,,,,,,,,,,,,,,,,,,,,,,,,,,,,,,,,,,,,,,,,,,down,1,0.2947237999178469,212.41278580017388,None,212.41278580017388,None,212.41278580017388,213.41412990004756,212.41278580017388,213.41412990004756,212.41278580017388,213.41412990004756,212.41278580017388,213.41412990004756,212.41278580017388,212.91314630000852,212.41278580017388,212.91314630000852,212.41278580017388,212.91314630000852,212.41278580017388,212.91314630000852,212.41278580017388,None,,,,,11036,001,2024_Mar_10_1501,nback,2021.2.3,59.79255570080238,
2-back,instructions\back-2.png,conditions\21back-e.xlsx,,,experiment,2,3,stim\gray.png,stim\gray.png,stim\yellow.png,stim\gray.png,left,,,,,,,,,,,,,0,1,1,3,0,13,13,13,,,,,,,,,,,,,,,,,,,,,,,,,,,,,,,,,,,,,,,,,,,,,,,,,,,,,,,,left,1,0.24151269998401403,213.91429990017787,None,213.91429990017787,None,213.91429990017787,214.91569370008074,213.91429990017787,214.91569370008074,213.91429990017787,214.91569370008074,213.91429990017787,214.91569370008074,213.91429990017787,214.4154757000506,213.91429990017787,214.4154757000506,213.91429990017787,214.4154757000506,213.91429990017787,214.4154757000506,213.91429990017787,None,,,,,11036,001,2024_Mar_10_1501,nback,2021.2.3,59.79255570080238,
2-back,instructions\back-2.png,conditions\21back-e.xlsx,,,experiment,2,1,stim\yellow.png,stim\gray.png,stim\gray.png,stim\gray.png,down,,,,,,,,,,,,,0,1,1,3,0,14,14,14,,,,,,,,,,,,,,,,,,,,,,,,,,,,,,,,,,,,,,,,,,,,,,,,,,,,,,,,None,0,,215.41639120015316,None,215.41639120015316,None,215.41639120015316,216.4187947001774,215.41639120015316,216.4187947001774,215.41639120015316,216.4187947001774,215.41639120015316,216.4187947001774,215.41639120015316,215.91713259997778,215.41639120015316,215.91713259997778,215.41639120015316,215.91713259997778,215.41639120015316,215.91713259997778,215.41639120015316,None,,,,,11036,001,2024_Mar_10_1501,nback,2021.2.3,59.79255570080238,
2-back,instructions\back-2.png,conditions\21back-e.xlsx,,,experiment,2,2,stim\gray.png,stim\yellow.png,stim\gray.png,stim\gray.png,right,,,,,,,,,,,,,0,1,1,3,0,15,15,15,,,,,,,,,,,,,,,,,,,,,,,,,,,,,,,,,,,,,,,,,,,,,,,,,,,,,,,,right,1,0.15757059981115162,216.91861549997702,None,216.91861549997702,None,216.91861549997702,217.92120560002513,216.91861549997702,217.92120560002513,216.91861549997702,217.92120560002513,216.91861549997702,217.92120560002513,216.91861549997702,217.42045740014873,216.91861549997702,217.42045740014873,216.91861549997702,217.42045740014873,216.91861549997702,217.42045740014873,216.91861549997702,None,,,,,11036,001,2024_Mar_10_1501,nback,2021.2.3,59.79255570080238,
2-back,instructions\back-2.png,conditions\21back-e.xlsx,,,experiment,2,2,stim\gray.png,stim\yellow.png,stim\gray.png,stim\gray.png,up,,,,,,,,,,,,,0,1,1,3,0,16,16,16,,,,,,,,,,,,,,,,,,,,,,,,,,,,,,,,,,,,,,,,,,,,,,,,,,,,,,,,up,1,0.26292259991168976,218.42098439997062,None,218.42098439997062,None,218.42098439997062,219.42354580014944,218.42098439997062,219.42354580014944,218.42098439997062,219.42354580014944,218.42098439997062,219.42354580014944,218.42098439997062,218.92348859994672,218.42098439997062,218.92348859994672,218.42098439997062,218.92348859994672,218.42098439997062,218.92348859994672,218.42098439997062,None,,,,,11036,001,2024_Mar_10_1501,nback,2021.2.3,59.79255570080238,
2-back,instructions\back-2.png,conditions\21back-e.xlsx,,,experiment,2,1,stim\yellow.png,stim\gray.png,stim\gray.png,stim\gray.png,left,,,,,,,,,,,,,0,1,1,3,0,17,17,17,,,,,,,,,,,,,,,,,,,,,,,,,,,,,,,,,,,,,,,,,,,,,,,,,,,,,,,,left,1,0.2886921998579055,219.92337650014088,None,219.92337650014088,None,219.92337650014088,220.92623860016465,219.92337650014088,220.92623860016465,219.92337650014088,220.92623860016465,219.92337650014088,220.92623860016465,219.92337650014088,220.42405500006862,219.92337650014088,220.42405500006862,219.92337650014088,220.42405500006862,219.92337650014088,220.42405500006862,219.92337650014088,None,,,,,11036,001,2024_Mar_10_1501,nback,2021.2.3,59.79255570080238,
2-back,instructions\back-2.png,conditions\21back-e.xlsx,,,experiment,2,4,stim\gray.png,stim\gray.png,stim\gray.png,stim\yellow.png,left,,,,,,,,,,,,,0,1,1,3,0,18,18,18,,,,,,,,,,,,,,,,,,,,,,,,,,,,,,,,,,,,,,,,,,,,,,,,,,,,,,,,left,1,0.2507720000576228,221.425505500054,None,221.425505500054,None,221.425505500054,222.4282957999967,221.425505500054,222.4282957999967,221.425505500054,222.4282957999967,221.425505500054,222.4282957999967,221.425505500054,221.9263906001579,221.425505500054,221.9263906001579,221.425505500054,221.9263906001579,221.425505500054,221.9263906001579,221.425505500054,None,,,,,11036,001,2024_Mar_10_1501,nback,2021.2.3,59.79255570080238,
2-back,instructions\back-2.png,conditions\21back-e.xlsx,,,experiment,2,3,stim\gray.png,stim\gray.png,stim\yellow.png,stim\gray.png,up,,,,,,,,,,,,,0,1,1,3,0,19,19,19,,,,,,,,,,,,,,,,,,,,,,,,,,,,,,,,,,,,,,,,,,,,,,,,,,,,,,,,up,1,0.28508260007947683,222.91159990010783,None,222.91159990010783,None,222.91159990010783,223.9137014001608,222.91159990010783,223.9137014001608,222.91159990010783,223.9137014001608,222.91159990010783,223.9137014001608,222.91159990010783,223.41249550017528,222.91159990010783,223.41249550017528,222.91159990010783,223.41249550017528,222.91159990010783,223.41249550017528,222.91159990010783,None,,,,,11036,001,2024_Mar_10_1501,nback,2021.2.3,59.79255570080238,
2-back,instructions\back-2.png,conditions\21back-e.xlsx,,,,,,,,,,,,,,,,,,,,,,,0,1,1,3,,,,,,,,,,,,,,,,,,,,,,,,,,,,,,,,,,,,,,,,,,,,,,,,,,,,,,,,,,,,,,,,,,,,,,,,,,,,,,,,,,,,,224.4133663000539,None,,,11036,001,2024_Mar_10_1501,nback,2021.2.3,59.79255570080238,
1-back,instructions\back-1.png,conditions\10back-e.xlsx,,,experiment,1,3,stim\gray.png,stim\gray.png,stim\yellow.png,stim\gray.png,None,,,,,,,,,,,,,0,2,2,1,0,0,0,0,,,,,,,,,,,,,,,225.53163900016807,230.03916619997472,230.00600840011612,None,,,,,,,,,,,,,,,,,,,,,,,,,,,,,,,,,,,,,,None,1,,230.43992580007762,None,230.43992580007762,None,230.43992580007762,231.44123120000586,230.43992580007762,231.44123120000586,230.43992580007762,231.44123120000586,230.43992580007762,231.44123120000586,230.43992580007762,230.9406692001503,230.43992580007762,230.9406692001503,230.43992580007762,230.9406692001503,230.43992580007762,230.9406692001503,230.43992580007762,None,,,,,11036,001,2024_Mar_10_1501,nback,2021.2.3,59.79255570080238,
1-back,instructions\back-1.png,conditions\10back-e.xlsx,,,experiment,1,4,stim\gray.png,stim\gray.png,stim\gray.png,stim\yellow.png,right,,,,,,,,,,,,,0,2,2,1,0,1,1,1,,,,,,,,,,,,,,,,,,,,,,,,,,,,,,,,,,,,,,,,,,,,,,,,,,,,,,,,right,1,0.3596632000990212,231.92470009997487,None,231.92470009997487,None,231.92470009997487,232.92675990005955,231.92470009997487,232.92675990005955,231.92470009997487,232.92675990005955,231.92470009997487,232.92675990005955,231.92470009997487,232.42542960005812,231.92470009997487,232.42542960005812,231.92470009997487,232.42542960005812,231.92470009997487,232.42542960005812,231.92470009997487,None,,,,,11036,001,2024_Mar_10_1501,nback,2021.2.3,59.79255570080238,
1-back,instructions\back-1.png,conditions\10back-e.xlsx,,,experiment,1,4,stim\gray.png,stim\gray.png,stim\gray.png,stim\yellow.png,down,,,,,,,,,,,,,0,2,2,1,0,2,2,2,,,,,,,,,,,,,,,,,,,,,,,,,,,,,,,,,,,,,,,,,,,,,,,,,,,,,,,,down,1,0.25072759995236993,233.41016440000385,None,233.41016440000385,None,233.41016440000385,234.41291079996154,233.41016440000385,234.41291079996154,233.41016440000385,234.41291079996154,233.41016440000385,234.41291079996154,233.41016440000385,233.91199810011312,233.41016440000385,233.91199810011312,233.41016440000385,233.91199810011312,233.41016440000385,233.91199810011312,233.41016440000385,None,,,,,11036,001,2024_Mar_10_1501,nback,2021.2.3,59.79255570080238,
1-back,instructions\back-1.png,conditions\10back-e.xlsx,,,experiment,1,2,stim\gray.png,stim\yellow.png,stim\gray.png,stim\gray.png,down,,,,,,,,,,,,,0,2,2,1,0,3,3,3,,,,,,,,,,,,,,,,,,,,,,,,,,,,,,,,,,,,,,,,,,,,,,,,,,,,,,,,down,1,0.21150800003670156,234.91248390008695,None,234.91248390008695,None,234.91248390008695,235.91403109999374,234.91248390008695,235.91403109999374,234.91248390008695,235.91403109999374,234.91248390008695,235.91403109999374,234.91248390008695,235.413375900127,234.91248390008695,235.413375900127,234.91248390008695,235.413375900127,234.91248390008695,235.413375900127,234.91248390008695,None,,,,,11036,001,2024_Mar_10_1501,nback,2021.2.3,59.79255570080238,
1-back,instructions\back-1.png,conditions\10back-e.xlsx,,,experiment,1,1,stim\yellow.png,stim\gray.png,stim\gray.png,stim\gray.png,left,,,,,,,,,,,,,0,2,2,1,0,4,4,4,,,,,,,,,,,,,,,,,,,,,,,,,,,,,,,,,,,,,,,,,,,,,,,,,,,,,,,,left,1,0.2772296997718513,236.41474810009822,None,236.41474810009822,None,236.41474810009822,237.41723609995097,236.41474810009822,237.41723609995097,236.41474810009822,237.41723609995097,236.41474810009822,237.41723609995097,236.41474810009822,236.91705689998344,236.41474810009822,236.91705689998344,236.41474810009822,236.91705689998344,236.41474810009822,236.91705689998344,236.41474810009822,None,,,,,11036,001,2024_Mar_10_1501,nback,2021.2.3,59.79255570080238,
1-back,instructions\back-1.png,conditions\10back-e.xlsx,,,experiment,1,2,stim\gray.png,stim\yellow.png,stim\gray.png,stim\gray.png,up,,,,,,,,,,,,,0,2,2,1,0,5,5,5,,,,,,,,,,,,,,,,,,,,,,,,,,,,,,,,,,,,,,,,,,,,,,,,,,,,,,,,up,1,0.34276030003093183,237.91697500017472,None,237.91697500017472,None,237.91697500017472,238.91871890006587,237.91697500017472,238.91871890006587,237.91697500017472,238.91871890006587,237.91697500017472,238.91871890006587,237.91697500017472,238.4178504999727,237.91697500017472,238.4178504999727,237.91697500017472,238.4178504999727,237.91697500017472,238.4178504999727,237.91697500017472,None,,,,,11036,001,2024_Mar_10_1501,nback,2021.2.3,59.79255570080238,
1-back,instructions\back-1.png,conditions\10back-e.xlsx,,,experiment,1,3,stim\gray.png,stim\gray.png,stim\yellow.png,stim\gray.png,left,,,,,,,,,,,,,0,2,2,1,0,6,6,6,,,,,,,,,,,,,,,,,,,,,,,,,,,,,,,,,,,,,,,,,,,,,,,,,,,,,,,,left,1,0.3609186001121998,239.41916580009274,None,239.41916580009274,None,239.41916580009274,240.42094089998864,239.41916580009274,240.42094089998864,239.41916580009274,240.42094089998864,239.41916580009274,240.42094089998864,239.41916580009274,239.92018650006503,239.41916580009274,239.92018650006503,239.41916580009274,239.92018650006503,239.41916580009274,239.92018650006503,239.41916580009274,None,,,,,11036,001,2024_Mar_10_1501,nback,2021.2.3,59.79255570080238,
1-back,instructions\back-1.png,conditions\10back-e.xlsx,,,experiment,1,4,stim\gray.png,stim\gray.png,stim\gray.png,stim\yellow.png,right,,,,,,,,,,,,,0,2,2,1,0,7,7,7,,,,,,,,,,,,,,,,,,,,,,,,,,,,,,,,,,,,,,,,,,,,,,,,,,,,,,,,right,1,0.2827802998945117,240.92174839996733,None,240.92174839996733,None,240.92174839996733,241.92374710016884,240.92174839996733,241.92374710016884,240.92174839996733,241.92374710016884,240.92174839996733,241.92374710016884,240.92174839996733,241.42309940000996,240.92174839996733,241.42309940000996,240.92174839996733,241.42309940000996,240.92174839996733,241.42309940000996,240.92174839996733,None,,,,,11036,001,2024_Mar_10_1501,nback,2021.2.3,59.79255570080238,
1-back,instructions\back-1.png,conditions\10back-e.xlsx,,,experiment,1,1,stim\yellow.png,stim\gray.png,stim\gray.png,stim\gray.png,down,,,,,,,,,,,,,0,2,2,1,0,8,8,8,,,,,,,,,,,,,,,,,,,,,,,,,,,,,,,,,,,,,,,,,,,,,,,,,,,,,,,,down,1,0.27703350014053285,242.4238323001191,None,242.4238323001191,None,242.4238323001191,243.426238700049,242.4238323001191,243.426238700049,242.4238323001191,243.426238700049,242.4238323001191,243.426238700049,242.4238323001191,242.92461870005354,242.4238323001191,242.92461870005354,242.4238323001191,242.92461870005354,242.4238323001191,242.92461870005354,242.4238323001191,None,,,,,11036,001,2024_Mar_10_1501,nback,2021.2.3,59.79255570080238,
1-back,instructions\back-1.png,conditions\10back-e.xlsx,,,experiment,1,3,stim\gray.png,stim\gray.png,stim\yellow.png,stim\gray.png,up,,,,,,,,,,,,,0,2,2,1,0,9,9,9,,,,,,,,,,,,,,,,,,,,,,,,,,,,,,,,,,,,,,,,,,,,,,,,,,,,,,,,up,1,0.2631057999096811,243.90925110015087,None,243.90925110015087,None,243.90925110015087,244.91098490008153,243.90925110015087,244.91098490008153,243.90925110015087,244.91098490008153,243.90925110015087,244.91098490008153,243.90925110015087,244.41122440015897,243.90925110015087,244.41122440015897,243.90925110015087,244.41122440015897,243.90925110015087,244.41122440015897,243.90925110015087,None,,,,,11036,001,2024_Mar_10_1501,nback,2021.2.3,59.79255570080238,
1-back,instructions\back-1.png,conditions\10back-e.xlsx,,,experiment,1,1,stim\yellow.png,stim\gray.png,stim\gray.png,stim\gray.png,right,,,,,,,,,,,,,0,2,2,1,0,10,10,10,,,,,,,,,,,,,,,,,,,,,,,,,,,,,,,,,,,,,,,,,,,,,,,,,,,,,,,,right,1,0.2083593001589179,245.41185720008798,None,245.41185720008798,None,245.41185720008798,246.41393769998103,245.41185720008798,246.41393769998103,245.41185720008798,246.41393769998103,245.41185720008798,246.41393769998103,245.41185720008798,245.91324010002427,245.41185720008798,245.91324010002427,245.41185720008798,245.91324010002427,245.41185720008798,245.91324010002427,245.41185720008798,None,,,,,11036,001,2024_Mar_10_1501,nback,2021.2.3,59.79255570080238,
1-back,instructions\back-1.png,conditions\10back-e.xlsx,,,experiment,1,2,stim\gray.png,stim\yellow.png,stim\gray.png,stim\gray.png,up,,,,,,,,,,,,,0,2,2,1,0,11,11,11,,,,,,,,,,,,,,,,,,,,,,,,,,,,,,,,,,,,,,,,,,,,,,,,,,,,,,,,up,1,0.31516669993288815,246.91375269996934,None,246.91375269996934,None,246.91375269996934,247.91667810012586,246.91375269996934,247.91667810012586,246.91375269996934,247.91667810012586,246.91375269996934,247.91667810012586,246.91375269996934,247.4147849001456,246.91375269996934,247.4147849001456,246.91375269996934,247.4147849001456,246.91375269996934,247.4147849001456,246.91375269996934,None,,,,,11036,001,2024_Mar_10_1501,nback,2021.2.3,59.79255570080238,
1-back,instructions\back-1.png,conditions\10back-e.xlsx,,,experiment,1,4,stim\gray.png,stim\gray.png,stim\gray.png,stim\yellow.png,left,,,,,,,,,,,,,0,2,2,1,0,12,12,12,,,,,,,,,,,,,,,,,,,,,,,,,,,,,,,,,,,,,,,,,,,,,,,,,,,,,,,,left,1,0.2589311001356691,248.41739840013906,None,248.41739840013906,None,248.41739840013906,249.41875290009193,248.41739840013906,249.41875290009193,248.41739840013906,249.41875290009193,248.41739840013906,249.41875290009193,248.41739840013906,248.91722630010918,248.41739840013906,248.91722630010918,248.41739840013906,248.91722630010918,248.41739840013906,248.91722630010918,248.41739840013906,None,,,,,11036,001,2024_Mar_10_1501,nback,2021.2.3,59.79255570080238,
1-back,instructions\back-1.png,conditions\10back-e.xlsx,,,experiment,1,3,stim\gray.png,stim\gray.png,stim\yellow.png,stim\gray.png,down,,,,,,,,,,,,,0,2,2,1,0,13,13,13,,,,,,,,,,,,,,,,,,,,,,,,,,,,,,,,,,,,,,,,,,,,,,,,,,,,,,,,down,1,0.27813890017569065,249.9183364000637,None,249.9183364000637,None,249.9183364000637,250.92086239997298,249.9183364000637,250.92086239997298,249.9183364000637,250.92086239997298,249.9183364000637,250.92086239997298,249.9183364000637,250.4191918000579,249.9183364000637,250.4191918000579,249.9183364000637,250.4191918000579,249.9183364000637,250.4191918000579,249.9183364000637,None,,,,,11036,001,2024_Mar_10_1501,nback,2021.2.3,59.79255570080238,
1-back,instructions\back-1.png,conditions\10back-e.xlsx,,,experiment,1,1,stim\yellow.png,stim\gray.png,stim\gray.png,stim\gray.png,right,,,,,,,,,,,,,0,2,2,1,0,14,14,14,,,,,,,,,,,,,,,,,,,,,,,,,,,,,,,,,,,,,,,,,,,,,,,,,,,,,,,,right,1,0.22432409995235503,251.42076320014894,None,251.42076320014894,None,251.42076320014894,252.42226090002805,251.42076320014894,252.42226090002805,251.42076320014894,252.42226090002805,251.42076320014894,252.42226090002805,251.42076320014894,251.92249280004762,251.42076320014894,251.92249280004762,251.42076320014894,251.92249280004762,251.42076320014894,251.92249280004762,251.42076320014894,None,,,,,11036,001,2024_Mar_10_1501,nback,2021.2.3,59.79255570080238,
1-back,instructions\back-1.png,conditions\10back-e.xlsx,,,experiment,1,2,stim\gray.png,stim\yellow.png,stim\gray.png,stim\gray.png,up,,,,,,,,,,,,,0,2,2,1,0,15,15,15,,,,,,,,,,,,,,,,,,,,,,,,,,,,,,,,,,,,,,,,,,,,,,,,,,,,,,,,up,1,0.2736572998110205,252.9235110001173,None,252.9235110001173,None,252.9235110001173,253.9245355001185,252.9235110001173,253.9245355001185,252.9235110001173,253.9245355001185,252.9235110001173,253.9245355001185,252.9235110001173,253.4239917001687,252.9235110001173,253.4239917001687,252.9235110001173,253.4239917001687,252.9235110001173,253.4239917001687,252.9235110001173,None,,,,,11036,001,2024_Mar_10_1501,nback,2021.2.3,59.79255570080238,
1-back,instructions\back-1.png,conditions\10back-e.xlsx,,,experiment,1,3,stim\gray.png,stim\gray.png,stim\yellow.png,stim\gray.png,left,,,,,,,,,,,,,0,2,2,1,0,16,16,16,,,,,,,,,,,,,,,,,,,,,,,,,,,,,,,,,,,,,,,,,,,,,,,,,,,,,,,,left,1,0.2347453001420945,254.4253360000439,None,254.4253360000439,None,254.4253360000439,255.42668929998763,254.4253360000439,255.42668929998763,254.4253360000439,255.42668929998763,254.4253360000439,255.42668929998763,254.4253360000439,254.92666390002705,254.4253360000439,254.92666390002705,254.4253360000439,254.92666390002705,254.4253360000439,254.92666390002705,254.4253360000439,None,,,,,11036,001,2024_Mar_10_1501,nback,2021.2.3,59.79255570080238,
1-back,instructions\back-1.png,conditions\10back-e.xlsx,,,experiment,1,2,stim\gray.png,stim\yellow.png,stim\gray.png,stim\gray.png,right,,,,,,,,,,,,,0,2,2,1,0,17,17,17,,,,,,,,,,,,,,,,,,,,,,,,,,,,,,,,,,,,,,,,,,,,,,,,,,,,,,,,right,1,0.19763529999181628,255.9109062999487,None,255.9109062999487,None,255.9109062999487,256.9136626000982,255.9109062999487,256.9136626000982,255.9109062999487,256.9136626000982,255.9109062999487,256.9136626000982,255.9109062999487,256.411655300064,255.9109062999487,256.411655300064,255.9109062999487,256.411655300064,255.9109062999487,256.411655300064,255.9109062999487,None,,,,,11036,001,2024_Mar_10_1501,nback,2021.2.3,59.79255570080238,
1-back,instructions\back-1.png,conditions\10back-e.xlsx,,,experiment,1,1,stim\yellow.png,stim\gray.png,stim\gray.png,stim\gray.png,left,,,,,,,,,,,,,0,2,2,1,0,18,18,18,,,,,,,,,,,,,,,,,,,,,,,,,,,,,,,,,,,,,,,,,,,,,,,,,,,,,,,,left,1,0.34408389986492693,257.41312090004794,None,257.41312090004794,None,257.41312090004794,258.4145468000788,257.41312090004794,258.4145468000788,257.41312090004794,258.4145468000788,257.41312090004794,258.4145468000788,257.41312090004794,257.91507900017314,257.41312090004794,257.91507900017314,257.41312090004794,257.91507900017314,257.41312090004794,257.91507900017314,257.41312090004794,None,,,,,11036,001,2024_Mar_10_1501,nback,2021.2.3,59.79255570080238,
1-back,instructions\back-1.png,conditions\10back-e.xlsx,,,experiment,1,4,stim\gray.png,stim\gray.png,stim\gray.png,stim\yellow.png,up,,,,,,,,,,,,,0,2,2,1,0,19,19,19,,,,,,,,,,,,,,,,,,,,,,,,,,,,,,,,,,,,,,,,,,,,,,,,,,,,,,,,up,1,0.281323199858889,258.9155502000358,None,258.9155502000358,None,258.9155502000358,259.91702809999697,258.9155502000358,259.91702809999697,258.9155502000358,259.91702809999697,258.9155502000358,259.91702809999697,258.9155502000358,259.4161708999891,258.9155502000358,259.4161708999891,258.9155502000358,259.4161708999891,258.9155502000358,259.4161708999891,258.9155502000358,None,,,,,11036,001,2024_Mar_10_1501,nback,2021.2.3,59.79255570080238,
1-back,instructions\back-1.png,conditions\10back-e.xlsx,,,,,,,,,,,,,,,,,,,,,,,0,2,2,1,,,,,,,,,,,,,,,,,,,,,,,,,,,,,,,,,,,,,,,,,,,,,,,,,,,,,,,,,,,,,,,,,,,,,,,,,,,,,,,,,,,,,260.4176400001161,None,,,11036,001,2024_Mar_10_1501,nback,2021.2.3,59.79255570080238,
0-back,instructions\back-0.png,conditions\04back-e.xlsx,,,experiment,0,3,stim\gray.png,stim\gray.png,stim\yellow.png,stim\gray.png,right,,,,,,,,,,,,,0,3,3,13,0,0,0,0,,,,,,,,,,,,,,,261.51925010001287,266.0283274000976,266.00987450010143,None,,,,,,,,,,,,,,,,,,,,,,,,,,,,,,,,,,,,,,right,1,0.34454089985229075,266.4283168001566,None,266.4283168001566,None,266.4283168001566,267.4291195999831,266.4283168001566,267.4291195999831,266.4283168001566,267.4291195999831,266.4283168001566,267.4291195999831,266.4283168001566,266.9283197000623,266.4283168001566,266.9283197000623,266.4283168001566,266.9283197000623,266.4283168001566,266.9283197000623,266.4283168001566,None,,,,,11036,001,2024_Mar_10_1501,nback,2021.2.3,59.79255570080238,
0-back,instructions\back-0.png,conditions\04back-e.xlsx,,,experiment,0,1,stim\yellow.png,stim\gray.png,stim\gray.png,stim\gray.png,up,,,,,,,,,,,,,0,3,3,13,0,1,1,1,,,,,,,,,,,,,,,,,,,,,,,,,,,,,,,,,,,,,,,,,,,,,,,,,,,,,,,,up,1,0.3328893999569118,267.91203690017574,None,267.91203690017574,None,267.91203690017574,268.91434410004877,267.91203690017574,268.91434410004877,267.91203690017574,268.91434410004877,267.91203690017574,268.91434410004877,267.91203690017574,268.41374540003017,267.91203690017574,268.41374540003017,267.91203690017574,268.41374540003017,267.91203690017574,268.41374540003017,267.91203690017574,None,,,,,11036,001,2024_Mar_10_1501,nback,2021.2.3,59.79255570080238,
0-back,instructions\back-0.png,conditions\04back-e.xlsx,,,experiment,0,2,stim\gray.png,stim\yellow.png,stim\gray.png,stim\gray.png,left,,,,,,,,,,,,,0,3,3,13,0,2,2,2,,,,,,,,,,,,,,,,,,,,,,,,,,,,,,,,,,,,,,,,,,,,,,,,,,,,,,,,left,1,0.2622622000053525,269.41462219995447,None,269.41462219995447,None,269.41462219995447,270.41760329995304,269.41462219995447,270.41760329995304,269.41462219995447,270.41760329995304,269.41462219995447,270.41760329995304,269.41462219995447,269.91640720004216,269.41462219995447,269.91640720004216,269.41462219995447,269.91640720004216,269.41462219995447,269.91640720004216,269.41462219995447,None,,,,,11036,001,2024_Mar_10_1501,nback,2021.2.3,59.79255570080238,
0-back,instructions\back-0.png,conditions\04back-e.xlsx,,,experiment,0,3,stim\gray.png,stim\gray.png,stim\yellow.png,stim\gray.png,right,,,,,,,,,,,,,0,3,3,13,0,3,3,3,,,,,,,,,,,,,,,,,,,,,,,,,,,,,,,,,,,,,,,,,,,,,,,,,,,,,,,,right,1,0.41645499994046986,270.91726340004243,None,270.91726340004243,None,270.91726340004243,271.9193137001712,270.91726340004243,271.9193137001712,270.91726340004243,271.9193137001712,270.91726340004243,271.9193137001712,270.91726340004243,271.41757020005025,270.91726340004243,271.41757020005025,270.91726340004243,271.41757020005025,270.91726340004243,271.41757020005025,270.91726340004243,None,,,,,11036,001,2024_Mar_10_1501,nback,2021.2.3,59.79255570080238,
0-back,instructions\back-0.png,conditions\04back-e.xlsx,,,experiment,0,3,stim\gray.png,stim\gray.png,stim\yellow.png,stim\gray.png,right,,,,,,,,,,,,,0,3,3,13,0,4,4,4,,,,,,,,,,,,,,,,,,,,,,,,,,,,,,,,,,,,,,,,,,,,,,,,,,,,,,,,right,1,0.4023867999203503,272.41927780001424,None,272.41927780001424,None,272.41927780001424,273.42121200007387,272.41927780001424,273.42121200007387,272.41927780001424,273.42121200007387,272.41927780001424,273.42121200007387,272.41927780001424,272.91994579997845,272.41927780001424,272.91994579997845,272.41927780001424,272.91994579997845,272.41927780001424,272.91994579997845,272.41927780001424,None,,,,,11036,001,2024_Mar_10_1501,nback,2021.2.3,59.79255570080238,
0-back,instructions\back-0.png,conditions\04back-e.xlsx,,,experiment,0,2,stim\gray.png,stim\yellow.png,stim\gray.png,stim\gray.png,left,,,,,,,,,,,,,0,3,3,13,0,5,5,5,,,,,,,,,,,,,,,,,,,,,,,,,,,,,,,,,,,,,,,,,,,,,,,,,,,,,,,,left,1,0.4110641998704523,273.92219160008244,None,273.92219160008244,None,273.92219160008244,274.9230804000981,273.92219160008244,274.9230804000981,273.92219160008244,274.9230804000981,273.92219160008244,274.9230804000981,273.92219160008244,274.4227218001615,273.92219160008244,274.4227218001615,273.92219160008244,274.4227218001615,273.92219160008244,274.4227218001615,273.92219160008244,None,,,,,11036,001,2024_Mar_10_1501,nback,2021.2.3,59.79255570080238,
0-back,instructions\back-0.png,conditions\04back-e.xlsx,,,experiment,0,2,stim\gray.png,stim\yellow.png,stim\gray.png,stim\gray.png,left,,,,,,,,,,,,,0,3,3,13,0,6,6,6,,,,,,,,,,,,,,,,,,,,,,,,,,,,,,,,,,,,,,,,,,,,,,,,,,,,,,,,left,1,0.3654619997832924,275.42366810003296,None,275.42366810003296,None,275.42366810003296,276.4252190000843,275.42366810003296,276.4252190000843,275.42366810003296,276.4252190000843,275.42366810003296,276.4252190000843,275.42366810003296,275.92547010001726,275.42366810003296,275.92547010001726,275.42366810003296,275.92547010001726,275.42366810003296,275.92547010001726,275.42366810003296,None,,,,,11036,001,2024_Mar_10_1501,nback,2021.2.3,59.79255570080238,
0-back,instructions\back-0.png,conditions\04back-e.xlsx,,,experiment,0,1,stim\yellow.png,stim\gray.png,stim\gray.png,stim\gray.png,up,,,,,,,,,,,,,0,3,3,13,0,7,7,7,,,,,,,,,,,,,,,,,,,,,,,,,,,,,,,,,,,,,,,,,,,,,,,,,,,,,,,,up,1,0.41545019997283816,276.925820000004,None,276.925820000004,None,276.925820000004,277.9273947000038,276.925820000004,277.9273947000038,276.925820000004,277.9273947000038,276.925820000004,277.9273947000038,276.925820000004,277.42846490000375,276.925820000004,277.42846490000375,276.925820000004,277.42846490000375,276.925820000004,277.42846490000375,276.925820000004,None,,,,,11036,001,2024_Mar_10_1501,nback,2021.2.3,59.79255570080238,
0-back,instructions\back-0.png,conditions\04back-e.xlsx,,,experiment,0,4,stim\gray.png,stim\gray.png,stim\gray.png,stim\yellow.png,down,,,,,,,,,,,,,0,3,3,13,0,8,8,8,,,,,,,,,,,,,,,,,,,,,,,,,,,,,,,,,,,,,,,,,,,,,,,,,,,,,,,,down,1,0.39326889999210835,278.4119841000065,None,278.4119841000065,None,278.4119841000065,279.41298320004717,278.4119841000065,279.41298320004717,278.4119841000065,279.41298320004717,278.4119841000065,279.41298320004717,278.4119841000065,278.91239880002104,278.4119841000065,278.91239880002104,278.4119841000065,278.91239880002104,278.4119841000065,278.91239880002104,278.4119841000065,None,,,,,11036,001,2024_Mar_10_1501,nback,2021.2.3,59.79255570080238,
0-back,instructions\back-0.png,conditions\04back-e.xlsx,,,experiment,0,4,stim\gray.png,stim\gray.png,stim\gray.png,stim\yellow.png,down,,,,,,,,,,,,,0,3,3,13,0,9,9,9,,,,,,,,,,,,,,,,,,,,,,,,,,,,,,,,,,,,,,,,,,,,,,,,,,,,,,,,down,1,0.5710754999890924,279.9138193000108,None,279.9138193000108,None,279.9138193000108,280.9163250999991,279.9138193000108,280.9163250999991,279.9138193000108,280.9163250999991,279.9138193000108,280.9163250999991,279.9138193000108,280.4145027999766,279.9138193000108,280.4145027999766,279.9138193000108,280.4145027999766,279.9138193000108,280.4145027999766,279.9138193000108,None,,,,,11036,001,2024_Mar_10_1501,nback,2021.2.3,59.79255570080238,
0-back,instructions\back-0.png,conditions\04back-e.xlsx,,,experiment,0,1,stim\yellow.png,stim\gray.png,stim\gray.png,stim\gray.png,up,,,,,,,,,,,,,0,3,3,13,0,10,10,10,,,,,,,,,,,,,,,,,,,,,,,,,,,,,,,,,,,,,,,,,,,,,,,,,,,,,,,,up,1,0.48582170018926263,281.41582850017585,None,281.41582850017585,None,281.41582850017585,282.4180924000684,281.41582850017585,282.4180924000684,281.41582850017585,282.4180924000684,281.41582850017585,282.4180924000684,281.41582850017585,281.9167897000443,281.41582850017585,281.9167897000443,281.41582850017585,281.9167897000443,281.41582850017585,281.9167897000443,281.41582850017585,None,,,,,11036,001,2024_Mar_10_1501,nback,2021.2.3,59.79255570080238,
0-back,instructions\back-0.png,conditions\04back-e.xlsx,,,experiment,0,4,stim\gray.png,stim\gray.png,stim\gray.png,stim\yellow.png,down,,,,,,,,,,,,,0,3,3,13,0,11,11,11,,,,,,,,,,,,,,,,,,,,,,,,,,,,,,,,,,,,,,,,,,,,,,,,,,,,,,,,down,1,0.33496739994734526,282.91820720001124,None,282.91820720001124,None,282.91820720001124,283.920389899984,282.91820720001124,283.920389899984,282.91820720001124,283.920389899984,282.91820720001124,283.920389899984,282.91820720001124,283.4196073000785,282.91820720001124,283.4196073000785,282.91820720001124,283.4196073000785,282.91820720001124,283.4196073000785,282.91820720001124,None,,,,,11036,001,2024_Mar_10_1501,nback,2021.2.3,59.79255570080238,
0-back,instructions\back-0.png,conditions\04back-e.xlsx,,,experiment,0,1,stim\yellow.png,stim\gray.png,stim\gray.png,stim\gray.png,up,,,,,,,,,,,,,0,3,3,13,0,12,12,12,,,,,,,,,,,,,,,,,,,,,,,,,,,,,,,,,,,,,,,,,,,,,,,,,,,,,,,,up,1,0.4160629999823868,284.42178980004974,None,284.42178980004974,None,284.42178980004974,285.42260599997826,284.42178980004974,285.42260599997826,284.42178980004974,285.42260599997826,284.42178980004974,285.42260599997826,284.42178980004974,284.9222769001499,284.42178980004974,284.9222769001499,284.42178980004974,284.9222769001499,284.42178980004974,284.9222769001499,284.42178980004974,None,,,,,11036,001,2024_Mar_10_1501,nback,2021.2.3,59.79255570080238,
0-back,instructions\back-0.png,conditions\04back-e.xlsx,,,experiment,0,3,stim\gray.png,stim\gray.png,stim\yellow.png,stim\gray.png,right,,,,,,,,,,,,,0,3,3,13,0,13,13,13,,,,,,,,,,,,,,,,,,,,,,,,,,,,,,,,,,,,,,,,,,,,,,,,,,,,,,,,right,1,0.37866510008461773,285.9226607000455,None,285.9226607000455,None,285.9226607000455,286.92422470008023,285.9226607000455,286.92422470008023,285.9226607000455,286.92422470008023,285.9226607000455,286.92422470008023,285.9226607000455,286.42368290014565,285.9226607000455,286.42368290014565,285.9226607000455,286.42368290014565,285.9226607000455,286.42368290014565,285.9226607000455,None,,,,,11036,001,2024_Mar_10_1501,nback,2021.2.3,59.79255570080238,
0-back,instructions\back-0.png,conditions\04back-e.xlsx,,,experiment,0,4,stim\gray.png,stim\gray.png,stim\gray.png,stim\yellow.png,down,,,,,,,,,,,,,0,3,3,13,0,14,14,14,,,,,,,,,,,,,,,,,,,,,,,,,,,,,,,,,,,,,,,,,,,,,,,,,,,,,,,,down,1,0.5488887000828981,287.42471960000694,None,287.42471960000694,None,287.42471960000694,288.42754329997115,287.42471960000694,288.42754329997115,287.42471960000694,288.42754329997115,287.42471960000694,288.42754329997115,287.42471960000694,287.92645999998786,287.42471960000694,287.92645999998786,287.42471960000694,287.92645999998786,287.42471960000694,287.92645999998786,287.42471960000694,None,,,,,11036,001,2024_Mar_10_1501,nback,2021.2.3,59.79255570080238,
0-back,instructions\back-0.png,conditions\04back-e.xlsx,,,experiment,0,1,stim\yellow.png,stim\gray.png,stim\gray.png,stim\gray.png,up,,,,,,,,,,,,,0,3,3,13,0,15,15,15,,,,,,,,,,,,,,,,,,,,,,,,,,,,,,,,,,,,,,,,,,,,,,,,,,,,,,,,up,1,0.4060414000414312,288.91150250006467,None,288.91150250006467,None,288.91150250006467,289.9121620999649,288.91150250006467,289.9121620999649,288.91150250006467,289.9121620999649,288.91150250006467,289.9121620999649,288.91150250006467,289.4119669001084,288.91150250006467,289.4119669001084,288.91150250006467,289.4119669001084,288.91150250006467,289.4119669001084,288.91150250006467,None,,,,,11036,001,2024_Mar_10_1501,nback,2021.2.3,59.79255570080238,
0-back,instructions\back-0.png,conditions\04back-e.xlsx,,,experiment,0,2,stim\gray.png,stim\yellow.png,stim\gray.png,stim\gray.png,left,,,,,,,,,,,,,0,3,3,13,0,16,16,16,,,,,,,,,,,,,,,,,,,,,,,,,,,,,,,,,,,,,,,,,,,,,,,,,,,,,,,,left,1,0.41691010002978146,290.412812900031,None,290.412812900031,None,290.412812900031,291.4149533000309,290.412812900031,291.4149533000309,290.412812900031,291.4149533000309,290.412812900031,291.4149533000309,290.412812900031,290.91402960009873,290.412812900031,290.91402960009873,290.412812900031,290.91402960009873,290.412812900031,290.91402960009873,290.412812900031,None,,,,,11036,001,2024_Mar_10_1501,nback,2021.2.3,59.79255570080238,
