backseq,backinstr,backfile,instruction,size_in,Trialtype,back,number,P1,P2,P3,P4,corrAns,trials_practice.thisRepN,trials_practice.thisTrialN,trials_practice.thisN,trials_practice.thisIndex,trials.thisRepN,trials.thisTrialN,trials.thisN,trials.thisIndex,trials_3.thisRepN,trials_3.thisTrialN,trials_3.thisN,trials_3.thisIndex,trials_2.thisRepN,trials_2.thisTrialN,trials_2.thisN,trials_2.thisIndex,trials_4.thisRepN,trials_4.thisTrialN,trials_4.thisN,trials_4.thisIndex,image.started,image.stopped,image_2.started,image_2.stopped,key_resp.keys,key_resp.rt,key_resp.started,key_resp.stopped,image_3.started,image_3.stopped,key_resp_2.keys,key_resp_2.rt,key_resp_2.started,key_resp_2.stopped,image_4.started,image_4.stopped,text.started,text.stopped,H1.started,H1.stopped,H2.started,H2.stopped,H3.started,H3.stopped,H4.started,H4.stopped,key_resp_3.keys,key_resp_3.corr,key_resp_3.rt,key_resp_3.started,key_resp_3.stopped,text_4.started,text_4.stopped,F1.started,F1.stopped,F2.started,F2.stopped,F3.started,F3.stopped,F4.started,F4.stopped,image_7.started,image_7.stopped,text_5.started,text_5.stopped,key_resp_6.keys,key_resp_6.rt,key_resp_6.started,key_resp_6.stopped,image_5.started,image_5.stopped,key_resp_4.keys,key_resp_4.rt,key_resp_4.started,key_resp_4.stopped,key_resp_5.keys,key_resp_5.corr,key_resp_5.started,key_resp_5.stopped,text_3.started,text_3.stopped,H1_2.started,H1_2.stopped,H2_2.started,H2_2.stopped,H3_2.started,H3_2.stopped,H4_2.started,H4_2.stopped,F1_2.started,F1_2.stopped,F2_2.started,F2_2.stopped,F3_2.started,F3_2.stopped,F4_2.started,F4_2.stopped,image_8.started,image_8.stopped,key_resp_5.rt,text_2.started,text_2.stopped,image_6.started,image_6.stopped,participant,session,date,expName,psychopyVersion,frameRate,
,,,,,,,,,,,,,,,,,,,,,,,,,,,,,,,,,13.97875629994087,None,14.931125200120732,None,space,7.134757200023159,14.931125200120732,None,,,,,,,,,,,,,,,,,,,,,,,,,,,,,,,,,,,,,,,,,,,,,,,,,,,,,,,,,,,,,,,,,,,,,,,,,,,,,11032,001,2024_Jan_11_1609,nback,2021.2.3,59.54149475384767,
0-back,instructions\back-0.png,conditions\0back-p.xlsx,instructions\0-BACK.png,"(15, 8)",practice,0,1,stim\yellow.png,stim\gray.png,stim\gray.png,stim\gray.png,up,0,0,0,0,0,0,0,0,0,0,0,0,,,,,,,,,,,,,,,,,22.141234300099313,None,space,12.077111599966884,22.141234300099313,None,34.40913280006498,38.917264000047,38.84955290006474,None,39.26680020010099,40.268669800134376,39.26680020010099,40.268669800134376,39.26680020010099,40.268669800134376,39.26680020010099,40.268669800134376,up,1,0.6951446000020951,39.26680020010099,None,39.26680020010099,None,39.26680020010099,39.76726510003209,39.26680020010099,39.76726510003209,39.26680020010099,39.76726510003209,39.26680020010099,39.76726510003209,39.26680020010099,None,,,,,,,,,,,,,,,,,,,,,,,,,,,,,,,,,,,,,,,,,,11032,001,2024_Jan_11_1609,nback,2021.2.3,59.54149475384767,
0-back,instructions\back-0.png,conditions\0back-p.xlsx,instructions\0-BACK.png,"(15, 8)",practice,0,2,stim\gray.png,stim\yellow.png,stim\gray.png,stim\gray.png,left,0,0,0,0,0,0,0,0,0,1,1,1,,,,,,,,,,,,,,,,,,,,,,,,,,,40.751792800147086,41.75414630002342,40.751792800147086,41.75414630002342,40.751792800147086,41.75414630002342,40.751792800147086,41.75414630002342,left,1,0.5621545999310911,40.751792800147086,None,40.751792800147086,None,40.751792800147086,41.253981800051406,40.751792800147086,41.253981800051406,40.751792800147086,41.253981800051406,40.751792800147086,41.253981800051406,40.751792800147086,None,,,,,,,,,,,,,,,,,,,,,,,,,,,,,,,,,,,,,,,,,,11032,001,2024_Jan_11_1609,nback,2021.2.3,59.54149475384767,
0-back,instructions\back-0.png,conditions\0back-p.xlsx,instructions\0-BACK.png,"(15, 8)",practice,0,3,stim\gray.png,stim\gray.png,stim\yellow.png,stim\gray.png,right,0,0,0,0,0,0,0,0,0,2,2,2,,,,,,,,,,,,,,,,,,,,,,,,,,,42.2541135000065,43.25640489999205,42.2541135000065,43.25640489999205,42.2541135000065,43.25640489999205,42.2541135000065,43.25640489999205,right,1,0.4119480000808835,42.2541135000065,None,42.2541135000065,None,42.2541135000065,42.75518610002473,42.2541135000065,42.75518610002473,42.2541135000065,42.75518610002473,42.2541135000065,42.75518610002473,42.2541135000065,None,,,,,,,,,,,,,,,,,,,,,,,,,,,,,,,,,,,,,,,,,,11032,001,2024_Jan_11_1609,nback,2021.2.3,59.54149475384767,
0-back,instructions\back-0.png,conditions\0back-p.xlsx,instructions\0-BACK.png,"(15, 8)",practice,0,4,stim\gray.png,stim\gray.png,stim\gray.png,stim\yellow.png,down,0,0,0,0,0,0,0,0,0,3,3,3,,,,,,,,,,,,,,,,,,,,,,,,,,,43.75636740005575,44.757585800020024,43.75636740005575,44.757585800020024,43.75636740005575,44.757585800020024,43.75636740005575,44.757585800020024,down,1,0.6214030999690294,43.75636740005575,None,43.75636740005575,None,43.75636740005575,44.25744780013338,43.75636740005575,44.25744780013338,43.75636740005575,44.25744780013338,43.75636740005575,44.25744780013338,43.75636740005575,None,,,,,,,,,,,,,,,,,,,,,,,,,,,,,,,,,,,,,,,,,,11032,001,2024_Jan_11_1609,nback,2021.2.3,59.54149475384767,
0-back,instructions\back-0.png,conditions\0back-p.xlsx,instructions\0-BACK.png,"(15, 8)",practice,0,2,stim\gray.png,stim\yellow.png,stim\gray.png,stim\gray.png,left,0,0,0,0,0,0,0,0,0,4,4,4,,,,,,,,,,,,,,,,,,,,,,,,,,,45.25852060015313,46.25992040010169,45.25852060015313,46.25992040010169,45.25852060015313,46.25992040010169,45.25852060015313,46.25992040010169,left,1,0.4237437001429498,45.25852060015313,None,45.25852060015313,None,45.25852060015313,45.760120999999344,45.25852060015313,45.760120999999344,45.25852060015313,45.760120999999344,45.25852060015313,45.760120999999344,45.25852060015313,None,,,,,,,,,,,,,,,,,,,,,,,,,,,,,,,,,,,,,,,,,,11032,001,2024_Jan_11_1609,nback,2021.2.3,59.54149475384767,
0-back,instructions\back-0.png,conditions\0back-p.xlsx,instructions\0-BACK.png,"(15, 8)",practice,0,1,stim\yellow.png,stim\gray.png,stim\gray.png,stim\gray.png,up,0,0,0,0,0,0,0,0,0,5,5,5,,,,,,,,,,,,,,,,,,,,,,,,,,,46.76156500005163,47.76298660016619,46.76156500005163,47.76298660016619,46.76156500005163,47.76298660016619,46.76156500005163,47.76298660016619,up,1,0.39237409993074834,46.76156500005163,None,46.76156500005163,None,46.76156500005163,47.26260869996622,46.76156500005163,47.26260869996622,46.76156500005163,47.26260869996622,46.76156500005163,47.26260869996622,46.76156500005163,None,,,,,,,,,,,,,,,,,,,,,,,,,,,,,,,,,,,,,,,,,,11032,001,2024_Jan_11_1609,nback,2021.2.3,59.54149475384767,
0-back,instructions\back-0.png,conditions\0back-p.xlsx,instructions\0-BACK.png,"(15, 8)",practice,0,4,stim\gray.png,stim\gray.png,stim\gray.png,stim\yellow.png,down,0,0,0,0,0,0,0,0,0,6,6,6,,,,,,,,,,,,,,,,,,,,,,,,,,,48.24642130010761,49.24787409999408,48.24642130010761,49.24787409999408,48.24642130010761,49.24787409999408,48.24642130010761,49.24787409999408,down,1,0.555574300000444,48.24642130010761,None,48.24642130010761,None,48.24642130010761,48.74741670000367,48.24642130010761,48.74741670000367,48.24642130010761,48.74741670000367,48.24642130010761,48.74741670000367,48.24642130010761,None,,,,,,,,,,,,,,,,,,,,,,,,,,,,,,,,,,,,,,,,,,11032,001,2024_Jan_11_1609,nback,2021.2.3,59.54149475384767,
0-back,instructions\back-0.png,conditions\0back-p.xlsx,instructions\0-BACK.png,"(15, 8)",practice,0,3,stim\gray.png,stim\gray.png,stim\yellow.png,stim\gray.png,right,0,0,0,0,0,0,0,0,0,7,7,7,,,,,,,,,,,,,,,,,,,,,,,,,,,49.74855390004814,50.750397900119424,49.74855390004814,50.750397900119424,49.74855390004814,50.750397900119424,49.74855390004814,50.750397900119424,right,1,0.3663418998476118,49.74855390004814,None,49.74855390004814,None,49.74855390004814,50.25027190009132,49.74855390004814,50.25027190009132,49.74855390004814,50.25027190009132,49.74855390004814,50.25027190009132,49.74855390004814,None,,,,,,,,,,,,,,,,,,,,,,,,,,,,,,,,,,,,,,,,,,11032,001,2024_Jan_11_1609,nback,2021.2.3,59.54149475384767,
0-back,instructions\back-0.png,conditions\0back-p.xlsx,instructions\0-BACK.png,"(15, 8)",practice,0,3,stim\gray.png,stim\gray.png,stim\yellow.png,stim\gray.png,right,0,0,0,0,0,0,0,0,0,8,8,8,,,,,,,,,,,,,,,,,,,,,,,,,,,51.2513423000928,52.25318040000275,51.2513423000928,52.25318040000275,51.2513423000928,52.25318040000275,51.2513423000928,52.25318040000275,right,1,0.4788134000264108,51.2513423000928,None,51.2513423000928,None,51.2513423000928,51.751539200078696,51.2513423000928,51.751539200078696,51.2513423000928,51.751539200078696,51.2513423000928,51.751539200078696,51.2513423000928,None,,,,,,,,,,,,,,,,,,,,,,,,,,,,,,,,,,,,,,,,,,11032,001,2024_Jan_11_1609,nback,2021.2.3,59.54149475384767,
0-back,instructions\back-0.png,conditions\0back-p.xlsx,instructions\0-BACK.png,"(15, 8)",practice,0,4,stim\gray.png,stim\gray.png,stim\gray.png,stim\yellow.png,down,0,0,0,0,0,0,0,0,0,9,9,9,,,,,,,,,,,,,,,,,,,,,,,,,,,52.753290800144896,53.754421200137585,52.753290800144896,53.754421200137585,52.753290800144896,53.754421200137585,52.753290800144896,53.754421200137585,down,1,0.5606445998419076,52.753290800144896,None,52.753290800144896,None,52.753290800144896,53.2537275000941,52.753290800144896,53.2537275000941,52.753290800144896,53.2537275000941,52.753290800144896,53.2537275000941,52.753290800144896,None,,,,,,,,,,,,,,,,,,,,,,,,,,,,,,,,,,,,,,,,,,11032,001,2024_Jan_11_1609,nback,2021.2.3,59.54149475384767,
0-back,instructions\back-0.png,conditions\0back-p.xlsx,instructions\0-BACK.png,"(15, 8)",practice,0,1,stim\yellow.png,stim\gray.png,stim\gray.png,stim\gray.png,up,0,0,0,0,0,0,0,0,0,10,10,10,,,,,,,,,,,,,,,,,,,,,,,,,,,54.25533980014734,55.257029900094494,54.25533980014734,55.257029900094494,54.25533980014734,55.257029900094494,54.25533980014734,55.257029900094494,up,1,0.5864955000579357,54.25533980014734,None,54.25533980014734,None,54.25533980014734,54.756691799964756,54.25533980014734,54.756691799964756,54.25533980014734,54.756691799964756,54.25533980014734,54.756691799964756,54.25533980014734,None,,,,,,,,,,,,,,,,,,,,,,,,,,,,,,,,,,,,,,,,,,11032,001,2024_Jan_11_1609,nback,2021.2.3,59.54149475384767,
0-back,instructions\back-0.png,conditions\0back-p.xlsx,instructions\0-BACK.png,"(15, 8)",practice,0,2,stim\gray.png,stim\yellow.png,stim\gray.png,stim\gray.png,left,0,0,0,0,0,0,0,0,0,11,11,11,,,,,,,,,,,,,,,,,,,,,,,,,,,55.757341500138864,56.75970480008982,55.757341500138864,56.75970480008982,55.757341500138864,56.75970480008982,55.757341500138864,56.75970480008982,left,1,0.34894159995019436,55.757341500138864,None,55.757341500138864,None,55.757341500138864,56.25827720016241,55.757341500138864,56.25827720016241,55.757341500138864,56.25827720016241,55.757341500138864,56.25827720016241,55.757341500138864,None,,,,,,,,,,,,,,,,,,,,,,,,,,,,,,,,,,,,,,,,,,11032,001,2024_Jan_11_1609,nback,2021.2.3,59.54149475384767,
0-back,instructions\back-0.png,conditions\0back-p.xlsx,instructions\0-BACK.png,"(15, 8)",practice,0,4,stim\gray.png,stim\gray.png,stim\gray.png,stim\yellow.png,down,0,0,0,0,0,0,0,0,0,12,12,12,,,,,,,,,,,,,,,,,,,,,,,,,,,57.2603937999811,58.26204950013198,57.2603937999811,58.26204950013198,57.2603937999811,58.26204950013198,57.2603937999811,58.26204950013198,down,1,0.42955369991250336,57.2603937999811,None,57.2603937999811,None,57.2603937999811,57.76119809993543,57.2603937999811,57.76119809993543,57.2603937999811,57.76119809993543,57.2603937999811,57.76119809993543,57.2603937999811,None,,,,,,,,,,,,,,,,,,,,,,,,,,,,,,,,,,,,,,,,,,11032,001,2024_Jan_11_1609,nback,2021.2.3,59.54149475384767,
0-back,instructions\back-0.png,conditions\0back-p.xlsx,instructions\0-BACK.png,"(15, 8)",practice,0,3,stim\gray.png,stim\gray.png,stim\yellow.png,stim\gray.png,right,0,0,0,0,0,0,0,0,0,13,13,13,,,,,,,,,,,,,,,,,,,,,,,,,,,58.76201350009069,59.76396850007586,58.76201350009069,59.76396850007586,58.76201350009069,59.76396850007586,58.76201350009069,59.76396850007586,right,1,0.4480240000411868,58.76201350009069,None,58.76201350009069,None,58.76201350009069,59.26377229997888,58.76201350009069,59.26377229997888,58.76201350009069,59.26377229997888,58.76201350009069,59.26377229997888,58.76201350009069,None,,,,,,,,,,,,,,,,,,,,,,,,,,,,,,,,,,,,,,,,,,11032,001,2024_Jan_11_1609,nback,2021.2.3,59.54149475384767,
0-back,instructions\back-0.png,conditions\0back-p.xlsx,instructions\0-BACK.png,"(15, 8)",practice,0,1,stim\yellow.png,stim\gray.png,stim\gray.png,stim\gray.png,up,0,0,0,0,0,0,0,0,0,14,14,14,,,,,,,,,,,,,,,,,,,,,,,,,,,60.24742519995198,61.249177400022745,60.24742519995198,61.249177400022745,60.24742519995198,61.249177400022745,60.24742519995198,61.249177400022745,up,1,0.4104958998505026,60.24742519995198,None,60.24742519995198,None,60.24742519995198,60.74864130001515,60.24742519995198,60.74864130001515,60.24742519995198,60.74864130001515,60.24742519995198,60.74864130001515,60.24742519995198,None,,,,,,,,,,,,,,,,,,,,,,,,,,,,,,,,,,,,,,,,,,11032,001,2024_Jan_11_1609,nback,2021.2.3,59.54149475384767,
0-back,instructions\back-0.png,conditions\0back-p.xlsx,instructions\0-BACK.png,"(15, 8)",practice,0,2,stim\gray.png,stim\yellow.png,stim\gray.png,stim\gray.png,left,0,0,0,0,0,0,0,0,0,15,15,15,,,,,,,,,,,,,,,,,,,,,,,,,,,61.74969540000893,62.75139530003071,61.74969540000893,62.75139530003071,61.74969540000893,62.75139530003071,61.74969540000893,62.75139530003071,left,1,0.29215440014377236,61.74969540000893,None,61.74969540000893,None,61.74969540000893,62.251316400012,61.74969540000893,62.251316400012,61.74969540000893,62.251316400012,61.74969540000893,62.251316400012,61.74969540000893,None,,,,,,,,,,,,,,,,,,,,,,,,,,,,,,,,,,,,,,,,,,11032,001,2024_Jan_11_1609,nback,2021.2.3,59.54149475384767,
0-back,instructions\back-0.png,conditions\0back-p.xlsx,instructions\0-BACK.png,"(15, 8)",practice,0,3,stim\gray.png,stim\gray.png,stim\yellow.png,stim\gray.png,right,0,0,0,0,0,0,0,0,0,16,16,16,,,,,,,,,,,,,,,,,,,,,,,,,,,63.252035200130194,64.25379160000011,63.252035200130194,64.25379160000011,63.252035200130194,64.25379160000011,63.252035200130194,64.25379160000011,right,1,0.31832049996592104,63.252035200130194,None,63.252035200130194,None,63.252035200130194,63.75258220010437,63.252035200130194,63.75258220010437,63.252035200130194,63.75258220010437,63.252035200130194,63.75258220010437,63.252035200130194,None,,,,,,,,,,,,,,,,,,,,,,,,,,,,,,,,,,,,,,,,,,11032,001,2024_Jan_11_1609,nback,2021.2.3,59.54149475384767,
0-back,instructions\back-0.png,conditions\0back-p.xlsx,instructions\0-BACK.png,"(15, 8)",practice,0,1,stim\yellow.png,stim\gray.png,stim\gray.png,stim\gray.png,up,0,0,0,0,0,0,0,0,0,17,17,17,,,,,,,,,,,,,,,,,,,,,,,,,,,64.75408540014178,65.75629630009644,64.75408540014178,65.75629630009644,64.75408540014178,65.75629630009644,64.75408540014178,65.75629630009644,up,1,0.43988700001500547,64.75408540014178,None,64.75408540014178,None,64.75408540014178,65.25487249996513,64.75408540014178,65.25487249996513,64.75408540014178,65.25487249996513,64.75408540014178,65.25487249996513,64.75408540014178,None,,,,,,,,,,,,,,,,,,,,,,,,,,,,,,,,,,,,,,,,,,11032,001,2024_Jan_11_1609,nback,2021.2.3,59.54149475384767,
0-back,instructions\back-0.png,conditions\0back-p.xlsx,instructions\0-BACK.png,"(15, 8)",practice,0,4,stim\gray.png,stim\gray.png,stim\gray.png,stim\yellow.png,down,0,0,0,0,0,0,0,0,0,18,18,18,,,,,,,,,,,,,,,,,,,,,,,,,,,66.25642059999518,67.25868800003082,66.25642059999518,67.25868800003082,66.25642059999518,67.25868800003082,66.25642059999518,67.25868800003082,down,1,0.6022034001071006,66.25642059999518,None,66.25642059999518,None,66.25642059999518,66.75692860013805,66.25642059999518,66.75692860013805,66.25642059999518,66.75692860013805,66.25642059999518,66.75692860013805,66.25642059999518,None,,,,,,,,,,,,,,,,,,,,,,,,,,,,,,,,,,,,,,,,,,11032,001,2024_Jan_11_1609,nback,2021.2.3,59.54149475384767,
0-back,instructions\back-0.png,conditions\0back-p.xlsx,instructions\0-BACK.png,"(15, 8)",practice,0,2,stim\gray.png,stim\yellow.png,stim\gray.png,stim\gray.png,left,0,0,0,0,0,0,0,0,0,19,19,19,,,,,,,,,,,,,,,,,,,,,,,,,,,67.75856940005906,68.7610704000108,67.75856940005906,68.7610704000108,67.75856940005906,68.7610704000108,67.75856940005906,68.7610704000108,left,1,0.36409679986536503,67.75856940005906,None,67.75856940005906,None,67.75856940005906,68.25967009994201,67.75856940005906,68.25967009994201,67.75856940005906,68.25967009994201,67.75856940005906,68.25967009994201,67.75856940005906,None,,,,,,,,,,,,,,,,,,,,,,,,,,,,,,,,,,,,,,,,,,11032,001,2024_Jan_11_1609,nback,2021.2.3,59.54149475384767,
0-back,instructions\back-0.png,conditions\0back-p.xlsx,instructions\0-BACK.png,"(15, 8)",,,,,,,,,0,0,0,0,0,0,0,0,,,,,,,,,,,,,,,,,,,,,,,,,,,,,,,,,,,,,,,,,,,,,,,,,,,,,,,,,,,,,,,,,,,,,,,,,,,,,,,,,,,,,,,,,,,,,,,,,11032,001,2024_Jan_11_1609,nback,2021.2.3,59.54149475384767,
1-back,instructions\back-1.png,conditions\1back-p.xlsx,instructions\1-BACK.png,"(25, 15)",practice,1,1,stim\yellow.png,stim\gray.png,stim\gray.png,stim\gray.png,None,0,0,0,0,0,1,1,1,0,0,0,0,,,,,,,,,,,,,,,,,69.41089950012974,None,space,12.08690970018506,69.41089950012974,None,81.66238730004989,86.16956349997781,86.13790720002726,None,86.55361700011417,87.55519600003026,86.55361700011417,87.55519600003026,86.55361700011417,87.55519600003026,86.55361700011417,87.55519600003026,None,1,,86.55361700011417,None,86.55361700011417,None,86.55361700011417,87.05385090014897,86.55361700011417,87.05385090014897,86.55361700011417,87.05385090014897,86.55361700011417,87.05385090014897,86.55361700011417,None,,,,,,,,,,,,,,,,,,,,,,,,,,,,,,,,,,,,,,,,,,11032,001,2024_Jan_11_1609,nback,2021.2.3,59.54149475384767,
1-back,instructions\back-1.png,conditions\1back-p.xlsx,instructions\1-BACK.png,"(25, 15)",practice,1,2,stim\gray.png,stim\yellow.png,stim\gray.png,stim\gray.png,up,0,0,0,0,0,1,1,1,0,1,1,1,,,,,,,,,,,,,,,,,,,,,,,,,,,88.03842690004967,89.04039710015059,88.03842690004967,89.04039710015059,88.03842690004967,89.04039710015059,88.03842690004967,89.04039710015059,up,1,0.34003079985268414,88.03842690004967,None,88.03842690004967,None,88.03842690004967,88.53985980013385,88.03842690004967,88.53985980013385,88.03842690004967,88.53985980013385,88.03842690004967,88.53985980013385,88.03842690004967,None,,,,,,,,,,,,,,,,,,,,,,,,,,,,,,,,,,,,,,,,,,11032,001,2024_Jan_11_1609,nback,2021.2.3,59.54149475384767,
1-back,instructions\back-1.png,conditions\1back-p.xlsx,instructions\1-BACK.png,"(25, 15)",practice,1,3,stim\gray.png,stim\gray.png,stim\yellow.png,stim\gray.png,left,0,0,0,0,0,1,1,1,0,2,2,2,,,,,,,,,,,,,,,,,,,,,,,,,,,89.54108490003273,90.54288880014792,89.54108490003273,90.54288880014792,89.54108490003273,90.54288880014792,89.54108490003273,90.54288880014792,left,1,0.28522929991595447,89.54108490003273,None,89.54108490003273,None,89.54108490003273,90.0420230999589,89.54108490003273,90.0420230999589,89.54108490003273,90.0420230999589,89.54108490003273,90.0420230999589,89.54108490003273,None,,,,,,,,,,,,,,,,,,,,,,,,,,,,,,,,,,,,,,,,,,11032,001,2024_Jan_11_1609,nback,2021.2.3,59.54149475384767,
1-back,instructions\back-1.png,conditions\1back-p.xlsx,instructions\1-BACK.png,"(25, 15)",practice,1,4,stim\gray.png,stim\gray.png,stim\gray.png,stim\yellow.png,right,0,0,0,0,0,1,1,1,0,3,3,3,,,,,,,,,,,,,,,,,,,,,,,,,,,91.04302159999497,92.04435999994166,91.04302159999497,92.04435999994166,91.04302159999497,92.04435999994166,91.04302159999497,92.04435999994166,right,1,0.3752260999754071,91.04302159999497,None,91.04302159999497,None,91.04302159999497,91.54400210012682,91.04302159999497,91.54400210012682,91.04302159999497,91.54400210012682,91.04302159999497,91.54400210012682,91.04302159999497,None,,,,,,,,,,,,,,,,,,,,,,,,,,,,,,,,,,,,,,,,,,11032,001,2024_Jan_11_1609,nback,2021.2.3,59.54149475384767,
1-back,instructions\back-1.png,conditions\1back-p.xlsx,instructions\1-BACK.png,"(25, 15)",practice,1,2,stim\gray.png,stim\yellow.png,stim\gray.png,stim\gray.png,down,0,0,0,0,0,1,1,1,0,4,4,4,,,,,,,,,,,,,,,,,,,,,,,,,,,92.5452920999378,93.55030720005743,92.5452920999378,93.55030720005743,92.5452920999378,93.55030720005743,92.5452920999378,93.55030720005743,down,1,0.40966670005582273,92.5452920999378,None,92.5452920999378,None,92.5452920999378,93.04660630016588,92.5452920999378,93.04660630016588,92.5452920999378,93.04660630016588,92.5452920999378,93.04660630016588,92.5452920999378,None,,,,,,,,,,,,,,,,,,,,,,,,,,,,,,,,,,,,,,,,,,11032,001,2024_Jan_11_1609,nback,2021.2.3,59.54149475384767,
1-back,instructions\back-1.png,conditions\1back-p.xlsx,instructions\1-BACK.png,"(25, 15)",practice,1,1,stim\yellow.png,stim\gray.png,stim\gray.png,stim\gray.png,left,0,0,0,0,0,1,1,1,0,5,5,5,,,,,,,,,,,,,,,,,,,,,,,,,,,94.04751970013604,95.0504916999489,94.04751970013604,95.0504916999489,94.04751970013604,95.0504916999489,94.04751970013604,95.0504916999489,left,1,0.26696650008670986,94.04751970013604,None,94.04751970013604,None,94.04751970013604,94.54879430006258,94.04751970013604,94.54879430006258,94.04751970013604,94.54879430006258,94.04751970013604,94.54879430006258,94.04751970013604,None,,,,,,,,,,,,,,,,,,,,,,,,,,,,,,,,,,,,,,,,,,11032,001,2024_Jan_11_1609,nback,2021.2.3,59.54149475384767,
1-back,instructions\back-1.png,conditions\1back-p.xlsx,instructions\1-BACK.png,"(25, 15)",practice,1,4,stim\gray.png,stim\gray.png,stim\gray.png,stim\yellow.png,up,0,0,0,0,0,1,1,1,0,6,6,6,,,,,,,,,,,,,,,,,,,,,,,,,,,95.53337880014442,96.53479490010068,95.53337880014442,96.53479490010068,95.53337880014442,96.53479490010068,95.53337880014442,96.53479490010068,up,1,0.27664779988117516,95.53337880014442,None,95.53337880014442,None,95.53337880014442,96.03401120007038,95.53337880014442,96.03401120007038,95.53337880014442,96.03401120007038,95.53337880014442,96.03401120007038,95.53337880014442,None,,,,,,,,,,,,,,,,,,,,,,,,,,,,,,,,,,,,,,,,,,11032,001,2024_Jan_11_1609,nback,2021.2.3,59.54149475384767,
1-back,instructions\back-1.png,conditions\1back-p.xlsx,instructions\1-BACK.png,"(25, 15)",practice,1,3,stim\gray.png,stim\gray.png,stim\yellow.png,stim\gray.png,down,0,0,0,0,0,1,1,1,0,7,7,7,,,,,,,,,,,,,,,,,,,,,,,,,,,97.0351273000706,98.03680630004965,97.0351273000706,98.03680630004965,97.0351273000706,98.03680630004965,97.0351273000706,98.03680630004965,down,1,0.38298480003140867,97.0351273000706,None,97.0351273000706,None,97.0351273000706,97.53607990010642,97.0351273000706,97.53607990010642,97.0351273000706,97.53607990010642,97.0351273000706,97.53607990010642,97.0351273000706,None,,,,,,,,,,,,,,,,,,,,,,,,,,,,,,,,,,,,,,,,,,11032,001,2024_Jan_11_1609,nback,2021.2.3,59.54149475384767,
1-back,instructions\back-1.png,conditions\1back-p.xlsx,instructions\1-BACK.png,"(25, 15)",practice,1,3,stim\gray.png,stim\gray.png,stim\yellow.png,stim\gray.png,right,0,0,0,0,0,1,1,1,0,8,8,8,,,,,,,,,,,,,,,,,,,,,,,,,,,98.53773840004578,99.53925750008784,98.53773840004578,99.53925750008784,98.53773840004578,99.53925750008784,98.53773840004578,99.53925750008784,right,1,0.36814629985019565,98.53773840004578,None,98.53773840004578,None,98.53773840004578,99.03924360009842,98.53773840004578,99.03924360009842,98.53773840004578,99.03924360009842,98.53773840004578,99.03924360009842,98.53773840004578,None,,,,,,,,,,,,,,,,,,,,,,,,,,,,,,,,,,,,,,,,,,11032,001,2024_Jan_11_1609,nback,2021.2.3,59.54149475384767,
1-back,instructions\back-1.png,conditions\1back-p.xlsx,instructions\1-BACK.png,"(25, 15)",practice,1,4,stim\gray.png,stim\gray.png,stim\gray.png,stim\yellow.png,right,0,0,0,0,0,1,1,1,0,9,9,9,,,,,,,,,,,,,,,,,,,,,,,,,,,100.03968459996395,101.04149330011569,100.03968459996395,101.04149330011569,100.03968459996395,101.04149330011569,100.03968459996395,101.04149330011569,right,1,0.3064363000448793,100.03968459996395,None,100.03968459996395,None,100.03968459996395,100.54055589996278,100.03968459996395,100.54055589996278,100.03968459996395,100.54055589996278,100.03968459996395,100.54055589996278,100.03968459996395,None,,,,,,,,,,,,,,,,,,,,,,,,,,,,,,,,,,,,,,,,,,11032,001,2024_Jan_11_1609,nback,2021.2.3,59.54149475384767,
1-back,instructions\back-1.png,conditions\1back-p.xlsx,instructions\1-BACK.png,"(25, 15)",practice,1,1,stim\yellow.png,stim\gray.png,stim\gray.png,stim\gray.png,down,0,0,0,0,0,1,1,1,0,10,10,10,,,,,,,,,,,,,,,,,,,,,,,,,,,101.5419966999907,102.54406170011498,101.5419966999907,102.54406170011498,101.5419966999907,102.54406170011498,101.5419966999907,102.54406170011498,down,1,0.33270500018261373,101.5419966999907,None,101.5419966999907,None,101.5419966999907,102.04349029995501,101.5419966999907,102.04349029995501,101.5419966999907,102.04349029995501,101.5419966999907,102.04349029995501,101.5419966999907,None,,,,,,,,,,,,,,,,,,,,,,,,,,,,,,,,,,,,,,,,,,11032,001,2024_Jan_11_1609,nback,2021.2.3,59.54149475384767,
1-back,instructions\back-1.png,conditions\1back-p.xlsx,instructions\1-BACK.png,"(25, 15)",practice,1,2,stim\gray.png,stim\yellow.png,stim\gray.png,stim\gray.png,up,0,0,0,0,0,1,1,1,0,11,11,11,,,,,,,,,,,,,,,,,,,,,,,,,,,103.04430860001594,104.04579550004564,103.04430860001594,104.04579550004564,103.04430860001594,104.04579550004564,103.04430860001594,104.04579550004564,up,1,0.32560350000858307,103.04430860001594,None,103.04430860001594,None,103.04430860001594,103.54564770008437,103.04430860001594,103.54564770008437,103.04430860001594,103.54564770008437,103.04430860001594,103.54564770008437,103.04430860001594,None,,,,,,,,,,,,,,,,,,,,,,,,,,,,,,,,,,,,,,,,,,11032,001,2024_Jan_11_1609,nback,2021.2.3,59.54149475384767,
1-back,instructions\back-1.png,conditions\1back-p.xlsx,instructions\1-BACK.png,"(25, 15)",practice,1,4,stim\gray.png,stim\gray.png,stim\gray.png,stim\yellow.png,left,0,0,0,0,0,1,1,1,0,12,12,12,,,,,,,,,,,,,,,,,,,,,,,,,,,104.54642460006289,105.54870250006206,104.54642460006289,105.54870250006206,104.54642460006289,105.54870250006206,104.54642460006289,105.54870250006206,left,1,0.21559449983760715,104.54642460006289,None,104.54642460006289,None,104.54642460006289,105.0473917000927,104.54642460006289,105.0473917000927,104.54642460006289,105.0473917000927,104.54642460006289,105.0473917000927,104.54642460006289,None,,,,,,,,,,,,,,,,,,,,,,,,,,,,,,,,,,,,,,,,,,11032,001,2024_Jan_11_1609,nback,2021.2.3,59.54149475384767,
1-back,instructions\back-1.png,conditions\1back-p.xlsx,instructions\1-BACK.png,"(25, 15)",practice,1,3,stim\gray.png,stim\gray.png,stim\yellow.png,stim\gray.png,down,0,0,0,0,0,1,1,1,0,13,13,13,,,,,,,,,,,,,,,,,,,,,,,,,,,106.03225499996915,107.03390150004998,106.03225499996915,107.03390150004998,106.03225499996915,107.03390150004998,106.03225499996915,107.03390150004998,down,1,0.5221518999896944,106.03225499996915,None,106.03225499996915,None,106.03225499996915,106.53265900001861,106.03225499996915,106.53265900001861,106.03225499996915,106.53265900001861,106.03225499996915,106.53265900001861,106.03225499996915,None,,,,,,,,,,,,,,,,,,,,,,,,,,,,,,,,,,,,,,,,,,11032,001,2024_Jan_11_1609,nback,2021.2.3,59.54149475384767,
1-back,instructions\back-1.png,conditions\1back-p.xlsx,instructions\1-BACK.png,"(25, 15)",practice,1,1,stim\yellow.png,stim\gray.png,stim\gray.png,stim\gray.png,right,0,0,0,0,0,1,1,1,0,14,14,14,,,,,,,,,,,,,,,,,,,,,,,,,,,107.53413960011676,108.53679340006784,107.53413960011676,108.53679340006784,107.53413960011676,108.53679340006784,107.53413960011676,108.53679340006784,right,1,0.3879978000186384,107.53413960011676,None,107.53413960011676,None,107.53413960011676,108.03579020011239,107.53413960011676,108.03579020011239,107.53413960011676,108.03579020011239,107.53413960011676,108.03579020011239,107.53413960011676,None,,,,,,,,,,,,,,,,,,,,,,,,,,,,,,,,,,,,,,,,,,11032,001,2024_Jan_11_1609,nback,2021.2.3,59.54149475384767,
1-back,instructions\back-1.png,conditions\1back-p.xlsx,instructions\1-BACK.png,"(25, 15)",practice,1,2,stim\gray.png,stim\yellow.png,stim\gray.png,stim\gray.png,up,0,0,0,0,0,1,1,1,0,15,15,15,,,,,,,,,,,,,,,,,,,,,,,,,,,109.03632970014587,110.03766510006972,109.03632970014587,110.03766510006972,109.03632970014587,110.03766510006972,109.03632970014587,110.03766510006972,up,1,0.437569199828431,109.03632970014587,None,109.03632970014587,None,109.03632970014587,109.53724650014192,109.03632970014587,109.53724650014192,109.03632970014587,109.53724650014192,109.03632970014587,109.53724650014192,109.03632970014587,None,,,,,,,,,,,,,,,,,,,,,,,,,,,,,,,,,,,,,,,,,,11032,001,2024_Jan_11_1609,nback,2021.2.3,59.54149475384767,
1-back,instructions\back-1.png,conditions\1back-p.xlsx,instructions\1-BACK.png,"(25, 15)",practice,1,3,stim\gray.png,stim\gray.png,stim\yellow.png,stim\gray.png,left,0,0,0,0,0,1,1,1,0,16,16,16,,,,,,,,,,,,,,,,,,,,,,,,,,,110.53870850009844,111.54105810006149,110.53870850009844,111.54105810006149,110.53870850009844,111.54105810006149,110.53870850009844,111.54105810006149,left,1,0.3353176999371499,110.53870850009844,None,110.53870850009844,None,110.53870850009844,111.03974359994754,110.53870850009844,111.03974359994754,110.53870850009844,111.03974359994754,110.53870850009844,111.03974359994754,110.53870850009844,None,,,,,,,,,,,,,,,,,,,,,,,,,,,,,,,,,,,,,,,,,,11032,001,2024_Jan_11_1609,nback,2021.2.3,59.54149475384767,
1-back,instructions\back-1.png,conditions\1back-p.xlsx,instructions\1-BACK.png,"(25, 15)",practice,1,1,stim\yellow.png,stim\gray.png,stim\gray.png,stim\gray.png,right,0,0,0,0,0,1,1,1,0,17,17,17,,,,,,,,,,,,,,,,,,,,,,,,,,,112.04093510005623,113.0425802001264,112.04093510005623,113.0425802001264,112.04093510005623,113.0425802001264,112.04093510005623,113.0425802001264,up,0,1.4495966001413763,112.04093510005623,None,112.04093510005623,None,112.04093510005623,112.54224979993887,112.04093510005623,112.54224979993887,112.04093510005623,112.54224979993887,112.04093510005623,112.54224979993887,112.04093510005623,None,,,,,,,,,,,,,,,,,,,,,,,,,,,,,,,,,,,,,,,,,,11032,001,2024_Jan_11_1609,nback,2021.2.3,59.54149475384767,
1-back,instructions\back-1.png,conditions\1back-p.xlsx,instructions\1-BACK.png,"(25, 15)",practice,1,4,stim\gray.png,stim\gray.png,stim\gray.png,stim\yellow.png,up,0,0,0,0,0,1,1,1,0,18,18,18,,,,,,,,,,,,,,,,,,,,,,,,,,,113.54298450006172,114.54460110003129,113.54298450006172,114.54460110003129,113.54298450006172,114.54460110003129,113.54298450006172,114.54460110003129,None,0,,113.54298450006172,None,113.54298450006172,None,113.54298450006172,114.04498689994216,113.54298450006172,114.04498689994216,113.54298450006172,114.04498689994216,113.54298450006172,114.04498689994216,113.54298450006172,None,,,,,,,,,,,,,,,,,,,,,,,,,,,,,,,,,,,,,,,,,,11032,001,2024_Jan_11_1609,nback,2021.2.3,59.54149475384767,
1-back,instructions\back-1.png,conditions\1back-p.xlsx,instructions\1-BACK.png,"(25, 15)",practice,1,2,stim\gray.png,stim\yellow.png,stim\gray.png,stim\gray.png,down,0,0,0,0,0,1,1,1,0,19,19,19,,,,,,,,,,,,,,,,,,,,,,,,,,,115.04551289998926,116.04713160009123,115.04551289998926,116.04713160009123,115.04551289998926,116.04713160009123,115.04551289998926,116.04713160009123,down,1,0.4695734998676926,115.04551289998926,None,115.04551289998926,None,115.04551289998926,115.54708639997989,115.04551289998926,115.54708639997989,115.04551289998926,115.54708639997989,115.04551289998926,115.54708639997989,115.04551289998926,None,,,,,,,,,,,,,,,,,,,,,,,,,,,,,,,,,,,,,,,,,,11032,001,2024_Jan_11_1609,nback,2021.2.3,59.54149475384767,
1-back,instructions\back-1.png,conditions\1back-p.xlsx,instructions\1-BACK.png,"(25, 15)",,,,,,,,,0,0,0,0,0,1,1,1,,,,,,,,,,,,,,,,,,,,,,,,,,,,,,,,,,,,,,,,,,,,,,,,,,,,,,,,,,,,,,,,,,,,,,,,,,,,,,,,,,,,,,,,,,,,,,,,,11032,001,2024_Jan_11_1609,nback,2021.2.3,59.54149475384767,
2-back,instructions\back-2.png,conditions\2back-p.xlsx,instructions\2-BACK.png,"(25, 15)",practice,2,1,stim\yellow.png,stim\gray.png,stim\gray.png,stim\gray.png,None,0,0,0,0,0,2,2,2,0,0,0,0,,,,,,,,,,,,,,,,,116.68091560015455,None,space,4.82555319997482,116.68091560015455,None,121.65496559999883,126.16288490011357,126.12850390002131,None,126.54744260013103,127.54724360001273,126.54744260013103,127.54724360001273,126.54744260013103,127.54724360001273,126.54744260013103,127.54724360001273,None,1,,126.54744260013103,None,126.54744260013103,None,126.54744260013103,127.06402839999646,126.54744260013103,127.06402839999646,126.54744260013103,127.06402839999646,126.54744260013103,127.06402839999646,126.54744260013103,None,,,,,,,,,,,,,,,,,,,,,,,,,,,,,,,,,,,,,,,,,,11032,001,2024_Jan_11_1609,nback,2021.2.3,59.54149475384767,
2-back,instructions\back-2.png,conditions\2back-p.xlsx,instructions\2-BACK.png,"(25, 15)",practice,2,2,stim\gray.png,stim\yellow.png,stim\gray.png,stim\gray.png,None,0,0,0,0,0,2,2,2,0,1,1,1,,,,,,,,,,,,,,,,,,,,,,,,,,,128.03169200010598,129.03332099993713,128.03169200010598,129.03332099993713,128.03169200010598,129.03332099993713,128.03169200010598,129.03332099993713,None,1,,128.03169200010598,None,128.03169200010598,None,128.03169200010598,128.53203180013224,128.03169200010598,128.53203180013224,128.03169200010598,128.53203180013224,128.03169200010598,128.53203180013224,128.03169200010598,None,,,,,,,,,,,,,,,,,,,,,,,,,,,,,,,,,,,,,,,,,,11032,001,2024_Jan_11_1609,nback,2021.2.3,59.54149475384767,
2-back,instructions\back-2.png,conditions\2back-p.xlsx,instructions\2-BACK.png,"(25, 15)",practice,2,3,stim\gray.png,stim\gray.png,stim\yellow.png,stim\gray.png,up,0,0,0,0,0,2,2,2,0,2,2,2,,,,,,,,,,,,,,,,,,,,,,,,,,,129.5334257001523,130.53709350014105,129.5334257001523,130.53709350014105,129.5334257001523,130.53709350014105,129.5334257001523,130.53709350014105,up,1,0.26056129997596145,129.5334257001523,None,129.5334257001523,None,129.5334257001523,130.03440350014716,129.5334257001523,130.03440350014716,129.5334257001523,130.03440350014716,129.5334257001523,130.03440350014716,129.5334257001523,None,,,,,,,,,,,,,,,,,,,,,,,,,,,,,,,,,,,,,,,,,,11032,001,2024_Jan_11_1609,nback,2021.2.3,59.54149475384767,
2-back,instructions\back-2.png,conditions\2back-p.xlsx,instructions\2-BACK.png,"(25, 15)",practice,2,4,stim\gray.png,stim\gray.png,stim\gray.png,stim\yellow.png,left,0,0,0,0,0,2,2,2,0,3,3,3,,,,,,,,,,,,,,,,,,,,,,,,,,,131.03555799997412,132.03788800002076,131.03555799997412,132.03788800002076,131.03555799997412,132.03788800002076,131.03555799997412,132.03788800002076,left,1,0.36688570003025234,131.03555799997412,None,131.03555799997412,None,131.03555799997412,131.53667720011435,131.03555799997412,131.53667720011435,131.03555799997412,131.53667720011435,131.03555799997412,131.53667720011435,131.03555799997412,None,,,,,,,,,,,,,,,,,,,,,,,,,,,,,,,,,,,,,,,,,,11032,001,2024_Jan_11_1609,nback,2021.2.3,59.54149475384767,
2-back,instructions\back-2.png,conditions\2back-p.xlsx,instructions\2-BACK.png,"(25, 15)",practice,2,2,stim\gray.png,stim\yellow.png,stim\gray.png,stim\gray.png,right,0,0,0,0,0,2,2,2,0,4,4,4,,,,,,,,,,,,,,,,,,,,,,,,,,,132.53856560005806,133.53943590004928,132.53856560005806,133.53943590004928,132.53856560005806,133.53943590004928,132.53856560005806,133.53943590004928,right,1,0.032558799954131246,132.53856560005806,None,132.53856560005806,None,132.53856560005806,133.0393668001052,132.53856560005806,133.0393668001052,132.53856560005806,133.0393668001052,132.53856560005806,133.0393668001052,132.53856560005806,None,,,,,,,,,,,,,,,,,,,,,,,,,,,,,,,,,,,,,,,,,,11032,001,2024_Jan_11_1609,nback,2021.2.3,59.54149475384767,
2-back,instructions\back-2.png,conditions\2back-p.xlsx,instructions\2-BACK.png,"(25, 15)",practice,2,1,stim\yellow.png,stim\gray.png,stim\gray.png,stim\gray.png,down,0,0,0,0,0,2,2,2,0,5,5,5,,,,,,,,,,,,,,,,,,,,,,,,,,,134.0401241001673,135.04197000013664,134.0401241001673,135.04197000013664,134.0401241001673,135.04197000013664,134.0401241001673,135.04197000013664,down,1,0.3303445999044925,134.0401241001673,None,134.0401241001673,None,134.0401241001673,134.54166420013644,134.0401241001673,134.54166420013644,134.0401241001673,134.54166420013644,134.0401241001673,134.54166420013644,134.0401241001673,None,,,,,,,,,,,,,,,,,,,,,,,,,,,,,,,,,,,,,,,,,,11032,001,2024_Jan_11_1609,nback,2021.2.3,59.54149475384767,
2-back,instructions\back-2.png,conditions\2back-p.xlsx,instructions\2-BACK.png,"(25, 15)",practice,2,4,stim\gray.png,stim\gray.png,stim\gray.png,stim\yellow.png,left,0,0,0,0,0,2,2,2,0,6,6,6,,,,,,,,,,,,,,,,,,,,,,,,,,,135.54219399997965,136.54435000009835,135.54219399997965,136.54435000009835,135.54219399997965,136.54435000009835,135.54219399997965,136.54435000009835,left,1,0.3239446999505162,135.54219399997965,None,135.54219399997965,None,135.54219399997965,136.04344419995323,135.54219399997965,136.04344419995323,135.54219399997965,136.04344419995323,135.54219399997965,136.04344419995323,135.54219399997965,None,,,,,,,,,,,,,,,,,,,,,,,,,,,,,,,,,,,,,,,,,,11032,001,2024_Jan_11_1609,nback,2021.2.3,59.54149475384767,
2-back,instructions\back-2.png,conditions\2back-p.xlsx,instructions\2-BACK.png,"(25, 15)",practice,2,3,stim\gray.png,stim\gray.png,stim\yellow.png,stim\gray.png,up,0,0,0,0,0,2,2,2,0,7,7,7,,,,,,,,,,,,,,,,,,,,,,,,,,,137.0290423000697,138.03022610000335,137.0290423000697,138.03022610000335,137.0290423000697,138.03022610000335,137.0290423000697,138.03022610000335,up,1,0.21331629995256662,137.0290423000697,None,137.0290423000697,None,137.0290423000697,137.52847689995542,137.0290423000697,137.52847689995542,137.0290423000697,137.52847689995542,137.0290423000697,137.52847689995542,137.0290423000697,None,,,,,,,,,,,,,,,,,,,,,,,,,,,,,,,,,,,,,,,,,,11032,001,2024_Jan_11_1609,nback,2021.2.3,59.54149475384767,
2-back,instructions\back-2.png,conditions\2back-p.xlsx,instructions\2-BACK.png,"(25, 15)",practice,2,3,stim\gray.png,stim\gray.png,stim\yellow.png,stim\gray.png,down,0,0,0,0,0,2,2,2,0,8,8,8,,,,,,,,,,,,,,,,,,,,,,,,,,,138.53013640013523,139.5315487999469,138.53013640013523,139.5315487999469,138.53013640013523,139.5315487999469,138.53013640013523,139.5315487999469,right,0,1.4639464998617768,138.53013640013523,None,138.53013640013523,None,138.53013640013523,139.0317963999696,138.53013640013523,139.0317963999696,138.53013640013523,139.0317963999696,138.53013640013523,139.0317963999696,138.53013640013523,None,,,,,,,,,,,,,,,,,,,,,,,,,,,,,,,,,,,,,,,,,,11032,001,2024_Jan_11_1609,nback,2021.2.3,59.54149475384767,
2-back,instructions\back-2.png,conditions\2back-p.xlsx,instructions\2-BACK.png,"(25, 15)",practice,2,4,stim\gray.png,stim\gray.png,stim\gray.png,stim\yellow.png,right,0,0,0,0,0,2,2,2,0,9,9,9,,,,,,,,,,,,,,,,,,,,,,,,,,,140.03231779998168,141.03406640002504,140.03231779998168,141.03406640002504,140.03231779998168,141.03406640002504,140.03231779998168,141.03406640002504,None,0,,140.03231779998168,None,140.03231779998168,None,140.03231779998168,140.5339792999439,140.03231779998168,140.5339792999439,140.03231779998168,140.5339792999439,140.03231779998168,140.5339792999439,140.03231779998168,None,,,,,,,,,,,,,,,,,,,,,,,,,,,,,,,,,,,,,,,,,,11032,001,2024_Jan_11_1609,nback,2021.2.3,59.54149475384767,
2-back,instructions\back-2.png,conditions\2back-p.xlsx,instructions\2-BACK.png,"(25, 15)",practice,2,1,stim\yellow.png,stim\gray.png,stim\gray.png,stim\gray.png,right,0,0,0,0,0,2,2,2,0,10,10,10,,,,,,,,,,,,,,,,,,,,,,,,,,,141.5346303000115,142.53610670007765,141.5346303000115,142.53610670007765,141.5346303000115,142.53610670007765,141.5346303000115,142.53610670007765,right,1,0.16401869989931583,141.5346303000115,None,141.5346303000115,None,141.5346303000115,142.03533410001546,141.5346303000115,142.03533410001546,141.5346303000115,142.03533410001546,141.5346303000115,142.03533410001546,141.5346303000115,None,,,,,,,,,,,,,,,,,,,,,,,,,,,,,,,,,,,,,,,,,,11032,001,2024_Jan_11_1609,nback,2021.2.3,59.54149475384767,
2-back,instructions\back-2.png,conditions\2back-p.xlsx,instructions\2-BACK.png,"(25, 15)",practice,2,2,stim\gray.png,stim\yellow.png,stim\gray.png,stim\gray.png,down,0,0,0,0,0,2,2,2,0,11,11,11,,,,,,,,,,,,,,,,,,,,,,,,,,,143.03656359994784,144.03841050015762,143.03656359994784,144.03841050015762,143.03656359994784,144.03841050015762,143.03656359994784,144.03841050015762,down,1,0.3735974000301212,143.03656359994784,None,143.03656359994784,None,143.03656359994784,143.53758969996125,143.03656359994784,143.53758969996125,143.03656359994784,143.53758969996125,143.03656359994784,143.53758969996125,143.03656359994784,None,,,,,,,,,,,,,,,,,,,,,,,,,,,,,,,,,,,,,,,,,,11032,001,2024_Jan_11_1609,nback,2021.2.3,59.54149475384767,
2-back,instructions\back-2.png,conditions\2back-p.xlsx,instructions\2-BACK.png,"(25, 15)",practice,2,4,stim\gray.png,stim\gray.png,stim\gray.png,stim\yellow.png,up,0,0,0,0,0,2,2,2,0,12,12,12,,,,,,,,,,,,,,,,,,,,,,,,,,,144.5388879000675,145.54144729999825,144.5388879000675,145.54144729999825,144.5388879000675,145.54144729999825,144.5388879000675,145.54144729999825,up,1,0.47928000008687377,144.5388879000675,None,144.5388879000675,None,144.5388879000675,145.03967089997604,144.5388879000675,145.03967089997604,144.5388879000675,145.03967089997604,144.5388879000675,145.03967089997604,144.5388879000675,None,,,,,,,,,,,,,,,,,,,,,,,,,,,,,,,,,,,,,,,,,,11032,001,2024_Jan_11_1609,nback,2021.2.3,59.54149475384767,
2-back,instructions\back-2.png,conditions\2back-p.xlsx,instructions\2-BACK.png,"(25, 15)",practice,2,3,stim\gray.png,stim\gray.png,stim\yellow.png,stim\gray.png,left,0,0,0,0,0,2,2,2,0,13,13,13,,,,,,,,,,,,,,,,,,,,,,,,,,,146.04142839997075,147.0430765999481,146.04142839997075,147.0430765999481,146.04142839997075,147.0430765999481,146.04142839997075,147.0430765999481,left,1,0.4565452001988888,146.04142839997075,None,146.04142839997075,None,146.04142839997075,146.5426006000489,146.04142839997075,146.5426006000489,146.04142839997075,146.5426006000489,146.04142839997075,146.5426006000489,146.04142839997075,None,,,,,,,,,,,,,,,,,,,,,,,,,,,,,,,,,,,,,,,,,,11032,001,2024_Jan_11_1609,nback,2021.2.3,59.54149475384767,
2-back,instructions\back-2.png,conditions\2back-p.xlsx,instructions\2-BACK.png,"(25, 15)",practice,2,1,stim\yellow.png,stim\gray.png,stim\gray.png,stim\gray.png,down,0,0,0,0,0,2,2,2,0,14,14,14,,,,,,,,,,,,,,,,,,,,,,,,,,,147.5267350000795,148.52838140004314,147.5267350000795,148.52838140004314,147.5267350000795,148.52838140004314,147.5267350000795,148.52838140004314,down,1,0.3717130001168698,147.5267350000795,None,147.5267350000795,None,147.5267350000795,148.0284540001303,147.5267350000795,148.0284540001303,147.5267350000795,148.0284540001303,147.5267350000795,148.0284540001303,147.5267350000795,None,,,,,,,,,,,,,,,,,,,,,,,,,,,,,,,,,,,,,,,,,,11032,001,2024_Jan_11_1609,nback,2021.2.3,59.54149475384767,
2-back,instructions\back-2.png,conditions\2back-p.xlsx,instructions\2-BACK.png,"(25, 15)",practice,2,2,stim\gray.png,stim\yellow.png,stim\gray.png,stim\gray.png,right,0,0,0,0,0,2,2,2,0,15,15,15,,,,,,,,,,,,,,,,,,,,,,,,,,,149.02968530007638,150.03058840008453,149.02968530007638,150.03058840008453,149.02968530007638,150.03058840008453,149.02968530007638,150.03058840008453,right,1,0.44436490000225604,149.02968530007638,None,149.02968530007638,None,149.02968530007638,149.53054590011016,149.02968530007638,149.53054590011016,149.02968530007638,149.53054590011016,149.02968530007638,149.53054590011016,149.02968530007638,None,,,,,,,,,,,,,,,,,,,,,,,,,,,,,,,,,,,,,,,,,,11032,001,2024_Jan_11_1609,nback,2021.2.3,59.54149475384767,
2-back,instructions\back-2.png,conditions\2back-p.xlsx,instructions\2-BACK.png,"(25, 15)",practice,2,3,stim\gray.png,stim\gray.png,stim\yellow.png,stim\gray.png,up,0,0,0,0,0,2,2,2,0,16,16,16,,,,,,,,,,,,,,,,,,,,,,,,,,,150.53129320009612,151.53278889996,150.53129320009612,151.53278889996,150.53129320009612,151.53278889996,150.53129320009612,151.53278889996,up,1,0.33511230000294745,150.53129320009612,None,150.53129320009612,None,150.53129320009612,151.032887800131,150.53129320009612,151.032887800131,150.53129320009612,151.032887800131,150.53129320009612,151.032887800131,150.53129320009612,None,,,,,,,,,,,,,,,,,,,,,,,,,,,,,,,,,,,,,,,,,,11032,001,2024_Jan_11_1609,nback,2021.2.3,59.54149475384767,
2-back,instructions\back-2.png,conditions\2back-p.xlsx,instructions\2-BACK.png,"(25, 15)",practice,2,1,stim\yellow.png,stim\gray.png,stim\gray.png,stim\gray.png,left,0,0,0,0,0,2,2,2,0,17,17,17,,,,,,,,,,,,,,,,,,,,,,,,,,,152.03398690000176,153.03734509996139,152.03398690000176,153.03734509996139,152.03398690000176,153.03734509996139,152.03398690000176,153.03734509996139,left,1,0.3849853998981416,152.03398690000176,None,152.03398690000176,None,152.03398690000176,152.53432780015282,152.03398690000176,152.53432780015282,152.03398690000176,152.53432780015282,152.03398690000176,152.53432780015282,152.03398690000176,None,,,,,,,,,,,,,,,,,,,,,,,,,,,,,,,,,,,,,,,,,,11032,001,2024_Jan_11_1609,nback,2021.2.3,59.54149475384767,
2-back,instructions\back-2.png,conditions\2back-p.xlsx,instructions\2-BACK.png,"(25, 15)",practice,2,4,stim\gray.png,stim\gray.png,stim\gray.png,stim\yellow.png,right,0,0,0,0,0,2,2,2,0,18,18,18,,,,,,,,,,,,,,,,,,,,,,,,,,,153.53564130002633,154.53813920007087,153.53564130002633,154.53813920007087,153.53564130002633,154.53813920007087,153.53564130002633,154.53813920007087,right,1,0.45103239989839494,153.53564130002633,None,153.53564130002633,None,153.53564130002633,154.03644170006737,153.53564130002633,154.03644170006737,153.53564130002633,154.03644170006737,153.53564130002633,154.03644170006737,153.53564130002633,None,,,,,,,,,,,,,,,,,,,,,,,,,,,,,,,,,,,,,,,,,,11032,001,2024_Jan_11_1609,nback,2021.2.3,59.54149475384767,
2-back,instructions\back-2.png,conditions\2back-p.xlsx,instructions\2-BACK.png,"(25, 15)",practice,2,2,stim\gray.png,stim\yellow.png,stim\gray.png,stim\gray.png,up,0,0,0,0,0,2,2,2,0,19,19,19,,,,,,,,,,,,,,,,,,,,,,,,,,,155.03788730013184,156.0394673999399,155.03788730013184,156.0394673999399,155.03788730013184,156.0394673999399,155.03788730013184,156.0394673999399,up,1,0.2201457000337541,155.03788730013184,None,155.03788730013184,None,155.03788730013184,155.53913870011456,155.03788730013184,155.53913870011456,155.03788730013184,155.53913870011456,155.03788730013184,155.53913870011456,155.03788730013184,None,,,,,,,,,,,,,,,,,,,,,,,,,,,,,,,,,,,,,,,,,,11032,001,2024_Jan_11_1609,nback,2021.2.3,59.54149475384767,
2-back,instructions\back-2.png,conditions\2back-p.xlsx,instructions\2-BACK.png,"(25, 15)",,,,,,,,,0,0,0,0,0,2,2,2,,,,,,,,,,,,,,,,,,,,,,,,,,,,,,,,,,,,,,,,,,,,,,,,,,,,,,,,,,,,,,,,,,,,,,,,,,,,,,,,,,,,,,,,,,,,,,,,,11032,001,2024_Jan_11_1609,nback,2021.2.3,59.54149475384767,
,,,,,,,,,,,,,0,0,0,0,,,,,,,,,,,,,,,,,,,,,,,,,,,,,,,,,,,,,,,,,,,,,,,,,,,,,,,,,,,,156.54109410010278,None,space,49.17387060006149,156.54109410010278,None,,,,,,,,,,,,,,,,,,,,,,,,,,,,,,,,,,,,11032,001,2024_Jan_11_1609,nback,2021.2.3,59.54149475384767,
,,,,,,,,,,,,,,,,,,,,,,,,,,,,,,,,,,,,,,,,,,,,,,,,,,,,,,,,,,,,,,,,,,,,,,,,,,,,,,,,,,205.72985580004752,None,space,14.992090800078586,205.72985580004752,None,,,,,,,,,,,,,,,,,,,,,,,,,,,,,,11032,001,2024_Jan_11_1609,nback,2021.2.3,59.54149475384767,
2-back,instructions\back-2.png,conditions\23back-e.xlsx,,,experiment,2,2,stim\gray.png,stim\yellow.png,stim\gray.png,stim\gray.png,None,,,,,,,,,,,,,0,0,0,9,0,0,0,0,,,,,,,,,,,,,,,220.9018729000818,225.40974729997106,225.37660169997253,None,,,,,,,,,,,,,,,,,,,,,,,,,,,,,,,,,,,,,,None,1,225.7759668000508,None,225.7759668000508,None,225.7759668000508,226.77842590003274,225.7759668000508,226.77842590003274,225.7759668000508,226.77842590003274,225.7759668000508,226.77842590003274,225.7759668000508,226.2770893999841,225.7759668000508,226.2770893999841,225.7759668000508,226.2770893999841,225.7759668000508,226.2770893999841,225.7759668000508,None,,,,,,11032,001,2024_Jan_11_1609,nback,2021.2.3,59.54149475384767,
2-back,instructions\back-2.png,conditions\23back-e.xlsx,,,experiment,2,4,stim\gray.png,stim\gray.png,stim\gray.png,stim\yellow.png,None,,,,,,,,,,,,,0,0,0,9,0,1,1,1,,,,,,,,,,,,,,,,,,,,,,,,,,,,,,,,,,,,,,,,,,,,,,,,,,,,,,,,None,1,227.26255009998567,None,227.26255009998567,None,227.26255009998567,228.26378379995003,227.26255009998567,228.26378379995003,227.26255009998567,228.26378379995003,227.26255009998567,228.26378379995003,227.26255009998567,227.7629358000122,227.26255009998567,227.7629358000122,227.26255009998567,227.7629358000122,227.26255009998567,227.7629358000122,227.26255009998567,None,,,,,,11032,001,2024_Jan_11_1609,nback,2021.2.3,59.54149475384767,
2-back,instructions\back-2.png,conditions\23back-e.xlsx,,,experiment,2,3,stim\gray.png,stim\gray.png,stim\yellow.png,stim\gray.png,left,,,,,,,,,,,,,0,0,0,9,0,2,2,2,,,,,,,,,,,,,,,,,,,,,,,,,,,,,,,,,,,,,,,,,,,,,,,,,,,,,,,,left,1,228.76399520016275,None,228.76399520016275,None,228.76399520016275,229.76536129997112,228.76399520016275,229.76536129997112,228.76399520016275,229.76536129997112,228.76399520016275,229.76536129997112,228.76399520016275,229.26473559997976,228.76399520016275,229.26473559997976,228.76399520016275,229.26473559997976,228.76399520016275,229.26473559997976,228.76399520016275,None,0.2467592000029981,,,,,11032,001,2024_Jan_11_1609,nback,2021.2.3,59.54149475384767,
2-back,instructions\back-2.png,conditions\23back-e.xlsx,,,experiment,2,2,stim\gray.png,stim\yellow.png,stim\gray.png,stim\gray.png,down,,,,,,,,,,,,,0,0,0,9,0,3,3,3,,,,,,,,,,,,,,,,,,,,,,,,,,,,,,,,,,,,,,,,,,,,,,,,,,,,,,,,down,1,230.26608810015023,None,230.26608810015023,None,230.26608810015023,231.26836300012656,230.26608810015023,231.26836300012656,230.26608810015023,231.26836300012656,230.26608810015023,231.26836300012656,230.26608810015023,230.76704940013587,230.26608810015023,230.76704940013587,230.26608810015023,230.76704940013587,230.26608810015023,230.76704940013587,230.26608810015023,None,0.3845206000842154,,,,,11032,001,2024_Jan_11_1609,nback,2021.2.3,59.54149475384767,
2-back,instructions\back-2.png,conditions\23back-e.xlsx,,,experiment,2,1,stim\yellow.png,stim\gray.png,stim\gray.png,stim\gray.png,right,,,,,,,,,,,,,0,0,0,9,0,4,4,4,,,,,,,,,,,,,,,,,,,,,,,,,,,,,,,,,,,,,,,,,,,,,,,,,,,,,,,,right,1,231.7688899000641,None,231.7688899000641,None,231.7688899000641,232.77005850011483,231.7688899000641,232.77005850011483,231.7688899000641,232.77005850011483,231.7688899000641,232.77005850011483,231.7688899000641,232.26954470016062,231.7688899000641,232.26954470016062,231.7688899000641,232.26954470016062,231.7688899000641,232.26954470016062,231.7688899000641,None,0.3455934999510646,,,,,11032,001,2024_Jan_11_1609,nback,2021.2.3,59.54149475384767,
2-back,instructions\back-2.png,conditions\23back-e.xlsx,,,experiment,2,2,stim\gray.png,stim\yellow.png,stim\gray.png,stim\gray.png,left,,,,,,,,,,,,,0,0,0,9,0,5,5,5,,,,,,,,,,,,,,,,,,,,,,,,,,,,,,,,,,,,,,,,,,,,,,,,,,,,,,,,left,1,233.27124270005152,None,233.27124270005152,None,233.27124270005152,234.27355900011025,233.27124270005152,234.27355900011025,233.27124270005152,234.27355900011025,233.27124270005152,234.27355900011025,233.27124270005152,233.77148090000264,233.27124270005152,233.77148090000264,233.27124270005152,233.77148090000264,233.27124270005152,233.77148090000264,233.27124270005152,None,0.25930839986540377,,,,,11032,001,2024_Jan_11_1609,nback,2021.2.3,59.54149475384767,
2-back,instructions\back-2.png,conditions\23back-e.xlsx,,,experiment,2,4,stim\gray.png,stim\gray.png,stim\gray.png,stim\yellow.png,up,,,,,,,,,,,,,0,0,0,9,0,6,6,6,,,,,,,,,,,,,,,,,,,,,,,,,,,,,,,,,,,,,,,,,,,,,,,,,,,,,,,,up,1,234.7558532000985,None,234.7558532000985,None,234.7558532000985,235.75779860001057,234.7558532000985,235.75779860001057,234.7558532000985,235.75779860001057,234.7558532000985,235.75779860001057,234.7558532000985,235.25779139995575,234.7558532000985,235.25779139995575,234.7558532000985,235.25779139995575,234.7558532000985,235.25779139995575,234.7558532000985,None,0.16739120008423924,,,,,11032,001,2024_Jan_11_1609,nback,2021.2.3,59.54149475384767,
2-back,instructions\back-2.png,conditions\23back-e.xlsx,,,experiment,2,3,stim\gray.png,stim\gray.png,stim\yellow.png,stim\gray.png,left,,,,,,,,,,,,,0,0,0,9,0,7,7,7,,,,,,,,,,,,,,,,,,,,,,,,,,,,,,,,,,,,,,,,,,,,,,,,,,,,,,,,left,1,236.25819090008736,None,236.25819090008736,None,236.25819090008736,237.26034050015733,236.25819090008736,237.26034050015733,236.25819090008736,237.26034050015733,236.25819090008736,237.26034050015733,236.25819090008736,236.7594143000897,236.25819090008736,236.7594143000897,236.25819090008736,236.7594143000897,236.25819090008736,236.7594143000897,236.25819090008736,None,0.2559150999877602,,,,,11032,001,2024_Jan_11_1609,nback,2021.2.3,59.54149475384767,
2-back,instructions\back-2.png,conditions\23back-e.xlsx,,,experiment,2,4,stim\gray.png,stim\gray.png,stim\gray.png,stim\yellow.png,down,,,,,,,,,,,,,0,0,0,9,0,8,8,8,,,,,,,,,,,,,,,,,,,,,,,,,,,,,,,,,,,,,,,,,,,,,,,,,,,,,,,,down,1,237.76045519998297,None,237.76045519998297,None,237.76045519998297,238.76196969999,237.76045519998297,238.76196969999,237.76045519998297,238.76196969999,237.76045519998297,238.76196969999,237.76045519998297,238.26148600014858,237.76045519998297,238.26148600014858,237.76045519998297,238.26148600014858,237.76045519998297,238.26148600014858,237.76045519998297,None,0.20969090005382895,,,,,11032,001,2024_Jan_11_1609,nback,2021.2.3,59.54149475384767,
2-back,instructions\back-2.png,conditions\23back-e.xlsx,,,experiment,2,1,stim\yellow.png,stim\gray.png,stim\gray.png,stim\gray.png,right,,,,,,,,,,,,,0,0,0,9,0,9,9,9,,,,,,,,,,,,,,,,,,,,,,,,,,,,,,,,,,,,,,,,,,,,,,,,,,,,,,,,right,1,239.26332100015134,None,239.26332100015134,None,239.26332100015134,240.2643377999775,239.26332100015134,240.2643377999775,239.26332100015134,240.2643377999775,239.26332100015134,240.2643377999775,239.26332100015134,239.7640939000994,239.26332100015134,239.7640939000994,239.26332100015134,239.7640939000994,239.26332100015134,239.7640939000994,239.26332100015134,None,0.09936519991606474,,,,,11032,001,2024_Jan_11_1609,nback,2021.2.3,59.54149475384767,
2-back,instructions\back-2.png,conditions\23back-e.xlsx,,,experiment,2,4,stim\gray.png,stim\gray.png,stim\gray.png,stim\yellow.png,down,,,,,,,,,,,,,0,0,0,9,0,10,10,10,,,,,,,,,,,,,,,,,,,,,,,,,,,,,,,,,,,,,,,,,,,,,,,,,,,,,,,,up,0,240.76502749999054,None,240.76502749999054,None,240.76502749999054,241.76697490015067,240.76502749999054,241.76697490015067,240.76502749999054,241.76697490015067,240.76502749999054,241.76697490015067,240.76502749999054,241.26710360008292,240.76502749999054,241.26710360008292,240.76502749999054,241.26710360008292,240.76502749999054,241.26710360008292,240.76502749999054,None,1.4534517999272794,,,,,11032,001,2024_Jan_11_1609,nback,2021.2.3,59.54149475384767,
2-back,instructions\back-2.png,conditions\23back-e.xlsx,,,experiment,2,1,stim\yellow.png,stim\gray.png,stim\gray.png,stim\gray.png,up,,,,,,,,,,,,,0,0,0,9,0,11,11,11,,,,,,,,,,,,,,,,,,,,,,,,,,,,,,,,,,,,,,,,,,,,,,,,,,,,,,,,None,0,242.2672309000045,None,242.2672309000045,None,242.2672309000045,243.27072659996338,242.2672309000045,243.27072659996338,242.2672309000045,243.27072659996338,242.2672309000045,243.27072659996338,242.2672309000045,242.7679994001519,242.2672309000045,242.7679994001519,242.2672309000045,242.7679994001519,242.2672309000045,242.7679994001519,242.2672309000045,None,,,,,,11032,001,2024_Jan_11_1609,nback,2021.2.3,59.54149475384767,
2-back,instructions\back-2.png,conditions\23back-e.xlsx,,,experiment,2,2,stim\gray.png,stim\yellow.png,stim\gray.png,stim\gray.png,down,,,,,,,,,,,,,0,0,0,9,0,12,12,12,,,,,,,,,,,,,,,,,,,,,,,,,,,,,,,,,,,,,,,,,,,,,,,,,,,,,,,,down,1,243.7693274000194,None,243.7693274000194,None,243.7693274000194,244.7713491001632,243.7693274000194,244.7713491001632,243.7693274000194,244.7713491001632,243.7693274000194,244.7713491001632,243.7693274000194,244.27035330003127,243.7693274000194,244.27035330003127,243.7693274000194,244.27035330003127,243.7693274000194,244.27035330003127,243.7693274000194,None,0.13697250001132488,,,,,11032,001,2024_Jan_11_1609,nback,2021.2.3,59.54149475384767,
2-back,instructions\back-2.png,conditions\23back-e.xlsx,,,experiment,2,3,stim\gray.png,stim\gray.png,stim\yellow.png,stim\gray.png,up,,,,,,,,,,,,,0,0,0,9,0,13,13,13,,,,,,,,,,,,,,,,,,,,,,,,,,,,,,,,,,,,,,,,,,,,,,,,,,,,,,,,up,1,245.2548770001158,None,245.2548770001158,None,245.2548770001158,246.25693259993568,245.2548770001158,246.25693259993568,245.2548770001158,246.25693259993568,245.2548770001158,246.25693259993568,245.2548770001158,245.7556245001033,245.2548770001158,245.7556245001033,245.2548770001158,245.7556245001033,245.2548770001158,245.7556245001033,245.2548770001158,None,0.15568990004248917,,,,,11032,001,2024_Jan_11_1609,nback,2021.2.3,59.54149475384767,
2-back,instructions\back-2.png,conditions\23back-e.xlsx,,,experiment,2,4,stim\gray.png,stim\gray.png,stim\gray.png,stim\yellow.png,left,,,,,,,,,,,,,0,0,0,9,0,14,14,14,,,,,,,,,,,,,,,,,,,,,,,,,,,,,,,,,,,,,,,,,,,,,,,,,,,,,,,,right,0,246.7570277999621,None,246.7570277999621,None,246.7570277999621,247.75877150008455,246.7570277999621,247.75877150008455,246.7570277999621,247.75877150008455,246.7570277999621,247.75877150008455,246.7570277999621,247.25824000011198,246.7570277999621,247.25824000011198,246.7570277999621,247.25824000011198,246.7570277999621,247.25824000011198,246.7570277999621,None,1.34944949997589,,,,,11032,001,2024_Jan_11_1609,nback,2021.2.3,59.54149475384767,
2-back,instructions\back-2.png,conditions\23back-e.xlsx,,,experiment,2,3,stim\gray.png,stim\gray.png,stim\yellow.png,stim\gray.png,right,,,,,,,,,,,,,0,0,0,9,0,15,15,15,,,,,,,,,,,,,,,,,,,,,,,,,,,,,,,,,,,,,,,,,,,,,,,,,,,,,,,,None,0,248.25939660007134,None,248.25939660007134,None,248.25939660007134,249.26220590015873,248.25939660007134,249.26220590015873,248.25939660007134,249.26220590015873,248.25939660007134,249.26220590015873,248.25939660007134,248.76040060003288,248.25939660007134,248.76040060003288,248.25939660007134,248.76040060003288,248.25939660007134,248.76040060003288,248.25939660007134,None,,,,,,11032,001,2024_Jan_11_1609,nback,2021.2.3,59.54149475384767,
2-back,instructions\back-2.png,conditions\23back-e.xlsx,,,experiment,2,2,stim\gray.png,stim\yellow.png,stim\gray.png,stim\gray.png,down,,,,,,,,,,,,,0,0,0,9,0,16,16,16,,,,,,,,,,,,,,,,,,,,,,,,,,,,,,,,,,,,,,,,,,,,,,,,,,,,,,,,right,0,249.76163630001247,None,249.76163630001247,None,249.76163630001247,250.76375170005485,249.76163630001247,250.76375170005485,249.76163630001247,250.76375170005485,249.76163630001247,250.76375170005485,249.76163630001247,250.26302270009182,249.76163630001247,250.26302270009182,249.76163630001247,250.26302270009182,249.76163630001247,250.26302270009182,249.76163630001247,None,1.280894299969077,,,,,11032,001,2024_Jan_11_1609,nback,2021.2.3,59.54149475384767,
2-back,instructions\back-2.png,conditions\23back-e.xlsx,,,experiment,2,1,stim\yellow.png,stim\gray.png,stim\gray.png,stim\gray.png,right,,,,,,,,,,,,,0,0,0,9,0,17,17,17,,,,,,,,,,,,,,,,,,,,,,,,,,,,,,,,,,,,,,,,,,,,,,,,,,,,,,,,left,0,251.26451270002872,None,251.26451270002872,None,251.26451270002872,252.26568370009772,251.26451270002872,252.26568370009772,251.26451270002872,252.26568370009772,251.26451270002872,252.26568370009772,251.26451270002872,251.76476299995556,251.26451270002872,251.76476299995556,251.26451270002872,251.76476299995556,251.26451270002872,251.76476299995556,251.26451270002872,None,1.017643400002271,,,,,11032,001,2024_Jan_11_1609,nback,2021.2.3,59.54149475384767,
2-back,instructions\back-2.png,conditions\23back-e.xlsx,,,experiment,2,3,stim\gray.png,stim\gray.png,stim\yellow.png,stim\gray.png,left,,,,,,,,,,,,,0,0,0,9,0,18,18,18,,,,,,,,,,,,,,,,,,,,,,,,,,,,,,,,,,,,,,,,,,,,,,,,,,,,,,,,up,0,252.76630720007233,None,252.76630720007233,None,252.76630720007233,253.7677639001049,252.76630720007233,253.7677639001049,252.76630720007233,253.7677639001049,252.76630720007233,253.7677639001049,252.76630720007233,253.26758650015108,252.76630720007233,253.26758650015108,252.76630720007233,253.26758650015108,252.76630720007233,253.26758650015108,252.76630720007233,None,1.100083899917081,,,,,11032,001,2024_Jan_11_1609,nback,2021.2.3,59.54149475384767,
2-back,instructions\back-2.png,conditions\23back-e.xlsx,,,experiment,2,1,stim\yellow.png,stim\gray.png,stim\gray.png,stim\gray.png,up,,,,,,,,,,,,,0,0,0,9,0,19,19,19,,,,,,,,,,,,,,,,,,,,,,,,,,,,,,,,,,,,,,,,,,,,,,,,,,,,,,,,right,0,254.2682485000696,None,254.2682485000696,None,254.2682485000696,255.27069490007125,254.2682485000696,255.27069490007125,254.2682485000696,255.27069490007125,254.2682485000696,255.27069490007125,254.2682485000696,254.76933689997531,254.2682485000696,254.76933689997531,254.2682485000696,254.76933689997531,254.2682485000696,254.76933689997531,254.2682485000696,None,0.9739496000111103,,,,,11032,001,2024_Jan_11_1609,nback,2021.2.3,59.54149475384767,
2-back,instructions\back-2.png,conditions\23back-e.xlsx,,,,,,,,,,,,,,,,,,,,,,,0,0,0,9,,,,,,,,,,,,,,,,,,,,,,,,,,,,,,,,,,,,,,,,,,,,,,,,,,,,,,,,,,,,,,,,,,,,,,,,,,,,,,,,,,,,,255.77057830011472,None,,,11032,001,2024_Jan_11_1609,nback,2021.2.3,59.54149475384767,
0-back,instructions\back-0.png,conditions\04back-e.xlsx,,,experiment,0,3,stim\gray.png,stim\gray.png,stim\yellow.png,stim\gray.png,right,,,,,,,,,,,,,0,1,1,13,0,0,0,0,,,,,,,,,,,,,,,256.88890160014853,261.39604390016757,261.3642949999776,None,,,,,,,,,,,,,,,,,,,,,,,,,,,,,,,,,,,,,,right,1,261.77984239999205,None,261.77984239999205,None,261.77984239999205,262.78133300016634,261.77984239999205,262.78133300016634,261.77984239999205,262.78133300016634,261.77984239999205,262.78133300016634,261.77984239999205,262.28001450002193,261.77984239999205,262.28001450002193,261.77984239999205,262.28001450002193,261.77984239999205,262.28001450002193,261.77984239999205,None,0.43048380012623966,,,,,11032,001,2024_Jan_11_1609,nback,2021.2.3,59.54149475384767,
0-back,instructions\back-0.png,conditions\04back-e.xlsx,,,experiment,0,1,stim\yellow.png,stim\gray.png,stim\gray.png,stim\gray.png,up,,,,,,,,,,,,,0,1,1,13,0,1,1,1,,,,,,,,,,,,,,,,,,,,,,,,,,,,,,,,,,,,,,,,,,,,,,,,,,,,,,,,up,1,263.2649563001469,None,263.2649563001469,None,263.2649563001469,264.26724499999546,263.2649563001469,264.26724499999546,263.2649563001469,264.26724499999546,263.2649563001469,264.26724499999546,263.2649563001469,263.76560289994814,263.2649563001469,263.76560289994814,263.2649563001469,263.76560289994814,263.2649563001469,263.76560289994814,263.2649563001469,None,0.3692536000162363,,,,,11032,001,2024_Jan_11_1609,nback,2021.2.3,59.54149475384767,
0-back,instructions\back-0.png,conditions\04back-e.xlsx,,,experiment,0,2,stim\gray.png,stim\yellow.png,stim\gray.png,stim\gray.png,left,,,,,,,,,,,,,0,1,1,13,0,2,2,2,,,,,,,,,,,,,,,,,,,,,,,,,,,,,,,,,,,,,,,,,,,,,,,,,,,,,,,,left,1,264.7675443999469,None,264.7675443999469,None,264.7675443999469,265.768538299948,264.7675443999469,265.768538299948,264.7675443999469,265.768538299948,264.7675443999469,265.768538299948,264.7675443999469,265.2679258999415,264.7675443999469,265.2679258999415,264.7675443999469,265.2679258999415,264.7675443999469,265.2679258999415,264.7675443999469,None,0.3547638999298215,,,,,11032,001,2024_Jan_11_1609,nback,2021.2.3,59.54149475384767,
0-back,instructions\back-0.png,conditions\04back-e.xlsx,,,experiment,0,3,stim\gray.png,stim\gray.png,stim\yellow.png,stim\gray.png,right,,,,,,,,,,,,,0,1,1,13,0,3,3,3,,,,,,,,,,,,,,,,,,,,,,,,,,,,,,,,,,,,,,,,,,,,,,,,,,,,,,,,right,1,266.26948400004767,None,266.26948400004767,None,266.26948400004767,267.2711132999975,266.26948400004767,267.2711132999975,266.26948400004767,267.2711132999975,266.26948400004767,267.2711132999975,266.26948400004767,266.7706922001671,266.26948400004767,266.7706922001671,266.26948400004767,266.7706922001671,266.26948400004767,266.7706922001671,266.26948400004767,None,0.2765083000995219,,,,,11032,001,2024_Jan_11_1609,nback,2021.2.3,59.54149475384767,
0-back,instructions\back-0.png,conditions\04back-e.xlsx,,,experiment,0,3,stim\gray.png,stim\gray.png,stim\yellow.png,stim\gray.png,right,,,,,,,,,,,,,0,1,1,13,0,4,4,4,,,,,,,,,,,,,,,,,,,,,,,,,,,,,,,,,,,,,,,,,,,,,,,,,,,,,,,,right,1,267.7714134999551,None,267.7714134999551,None,267.7714134999551,268.77335770009086,267.7714134999551,268.77335770009086,267.7714134999551,268.77335770009086,267.7714134999551,268.77335770009086,267.7714134999551,268.2730803999584,267.7714134999551,268.2730803999584,267.7714134999551,268.2730803999584,267.7714134999551,268.2730803999584,267.7714134999551,None,0.3426799001172185,,,,,11032,001,2024_Jan_11_1609,nback,2021.2.3,59.54149475384767,
0-back,instructions\back-0.png,conditions\04back-e.xlsx,,,experiment,0,2,stim\gray.png,stim\yellow.png,stim\gray.png,stim\gray.png,left,,,,,,,,,,,,,0,1,1,13,0,5,5,5,,,,,,,,,,,,,,,,,,,,,,,,,,,,,,,,,,,,,,,,,,,,,,,,,,,,,,,,left,1,269.2575559001416,None,269.2575559001416,None,269.2575559001416,270.25937690003775,269.2575559001416,270.25937690003775,269.2575559001416,270.25937690003775,269.2575559001416,270.25937690003775,269.2575559001416,269.7578239000868,269.2575559001416,269.7578239000868,269.2575559001416,269.7578239000868,269.2575559001416,269.7578239000868,269.2575559001416,None,0.30490330001339316,,,,,11032,001,2024_Jan_11_1609,nback,2021.2.3,59.54149475384767,
0-back,instructions\back-0.png,conditions\04back-e.xlsx,,,experiment,0,2,stim\gray.png,stim\yellow.png,stim\gray.png,stim\gray.png,left,,,,,,,,,,,,,0,1,1,13,0,6,6,6,,,,,,,,,,,,,,,,,,,,,,,,,,,,,,,,,,,,,,,,,,,,,,,,,,,,,,,,left,1,270.75935279997066,None,270.75935279997066,None,270.75935279997066,271.76076159998775,270.75935279997066,271.76076159998775,270.75935279997066,271.76076159998775,270.75935279997066,271.76076159998775,270.75935279997066,271.2599961999804,270.75935279997066,271.2599961999804,270.75935279997066,271.2599961999804,270.75935279997066,271.2599961999804,270.75935279997066,None,0.33878890005871654,,,,,11032,001,2024_Jan_11_1609,nback,2021.2.3,59.54149475384767,
0-back,instructions\back-0.png,conditions\04back-e.xlsx,,,experiment,0,1,stim\yellow.png,stim\gray.png,stim\gray.png,stim\gray.png,up,,,,,,,,,,,,,0,1,1,13,0,7,7,7,,,,,,,,,,,,,,,,,,,,,,,,,,,,,,,,,,,,,,,,,,,,,,,,,,,,,,,,up,1,272.2623090001289,None,272.2623090001289,None,272.2623090001289,273.2633597999811,272.2623090001289,273.2633597999811,272.2623090001289,273.2633597999811,272.2623090001289,273.2633597999811,272.2623090001289,272.7624807001557,272.2623090001289,272.7624807001557,272.2623090001289,272.7624807001557,272.2623090001289,272.7624807001557,272.2623090001289,None,0.3331571000162512,,,,,11032,001,2024_Jan_11_1609,nback,2021.2.3,59.54149475384767,
0-back,instructions\back-0.png,conditions\04back-e.xlsx,,,experiment,0,4,stim\gray.png,stim\gray.png,stim\gray.png,stim\yellow.png,down,,,,,,,,,,,,,0,1,1,13,0,8,8,8,,,,,,,,,,,,,,,,,,,,,,,,,,,,,,,,,,,,,,,,,,,,,,,,,,,,,,,,down,1,273.7638390001375,None,273.7638390001375,None,273.7638390001375,274.76654310012236,273.7638390001375,274.76654310012236,273.7638390001375,274.76654310012236,273.7638390001375,274.76654310012236,273.7638390001375,274.26600750000216,273.7638390001375,274.26600750000216,273.7638390001375,274.26600750000216,273.7638390001375,274.26600750000216,273.7638390001375,None,0.44646920007653534,,,,,11032,001,2024_Jan_11_1609,nback,2021.2.3,59.54149475384767,
0-back,instructions\back-0.png,conditions\04back-e.xlsx,,,experiment,0,4,stim\gray.png,stim\gray.png,stim\gray.png,stim\yellow.png,down,,,,,,,,,,,,,0,1,1,13,0,9,9,9,,,,,,,,,,,,,,,,,,,,,,,,,,,,,,,,,,,,,,,,,,,,,,,,,,,,,,,,down,1,275.2664350999985,None,275.2664350999985,None,275.2664350999985,276.2681474001147,275.2664350999985,276.2681474001147,275.2664350999985,276.2681474001147,275.2664350999985,276.2681474001147,275.2664350999985,275.76744890003465,275.2664350999985,275.76744890003465,275.2664350999985,275.76744890003465,275.2664350999985,275.76744890003465,275.2664350999985,None,0.4077069000340998,,,,,11032,001,2024_Jan_11_1609,nback,2021.2.3,59.54149475384767,
0-back,instructions\back-0.png,conditions\04back-e.xlsx,,,experiment,0,1,stim\yellow.png,stim\gray.png,stim\gray.png,stim\gray.png,up,,,,,,,,,,,,,0,1,1,13,0,10,10,10,,,,,,,,,,,,,,,,,,,,,,,,,,,,,,,,,,,,,,,,,,,,,,,,,,,,,,,,up,1,276.7681774001103,None,276.7681774001103,None,276.7681774001103,277.7701612999663,276.7681774001103,277.7701612999663,276.7681774001103,277.7701612999663,276.7681774001103,277.7701612999663,276.7681774001103,277.26933480007574,276.7681774001103,277.26933480007574,276.7681774001103,277.26933480007574,276.7681774001103,277.26933480007574,276.7681774001103,None,0.457900500157848,,,,,11032,001,2024_Jan_11_1609,nback,2021.2.3,59.54149475384767,
0-back,instructions\back-0.png,conditions\04back-e.xlsx,,,experiment,0,4,stim\gray.png,stim\gray.png,stim\gray.png,stim\yellow.png,down,,,,,,,,,,,,,0,1,1,13,0,11,11,11,,,,,,,,,,,,,,,,,,,,,,,,,,,,,,,,,,,,,,,,,,,,,,,,,,,,,,,,down,1,278.27059269999154,None,278.27059269999154,None,278.27059269999154,279.27283970010467,278.27059269999154,279.27283970010467,278.27059269999154,279.27283970010467,278.27059269999154,279.27283970010467,278.27059269999154,278.771255900152,278.27059269999154,278.771255900152,278.27059269999154,278.771255900152,278.27059269999154,278.771255900152,278.27059269999154,None,0.539918800117448,,,,,11032,001,2024_Jan_11_1609,nback,2021.2.3,59.54149475384767,
0-back,instructions\back-0.png,conditions\04back-e.xlsx,,,experiment,0,1,stim\yellow.png,stim\gray.png,stim\gray.png,stim\gray.png,up,,,,,,,,,,,,,0,1,1,13,0,12,12,12,,,,,,,,,,,,,,,,,,,,,,,,,,,,,,,,,,,,,,,,,,,,,,,,,,,,,,,,up,1,279.75670170015655,None,279.75670170015655,None,279.75670170015655,280.75758550013416,279.75670170015655,280.75758550013416,279.75670170015655,280.75758550013416,279.75670170015655,280.75758550013416,279.75670170015655,280.2566788000986,279.75670170015655,280.2566788000986,279.75670170015655,280.2566788000986,279.75670170015655,280.2566788000986,279.75670170015655,None,0.37412190018221736,,,,,11032,001,2024_Jan_11_1609,nback,2021.2.3,59.54149475384767,
0-back,instructions\back-0.png,conditions\04back-e.xlsx,,,experiment,0,3,stim\gray.png,stim\gray.png,stim\yellow.png,stim\gray.png,right,,,,,,,,,,,,,0,1,1,13,0,13,13,13,,,,,,,,,,,,,,,,,,,,,,,,,,,,,,,,,,,,,,,,,,,,,,,,,,,,,,,,right,1,281.258310199948,None,281.258310199948,None,281.258310199948,282.2599695001263,281.258310199948,282.2599695001263,281.258310199948,282.2599695001263,281.258310199948,282.2599695001263,281.258310199948,281.7589523999486,281.258310199948,281.7589523999486,281.258310199948,281.7589523999486,281.258310199948,281.7589523999486,281.258310199948,None,0.3843703998718411,,,,,11032,001,2024_Jan_11_1609,nback,2021.2.3,59.54149475384767,
0-back,instructions\back-0.png,conditions\04back-e.xlsx,,,experiment,0,4,stim\gray.png,stim\gray.png,stim\gray.png,stim\yellow.png,down,,,,,,,,,,,,,0,1,1,13,0,14,14,14,,,,,,,,,,,,,,,,,,,,,,,,,,,,,,,,,,,,,,,,,,,,,,,,,,,,,,,,down,1,282.7606298001483,None,282.7606298001483,None,282.7606298001483,283.7626316000242,282.7606298001483,283.7626316000242,282.7606298001483,283.7626316000242,282.7606298001483,283.7626316000242,282.7606298001483,283.26129360008053,282.7606298001483,283.26129360008053,282.7606298001483,283.26129360008053,282.7606298001483,283.26129360008053,282.7606298001483,None,0.5461748999077827,,,,,11032,001,2024_Jan_11_1609,nback,2021.2.3,59.54149475384767,
0-back,instructions\back-0.png,conditions\04back-e.xlsx,,,experiment,0,1,stim\yellow.png,stim\gray.png,stim\gray.png,stim\gray.png,up,,,,,,,,,,,,,0,1,1,13,0,15,15,15,,,,,,,,,,,,,,,,,,,,,,,,,,,,,,,,,,,,,,,,,,,,,,,,,,,,,,,,up,1,284.26273080008104,None,284.26273080008104,None,284.26273080008104,285.2646405999549,284.26273080008104,285.2646405999549,284.26273080008104,285.2646405999549,284.26273080008104,285.2646405999549,284.26273080008104,284.7641488001682,284.26273080008104,284.7641488001682,284.26273080008104,284.7641488001682,284.26273080008104,284.7641488001682,284.26273080008104,None,0.45245099999010563,,,,,11032,001,2024_Jan_11_1609,nback,2021.2.3,59.54149475384767,
0-back,instructions\back-0.png,conditions\04back-e.xlsx,,,experiment,0,2,stim\gray.png,stim\yellow.png,stim\gray.png,stim\gray.png,left,,,,,,,,,,,,,0,1,1,13,0,16,16,16,,,,,,,,,,,,,,,,,,,,,,,,,,,,,,,,,,,,,,,,,,,,,,,,,,,,,,,,left,1,285.7649652999826,None,285.7649652999826,None,285.7649652999826,286.7667016000487,285.7649652999826,286.7667016000487,285.7649652999826,286.7667016000487,285.7649652999826,286.7667016000487,285.7649652999826,286.2663539000787,285.7649652999826,286.2663539000787,285.7649652999826,286.2663539000787,285.7649652999826,286.2663539000787,285.7649652999826,None,0.3496471999678761,,,,,11032,001,2024_Jan_11_1609,nback,2021.2.3,59.54149475384767,
0-back,instructions\back-0.png,conditions\04back-e.xlsx,,,experiment,0,3,stim\gray.png,stim\gray.png,stim\yellow.png,stim\gray.png,right,,,,,,,,,,,,,0,1,1,13,0,17,17,17,,,,,,,,,,,,,,,,,,,,,,,,,,,,,,,,,,,,,,,,,,,,,,,,,,,,,,,,right,1,287.2672983999364,None,287.2672983999364,None,287.2672983999364,288.2689831999596,287.2672983999364,288.2689831999596,287.2672983999364,288.2689831999596,287.2672983999364,288.2689831999596,287.2672983999364,287.7682010999415,287.2672983999364,287.7682010999415,287.2672983999364,287.7682010999415,287.2672983999364,287.7682010999415,287.2672983999364,None,0.3669811999425292,,,,,11032,001,2024_Jan_11_1609,nback,2021.2.3,59.54149475384767,
0-back,instructions\back-0.png,conditions\04back-e.xlsx,,,experiment,0,2,stim\gray.png,stim\yellow.png,stim\gray.png,stim\gray.png,left,,,,,,,,,,,,,0,1,1,13,0,18,18,18,,,,,,,,,,,,,,,,,,,,,,,,,,,,,,,,,,,,,,,,,,,,,,,,,,,,,,,,left,1,288.76940080011263,None,288.76940080011263,None,288.76940080011263,289.77088580001146,288.76940080011263,289.77088580001146,288.76940080011263,289.77088580001146,288.76940080011263,289.77088580001146,288.76940080011263,289.27040120004676,288.76940080011263,289.27040120004676,288.76940080011263,289.27040120004676,288.76940080011263,289.27040120004676,288.76940080011263,None,0.41685599996708333,,,,,11032,001,2024_Jan_11_1609,nback,2021.2.3,59.54149475384767,
0-back,instructions\back-0.png,conditions\04back-e.xlsx,,,experiment,0,4,stim\gray.png,stim\gray.png,stim\gray.png,stim\yellow.png,down,,,,,,,,,,,,,0,1,1,13,0,19,19,19,,,,,,,,,,,,,,,,,,,,,,,,,,,,,,,,,,,,,,,,,,,,,,,,,,,,,,,,down,1,290.27167779998854,None,290.27167779998854,None,290.27167779998854,291.273416900076,290.27167779998854,291.273416900076,290.27167779998854,291.273416900076,290.27167779998854,291.273416900076,290.27167779998854,290.77233860013075,290.27167779998854,290.77233860013075,290.27167779998854,290.77233860013075,290.27167779998854,290.77233860013075,290.27167779998854,None,0.490651500178501,,,,,11032,001,2024_Jan_11_1609,nback,2021.2.3,59.54149475384767,
0-back,instructions\back-0.png,conditions\04back-e.xlsx,,,,,,,,,,,,,,,,,,,,,,,0,1,1,13,,,,,,,,,,,,,,,,,,,,,,,,,,,,,,,,,,,,,,,,,,,,,,,,,,,,,,,,,,,,,,,,,,,,,,,,,,,,,,,,,,,,,291.7578324000351,None,,,11032,001,2024_Jan_11_1609,nback,2021.2.3,59.54149475384767,
2-back,instructions\back-2.png,conditions\20back-e.xlsx,,,experiment,2,2,stim\gray.png,stim\yellow.png,stim\gray.png,stim\gray.png,None,,,,,,,,,,,,,0,2,2,2,0,0,0,0,,,,,,,,,,,,,,,292.9086478999816,297.41634130012244,297.36564860004,None,,,,,,,,,,,,,,,,,,,,,,,,,,,,,,,,,,,,,,None,1,297.7834032999817,None,297.7834032999817,None,297.7834032999817,298.7853860000614,297.7834032999817,298.7853860000614,297.7834032999817,298.7853860000614,297.7834032999817,298.7853860000614,297.7834032999817,298.2837579001207,297.7834032999817,298.2837579001207,297.7834032999817,298.2837579001207,297.7834032999817,298.2837579001207,297.7834032999817,None,,,,,,11032,001,2024_Jan_11_1609,nback,2021.2.3,59.54149475384767,
2-back,instructions\back-2.png,conditions\20back-e.xlsx,,,experiment,2,1,stim\yellow.png,stim\gray.png,stim\gray.png,stim\gray.png,None,,,,,,,,,,,,,0,2,2,2,0,1,1,1,,,,,,,,,,,,,,,,,,,,,,,,,,,,,,,,,,,,,,,,,,,,,,,,,,,,,,,,None,1,299.2684097001329,None,299.2684097001329,None,299.2684097001329,300.27007109997794,299.2684097001329,300.27007109997794,299.2684097001329,300.27007109997794,299.2684097001329,300.27007109997794,299.2684097001329,299.76950010005385,299.2684097001329,299.76950010005385,299.2684097001329,299.76950010005385,299.2684097001329,299.76950010005385,299.2684097001329,None,,,,,,11032,001,2024_Jan_11_1609,nback,2021.2.3,59.54149475384767,
2-back,instructions\back-2.png,conditions\20back-e.xlsx,,,experiment,2,4,stim\gray.png,stim\gray.png,stim\gray.png,stim\yellow.png,left,,,,,,,,,,,,,0,2,2,2,0,2,2,2,,,,,,,,,,,,,,,,,,,,,,,,,,,,,,,,,,,,,,,,,,,,,,,,,,,,,,,,left,1,300.77050860016607,None,300.77050860016607,None,300.77050860016607,301.7720409000758,300.77050860016607,301.7720409000758,300.77050860016607,301.7720409000758,300.77050860016607,301.7720409000758,300.77050860016607,301.2720008001197,300.77050860016607,301.2720008001197,300.77050860016607,301.2720008001197,300.77050860016607,301.2720008001197,300.77050860016607,None,0.2556856998708099,,,,,11032,001,2024_Jan_11_1609,nback,2021.2.3,59.54149475384767,
2-back,instructions\back-2.png,conditions\20back-e.xlsx,,,experiment,2,3,stim\gray.png,stim\gray.png,stim\yellow.png,stim\gray.png,up,,,,,,,,,,,,,0,2,2,2,0,3,3,3,,,,,,,,,,,,,,,,,,,,,,,,,,,,,,,,,,,,,,,,,,,,,,,,,,,,,,,,up,1,302.2558542001061,None,302.2558542001061,None,302.2558542001061,303.25818730005994,302.2558542001061,303.25818730005994,302.2558542001061,303.25818730005994,302.2558542001061,303.25818730005994,302.2558542001061,302.757001100108,302.2558542001061,302.757001100108,302.2558542001061,302.757001100108,302.2558542001061,302.757001100108,302.2558542001061,None,0.14707379997707903,,,,,11032,001,2024_Jan_11_1609,nback,2021.2.3,59.54149475384767,
2-back,instructions\back-2.png,conditions\20back-e.xlsx,,,experiment,2,1,stim\yellow.png,stim\gray.png,stim\gray.png,stim\gray.png,down,,,,,,,,,,,,,0,2,2,2,0,4,4,4,,,,,,,,,,,,,,,,,,,,,,,,,,,,,,,,,,,,,,,,,,,,,,,,,,,,,,,,down,1,303.75840130005963,None,303.75840130005963,None,303.75840130005963,304.7603430999443,303.75840130005963,304.7603430999443,303.75840130005963,304.7603430999443,303.75840130005963,304.7603430999443,303.75840130005963,304.2600390999578,303.75840130005963,304.2600390999578,303.75840130005963,304.2600390999578,303.75840130005963,304.2600390999578,303.75840130005963,None,0.003799599828198552,,,,,11032,001,2024_Jan_11_1609,nback,2021.2.3,59.54149475384767,
2-back,instructions\back-2.png,conditions\20back-e.xlsx,,,experiment,2,2,stim\gray.png,stim\yellow.png,stim\gray.png,stim\gray.png,right,,,,,,,,,,,,,0,2,2,2,0,5,5,5,,,,,,,,,,,,,,,,,,,,,,,,,,,,,,,,,,,,,,,,,,,,,,,,,,,,,,,,up,0,305.26083100005053,None,305.26083100005053,None,305.26083100005053,306.26274470007047,305.26083100005053,306.26274470007047,305.26083100005053,306.26274470007047,305.26083100005053,306.26274470007047,305.26083100005053,305.76185500016436,305.26083100005053,305.76185500016436,305.26083100005053,305.76185500016436,305.26083100005053,305.76185500016436,305.26083100005053,None,1.221372599946335,,,,,11032,001,2024_Jan_11_1609,nback,2021.2.3,59.54149475384767,
2-back,instructions\back-2.png,conditions\20back-e.xlsx,,,experiment,2,3,stim\gray.png,stim\gray.png,stim\yellow.png,stim\gray.png,up,,,,,,,,,,,,,0,2,2,2,0,6,6,6,,,,,,,,,,,,,,,,,,,,,,,,,,,,,,,,,,,,,,,,,,,,,,,,,,,,,,,,left,0,306.7627995000221,None,306.7627995000221,None,306.7627995000221,307.7641064999625,306.7627995000221,307.7641064999625,306.7627995000221,307.7641064999625,306.7627995000221,307.7641064999625,306.7627995000221,307.26393260015175,306.7627995000221,307.26393260015175,306.7627995000221,307.26393260015175,306.7627995000221,307.26393260015175,306.7627995000221,None,0.9195073998998851,,,,,11032,001,2024_Jan_11_1609,nback,2021.2.3,59.54149475384767,
2-back,instructions\back-2.png,conditions\20back-e.xlsx,,,experiment,2,4,stim\gray.png,stim\gray.png,stim\gray.png,stim\yellow.png,left,,,,,,,,,,,,,0,2,2,2,0,7,7,7,,,,,,,,,,,,,,,,,,,,,,,,,,,,,,,,,,,,,,,,,,,,,,,,,,,,,,,,right,0,308.2650554999709,None,308.2650554999709,None,308.2650554999709,309.26647120015696,308.2650554999709,309.26647120015696,308.2650554999709,309.26647120015696,308.2650554999709,309.26647120015696,308.2650554999709,308.76605980005115,308.2650554999709,308.76605980005115,308.2650554999709,308.76605980005115,308.2650554999709,308.76605980005115,308.2650554999709,None,0.8335086000151932,,,,,11032,001,2024_Jan_11_1609,nback,2021.2.3,59.54149475384767,
2-back,instructions\back-2.png,conditions\20back-e.xlsx,,,experiment,2,3,stim\gray.png,stim\gray.png,stim\yellow.png,stim\gray.png,right,,,,,,,,,,,,,0,2,2,2,0,8,8,8,,,,,,,,,,,,,,,,,,,,,,,,,,,,,,,,,,,,,,,,,,,,,,,,,,,,,,,,down,0,309.76727870013565,None,309.76727870013565,None,309.76727870013565,310.7690358001273,309.76727870013565,310.7690358001273,309.76727870013565,310.7690358001273,309.76727870013565,310.7690358001273,309.76727870013565,310.2679240000434,309.76727870013565,310.2679240000434,309.76727870013565,310.2679240000434,309.76727870013565,310.2679240000434,309.76727870013565,None,0.4988873000256717,,,,,11032,001,2024_Jan_11_1609,nback,2021.2.3,59.54149475384767,
2-back,instructions\back-2.png,conditions\20back-e.xlsx,,,experiment,2,4,stim\gray.png,stim\gray.png,stim\gray.png,stim\yellow.png,down,,,,,,,,,,,,,0,2,2,2,0,9,9,9,,,,,,,,,,,,,,,,,,,,,,,,,,,,,,,,,,,,,,,,,,,,,,,,,,,,,,,,right,0,311.26934490003623,None,311.26934490003623,None,311.26934490003623,312.2708723000251,311.26934490003623,312.2708723000251,311.26934490003623,312.2708723000251,311.26934490003623,312.2708723000251,311.26934490003623,311.77059810003266,311.26934490003623,311.77059810003266,311.26934490003623,311.77059810003266,311.26934490003623,311.77059810003266,311.26934490003623,None,1.1818995999637991,,,,,11032,001,2024_Jan_11_1609,nback,2021.2.3,59.54149475384767,
2-back,instructions\back-2.png,conditions\20back-e.xlsx,,,experiment,2,1,stim\yellow.png,stim\gray.png,stim\gray.png,stim\gray.png,right,,,,,,,,,,,,,0,2,2,2,0,10,10,10,,,,,,,,,,,,,,,,,,,,,,,,,,,,,,,,,,,,,,,,,,,,,,,,,,,,,,,,down,0,312.75478269997984,None,312.75478269997984,None,312.75478269997984,313.7572240999434,312.75478269997984,313.7572240999434,312.75478269997984,313.7572240999434,312.75478269997984,313.7572240999434,312.75478269997984,313.2565481001511,312.75478269997984,313.2565481001511,312.75478269997984,313.2565481001511,312.75478269997984,313.2565481001511,312.75478269997984,None,0.8476260001771152,,,,,11032,001,2024_Jan_11_1609,nback,2021.2.3,59.54149475384767,
2-back,instructions\back-2.png,conditions\20back-e.xlsx,,,experiment,2,2,stim\gray.png,stim\yellow.png,stim\gray.png,stim\gray.png,down,,,,,,,,,,,,,0,2,2,2,0,11,11,11,,,,,,,,,,,,,,,,,,,,,,,,,,,,,,,,,,,,,,,,,,,,,,,,,,,,,,,,up,0,314.2571420001332,None,314.2571420001332,None,314.2571420001332,315.25942680006847,314.2571420001332,315.25942680006847,314.2571420001332,315.25942680006847,314.2571420001332,315.25942680006847,314.2571420001332,314.75783880008385,314.2571420001332,314.75783880008385,314.2571420001332,314.75783880008385,314.2571420001332,314.75783880008385,314.2571420001332,None,0.7056126000825316,,,,,11032,001,2024_Jan_11_1609,nback,2021.2.3,59.54149475384767,
2-back,instructions\back-2.png,conditions\20back-e.xlsx,,,experiment,2,3,stim\gray.png,stim\gray.png,stim\yellow.png,stim\gray.png,up,,,,,,,,,,,,,0,2,2,2,0,12,12,12,,,,,,,,,,,,,,,,,,,,,,,,,,,,,,,,,,,,,,,,,,,,,,,,,,,,,,,,left,0,315.7598321000114,None,315.7598321000114,None,315.7598321000114,316.76113080000505,315.7598321000114,316.76113080000505,315.7598321000114,316.76113080000505,315.7598321000114,316.76113080000505,315.7598321000114,316.2604471000377,315.7598321000114,316.2604471000377,315.7598321000114,316.2604471000377,315.7598321000114,316.2604471000377,315.7598321000114,None,0.8023577001877129,,,,,11032,001,2024_Jan_11_1609,nback,2021.2.3,59.54149475384767,
2-back,instructions\back-2.png,conditions\20back-e.xlsx,,,experiment,2,1,stim\yellow.png,stim\gray.png,stim\gray.png,stim\gray.png,left,,,,,,,,,,,,,0,2,2,2,0,13,13,13,,,,,,,,,,,,,,,,,,,,,,,,,,,,,,,,,,,,,,,,,,,,,,,,,,,,,,,,right,0,317.26170979999006,None,317.26170979999006,None,317.26170979999006,318.26438300008886,317.26170979999006,318.26438300008886,317.26170979999006,318.26438300008886,317.26170979999006,318.26438300008886,317.26170979999006,317.76298850006424,317.26170979999006,317.76298850006424,317.26170979999006,317.76298850006424,317.26170979999006,317.76298850006424,317.26170979999006,None,1.0693627002183348,,,,,11032,001,2024_Jan_11_1609,nback,2021.2.3,59.54149475384767,
2-back,instructions\back-2.png,conditions\20back-e.xlsx,,,experiment,2,4,stim\gray.png,stim\gray.png,stim\gray.png,stim\yellow.png,right,,,,,,,,,,,,,0,2,2,2,0,14,14,14,,,,,,,,,,,,,,,,,,,,,,,,,,,,,,,,,,,,,,,,,,,,,,,,,,,,,,,,up,0,318.76364900008775,None,318.76364900008775,None,318.76364900008775,319.7658263000194,318.76364900008775,319.7658263000194,318.76364900008775,319.7658263000194,318.76364900008775,319.7658263000194,318.76364900008775,319.26477700006217,318.76364900008775,319.26477700006217,318.76364900008775,319.26477700006217,318.76364900008775,319.26477700006217,318.76364900008775,None,1.2228734998498112,,,,,11032,001,2024_Jan_11_1609,nback,2021.2.3,59.54149475384767,
2-back,instructions\back-2.png,conditions\20back-e.xlsx,,,experiment,2,2,stim\gray.png,stim\yellow.png,stim\gray.png,stim\gray.png,up,,,,,,,,,,,,,0,2,2,2,0,15,15,15,,,,,,,,,,,,,,,,,,,,,,,,,,,,,,,,,,,,,,,,,,,,,,,,,,,,,,,,None,0,320.26614800002426,None,320.26614800002426,None,320.26614800002426,321.2676580999978,320.26614800002426,321.2676580999978,320.26614800002426,321.2676580999978,320.26614800002426,321.2676580999978,320.26614800002426,320.7668550000526,320.26614800002426,320.7668550000526,320.26614800002426,320.7668550000526,320.26614800002426,320.7668550000526,320.26614800002426,None,,,,,,11032,001,2024_Jan_11_1609,nback,2021.2.3,59.54149475384767,
2-back,instructions\back-2.png,conditions\20back-e.xlsx,,,experiment,2,4,stim\gray.png,stim\gray.png,stim\gray.png,stim\yellow.png,down,,,,,,,,,,,,,0,2,2,2,0,16,16,16,,,,,,,,,,,,,,,,,,,,,,,,,,,,,,,,,,,,,,,,,,,,,,,,,,,,,,,,down,1,321.7681305001024,None,321.7681305001024,None,321.7681305001024,322.77023719996214,321.7681305001024,322.77023719996214,321.7681305001024,322.77023719996214,321.7681305001024,322.77023719996214,321.7681305001024,322.2701230000239,321.7681305001024,322.2701230000239,321.7681305001024,322.2701230000239,321.7681305001024,322.2701230000239,321.7681305001024,None,0.13026840006932616,,,,,11032,001,2024_Jan_11_1609,nback,2021.2.3,59.54149475384767,
2-back,instructions\back-2.png,conditions\20back-e.xlsx,,,experiment,2,3,stim\gray.png,stim\gray.png,stim\yellow.png,stim\gray.png,left,,,,,,,,,,,,,0,2,2,2,0,17,17,17,,,,,,,,,,,,,,,,,,,,,,,,,,,,,,,,,,,,,,,,,,,,,,,,,,,,,,,,left,1,323.270896299975,None,323.270896299975,None,323.270896299975,324.27340529998764,323.270896299975,324.27340529998764,323.270896299975,324.27340529998764,323.270896299975,324.27340529998764,323.270896299975,323.77158650010824,323.270896299975,323.77158650010824,323.270896299975,323.77158650010824,323.270896299975,323.77158650010824,323.270896299975,None,0.32351949997246265,,,,,11032,001,2024_Jan_11_1609,nback,2021.2.3,59.54149475384767,
2-back,instructions\back-2.png,conditions\20back-e.xlsx,,,experiment,2,1,stim\yellow.png,stim\gray.png,stim\gray.png,stim\gray.png,down,,,,,,,,,,,,,0,2,2,2,0,18,18,18,,,,,,,,,,,,,,,,,,,,,,,,,,,,,,,,,,,,,,,,,,,,,,,,,,,,,,,,right,0,324.7560141000431,None,324.7560141000431,None,324.7560141000431,325.758366700029,324.7560141000431,325.758366700029,324.7560141000431,325.758366700029,324.7560141000431,325.758366700029,324.7560141000431,325.2571515000891,324.7560141000431,325.2571515000891,324.7560141000431,325.2571515000891,324.7560141000431,325.2571515000891,324.7560141000431,None,0.6382917000446469,,,,,11032,001,2024_Jan_11_1609,nback,2021.2.3,59.54149475384767,
2-back,instructions\back-2.png,conditions\20back-e.xlsx,,,experiment,2,2,stim\gray.png,stim\yellow.png,stim\gray.png,stim\gray.png,right,,,,,,,,,,,,,0,2,2,2,0,19,19,19,,,,,,,,,,,,,,,,,,,,,,,,,,,,,,,,,,,,,,,,,,,,,,,,,,,,,,,,up,0,326.25838689995,None,326.25838689995,None,326.25838689995,327.26003889995627,326.25838689995,327.26003889995627,326.25838689995,327.26003889995627,326.25838689995,327.26003889995627,326.25838689995,326.75962350005284,326.25838689995,326.75962350005284,326.25838689995,326.75962350005284,326.25838689995,326.75962350005284,326.25838689995,None,1.2241048000287265,,,,,11032,001,2024_Jan_11_1609,nback,2021.2.3,59.54149475384767,
2-back,instructions\back-2.png,conditions\20back-e.xlsx,,,,,,,,,,,,,,,,,,,,,,,0,2,2,2,,,,,,,,,,,,,,,,,,,,,,,,,,,,,,,,,,,,,,,,,,,,,,,,,,,,,,,,,,,,,,,,,,,,,,,,,,,,,,,,,,,,,327.7607532001566,None,,,11032,001,2024_Jan_11_1609,nback,2021.2.3,59.54149475384767,
1-back,instructions\back-1.png,conditions\11back-e.xlsx,,,experiment,1,3,stim\gray.png,stim\gray.png,stim\yellow.png,stim\gray.png,None,,,,,,,,,,,,,0,3,3,5,0,0,0,0,,,,,,,,,,,,,,,328.91219409997575,333.4195477999747,333.38662510016,None,,,,,,,,,,,,,,,,,,,,,,,,,,,,,,,,,,,,,,None,1,333.7699160000775,None,333.7699160000775,None,333.7699160000775,334.7711688000709,333.7699160000775,334.7711688000709,333.7699160000775,334.7711688000709,333.7699160000775,334.7711688000709,333.7699160000775,334.27078230003826,333.7699160000775,334.27078230003826,333.7699160000775,334.27078230003826,333.7699160000775,334.27078230003826,333.7699160000775,None,,,,,,11032,001,2024_Jan_11_1609,nback,2021.2.3,59.54149475384767,
1-back,instructions\back-1.png,conditions\11back-e.xlsx,,,experiment,1,1,stim\yellow.png,stim\gray.png,stim\gray.png,stim\gray.png,right,,,,,,,,,,,,,0,3,3,5,0,1,1,1,,,,,,,,,,,,,,,,,,,,,,,,,,,,,,,,,,,,,,,,,,,,,,,,,,,,,,,,right,1,335.2547035999596,None,335.2547035999596,None,335.2547035999596,336.25731280003674,335.2547035999596,336.25731280003674,335.2547035999596,336.25731280003674,335.2547035999596,336.25731280003674,335.2547035999596,335.7557075000368,335.2547035999596,335.7557075000368,335.2547035999596,335.7557075000368,335.2547035999596,335.7557075000368,335.2547035999596,None,0.34827279997989535,,,,,11032,001,2024_Jan_11_1609,nback,2021.2.3,59.54149475384767,
1-back,instructions\back-1.png,conditions\11back-e.xlsx,,,experiment,1,4,stim\gray.png,stim\gray.png,stim\gray.png,stim\yellow.png,up,,,,,,,,,,,,,0,3,3,5,0,2,2,2,,,,,,,,,,,,,,,,,,,,,,,,,,,,,,,,,,,,,,,,,,,,,,,,,,,,,,,,up,1,336.7572211001534,None,336.7572211001534,None,336.7572211001534,337.7591220999602,336.7572211001534,337.7591220999602,336.7572211001534,337.7591220999602,336.7572211001534,337.7591220999602,336.7572211001534,337.25816890015267,336.7572211001534,337.25816890015267,336.7572211001534,337.25816890015267,336.7572211001534,337.25816890015267,336.7572211001534,None,0.41315759997814894,,,,,11032,001,2024_Jan_11_1609,nback,2021.2.3,59.54149475384767,
1-back,instructions\back-1.png,conditions\11back-e.xlsx,,,experiment,1,2,stim\gray.png,stim\yellow.png,stim\gray.png,stim\gray.png,down,,,,,,,,,,,,,0,3,3,5,0,3,3,3,,,,,,,,,,,,,,,,,,,,,,,,,,,,,,,,,,,,,,,,,,,,,,,,,,,,,,,,down,1,338.2594004999846,None,338.2594004999846,None,338.2594004999846,339.2615765000228,338.2594004999846,339.2615765000228,338.2594004999846,339.2615765000228,338.2594004999846,339.2615765000228,338.2594004999846,338.7604869999923,338.2594004999846,338.7604869999923,338.2594004999846,338.7604869999923,338.2594004999846,338.7604869999923,338.2594004999846,None,0.4632556000724435,,,,,11032,001,2024_Jan_11_1609,nback,2021.2.3,59.54149475384767,
1-back,instructions\back-1.png,conditions\11back-e.xlsx,,,experiment,1,1,stim\yellow.png,stim\gray.png,stim\gray.png,stim\gray.png,left,,,,,,,,,,,,,0,3,3,5,0,4,4,4,,,,,,,,,,,,,,,,,,,,,,,,,,,,,,,,,,,,,,,,,,,,,,,,,,,,,,,,left,1,339.76174320001155,None,339.76174320001155,None,339.76174320001155,340.7636792999692,339.76174320001155,340.7636792999692,339.76174320001155,340.7636792999692,339.76174320001155,340.7636792999692,339.76174320001155,340.26291080005467,339.76174320001155,340.26291080005467,339.76174320001155,340.26291080005467,339.76174320001155,340.26291080005467,339.76174320001155,None,0.4016406999435276,,,,,11032,001,2024_Jan_11_1609,nback,2021.2.3,59.54149475384767,
1-back,instructions\back-1.png,conditions\11back-e.xlsx,,,experiment,1,2,stim\gray.png,stim\yellow.png,stim\gray.png,stim\gray.png,up,,,,,,,,,,,,,0,3,3,5,0,5,5,5,,,,,,,,,,,,,,,,,,,,,,,,,,,,,,,,,,,,,,,,,,,,,,,,,,,,,,,,up,1,341.2648891999852,None,341.2648891999852,None,341.2648891999852,342.2662558001466,341.2648891999852,342.2662558001466,341.2648891999852,342.2662558001466,341.2648891999852,342.2662558001466,341.2648891999852,341.7646338001359,341.2648891999852,341.7646338001359,341.2648891999852,341.7646338001359,341.2648891999852,341.7646338001359,341.2648891999852,None,0.4253361998125911,,,,,11032,001,2024_Jan_11_1609,nback,2021.2.3,59.54149475384767,
1-back,instructions\back-1.png,conditions\11back-e.xlsx,,,experiment,1,3,stim\gray.png,stim\gray.png,stim\yellow.png,stim\gray.png,left,,,,,,,,,,,,,0,3,3,5,0,6,6,6,,,,,,,,,,,,,,,,,,,,,,,,,,,,,,,,,,,,,,,,,,,,,,,,,,,,,,,,left,1,342.76621740008704,None,342.76621740008704,None,342.76621740008704,343.76746180001646,342.76621740008704,343.76746180001646,342.76621740008704,343.76746180001646,342.76621740008704,343.76746180001646,342.76621740008704,343.26692140009254,342.76621740008704,343.26692140009254,342.76621740008704,343.26692140009254,342.76621740008704,343.26692140009254,342.76621740008704,None,0.35610580001957715,,,,,11032,001,2024_Jan_11_1609,nback,2021.2.3,59.54149475384767,
1-back,instructions\back-1.png,conditions\11back-e.xlsx,,,experiment,1,4,stim\gray.png,stim\gray.png,stim\gray.png,stim\yellow.png,right,,,,,,,,,,,,,0,3,3,5,0,7,7,7,,,,,,,,,,,,,,,,,,,,,,,,,,,,,,,,,,,,,,,,,,,,,,,,,,,,,,,,down,0,344.26924660010263,None,344.26924660010263,None,344.26924660010263,345.2698972001672,344.26924660010263,345.2698972001672,344.26924660010263,345.2698972001672,344.26924660010263,345.2698972001672,344.26924660010263,344.7692384000402,344.26924660010263,344.7692384000402,344.26924660010263,344.7692384000402,344.26924660010263,344.7692384000402,344.26924660010263,None,1.4371416000649333,,,,,11032,001,2024_Jan_11_1609,nback,2021.2.3,59.54149475384767,
1-back,instructions\back-1.png,conditions\11back-e.xlsx,,,experiment,1,4,stim\gray.png,stim\gray.png,stim\gray.png,stim\yellow.png,down,,,,,,,,,,,,,0,3,3,5,0,8,8,8,,,,,,,,,,,,,,,,,,,,,,,,,,,,,,,,,,,,,,,,,,,,,,,,,,,,,,,,None,0,345.77054199995473,None,345.77054199995473,None,345.77054199995473,346.77222120016813,345.77054199995473,346.77222120016813,345.77054199995473,346.77222120016813,345.77054199995473,346.77222120016813,345.77054199995473,346.2724389999639,345.77054199995473,346.2724389999639,345.77054199995473,346.2724389999639,345.77054199995473,346.2724389999639,345.77054199995473,None,,,,,,11032,001,2024_Jan_11_1609,nback,2021.2.3,59.54149475384767,
1-back,instructions\back-1.png,conditions\11back-e.xlsx,,,experiment,1,3,stim\gray.png,stim\gray.png,stim\yellow.png,stim\gray.png,down,,,,,,,,,,,,,0,3,3,5,0,9,9,9,,,,,,,,,,,,,,,,,,,,,,,,,,,,,,,,,,,,,,,,,,,,,,,,,,,,,,,,down,1,347.2560209999792,None,347.2560209999792,None,347.2560209999792,348.2584695999976,347.2560209999792,348.2584695999976,347.2560209999792,348.2584695999976,347.2560209999792,348.2584695999976,347.2560209999792,347.7565858999733,347.2560209999792,347.7565858999733,347.2560209999792,347.7565858999733,347.2560209999792,347.7565858999733,347.2560209999792,None,0.20212700008414686,,,,,11032,001,2024_Jan_11_1609,nback,2021.2.3,59.54149475384767,
1-back,instructions\back-1.png,conditions\11back-e.xlsx,,,experiment,1,1,stim\yellow.png,stim\gray.png,stim\gray.png,stim\gray.png,right,,,,,,,,,,,,,0,3,3,5,0,10,10,10,,,,,,,,,,,,,,,,,,,,,,,,,,,,,,,,,,,,,,,,,,,,,,,,,,,,,,,,right,1,348.75851870002225,None,348.75851870002225,None,348.75851870002225,349.760561699979,348.75851870002225,349.760561699979,348.75851870002225,349.760561699979,348.75851870002225,349.760561699979,348.75851870002225,349.2590590000618,348.75851870002225,349.2590590000618,348.75851870002225,349.2590590000618,348.75851870002225,349.2590590000618,348.75851870002225,None,0.45204999996349216,,,,,11032,001,2024_Jan_11_1609,nback,2021.2.3,59.54149475384767,
1-back,instructions\back-1.png,conditions\11back-e.xlsx,,,experiment,1,2,stim\gray.png,stim\yellow.png,stim\gray.png,stim\gray.png,up,,,,,,,,,,,,,0,3,3,5,0,11,11,11,,,,,,,,,,,,,,,,,,,,,,,,,,,,,,,,,,,,,,,,,,,,,,,,,,,,,,,,up,1,350.2609763001092,None,350.2609763001092,None,350.2609763001092,351.2621315999422,350.2609763001092,351.2621315999422,350.2609763001092,351.2621315999422,350.2609763001092,351.2621315999422,350.2609763001092,350.76128010009415,350.2609763001092,350.76128010009415,350.2609763001092,350.76128010009415,350.2609763001092,350.76128010009415,350.2609763001092,None,1.077243500156328,,,,,11032,001,2024_Jan_11_1609,nback,2021.2.3,59.54149475384767,
1-back,instructions\back-1.png,conditions\11back-e.xlsx,,,experiment,1,3,stim\gray.png,stim\gray.png,stim\yellow.png,stim\gray.png,left,,,,,,,,,,,,,0,3,3,5,0,12,12,12,,,,,,,,,,,,,,,,,,,,,,,,,,,,,,,,,,,,,,,,,,,,,,,,,,,,,,,,left,1,351.7628280001227,None,351.7628280001227,None,351.7628280001227,352.7647991999984,351.7628280001227,352.7647991999984,351.7628280001227,352.7647991999984,351.7628280001227,352.7647991999984,351.7628280001227,352.2635958001483,351.7628280001227,352.2635958001483,351.7628280001227,352.2635958001483,351.7628280001227,352.2635958001483,351.7628280001227,None,0.6876204998698086,,,,,11032,001,2024_Jan_11_1609,nback,2021.2.3,59.54149475384767,
1-back,instructions\back-1.png,conditions\11back-e.xlsx,,,experiment,1,4,stim\gray.png,stim\gray.png,stim\gray.png,stim\yellow.png,right,,,,,,,,,,,,,0,3,3,5,0,13,13,13,,,,,,,,,,,,,,,,,,,,,,,,,,,,,,,,,,,,,,,,,,,,,,,,,,,,,,,,right,1,353.2652831999585,None,353.2652831999585,None,353.2652831999585,354.26695660012774,353.2652831999585,354.26695660012774,353.2652831999585,354.26695660012774,353.2652831999585,354.26695660012774,353.2652831999585,353.76585830003023,353.2652831999585,353.76585830003023,353.2652831999585,353.76585830003023,353.2652831999585,353.76585830003023,353.2652831999585,None,0.7049926000181586,,,,,11032,001,2024_Jan_11_1609,nback,2021.2.3,59.54149475384767,
1-back,instructions\back-1.png,conditions\11back-e.xlsx,,,experiment,1,1,stim\yellow.png,stim\gray.png,stim\gray.png,stim\gray.png,down,,,,,,,,,,,,,0,3,3,5,0,14,14,14,,,,,,,,,,,,,,,,,,,,,,,,,,,,,,,,,,,,,,,,,,,,,,,,,,,,,,,,down,1,354.7673363999929,None,354.7673363999929,None,354.7673363999929,355.7690245001577,354.7673363999929,355.7690245001577,354.7673363999929,355.7690245001577,354.7673363999929,355.7690245001577,354.7673363999929,355.2684874001425,354.7673363999929,355.2684874001425,354.7673363999929,355.2684874001425,354.7673363999929,355.2684874001425,354.7673363999929,None,0.4753241001162678,,,,,11032,001,2024_Jan_11_1609,nback,2021.2.3,59.54149475384767,
1-back,instructions\back-1.png,conditions\11back-e.xlsx,,,experiment,1,2,stim\gray.png,stim\yellow.png,stim\gray.png,stim\gray.png,up,,,,,,,,,,,,,0,3,3,5,0,15,15,15,,,,,,,,,,,,,,,,,,,,,,,,,,,,,,,,,,,,,,,,,,,,,,,,,,,,,,,,up,1,356.2694211001508,None,356.2694211001508,None,356.2694211001508,357.2724953000434,356.2694211001508,357.2724953000434,356.2694211001508,357.2724953000434,356.2694211001508,357.2724953000434,356.2694211001508,356.7704799999483,356.2694211001508,356.7704799999483,356.2694211001508,356.7704799999483,356.2694211001508,356.7704799999483,356.2694211001508,None,0.42071440001018345,,,,,11032,001,2024_Jan_11_1609,nback,2021.2.3,59.54149475384767,
1-back,instructions\back-1.png,conditions\11back-e.xlsx,,,experiment,1,2,stim\gray.png,stim\yellow.png,stim\gray.png,stim\gray.png,left,,,,,,,,,,,,,0,3,3,5,0,16,16,16,,,,,,,,,,,,,,,,,,,,,,,,,,,,,,,,,,,,,,,,,,,,,,,,,,,,,,,,left,1,357.77168920007534,None,357.77168920007534,None,357.77168920007534,358.773235199973,357.77168920007534,358.773235199973,357.77168920007534,358.773235199973,357.77168920007534,358.773235199973,357.77168920007534,358.27339210011996,357.77168920007534,358.27339210011996,357.77168920007534,358.27339210011996,357.77168920007534,358.27339210011996,357.77168920007534,None,0.6866870999801904,,,,,11032,001,2024_Jan_11_1609,nback,2021.2.3,59.54149475384767,
1-back,instructions\back-1.png,conditions\11back-e.xlsx,,,experiment,1,1,stim\yellow.png,stim\gray.png,stim\gray.png,stim\gray.png,left,,,,,,,,,,,,,0,3,3,5,0,17,17,17,,,,,,,,,,,,,,,,,,,,,,,,,,,,,,,,,,,,,,,,,,,,,,,,,,,,,,,,left,1,359.25729180010967,None,359.25729180010967,None,359.25729180010967,360.2592865000479,359.25729180010967,360.2592865000479,359.25729180010967,360.2592865000479,359.25729180010967,360.2592865000479,359.25729180010967,359.75873770006,359.25729180010967,359.75873770006,359.25729180010967,359.75873770006,359.25729180010967,359.75873770006,359.25729180010967,None,0.9696851000189781,,,,,11032,001,2024_Jan_11_1609,nback,2021.2.3,59.54149475384767,
