backseq,backinstr,backfile,instruction,size_in,Trialtype,back,number,P1,P2,P3,P4,corrAns,trials_practice.thisRepN,trials_practice.thisTrialN,trials_practice.thisN,trials_practice.thisIndex,trials.thisRepN,trials.thisTrialN,trials.thisN,trials.thisIndex,trials_3.thisRepN,trials_3.thisTrialN,trials_3.thisN,trials_3.thisIndex,trials_2.thisRepN,trials_2.thisTrialN,trials_2.thisN,trials_2.thisIndex,trials_4.thisRepN,trials_4.thisTrialN,trials_4.thisN,trials_4.thisIndex,image.started,image.stopped,image_2.started,image_2.stopped,key_resp.keys,key_resp.rt,key_resp.started,key_resp.stopped,image_3.started,image_3.stopped,key_resp_2.keys,key_resp_2.rt,key_resp_2.started,key_resp_2.stopped,image_4.started,image_4.stopped,text.started,text.stopped,H1.started,H1.stopped,H2.started,H2.stopped,H3.started,H3.stopped,H4.started,H4.stopped,key_resp_3.keys,key_resp_3.corr,key_resp_3.rt,key_resp_3.started,key_resp_3.stopped,text_4.started,text_4.stopped,F1.started,F1.stopped,F2.started,F2.stopped,F3.started,F3.stopped,F4.started,F4.stopped,image_7.started,image_7.stopped,text_5.started,text_5.stopped,key_resp_6.keys,key_resp_6.rt,key_resp_6.started,key_resp_6.stopped,image_5.started,image_5.stopped,key_resp_4.keys,key_resp_4.rt,key_resp_4.started,key_resp_4.stopped,key_resp_5.keys,key_resp_5.corr,key_resp_5.rt,key_resp_5.started,key_resp_5.stopped,text_3.started,text_3.stopped,H1_2.started,H1_2.stopped,H2_2.started,H2_2.stopped,H3_2.started,H3_2.stopped,H4_2.started,H4_2.stopped,F1_2.started,F1_2.stopped,F2_2.started,F2_2.stopped,F3_2.started,F3_2.stopped,F4_2.started,F4_2.stopped,image_8.started,image_8.stopped,text_2.started,text_2.stopped,image_6.started,image_6.stopped,participant,session,date,expName,psychopyVersion,frameRate,
,,,,,,,,,,,,,,,,,,,,,,,,,,,,,,,,,10.205101399915293,None,11.140775500098243,None,space,4.5405607998836786,11.140775500098243,None,,,,,,,,,,,,,,,,,,,,,,,,,,,,,,,,,,,,,,,,,,,,,,,,,,,,,,,,,,,,,,,,,,,,,,,,,,,,,11045,001,2024_Apr_13_1128,nback,2021.2.3,60.06770827691016,
0-back,instructions\back-0.png,conditions\0back-p.xlsx,instructions\0-BACK.png,"(15, 8)",practice,0,1,stim\yellow.png,stim\gray.png,stim\gray.png,stim\gray.png,up,0,0,0,0,0,0,0,0,0,0,0,0,,,,,,,,,,,,,,,,,15.746817100094631,None,space,3.189940599957481,15.746817100094631,None,19.168591500027105,23.675306200049818,23.593395200092345,None,24.043691100087017,25.04414450004697,24.043691100087017,25.04414450004697,24.043691100087017,25.04414450004697,24.043691100087017,25.04414450004697,up,1,0.5413023999426514,24.043691100087017,None,24.043691100087017,None,24.043691100087017,24.54379429994151,24.043691100087017,24.54379429994151,24.043691100087017,24.54379429994151,24.043691100087017,24.54379429994151,24.043691100087017,None,,,,,,,,,,,,,,,,,,,,,,,,,,,,,,,,,,,,,,,,,,11045,001,2024_Apr_13_1128,nback,2021.2.3,60.06770827691016,
0-back,instructions\back-0.png,conditions\0back-p.xlsx,instructions\0-BACK.png,"(15, 8)",practice,0,2,stim\gray.png,stim\yellow.png,stim\gray.png,stim\gray.png,left,0,0,0,0,0,0,0,0,0,1,1,1,,,,,,,,,,,,,,,,,,,,,,,,,,,25.478311700047925,26.479664199985564,25.478311700047925,26.479664199985564,25.478311700047925,26.479664199985564,25.478311700047925,26.479664199985564,left,1,0.5866963998414576,25.478311700047925,None,25.478311700047925,None,25.478311700047925,25.97894679987803,25.478311700047925,25.97894679987803,25.478311700047925,25.97894679987803,25.478311700047925,25.97894679987803,25.478311700047925,None,,,,,,,,,,,,,,,,,,,,,,,,,,,,,,,,,,,,,,,,,,11045,001,2024_Apr_13_1128,nback,2021.2.3,60.06770827691016,
0-back,instructions\back-0.png,conditions\0back-p.xlsx,instructions\0-BACK.png,"(15, 8)",practice,0,3,stim\gray.png,stim\gray.png,stim\yellow.png,stim\gray.png,right,0,0,0,0,0,0,0,0,0,2,2,2,,,,,,,,,,,,,,,,,,,,,,,,,,,26.98032289999537,27.982130100019276,26.98032289999537,27.982130100019276,26.98032289999537,27.982130100019276,26.98032289999537,27.982130100019276,right,1,0.4768308000639081,26.98032289999537,None,26.98032289999537,None,26.98032289999537,27.48196840006858,26.98032289999537,27.48196840006858,26.98032289999537,27.48196840006858,26.98032289999537,27.48196840006858,26.98032289999537,None,,,,,,,,,,,,,,,,,,,,,,,,,,,,,,,,,,,,,,,,,,11045,001,2024_Apr_13_1128,nback,2021.2.3,60.06770827691016,
0-back,instructions\back-0.png,conditions\0back-p.xlsx,instructions\0-BACK.png,"(15, 8)",practice,0,4,stim\gray.png,stim\gray.png,stim\gray.png,stim\yellow.png,down,0,0,0,0,0,0,0,0,0,3,3,3,,,,,,,,,,,,,,,,,,,,,,,,,,,28.482633899897337,29.48508120002225,28.482633899897337,29.48508120002225,28.482633899897337,29.48508120002225,28.482633899897337,29.48508120002225,down,1,0.3828577999956906,28.482633899897337,None,28.482633899897337,None,28.482633899897337,28.983477999921888,28.482633899897337,28.983477999921888,28.482633899897337,28.983477999921888,28.482633899897337,28.983477999921888,28.482633899897337,None,,,,,,,,,,,,,,,,,,,,,,,,,,,,,,,,,,,,,,,,,,11045,001,2024_Apr_13_1128,nback,2021.2.3,60.06770827691016,
0-back,instructions\back-0.png,conditions\0back-p.xlsx,instructions\0-BACK.png,"(15, 8)",practice,0,2,stim\gray.png,stim\yellow.png,stim\gray.png,stim\gray.png,left,0,0,0,0,0,0,0,0,0,4,4,4,,,,,,,,,,,,,,,,,,,,,,,,,,,29.984910300001502,30.98645170009695,29.984910300001502,30.98645170009695,29.984910300001502,30.98645170009695,29.984910300001502,30.98645170009695,left,1,0.5445016999728978,29.984910300001502,None,29.984910300001502,None,29.984910300001502,30.48560780007392,29.984910300001502,30.48560780007392,29.984910300001502,30.48560780007392,29.984910300001502,30.48560780007392,29.984910300001502,None,,,,,,,,,,,,,,,,,,,,,,,,,,,,,,,,,,,,,,,,,,11045,001,2024_Apr_13_1128,nback,2021.2.3,60.06770827691016,
0-back,instructions\back-0.png,conditions\0back-p.xlsx,instructions\0-BACK.png,"(15, 8)",practice,0,1,stim\yellow.png,stim\gray.png,stim\gray.png,stim\gray.png,up,0,0,0,0,0,0,0,0,0,5,5,5,,,,,,,,,,,,,,,,,,,,,,,,,,,31.487284499919042,32.48867710004561,31.487284499919042,32.48867710004561,31.487284499919042,32.48867710004561,31.487284499919042,32.48867710004561,up,1,0.5380184999667108,31.487284499919042,None,31.487284499919042,None,31.487284499919042,31.98820269992575,31.487284499919042,31.98820269992575,31.487284499919042,31.98820269992575,31.487284499919042,31.98820269992575,31.487284499919042,None,,,,,,,,,,,,,,,,,,,,,,,,,,,,,,,,,,,,,,,,,,11045,001,2024_Apr_13_1128,nback,2021.2.3,60.06770827691016,
0-back,instructions\back-0.png,conditions\0back-p.xlsx,instructions\0-BACK.png,"(15, 8)",practice,0,4,stim\gray.png,stim\gray.png,stim\gray.png,stim\yellow.png,down,0,0,0,0,0,0,0,0,0,6,6,6,,,,,,,,,,,,,,,,,,,,,,,,,,,32.989560399902984,33.990868099965155,32.989560399902984,33.990868099965155,32.989560399902984,33.990868099965155,32.989560399902984,33.990868099965155,down,1,0.35575049999170005,32.989560399902984,None,32.989560399902984,None,32.989560399902984,33.49065660010092,32.989560399902984,33.49065660010092,32.989560399902984,33.49065660010092,32.989560399902984,33.49065660010092,32.989560399902984,None,,,,,,,,,,,,,,,,,,,,,,,,,,,,,,,,,,,,,,,,,,11045,001,2024_Apr_13_1128,nback,2021.2.3,60.06770827691016,
0-back,instructions\back-0.png,conditions\0back-p.xlsx,instructions\0-BACK.png,"(15, 8)",practice,0,3,stim\gray.png,stim\gray.png,stim\yellow.png,stim\gray.png,right,0,0,0,0,0,0,0,0,0,7,7,7,,,,,,,,,,,,,,,,,,,,,,,,,,,34.475166799966246,35.476807500002906,34.475166799966246,35.476807500002906,34.475166799966246,35.476807500002906,34.475166799966246,35.476807500002906,right,1,0.3513693001586944,34.475166799966246,None,34.475166799966246,None,34.475166799966246,34.975902300095186,34.475166799966246,34.975902300095186,34.475166799966246,34.975902300095186,34.475166799966246,34.975902300095186,34.475166799966246,None,,,,,,,,,,,,,,,,,,,,,,,,,,,,,,,,,,,,,,,,,,11045,001,2024_Apr_13_1128,nback,2021.2.3,60.06770827691016,
0-back,instructions\back-0.png,conditions\0back-p.xlsx,instructions\0-BACK.png,"(15, 8)",practice,0,3,stim\gray.png,stim\gray.png,stim\yellow.png,stim\gray.png,right,0,0,0,0,0,0,0,0,0,8,8,8,,,,,,,,,,,,,,,,,,,,,,,,,,,35.97732109995559,36.979138399939984,35.97732109995559,36.979138399939984,35.97732109995559,36.979138399939984,35.97732109995559,36.979138399939984,right,1,0.4087801000569016,35.97732109995559,None,35.97732109995559,None,35.97732109995559,36.47823889995925,35.97732109995559,36.47823889995925,35.97732109995559,36.47823889995925,35.97732109995559,36.47823889995925,35.97732109995559,None,,,,,,,,,,,,,,,,,,,,,,,,,,,,,,,,,,,,,,,,,,11045,001,2024_Apr_13_1128,nback,2021.2.3,60.06770827691016,
0-back,instructions\back-0.png,conditions\0back-p.xlsx,instructions\0-BACK.png,"(15, 8)",practice,0,4,stim\gray.png,stim\gray.png,stim\gray.png,stim\yellow.png,down,0,0,0,0,0,0,0,0,0,9,9,9,,,,,,,,,,,,,,,,,,,,,,,,,,,37.4797521000728,38.48192989989184,37.4797521000728,38.48192989989184,37.4797521000728,38.48192989989184,37.4797521000728,38.48192989989184,down,1,0.4978873999789357,37.4797521000728,None,37.4797521000728,None,37.4797521000728,37.98025569994934,37.4797521000728,37.98025569994934,37.4797521000728,37.98025569994934,37.4797521000728,37.98025569994934,37.4797521000728,None,,,,,,,,,,,,,,,,,,,,,,,,,,,,,,,,,,,,,,,,,,11045,001,2024_Apr_13_1128,nback,2021.2.3,60.06770827691016,
0-back,instructions\back-0.png,conditions\0back-p.xlsx,instructions\0-BACK.png,"(15, 8)",practice,0,1,stim\yellow.png,stim\gray.png,stim\gray.png,stim\gray.png,up,0,0,0,0,0,0,0,0,0,10,10,10,,,,,,,,,,,,,,,,,,,,,,,,,,,38.98197379987687,39.98380680009723,38.98197379987687,39.98380680009723,38.98197379987687,39.98380680009723,38.98197379987687,39.98380680009723,up,1,0.5073935999535024,38.98197379987687,None,38.98197379987687,None,38.98197379987687,39.48283059988171,38.98197379987687,39.48283059988171,38.98197379987687,39.48283059988171,38.98197379987687,39.48283059988171,38.98197379987687,None,,,,,,,,,,,,,,,,,,,,,,,,,,,,,,,,,,,,,,,,,,11045,001,2024_Apr_13_1128,nback,2021.2.3,60.06770827691016,
0-back,instructions\back-0.png,conditions\0back-p.xlsx,instructions\0-BACK.png,"(15, 8)",practice,0,2,stim\gray.png,stim\yellow.png,stim\gray.png,stim\gray.png,left,0,0,0,0,0,0,0,0,0,11,11,11,,,,,,,,,,,,,,,,,,,,,,,,,,,40.48412619996816,41.48550980002619,40.48412619996816,41.48550980002619,40.48412619996816,41.48550980002619,40.48412619996816,41.48550980002619,left,1,0.4375040999148041,40.48412619996816,None,40.48412619996816,None,40.48412619996816,40.98483409988694,40.48412619996816,40.98483409988694,40.48412619996816,40.98483409988694,40.48412619996816,40.98483409988694,40.48412619996816,None,,,,,,,,,,,,,,,,,,,,,,,,,,,,,,,,,,,,,,,,,,11045,001,2024_Apr_13_1128,nback,2021.2.3,60.06770827691016,
0-back,instructions\back-0.png,conditions\0back-p.xlsx,instructions\0-BACK.png,"(15, 8)",practice,0,4,stim\gray.png,stim\gray.png,stim\gray.png,stim\yellow.png,down,0,0,0,0,0,0,0,0,0,12,12,12,,,,,,,,,,,,,,,,,,,,,,,,,,,41.98647530004382,42.98784440010786,41.98647530004382,42.98784440010786,41.98647530004382,42.98784440010786,41.98647530004382,42.98784440010786,down,1,0.35933990008197725,41.98647530004382,None,41.98647530004382,None,41.98647530004382,42.48713540006429,41.98647530004382,42.48713540006429,41.98647530004382,42.48713540006429,41.98647530004382,42.48713540006429,41.98647530004382,None,,,,,,,,,,,,,,,,,,,,,,,,,,,,,,,,,,,,,,,,,,11045,001,2024_Apr_13_1128,nback,2021.2.3,60.06770827691016,
0-back,instructions\back-0.png,conditions\0back-p.xlsx,instructions\0-BACK.png,"(15, 8)",practice,0,3,stim\gray.png,stim\gray.png,stim\yellow.png,stim\gray.png,right,0,0,0,0,0,0,0,0,0,13,13,13,,,,,,,,,,,,,,,,,,,,,,,,,,,43.488546699984,44.49011919996701,43.488546699984,44.49011919996701,43.488546699984,44.49011919996701,43.488546699984,44.49011919996701,right,1,0.32159500010311604,43.488546699984,None,43.488546699984,None,43.488546699984,43.98945149988867,43.488546699984,43.98945149988867,43.488546699984,43.98945149988867,43.488546699984,43.98945149988867,43.488546699984,None,,,,,,,,,,,,,,,,,,,,,,,,,,,,,,,,,,,,,,,,,,11045,001,2024_Apr_13_1128,nback,2021.2.3,60.06770827691016,
0-back,instructions\back-0.png,conditions\0back-p.xlsx,instructions\0-BACK.png,"(15, 8)",practice,0,1,stim\yellow.png,stim\gray.png,stim\gray.png,stim\gray.png,up,0,0,0,0,0,0,0,0,0,14,14,14,,,,,,,,,,,,,,,,,,,,,,,,,,,44.97413260000758,45.97570449998602,44.97413260000758,45.97570449998602,44.97413260000758,45.97570449998602,44.97413260000758,45.97570449998602,up,1,0.4995143001433462,44.97413260000758,None,44.97413260000758,None,44.97413260000758,45.47503419988789,44.97413260000758,45.47503419988789,44.97413260000758,45.47503419988789,44.97413260000758,45.47503419988789,44.97413260000758,None,,,,,,,,,,,,,,,,,,,,,,,,,,,,,,,,,,,,,,,,,,11045,001,2024_Apr_13_1128,nback,2021.2.3,60.06770827691016,
0-back,instructions\back-0.png,conditions\0back-p.xlsx,instructions\0-BACK.png,"(15, 8)",practice,0,2,stim\gray.png,stim\yellow.png,stim\gray.png,stim\gray.png,left,0,0,0,0,0,0,0,0,0,15,15,15,,,,,,,,,,,,,,,,,,,,,,,,,,,46.47651070007123,47.478351699886844,46.47651070007123,47.478351699886844,46.47651070007123,47.478351699886844,46.47651070007123,47.478351699886844,left,1,0.3743728999979794,46.47651070007123,None,46.47651070007123,None,46.47651070007123,46.977179100038484,46.47651070007123,46.977179100038484,46.47651070007123,46.977179100038484,46.47651070007123,46.977179100038484,46.47651070007123,None,,,,,,,,,,,,,,,,,,,,,,,,,,,,,,,,,,,,,,,,,,11045,001,2024_Apr_13_1128,nback,2021.2.3,60.06770827691016,
0-back,instructions\back-0.png,conditions\0back-p.xlsx,instructions\0-BACK.png,"(15, 8)",practice,0,3,stim\gray.png,stim\gray.png,stim\yellow.png,stim\gray.png,right,0,0,0,0,0,0,0,0,0,16,16,16,,,,,,,,,,,,,,,,,,,,,,,,,,,47.97926550009288,48.98012199997902,47.97926550009288,48.98012199997902,47.97926550009288,48.98012199997902,47.97926550009288,48.98012199997902,right,1,0.46253130002878606,47.97926550009288,None,47.97926550009288,None,47.97926550009288,48.47966059995815,47.97926550009288,48.47966059995815,47.97926550009288,48.47966059995815,47.97926550009288,48.47966059995815,47.97926550009288,None,,,,,,,,,,,,,,,,,,,,,,,,,,,,,,,,,,,,,,,,,,11045,001,2024_Apr_13_1128,nback,2021.2.3,60.06770827691016,
0-back,instructions\back-0.png,conditions\0back-p.xlsx,instructions\0-BACK.png,"(15, 8)",practice,0,1,stim\yellow.png,stim\gray.png,stim\gray.png,stim\gray.png,up,0,0,0,0,0,0,0,0,0,17,17,17,,,,,,,,,,,,,,,,,,,,,,,,,,,49.48125439998694,50.482530100038275,49.48125439998694,50.482530100038275,49.48125439998694,50.482530100038275,49.48125439998694,50.482530100038275,up,1,0.5296519999392331,49.48125439998694,None,49.48125439998694,None,49.48125439998694,49.9817536000628,49.48125439998694,49.9817536000628,49.48125439998694,49.9817536000628,49.48125439998694,49.9817536000628,49.48125439998694,None,,,,,,,,,,,,,,,,,,,,,,,,,,,,,,,,,,,,,,,,,,11045,001,2024_Apr_13_1128,nback,2021.2.3,60.06770827691016,
0-back,instructions\back-0.png,conditions\0back-p.xlsx,instructions\0-BACK.png,"(15, 8)",practice,0,4,stim\gray.png,stim\gray.png,stim\gray.png,stim\yellow.png,down,0,0,0,0,0,0,0,0,0,18,18,18,,,,,,,,,,,,,,,,,,,,,,,,,,,50.98329390003346,51.9849288999103,50.98329390003346,51.9849288999103,50.98329390003346,51.9849288999103,50.98329390003346,51.9849288999103,down,1,0.6107437999453396,50.98329390003346,None,50.98329390003346,None,50.98329390003346,51.48406869987957,50.98329390003346,51.48406869987957,50.98329390003346,51.48406869987957,50.98329390003346,51.48406869987957,50.98329390003346,None,,,,,,,,,,,,,,,,,,,,,,,,,,,,,,,,,,,,,,,,,,11045,001,2024_Apr_13_1128,nback,2021.2.3,60.06770827691016,
0-back,instructions\back-0.png,conditions\0back-p.xlsx,instructions\0-BACK.png,"(15, 8)",practice,0,2,stim\gray.png,stim\yellow.png,stim\gray.png,stim\gray.png,left,0,0,0,0,0,0,0,0,0,19,19,19,,,,,,,,,,,,,,,,,,,,,,,,,,,52.48557229992002,53.486991700017825,52.48557229992002,53.486991700017825,52.48557229992002,53.486991700017825,52.48557229992002,53.486991700017825,left,1,0.4364298000000417,52.48557229992002,None,52.48557229992002,None,52.48557229992002,52.98636549990624,52.48557229992002,52.98636549990624,52.48557229992002,52.98636549990624,52.48557229992002,52.98636549990624,52.48557229992002,None,,,,,,,,,,,,,,,,,,,,,,,,,,,,,,,,,,,,,,,,,,11045,001,2024_Apr_13_1128,nback,2021.2.3,60.06770827691016,
0-back,instructions\back-0.png,conditions\0back-p.xlsx,instructions\0-BACK.png,"(15, 8)",,,,,,,,,0,0,0,0,0,0,0,0,,,,,,,,,,,,,,,,,,,,,,,,,,,,,,,,,,,,,,,,,,,,,,,,,,,,,,,,,,,,,,,,,,,,,,,,,,,,,,,,,,,,,,,,,,,,,,,,,11045,001,2024_Apr_13_1128,nback,2021.2.3,60.06770827691016,
1-back,instructions\back-1.png,conditions\1back-p.xlsx,instructions\1-BACK.png,"(25, 15)",practice,1,1,stim\yellow.png,stim\gray.png,stim\gray.png,stim\gray.png,None,0,0,0,0,0,1,1,1,0,0,0,0,,,,,,,,,,,,,,,,,54.2382916000206,None,space,10.563903299858794,54.2382916000206,None,65.00434149987996,69.51142430002801,69.49475759989582,None,69.84551470004953,70.84657600009814,69.84551470004953,70.84657600009814,69.84551470004953,70.84657600009814,69.84551470004953,70.84657600009814,None,1,,69.84551470004953,None,69.84551470004953,None,69.84551470004953,70.34579179994762,69.84551470004953,70.34579179994762,69.84551470004953,70.34579179994762,69.84551470004953,70.34579179994762,69.84551470004953,None,,,,,,,,,,,,,,,,,,,,,,,,,,,,,,,,,,,,,,,,,,11045,001,2024_Apr_13_1128,nback,2021.2.3,60.06770827691016,
1-back,instructions\back-1.png,conditions\1back-p.xlsx,instructions\1-BACK.png,"(25, 15)",practice,1,2,stim\gray.png,stim\yellow.png,stim\gray.png,stim\gray.png,up,0,0,0,0,0,1,1,1,0,1,1,1,,,,,,,,,,,,,,,,,,,,,,,,,,,71.33073389995843,72.33222589991055,71.33073389995843,72.33222589991055,71.33073389995843,72.33222589991055,71.33073389995843,72.33222589991055,up,1,0.4005352999083698,71.33073389995843,None,71.33073389995843,None,71.33073389995843,71.83146509993821,71.33073389995843,71.83146509993821,71.33073389995843,71.83146509993821,71.33073389995843,71.83146509993821,71.33073389995843,None,,,,,,,,,,,,,,,,,,,,,,,,,,,,,,,,,,,,,,,,,,11045,001,2024_Apr_13_1128,nback,2021.2.3,60.06770827691016,
1-back,instructions\back-1.png,conditions\1back-p.xlsx,instructions\1-BACK.png,"(25, 15)",practice,1,3,stim\gray.png,stim\gray.png,stim\yellow.png,stim\gray.png,left,0,0,0,0,0,1,1,1,0,2,2,2,,,,,,,,,,,,,,,,,,,,,,,,,,,72.83275689999573,73.8346144000534,72.83275689999573,73.8346144000534,72.83275689999573,73.8346144000534,72.83275689999573,73.8346144000534,left,1,0.4659873000346124,72.83275689999573,None,72.83275689999573,None,72.83275689999573,73.33444419992156,72.83275689999573,73.33444419992156,72.83275689999573,73.33444419992156,72.83275689999573,73.33444419992156,72.83275689999573,None,,,,,,,,,,,,,,,,,,,,,,,,,,,,,,,,,,,,,,,,,,11045,001,2024_Apr_13_1128,nback,2021.2.3,60.06770827691016,
1-back,instructions\back-1.png,conditions\1back-p.xlsx,instructions\1-BACK.png,"(25, 15)",practice,1,4,stim\gray.png,stim\gray.png,stim\gray.png,stim\yellow.png,right,0,0,0,0,0,1,1,1,0,3,3,3,,,,,,,,,,,,,,,,,,,,,,,,,,,74.33516969997436,75.33703569998033,74.33516969997436,75.33703569998033,74.33516969997436,75.33703569998033,74.33516969997436,75.33703569998033,right,1,0.2680478999391198,74.33516969997436,None,74.33516969997436,None,74.33516969997436,74.83639140008017,74.33516969997436,74.83639140008017,74.33516969997436,74.83639140008017,74.33516969997436,74.83639140008017,74.33516969997436,None,,,,,,,,,,,,,,,,,,,,,,,,,,,,,,,,,,,,,,,,,,11045,001,2024_Apr_13_1128,nback,2021.2.3,60.06770827691016,
1-back,instructions\back-1.png,conditions\1back-p.xlsx,instructions\1-BACK.png,"(25, 15)",practice,1,2,stim\gray.png,stim\yellow.png,stim\gray.png,stim\gray.png,down,0,0,0,0,0,1,1,1,0,4,4,4,,,,,,,,,,,,,,,,,,,,,,,,,,,75.83745549991727,76.83917049993761,75.83745549991727,76.83917049993761,75.83745549991727,76.83917049993761,75.83745549991727,76.83917049993761,down,1,0.013317800126969814,75.83745549991727,None,75.83745549991727,None,75.83745549991727,76.33828180003911,75.83745549991727,76.33828180003911,75.83745549991727,76.33828180003911,75.83745549991727,76.33828180003911,75.83745549991727,None,,,,,,,,,,,,,,,,,,,,,,,,,,,,,,,,,,,,,,,,,,11045,001,2024_Apr_13_1128,nback,2021.2.3,60.06770827691016,
1-back,instructions\back-1.png,conditions\1back-p.xlsx,instructions\1-BACK.png,"(25, 15)",practice,1,1,stim\yellow.png,stim\gray.png,stim\gray.png,stim\gray.png,left,0,0,0,0,0,1,1,1,0,5,5,5,,,,,,,,,,,,,,,,,,,,,,,,,,,77.3397043000441,78.34146640007384,77.3397043000441,78.34146640007384,77.3397043000441,78.34146640007384,77.3397043000441,78.34146640007384,left,1,0.3189107000362128,77.3397043000441,None,77.3397043000441,None,77.3397043000441,77.84052850003354,77.3397043000441,77.84052850003354,77.3397043000441,77.84052850003354,77.3397043000441,77.84052850003354,77.3397043000441,None,,,,,,,,,,,,,,,,,,,,,,,,,,,,,,,,,,,,,,,,,,11045,001,2024_Apr_13_1128,nback,2021.2.3,60.06770827691016,
1-back,instructions\back-1.png,conditions\1back-p.xlsx,instructions\1-BACK.png,"(25, 15)",practice,1,4,stim\gray.png,stim\gray.png,stim\gray.png,stim\yellow.png,up,0,0,0,0,0,1,1,1,0,6,6,6,,,,,,,,,,,,,,,,,,,,,,,,,,,78.8259759999346,79.82683079992421,78.8259759999346,79.82683079992421,78.8259759999346,79.82683079992421,78.8259759999346,79.82683079992421,up,1,0.2969722000416368,78.8259759999346,None,78.8259759999346,None,78.8259759999346,79.32623409992084,78.8259759999346,79.32623409992084,78.8259759999346,79.32623409992084,78.8259759999346,79.32623409992084,78.8259759999346,None,,,,,,,,,,,,,,,,,,,,,,,,,,,,,,,,,,,,,,,,,,11045,001,2024_Apr_13_1128,nback,2021.2.3,60.06770827691016,
1-back,instructions\back-1.png,conditions\1back-p.xlsx,instructions\1-BACK.png,"(25, 15)",practice,1,3,stim\gray.png,stim\gray.png,stim\yellow.png,stim\gray.png,down,0,0,0,0,0,1,1,1,0,7,7,7,,,,,,,,,,,,,,,,,,,,,,,,,,,80.32770829997025,81.32943590008654,80.32770829997025,81.32943590008654,80.32770829997025,81.32943590008654,80.32770829997025,81.32943590008654,down,1,0.37092729983851314,80.32770829997025,None,80.32770829997025,None,80.32770829997025,80.82896850001998,80.32770829997025,80.82896850001998,80.32770829997025,80.82896850001998,80.32770829997025,80.82896850001998,80.32770829997025,None,,,,,,,,,,,,,,,,,,,,,,,,,,,,,,,,,,,,,,,,,,11045,001,2024_Apr_13_1128,nback,2021.2.3,60.06770827691016,
1-back,instructions\back-1.png,conditions\1back-p.xlsx,instructions\1-BACK.png,"(25, 15)",practice,1,3,stim\gray.png,stim\gray.png,stim\yellow.png,stim\gray.png,right,0,0,0,0,0,1,1,1,0,8,8,8,,,,,,,,,,,,,,,,,,,,,,,,,,,81.82967470004223,82.83141299989074,81.82967470004223,82.83141299989074,81.82967470004223,82.83141299989074,81.82967470004223,82.83141299989074,right,1,0.4614131001289934,81.82967470004223,None,81.82967470004223,None,81.82967470004223,82.33068939996883,81.82967470004223,82.33068939996883,81.82967470004223,82.33068939996883,81.82967470004223,82.33068939996883,81.82967470004223,None,,,,,,,,,,,,,,,,,,,,,,,,,,,,,,,,,,,,,,,,,,11045,001,2024_Apr_13_1128,nback,2021.2.3,60.06770827691016,
1-back,instructions\back-1.png,conditions\1back-p.xlsx,instructions\1-BACK.png,"(25, 15)",practice,1,4,stim\gray.png,stim\gray.png,stim\gray.png,stim\yellow.png,right,0,0,0,0,0,1,1,1,0,9,9,9,,,,,,,,,,,,,,,,,,,,,,,,,,,83.3319848999381,84.33370400010608,83.3319848999381,84.33370400010608,83.3319848999381,84.33370400010608,83.3319848999381,84.33370400010608,right,1,0.32700420008040965,83.3319848999381,None,83.3319848999381,None,83.3319848999381,83.83303899993189,83.3319848999381,83.83303899993189,83.3319848999381,83.83303899993189,83.3319848999381,83.83303899993189,83.3319848999381,None,,,,,,,,,,,,,,,,,,,,,,,,,,,,,,,,,,,,,,,,,,11045,001,2024_Apr_13_1128,nback,2021.2.3,60.06770827691016,
1-back,instructions\back-1.png,conditions\1back-p.xlsx,instructions\1-BACK.png,"(25, 15)",practice,1,1,stim\yellow.png,stim\gray.png,stim\gray.png,stim\gray.png,down,0,0,0,0,0,1,1,1,0,10,10,10,,,,,,,,,,,,,,,,,,,,,,,,,,,84.83451439999044,85.83698370005004,84.83451439999044,85.83698370005004,84.83451439999044,85.83698370005004,84.83451439999044,85.83698370005004,down,1,0.25632849987596273,84.83451439999044,None,84.83451439999044,None,84.83451439999044,85.33550400007516,84.83451439999044,85.33550400007516,84.83451439999044,85.33550400007516,84.83451439999044,85.33550400007516,84.83451439999044,None,,,,,,,,,,,,,,,,,,,,,,,,,,,,,,,,,,,,,,,,,,11045,001,2024_Apr_13_1128,nback,2021.2.3,60.06770827691016,
1-back,instructions\back-1.png,conditions\1back-p.xlsx,instructions\1-BACK.png,"(25, 15)",practice,1,2,stim\gray.png,stim\yellow.png,stim\gray.png,stim\gray.png,up,0,0,0,0,0,1,1,1,0,11,11,11,,,,,,,,,,,,,,,,,,,,,,,,,,,86.33710570004769,87.33811890007928,86.33710570004769,87.33811890007928,86.33710570004769,87.33811890007928,86.33710570004769,87.33811890007928,up,1,0.5305147001054138,86.33710570004769,None,86.33710570004769,None,86.33710570004769,86.83744699996896,86.33710570004769,86.83744699996896,86.33710570004769,86.83744699996896,86.33710570004769,86.83744699996896,86.33710570004769,None,,,,,,,,,,,,,,,,,,,,,,,,,,,,,,,,,,,,,,,,,,11045,001,2024_Apr_13_1128,nback,2021.2.3,60.06770827691016,
1-back,instructions\back-1.png,conditions\1back-p.xlsx,instructions\1-BACK.png,"(25, 15)",practice,1,4,stim\gray.png,stim\gray.png,stim\gray.png,stim\yellow.png,left,0,0,0,0,0,1,1,1,0,12,12,12,,,,,,,,,,,,,,,,,,,,,,,,,,,87.83925330010243,88.84041410009377,87.83925330010243,88.84041410009377,87.83925330010243,88.84041410009377,87.83925330010243,88.84041410009377,left,1,0.4598240000195801,87.83925330010243,None,87.83925330010243,None,87.83925330010243,88.33970410004258,87.83925330010243,88.33970410004258,87.83925330010243,88.33970410004258,87.83925330010243,88.33970410004258,87.83925330010243,None,,,,,,,,,,,,,,,,,,,,,,,,,,,,,,,,,,,,,,,,,,11045,001,2024_Apr_13_1128,nback,2021.2.3,60.06770827691016,
1-back,instructions\back-1.png,conditions\1back-p.xlsx,instructions\1-BACK.png,"(25, 15)",practice,1,3,stim\gray.png,stim\gray.png,stim\yellow.png,stim\gray.png,down,0,0,0,0,0,1,1,1,0,13,13,13,,,,,,,,,,,,,,,,,,,,,,,,,,,89.32466639997438,90.32607760000974,89.32466639997438,90.32607760000974,89.32466639997438,90.32607760000974,89.32466639997438,90.32607760000974,down,1,0.1021180001553148,89.32466639997438,None,89.32466639997438,None,89.32466639997438,89.82534809992649,89.32466639997438,89.82534809992649,89.32466639997438,89.82534809992649,89.32466639997438,89.82534809992649,89.32466639997438,None,,,,,,,,,,,,,,,,,,,,,,,,,,,,,,,,,,,,,,,,,,11045,001,2024_Apr_13_1128,nback,2021.2.3,60.06770827691016,
1-back,instructions\back-1.png,conditions\1back-p.xlsx,instructions\1-BACK.png,"(25, 15)",practice,1,1,stim\yellow.png,stim\gray.png,stim\gray.png,stim\gray.png,right,0,0,0,0,0,1,1,1,0,14,14,14,,,,,,,,,,,,,,,,,,,,,,,,,,,90.82685400010087,91.82858070009388,90.82685400010087,91.82858070009388,90.82685400010087,91.82858070009388,90.82685400010087,91.82858070009388,right,1,0.24858959997072816,90.82685400010087,None,90.82685400010087,None,90.82685400010087,91.32770709996112,90.82685400010087,91.32770709996112,90.82685400010087,91.32770709996112,90.82685400010087,91.32770709996112,90.82685400010087,None,,,,,,,,,,,,,,,,,,,,,,,,,,,,,,,,,,,,,,,,,,11045,001,2024_Apr_13_1128,nback,2021.2.3,60.06770827691016,
1-back,instructions\back-1.png,conditions\1back-p.xlsx,instructions\1-BACK.png,"(25, 15)",practice,1,2,stim\gray.png,stim\yellow.png,stim\gray.png,stim\gray.png,up,0,0,0,0,0,1,1,1,0,15,15,15,,,,,,,,,,,,,,,,,,,,,,,,,,,92.32923360005952,93.33061910001561,92.32923360005952,93.33061910001561,92.32923360005952,93.33061910001561,92.32923360005952,93.33061910001561,up,1,0.26649029995314777,92.32923360005952,None,92.32923360005952,None,92.32923360005952,92.82965889992192,92.32923360005952,92.82965889992192,92.32923360005952,92.82965889992192,92.32923360005952,92.82965889992192,92.32923360005952,None,,,,,,,,,,,,,,,,,,,,,,,,,,,,,,,,,,,,,,,,,,11045,001,2024_Apr_13_1128,nback,2021.2.3,60.06770827691016,
1-back,instructions\back-1.png,conditions\1back-p.xlsx,instructions\1-BACK.png,"(25, 15)",practice,1,3,stim\gray.png,stim\gray.png,stim\yellow.png,stim\gray.png,left,0,0,0,0,0,1,1,1,0,16,16,16,,,,,,,,,,,,,,,,,,,,,,,,,,,93.83138750004582,94.8327178999316,93.83138750004582,94.8327178999316,93.83138750004582,94.8327178999316,93.83138750004582,94.8327178999316,left,1,0.3006764000747353,93.83138750004582,None,93.83138750004582,None,93.83138750004582,94.33203909988515,93.83138750004582,94.33203909988515,93.83138750004582,94.33203909988515,93.83138750004582,94.33203909988515,93.83138750004582,None,,,,,,,,,,,,,,,,,,,,,,,,,,,,,,,,,,,,,,,,,,11045,001,2024_Apr_13_1128,nback,2021.2.3,60.06770827691016,
1-back,instructions\back-1.png,conditions\1back-p.xlsx,instructions\1-BACK.png,"(25, 15)",practice,1,1,stim\yellow.png,stim\gray.png,stim\gray.png,stim\gray.png,right,0,0,0,0,0,1,1,1,0,17,17,17,,,,,,,,,,,,,,,,,,,,,,,,,,,95.33418349991553,96.33505919994786,95.33418349991553,96.33505919994786,95.33418349991553,96.33505919994786,95.33418349991553,96.33505919994786,right,1,0.293127000099048,95.33418349991553,None,95.33418349991553,None,95.33418349991553,95.83445439999923,95.33418349991553,95.83445439999923,95.33418349991553,95.83445439999923,95.33418349991553,95.83445439999923,95.33418349991553,None,,,,,,,,,,,,,,,,,,,,,,,,,,,,,,,,,,,,,,,,,,11045,001,2024_Apr_13_1128,nback,2021.2.3,60.06770827691016,
1-back,instructions\back-1.png,conditions\1back-p.xlsx,instructions\1-BACK.png,"(25, 15)",practice,1,4,stim\gray.png,stim\gray.png,stim\gray.png,stim\yellow.png,up,0,0,0,0,0,1,1,1,0,18,18,18,,,,,,,,,,,,,,,,,,,,,,,,,,,96.83601259998977,97.83875370002352,96.83601259998977,97.83875370002352,96.83601259998977,97.83875370002352,96.83601259998977,97.83875370002352,up,1,0.4713183999992907,96.83601259998977,None,96.83601259998977,None,96.83601259998977,97.33664090000093,96.83601259998977,97.33664090000093,96.83601259998977,97.33664090000093,96.83601259998977,97.33664090000093,96.83601259998977,None,,,,,,,,,,,,,,,,,,,,,,,,,,,,,,,,,,,,,,,,,,11045,001,2024_Apr_13_1128,nback,2021.2.3,60.06770827691016,
1-back,instructions\back-1.png,conditions\1back-p.xlsx,instructions\1-BACK.png,"(25, 15)",practice,1,2,stim\gray.png,stim\yellow.png,stim\gray.png,stim\gray.png,down,0,0,0,0,0,1,1,1,0,19,19,19,,,,,,,,,,,,,,,,,,,,,,,,,,,98.33839139994234,99.33960149995983,98.33839139994234,99.33960149995983,98.33839139994234,99.33960149995983,98.33839139994234,99.33960149995983,down,1,0.3131572001148015,98.33839139994234,None,98.33839139994234,None,98.33839139994234,98.83896539988928,98.33839139994234,98.83896539988928,98.33839139994234,98.83896539988928,98.33839139994234,98.83896539988928,98.33839139994234,None,,,,,,,,,,,,,,,,,,,,,,,,,,,,,,,,,,,,,,,,,,11045,001,2024_Apr_13_1128,nback,2021.2.3,60.06770827691016,
1-back,instructions\back-1.png,conditions\1back-p.xlsx,instructions\1-BACK.png,"(25, 15)",,,,,,,,,0,0,0,0,0,1,1,1,,,,,,,,,,,,,,,,,,,,,,,,,,,,,,,,,,,,,,,,,,,,,,,,,,,,,,,,,,,,,,,,,,,,,,,,,,,,,,,,,,,,,,,,,,,,,,,,,11045,001,2024_Apr_13_1128,nback,2021.2.3,60.06770827691016,
2-back,instructions\back-2.png,conditions\2back-p.xlsx,instructions\2-BACK.png,"(25, 15)",practice,2,1,stim\yellow.png,stim\gray.png,stim\gray.png,stim\gray.png,None,0,0,0,0,0,2,2,2,0,0,0,0,,,,,,,,,,,,,,,,,100.02393639995717,None,space,5.0592541000805795,100.02393639995717,None,105.29843860003166,109.80803509987891,109.70510679995641,None,110.123176000081,111.12376079987735,110.123176000081,111.12376079987735,110.123176000081,111.12376079987735,110.123176000081,111.12376079987735,None,1,,110.123176000081,None,110.123176000081,None,110.123176000081,110.62335000000894,110.123176000081,110.62335000000894,110.123176000081,110.62335000000894,110.123176000081,110.62335000000894,110.123176000081,None,,,,,,,,,,,,,,,,,,,,,,,,,,,,,,,,,,,,,,,,,,11045,001,2024_Apr_13_1128,nback,2021.2.3,60.06770827691016,
2-back,instructions\back-2.png,conditions\2back-p.xlsx,instructions\2-BACK.png,"(25, 15)",practice,2,2,stim\gray.png,stim\yellow.png,stim\gray.png,stim\gray.png,None,0,0,0,0,0,2,2,2,0,1,1,1,,,,,,,,,,,,,,,,,,,,,,,,,,,111.60816859989427,112.60965409991331,111.60816859989427,112.60965409991331,111.60816859989427,112.60965409991331,111.60816859989427,112.60965409991331,None,1,,111.60816859989427,None,111.60816859989427,None,111.60816859989427,112.10886180005036,111.60816859989427,112.10886180005036,111.60816859989427,112.10886180005036,111.60816859989427,112.10886180005036,111.60816859989427,None,,,,,,,,,,,,,,,,,,,,,,,,,,,,,,,,,,,,,,,,,,11045,001,2024_Apr_13_1128,nback,2021.2.3,60.06770827691016,
2-back,instructions\back-2.png,conditions\2back-p.xlsx,instructions\2-BACK.png,"(25, 15)",practice,2,3,stim\gray.png,stim\gray.png,stim\yellow.png,stim\gray.png,up,0,0,0,0,0,2,2,2,0,2,2,2,,,,,,,,,,,,,,,,,,,,,,,,,,,113.11044449987821,114.1119333000388,113.11044449987821,114.1119333000388,113.11044449987821,114.1119333000388,113.11044449987821,114.1119333000388,up,1,0.15752030001021922,113.11044449987821,None,113.11044449987821,None,113.11044449987821,113.61117479996756,113.11044449987821,113.61117479996756,113.11044449987821,113.61117479996756,113.11044449987821,113.61117479996756,113.11044449987821,None,,,,,,,,,,,,,,,,,,,,,,,,,,,,,,,,,,,,,,,,,,11045,001,2024_Apr_13_1128,nback,2021.2.3,60.06770827691016,
2-back,instructions\back-2.png,conditions\2back-p.xlsx,instructions\2-BACK.png,"(25, 15)",practice,2,4,stim\gray.png,stim\gray.png,stim\gray.png,stim\yellow.png,left,0,0,0,0,0,2,2,2,0,3,3,3,,,,,,,,,,,,,,,,,,,,,,,,,,,114.61275249999017,115.61423599999398,114.61275249999017,115.61423599999398,114.61275249999017,115.61423599999398,114.61275249999017,115.61423599999398,right,0,1.3112772000022233,114.61275249999017,None,114.61275249999017,None,114.61275249999017,115.11342939990573,114.61275249999017,115.11342939990573,114.61275249999017,115.11342939990573,114.61275249999017,115.11342939990573,114.61275249999017,None,,,,,,,,,,,,,,,,,,,,,,,,,,,,,,,,,,,,,,,,,,11045,001,2024_Apr_13_1128,nback,2021.2.3,60.06770827691016,
2-back,instructions\back-2.png,conditions\2back-p.xlsx,instructions\2-BACK.png,"(25, 15)",practice,2,2,stim\gray.png,stim\yellow.png,stim\gray.png,stim\gray.png,right,0,0,0,0,0,2,2,2,0,4,4,4,,,,,,,,,,,,,,,,,,,,,,,,,,,116.1151181999594,117.11683079996146,116.1151181999594,117.11683079996146,116.1151181999594,117.11683079996146,116.1151181999594,117.11683079996146,None,0,,116.1151181999594,None,116.1151181999594,None,116.1151181999594,116.61577360006049,116.1151181999594,116.61577360006049,116.1151181999594,116.61577360006049,116.1151181999594,116.61577360006049,116.1151181999594,None,,,,,,,,,,,,,,,,,,,,,,,,,,,,,,,,,,,,,,,,,,11045,001,2024_Apr_13_1128,nback,2021.2.3,60.06770827691016,
2-back,instructions\back-2.png,conditions\2back-p.xlsx,instructions\2-BACK.png,"(25, 15)",practice,2,1,stim\yellow.png,stim\gray.png,stim\gray.png,stim\gray.png,down,0,0,0,0,0,2,2,2,0,5,5,5,,,,,,,,,,,,,,,,,,,,,,,,,,,117.61705980007537,118.61875570006669,117.61705980007537,118.61875570006669,117.61705980007537,118.61875570006669,117.61705980007537,118.61875570006669,down,1,0.30674090003594756,117.61705980007537,None,117.61705980007537,None,117.61705980007537,118.11809420003556,117.61705980007537,118.11809420003556,117.61705980007537,118.11809420003556,117.61705980007537,118.11809420003556,117.61705980007537,None,,,,,,,,,,,,,,,,,,,,,,,,,,,,,,,,,,,,,,,,,,11045,001,2024_Apr_13_1128,nback,2021.2.3,60.06770827691016,
2-back,instructions\back-2.png,conditions\2back-p.xlsx,instructions\2-BACK.png,"(25, 15)",practice,2,4,stim\gray.png,stim\gray.png,stim\gray.png,stim\yellow.png,left,0,0,0,0,0,2,2,2,0,6,6,6,,,,,,,,,,,,,,,,,,,,,,,,,,,119.11950889998116,120.12089899997227,119.11950889998116,120.12089899997227,119.11950889998116,120.12089899997227,119.11950889998116,120.12089899997227,None,0,,119.11950889998116,None,119.11950889998116,None,119.11950889998116,119.62045300006866,119.11950889998116,119.62045300006866,119.11950889998116,119.62045300006866,119.11950889998116,119.62045300006866,119.11950889998116,None,,,,,,,,,,,,,,,,,,,,,,,,,,,,,,,,,,,,,,,,,,11045,001,2024_Apr_13_1128,nback,2021.2.3,60.06770827691016,
2-back,instructions\back-2.png,conditions\2back-p.xlsx,instructions\2-BACK.png,"(25, 15)",practice,2,3,stim\gray.png,stim\gray.png,stim\yellow.png,stim\gray.png,up,0,0,0,0,0,2,2,2,0,7,7,7,,,,,,,,,,,,,,,,,,,,,,,,,,,120.6050287000835,121.60669140005484,120.6050287000835,121.60669140005484,120.6050287000835,121.60669140005484,120.6050287000835,121.60669140005484,left,0,1.2549833999946713,120.6050287000835,None,120.6050287000835,None,120.6050287000835,121.10570099996403,120.6050287000835,121.10570099996403,120.6050287000835,121.10570099996403,120.6050287000835,121.10570099996403,120.6050287000835,None,,,,,,,,,,,,,,,,,,,,,,,,,,,,,,,,,,,,,,,,,,11045,001,2024_Apr_13_1128,nback,2021.2.3,60.06770827691016,
2-back,instructions\back-2.png,conditions\2back-p.xlsx,instructions\2-BACK.png,"(25, 15)",practice,2,3,stim\gray.png,stim\gray.png,stim\yellow.png,stim\gray.png,down,0,0,0,0,0,2,2,2,0,8,8,8,,,,,,,,,,,,,,,,,,,,,,,,,,,122.10740770003758,123.10870420001447,122.10740770003758,123.10870420001447,122.10740770003758,123.10870420001447,122.10740770003758,123.10870420001447,None,0,,122.10740770003758,None,122.10740770003758,None,122.10740770003758,122.60820930008776,122.10740770003758,122.60820930008776,122.10740770003758,122.60820930008776,122.10740770003758,122.60820930008776,122.10740770003758,None,,,,,,,,,,,,,,,,,,,,,,,,,,,,,,,,,,,,,,,,,,11045,001,2024_Apr_13_1128,nback,2021.2.3,60.06770827691016,
2-back,instructions\back-2.png,conditions\2back-p.xlsx,instructions\2-BACK.png,"(25, 15)",practice,2,4,stim\gray.png,stim\gray.png,stim\gray.png,stim\yellow.png,right,0,0,0,0,0,2,2,2,0,9,9,9,,,,,,,,,,,,,,,,,,,,,,,,,,,123.60968520003371,124.61117350007407,123.60968520003371,124.61117350007407,123.60968520003371,124.61117350007407,123.60968520003371,124.61117350007407,left,0,0.0343174000736326,123.60968520003371,None,123.60968520003371,None,123.60968520003371,124.1103407999035,123.60968520003371,124.1103407999035,123.60968520003371,124.1103407999035,123.60968520003371,124.1103407999035,123.60968520003371,None,,,,,,,,,,,,,,,,,,,,,,,,,,,,,,,,,,,,,,,,,,11045,001,2024_Apr_13_1128,nback,2021.2.3,60.06770827691016,
2-back,instructions\back-2.png,conditions\2back-p.xlsx,instructions\2-BACK.png,"(25, 15)",practice,2,1,stim\yellow.png,stim\gray.png,stim\gray.png,stim\gray.png,right,0,0,0,0,0,2,2,2,0,10,10,10,,,,,,,,,,,,,,,,,,,,,,,,,,,125.111844799947,126.11338089988567,125.111844799947,126.11338089988567,125.111844799947,126.11338089988567,125.111844799947,126.11338089988567,None,0,,125.111844799947,None,125.111844799947,None,125.111844799947,125.61263089999557,125.111844799947,125.61263089999557,125.111844799947,125.61263089999557,125.111844799947,125.61263089999557,125.111844799947,None,,,,,,,,,,,,,,,,,,,,,,,,,,,,,,,,,,,,,,,,,,11045,001,2024_Apr_13_1128,nback,2021.2.3,60.06770827691016,
2-back,instructions\back-2.png,conditions\2back-p.xlsx,instructions\2-BACK.png,"(25, 15)",practice,2,2,stim\gray.png,stim\yellow.png,stim\gray.png,stim\gray.png,down,0,0,0,0,0,2,2,2,0,11,11,11,,,,,,,,,,,,,,,,,,,,,,,,,,,126.6142440000549,127.6156675000675,126.6142440000549,127.6156675000675,126.6142440000549,127.6156675000675,126.6142440000549,127.6156675000675,None,0,,126.6142440000549,None,126.6142440000549,None,126.6142440000549,127.11496850010008,126.6142440000549,127.11496850010008,126.6142440000549,127.11496850010008,126.6142440000549,127.11496850010008,126.6142440000549,None,,,,,,,,,,,,,,,,,,,,,,,,,,,,,,,,,,,,,,,,,,11045,001,2024_Apr_13_1128,nback,2021.2.3,60.06770827691016,
2-back,instructions\back-2.png,conditions\2back-p.xlsx,instructions\2-BACK.png,"(25, 15)",practice,2,4,stim\gray.png,stim\gray.png,stim\gray.png,stim\yellow.png,up,0,0,0,0,0,2,2,2,0,12,12,12,,,,,,,,,,,,,,,,,,,,,,,,,,,128.1164098000154,129.11797989998013,128.1164098000154,129.11797989998013,128.1164098000154,129.11797989998013,128.1164098000154,129.11797989998013,up,1,0.19215429993346334,128.1164098000154,None,128.1164098000154,None,128.1164098000154,128.61695659998804,128.1164098000154,128.61695659998804,128.1164098000154,128.61695659998804,128.1164098000154,128.61695659998804,128.1164098000154,None,,,,,,,,,,,,,,,,,,,,,,,,,,,,,,,,,,,,,,,,,,11045,001,2024_Apr_13_1128,nback,2021.2.3,60.06770827691016,
2-back,instructions\back-2.png,conditions\2back-p.xlsx,instructions\2-BACK.png,"(25, 15)",practice,2,3,stim\gray.png,stim\gray.png,stim\yellow.png,stim\gray.png,left,0,0,0,0,0,2,2,2,0,13,13,13,,,,,,,,,,,,,,,,,,,,,,,,,,,129.61910449992865,130.62003919994459,129.61910449992865,130.62003919994459,129.61910449992865,130.62003919994459,129.61910449992865,130.62003919994459,left,1,0.033658500062301755,129.61910449992865,None,129.61910449992865,None,129.61910449992865,130.11975699989125,129.61910449992865,130.11975699989125,129.61910449992865,130.11975699989125,129.61910449992865,130.11975699989125,129.61910449992865,None,,,,,,,,,,,,,,,,,,,,,,,,,,,,,,,,,,,,,,,,,,11045,001,2024_Apr_13_1128,nback,2021.2.3,60.06770827691016,
2-back,instructions\back-2.png,conditions\2back-p.xlsx,instructions\2-BACK.png,"(25, 15)",practice,2,1,stim\yellow.png,stim\gray.png,stim\gray.png,stim\gray.png,down,0,0,0,0,0,2,2,2,0,14,14,14,,,,,,,,,,,,,,,,,,,,,,,,,,,131.1041600999888,132.10579230007716,131.1041600999888,132.10579230007716,131.1041600999888,132.10579230007716,131.1041600999888,132.10579230007716,down,1,0.31639489997178316,131.1041600999888,None,131.1041600999888,None,131.1041600999888,131.6050142000895,131.1041600999888,131.6050142000895,131.1041600999888,131.6050142000895,131.1041600999888,131.6050142000895,131.1041600999888,None,,,,,,,,,,,,,,,,,,,,,,,,,,,,,,,,,,,,,,,,,,11045,001,2024_Apr_13_1128,nback,2021.2.3,60.06770827691016,
2-back,instructions\back-2.png,conditions\2back-p.xlsx,instructions\2-BACK.png,"(25, 15)",practice,2,2,stim\gray.png,stim\yellow.png,stim\gray.png,stim\gray.png,right,0,0,0,0,0,2,2,2,0,15,15,15,,,,,,,,,,,,,,,,,,,,,,,,,,,132.60662449989468,133.60839270008728,132.60662449989468,133.60839270008728,132.60662449989468,133.60839270008728,132.60662449989468,133.60839270008728,right,1,0.24651409988291562,132.60662449989468,None,132.60662449989468,None,132.60662449989468,133.10725950007327,132.60662449989468,133.10725950007327,132.60662449989468,133.10725950007327,132.60662449989468,133.10725950007327,132.60662449989468,None,,,,,,,,,,,,,,,,,,,,,,,,,,,,,,,,,,,,,,,,,,11045,001,2024_Apr_13_1128,nback,2021.2.3,60.06770827691016,
2-back,instructions\back-2.png,conditions\2back-p.xlsx,instructions\2-BACK.png,"(25, 15)",practice,2,3,stim\gray.png,stim\gray.png,stim\yellow.png,stim\gray.png,up,0,0,0,0,0,2,2,2,0,16,16,16,,,,,,,,,,,,,,,,,,,,,,,,,,,134.10901140002534,135.11025930009782,134.10901140002534,135.11025930009782,134.10901140002534,135.11025930009782,134.10901140002534,135.11025930009782,None,0,,134.10901140002534,None,134.10901140002534,None,134.10901140002534,134.61030320008285,134.10901140002534,134.61030320008285,134.10901140002534,134.61030320008285,134.10901140002534,134.61030320008285,134.10901140002534,None,,,,,,,,,,,,,,,,,,,,,,,,,,,,,,,,,,,,,,,,,,11045,001,2024_Apr_13_1128,nback,2021.2.3,60.06770827691016,
2-back,instructions\back-2.png,conditions\2back-p.xlsx,instructions\2-BACK.png,"(25, 15)",practice,2,1,stim\yellow.png,stim\gray.png,stim\gray.png,stim\gray.png,left,0,0,0,0,0,2,2,2,0,17,17,17,,,,,,,,,,,,,,,,,,,,,,,,,,,135.61113049997948,136.61274040001445,135.61113049997948,136.61274040001445,135.61113049997948,136.61274040001445,135.61113049997948,136.61274040001445,left,1,0.09731820016168058,135.61113049997948,None,135.61113049997948,None,135.61113049997948,136.11192129994743,135.61113049997948,136.11192129994743,135.61113049997948,136.11192129994743,135.61113049997948,136.11192129994743,135.61113049997948,None,,,,,,,,,,,,,,,,,,,,,,,,,,,,,,,,,,,,,,,,,,11045,001,2024_Apr_13_1128,nback,2021.2.3,60.06770827691016,
2-back,instructions\back-2.png,conditions\2back-p.xlsx,instructions\2-BACK.png,"(25, 15)",practice,2,4,stim\gray.png,stim\gray.png,stim\gray.png,stim\yellow.png,right,0,0,0,0,0,2,2,2,0,18,18,18,,,,,,,,,,,,,,,,,,,,,,,,,,,137.1133483001031,138.11486870003864,137.1133483001031,138.11486870003864,137.1133483001031,138.11486870003864,137.1133483001031,138.11486870003864,right,1,0.3715156998950988,137.1133483001031,None,137.1133483001031,None,137.1133483001031,137.61413230001926,137.1133483001031,137.61413230001926,137.1133483001031,137.61413230001926,137.1133483001031,137.61413230001926,137.1133483001031,None,,,,,,,,,,,,,,,,,,,,,,,,,,,,,,,,,,,,,,,,,,11045,001,2024_Apr_13_1128,nback,2021.2.3,60.06770827691016,
2-back,instructions\back-2.png,conditions\2back-p.xlsx,instructions\2-BACK.png,"(25, 15)",practice,2,2,stim\gray.png,stim\yellow.png,stim\gray.png,stim\gray.png,up,0,0,0,0,0,2,2,2,0,19,19,19,,,,,,,,,,,,,,,,,,,,,,,,,,,138.61611979990266,139.6169765999075,138.61611979990266,139.6169765999075,138.61611979990266,139.6169765999075,138.61611979990266,139.6169765999075,None,0,,138.61611979990266,None,138.61611979990266,None,138.61611979990266,139.11671760003082,138.61611979990266,139.11671760003082,138.61611979990266,139.11671760003082,138.61611979990266,139.11671760003082,138.61611979990266,None,,,,,,,,,,,,,,,,,,,,,,,,,,,,,,,,,,,,,,,,,,11045,001,2024_Apr_13_1128,nback,2021.2.3,60.06770827691016,
2-back,instructions\back-2.png,conditions\2back-p.xlsx,instructions\2-BACK.png,"(25, 15)",,,,,,,,,0,0,0,0,0,2,2,2,,,,,,,,,,,,,,,,,,,,,,,,,,,,,,,,,,,,,,,,,,,,,,,,,,,,,,,,,,,,,,,,,,,,,,,,,,,,,,,,,,,,,,,,,,,,,,,,,11045,001,2024_Apr_13_1128,nback,2021.2.3,60.06770827691016,
,,,,,,,,,,,,,0,0,0,0,,,,,,,,,,,,,,,,,,,,,,,,,,,,,,,,,,,,,,,,,,,,,,,,,,,,,,,,,,,,140.11794860009104,None,space,6.510918900137767,140.11794860009104,None,,,,,,,,,,,,,,,,,,,,,,,,,,,,,,,,,,,,11045,001,2024_Apr_13_1128,nback,2021.2.3,60.06770827691016,
,,,,,,,,,,,,,,,,,,,,,,,,,,,,,,,,,,,,,,,,,,,,,,,,,,,,,,,,,,,,,,,,,,,,,,,,,,,,,,,,,,146.64430080004968,None,space,7.145255499985069,146.64430080004968,None,,,,,,,,,,,,,,,,,,,,,,,,,,,,,,11045,001,2024_Apr_13_1128,nback,2021.2.3,60.06770827691016,
0-back,instructions\back-0.png,conditions\00back-e.xlsx,,,experiment,0,3,stim\gray.png,stim\gray.png,stim\yellow.png,stim\gray.png,right,,,,,,,,,,,,,0,0,0,0,0,0,0,0,,,,,,,,,,,,,,,154.03814590000547,158.5458136999514,158.4800416000653,None,,,,,,,,,,,,,,,,,,,,,,,,,,,,,,,,,,,,,,right,1,0.8397524000611156,158.82955950009637,None,158.82955950009637,None,158.82955950009637,159.830901700072,158.82955950009637,159.830901700072,158.82955950009637,159.830901700072,158.82955950009637,159.830901700072,158.82955950009637,159.3302080000285,158.82955950009637,159.3302080000285,158.82955950009637,159.3302080000285,158.82955950009637,159.3302080000285,158.82955950009637,None,,,,,11045,001,2024_Apr_13_1128,nback,2021.2.3,60.06770827691016,
0-back,instructions\back-0.png,conditions\00back-e.xlsx,,,experiment,0,4,stim\gray.png,stim\gray.png,stim\gray.png,stim\yellow.png,down,,,,,,,,,,,,,0,0,0,0,0,1,1,1,,,,,,,,,,,,,,,,,,,,,,,,,,,,,,,,,,,,,,,,,,,,,,,,,,,,,,,,down,1,0.5940410001203418,160.31493159988895,None,160.31493159988895,None,160.31493159988895,161.3166086000856,160.31493159988895,161.3166086000856,160.31493159988895,161.3166086000856,160.31493159988895,161.3166086000856,160.31493159988895,160.81589230010286,160.31493159988895,160.81589230010286,160.31493159988895,160.81589230010286,160.31493159988895,160.81589230010286,160.31493159988895,None,,,,,11045,001,2024_Apr_13_1128,nback,2021.2.3,60.06770827691016,
0-back,instructions\back-0.png,conditions\00back-e.xlsx,,,experiment,0,1,stim\yellow.png,stim\gray.png,stim\gray.png,stim\gray.png,up,,,,,,,,,,,,,0,0,0,0,0,2,2,2,,,,,,,,,,,,,,,,,,,,,,,,,,,,,,,,,,,,,,,,,,,,,,,,,,,,,,,,up,1,0.4919730999972671,161.8172826000955,None,161.8172826000955,None,161.8172826000955,162.81882909988053,161.8172826000955,162.81882909988053,161.8172826000955,162.81882909988053,161.8172826000955,162.81882909988053,161.8172826000955,162.31815019994974,161.8172826000955,162.31815019994974,161.8172826000955,162.31815019994974,161.8172826000955,162.31815019994974,161.8172826000955,None,,,,,11045,001,2024_Apr_13_1128,nback,2021.2.3,60.06770827691016,
0-back,instructions\back-0.png,conditions\00back-e.xlsx,,,experiment,0,2,stim\gray.png,stim\yellow.png,stim\gray.png,stim\gray.png,left,,,,,,,,,,,,,0,0,0,0,0,3,3,3,,,,,,,,,,,,,,,,,,,,,,,,,,,,,,,,,,,,,,,,,,,,,,,,,,,,,,,,left,1,0.38946210010908544,163.31959079997614,None,163.31959079997614,None,163.31959079997614,164.3215332000982,163.31959079997614,164.3215332000982,163.31959079997614,164.3215332000982,163.31959079997614,164.3215332000982,163.31959079997614,163.82030180003494,163.31959079997614,163.82030180003494,163.31959079997614,163.82030180003494,163.31959079997614,163.82030180003494,163.31959079997614,None,,,,,11045,001,2024_Apr_13_1128,nback,2021.2.3,60.06770827691016,
0-back,instructions\back-0.png,conditions\00back-e.xlsx,,,experiment,0,2,stim\gray.png,stim\yellow.png,stim\gray.png,stim\gray.png,left,,,,,,,,,,,,,0,0,0,0,0,4,4,4,,,,,,,,,,,,,,,,,,,,,,,,,,,,,,,,,,,,,,,,,,,,,,,,,,,,,,,,left,1,0.38370719994418323,164.82185279997066,None,164.82185279997066,None,164.82185279997066,165.8234981999267,164.82185279997066,165.8234981999267,164.82185279997066,165.8234981999267,164.82185279997066,165.8234981999267,164.82185279997066,165.32344889990054,164.82185279997066,165.32344889990054,164.82185279997066,165.32344889990054,164.82185279997066,165.32344889990054,164.82185279997066,None,,,,,11045,001,2024_Apr_13_1128,nback,2021.2.3,60.06770827691016,
0-back,instructions\back-0.png,conditions\00back-e.xlsx,,,experiment,0,1,stim\yellow.png,stim\gray.png,stim\gray.png,stim\gray.png,up,,,,,,,,,,,,,0,0,0,0,0,5,5,5,,,,,,,,,,,,,,,,,,,,,,,,,,,,,,,,,,,,,,,,,,,,,,,,,,,,,,,,up,1,0.4725054001901299,166.32496950007044,None,166.32496950007044,None,166.32496950007044,167.3259165000636,166.32496950007044,167.3259165000636,166.32496950007044,167.3259165000636,166.32496950007044,167.3259165000636,166.32496950007044,166.82515139994211,166.32496950007044,166.82515139994211,166.32496950007044,166.82515139994211,166.32496950007044,166.82515139994211,166.32496950007044,None,,,,,11045,001,2024_Apr_13_1128,nback,2021.2.3,60.06770827691016,
0-back,instructions\back-0.png,conditions\00back-e.xlsx,,,experiment,0,4,stim\gray.png,stim\gray.png,stim\gray.png,stim\yellow.png,down,,,,,,,,,,,,,0,0,0,0,0,6,6,6,,,,,,,,,,,,,,,,,,,,,,,,,,,,,,,,,,,,,,,,,,,,,,,,,,,,,,,,down,1,0.49922439991496503,167.8263107999228,None,167.8263107999228,None,167.8263107999228,168.82786750001833,167.8263107999228,168.82786750001833,167.8263107999228,168.82786750001833,167.8263107999228,168.82786750001833,167.8263107999228,168.32704279990867,167.8263107999228,168.32704279990867,167.8263107999228,168.32704279990867,167.8263107999228,168.32704279990867,167.8263107999228,None,,,,,11045,001,2024_Apr_13_1128,nback,2021.2.3,60.06770827691016,
0-back,instructions\back-0.png,conditions\00back-e.xlsx,,,experiment,0,3,stim\gray.png,stim\gray.png,stim\yellow.png,stim\gray.png,right,,,,,,,,,,,,,0,0,0,0,0,7,7,7,,,,,,,,,,,,,,,,,,,,,,,,,,,,,,,,,,,,,,,,,,,,,,,,,,,,,,,,right,1,0.31004030001349747,169.31180289993063,None,169.31180289993063,None,169.31180289993063,170.31345260003582,169.31180289993063,170.31345260003582,169.31180289993063,170.31345260003582,169.31180289993063,170.31345260003582,169.31180289993063,169.81268889992498,169.31180289993063,169.81268889992498,169.31180289993063,169.81268889992498,169.31180289993063,169.81268889992498,169.31180289993063,None,,,,,11045,001,2024_Apr_13_1128,nback,2021.2.3,60.06770827691016,
0-back,instructions\back-0.png,conditions\00back-e.xlsx,,,experiment,0,4,stim\gray.png,stim\gray.png,stim\gray.png,stim\yellow.png,down,,,,,,,,,,,,,0,0,0,0,0,8,8,8,,,,,,,,,,,,,,,,,,,,,,,,,,,,,,,,,,,,,,,,,,,,,,,,,,,,,,,,down,1,0.46347040007822216,170.81409989995882,None,170.81409989995882,None,170.81409989995882,171.81579470005818,170.81409989995882,171.81579470005818,170.81409989995882,171.81579470005818,170.81409989995882,171.81579470005818,170.81409989995882,171.31492240005173,170.81409989995882,171.31492240005173,170.81409989995882,171.31492240005173,170.81409989995882,171.31492240005173,170.81409989995882,None,,,,,11045,001,2024_Apr_13_1128,nback,2021.2.3,60.06770827691016,
0-back,instructions\back-0.png,conditions\00back-e.xlsx,,,experiment,0,3,stim\gray.png,stim\gray.png,stim\yellow.png,stim\gray.png,right,,,,,,,,,,,,,0,0,0,0,0,9,9,9,,,,,,,,,,,,,,,,,,,,,,,,,,,,,,,,,,,,,,,,,,,,,,,,,,,,,,,,right,1,0.4173675000201911,172.31646490003914,None,172.31646490003914,None,172.31646490003914,173.31799319991842,172.31646490003914,173.31799319991842,172.31646490003914,173.31799319991842,172.31646490003914,173.31799319991842,172.31646490003914,172.817110999953,172.31646490003914,172.817110999953,172.31646490003914,172.817110999953,172.31646490003914,172.817110999953,172.31646490003914,None,,,,,11045,001,2024_Apr_13_1128,nback,2021.2.3,60.06770827691016,
0-back,instructions\back-0.png,conditions\00back-e.xlsx,,,experiment,0,1,stim\yellow.png,stim\gray.png,stim\gray.png,stim\gray.png,up,,,,,,,,,,,,,0,0,0,0,0,10,10,10,,,,,,,,,,,,,,,,,,,,,,,,,,,,,,,,,,,,,,,,,,,,,,,,,,,,,,,,up,1,0.4904108999762684,173.8189564999193,None,173.8189564999193,None,173.8189564999193,174.8203433000017,173.8189564999193,174.8203433000017,173.8189564999193,174.8203433000017,173.8189564999193,174.8203433000017,173.8189564999193,174.32031970005482,173.8189564999193,174.32031970005482,173.8189564999193,174.32031970005482,173.8189564999193,174.32031970005482,173.8189564999193,None,,,,,11045,001,2024_Apr_13_1128,nback,2021.2.3,60.06770827691016,
0-back,instructions\back-0.png,conditions\00back-e.xlsx,,,experiment,0,2,stim\gray.png,stim\yellow.png,stim\gray.png,stim\gray.png,left,,,,,,,,,,,,,0,0,0,0,0,11,11,11,,,,,,,,,,,,,,,,,,,,,,,,,,,,,,,,,,,,,,,,,,,,,,,,,,,,,,,,left,1,0.30062470003031194,175.3210553000681,None,175.3210553000681,None,175.3210553000681,176.32244380004704,175.3210553000681,176.32244380004704,175.3210553000681,176.32244380004704,175.3210553000681,176.32244380004704,175.3210553000681,175.82186049991287,175.3210553000681,175.82186049991287,175.3210553000681,175.82186049991287,175.3210553000681,175.82186049991287,175.3210553000681,None,,,,,11045,001,2024_Apr_13_1128,nback,2021.2.3,60.06770827691016,
0-back,instructions\back-0.png,conditions\00back-e.xlsx,,,experiment,0,3,stim\gray.png,stim\gray.png,stim\yellow.png,stim\gray.png,right,,,,,,,,,,,,,0,0,0,0,0,12,12,12,,,,,,,,,,,,,,,,,,,,,,,,,,,,,,,,,,,,,,,,,,,,,,,,,,,,,,,,right,1,0.3977416001725942,176.82375760003924,None,176.82375760003924,None,176.82375760003924,177.8252278000582,176.82375760003924,177.8252278000582,176.82375760003924,177.8252278000582,176.82375760003924,177.8252278000582,176.82375760003924,177.32411830010824,176.82375760003924,177.32411830010824,176.82375760003924,177.32411830010824,176.82375760003924,177.32411830010824,176.82375760003924,None,,,,,11045,001,2024_Apr_13_1128,nback,2021.2.3,60.06770827691016,
0-back,instructions\back-0.png,conditions\00back-e.xlsx,,,experiment,0,1,stim\yellow.png,stim\gray.png,stim\gray.png,stim\gray.png,up,,,,,,,,,,,,,0,0,0,0,0,13,13,13,,,,,,,,,,,,,,,,,,,,,,,,,,,,,,,,,,,,,,,,,,,,,,,,,,,,,,,,up,1,0.4400623000692576,178.32539890008047,None,178.32539890008047,None,178.32539890008047,179.32778980000876,178.32539890008047,179.32778980000876,178.32539890008047,179.32778980000876,178.32539890008047,179.32778980000876,178.32539890008047,178.82637759996578,178.32539890008047,178.82637759996578,178.32539890008047,178.82637759996578,178.32539890008047,178.82637759996578,178.32539890008047,None,,,,,11045,001,2024_Apr_13_1128,nback,2021.2.3,60.06770827691016,
0-back,instructions\back-0.png,conditions\00back-e.xlsx,,,experiment,0,4,stim\gray.png,stim\gray.png,stim\gray.png,stim\yellow.png,down,,,,,,,,,,,,,0,0,0,0,0,14,14,14,,,,,,,,,,,,,,,,,,,,,,,,,,,,,,,,,,,,,,,,,,,,,,,,,,,,,,,,down,1,0.4672697000205517,179.81108650006354,None,179.81108650006354,None,179.81108650006354,180.81276379991323,179.81108650006354,180.81276379991323,179.81108650006354,180.81276379991323,179.81108650006354,180.81276379991323,179.81108650006354,180.31180860009044,179.81108650006354,180.31180860009044,179.81108650006354,180.31180860009044,179.81108650006354,180.31180860009044,179.81108650006354,None,,,,,11045,001,2024_Apr_13_1128,nback,2021.2.3,60.06770827691016,
0-back,instructions\back-0.png,conditions\00back-e.xlsx,,,experiment,0,2,stim\gray.png,stim\yellow.png,stim\gray.png,stim\gray.png,left,,,,,,,,,,,,,0,0,0,0,0,15,15,15,,,,,,,,,,,,,,,,,,,,,,,,,,,,,,,,,,,,,,,,,,,,,,,,,,,,,,,,left,1,0.3408234999515116,181.31339480006136,None,181.31339480006136,None,181.31339480006136,182.31525829993188,181.31339480006136,182.31525829993188,181.31339480006136,182.31525829993188,181.31339480006136,182.31525829993188,181.31339480006136,181.81413810001686,181.31339480006136,181.81413810001686,181.31339480006136,181.81413810001686,181.31339480006136,181.81413810001686,181.31339480006136,None,,,,,11045,001,2024_Apr_13_1128,nback,2021.2.3,60.06770827691016,
0-back,instructions\back-0.png,conditions\00back-e.xlsx,,,experiment,0,1,stim\yellow.png,stim\gray.png,stim\gray.png,stim\gray.png,up,,,,,,,,,,,,,0,0,0,0,0,16,16,16,,,,,,,,,,,,,,,,,,,,,,,,,,,,,,,,,,,,,,,,,,,,,,,,,,,,,,,,up,1,0.4861379999201745,182.81566340010613,None,182.81566340010613,None,182.81566340010613,183.81698390003294,182.81566340010613,183.81698390003294,182.81566340010613,183.81698390003294,182.81566340010613,183.81698390003294,182.81566340010613,183.3166823000647,182.81566340010613,183.3166823000647,182.81566340010613,183.3166823000647,182.81566340010613,183.3166823000647,182.81566340010613,None,,,,,11045,001,2024_Apr_13_1128,nback,2021.2.3,60.06770827691016,
0-back,instructions\back-0.png,conditions\00back-e.xlsx,,,experiment,0,2,stim\gray.png,stim\yellow.png,stim\gray.png,stim\gray.png,left,,,,,,,,,,,,,0,0,0,0,0,17,17,17,,,,,,,,,,,,,,,,,,,,,,,,,,,,,,,,,,,,,,,,,,,,,,,,,,,,,,,,left,1,0.3438632998149842,184.31803130009212,None,184.31803130009212,None,184.31803130009212,185.31992659997195,184.31803130009212,185.31992659997195,184.31803130009212,185.31992659997195,184.31803130009212,185.31992659997195,184.31803130009212,184.8186625998933,184.31803130009212,184.8186625998933,184.31803130009212,184.8186625998933,184.31803130009212,184.8186625998933,184.31803130009212,None,,,,,11045,001,2024_Apr_13_1128,nback,2021.2.3,60.06770827691016,
0-back,instructions\back-0.png,conditions\00back-e.xlsx,,,experiment,0,3,stim\gray.png,stim\gray.png,stim\yellow.png,stim\gray.png,right,,,,,,,,,,,,,0,0,0,0,0,18,18,18,,,,,,,,,,,,,,,,,,,,,,,,,,,,,,,,,,,,,,,,,,,,,,,,,,,,,,,,right,1,0.3854612000286579,185.82033420004882,None,185.82033420004882,None,185.82033420004882,186.82177449995652,185.82033420004882,186.82177449995652,185.82033420004882,186.82177449995652,185.82033420004882,186.82177449995652,185.82033420004882,186.32145130005665,185.82033420004882,186.32145130005665,185.82033420004882,186.32145130005665,185.82033420004882,186.32145130005665,185.82033420004882,None,,,,,11045,001,2024_Apr_13_1128,nback,2021.2.3,60.06770827691016,
0-back,instructions\back-0.png,conditions\00back-e.xlsx,,,experiment,0,4,stim\gray.png,stim\gray.png,stim\gray.png,stim\yellow.png,down,,,,,,,,,,,,,0,0,0,0,0,19,19,19,,,,,,,,,,,,,,,,,,,,,,,,,,,,,,,,,,,,,,,,,,,,,,,,,,,,,,,,down,1,0.3873395000118762,187.32261690008454,None,187.32261690008454,None,187.32261690008454,188.32430840004236,187.32261690008454,188.32430840004236,187.32261690008454,188.32430840004236,187.32261690008454,188.32430840004236,187.32261690008454,187.82324040005915,187.32261690008454,187.82324040005915,187.32261690008454,187.82324040005915,187.32261690008454,187.82324040005915,187.32261690008454,None,,,,,11045,001,2024_Apr_13_1128,nback,2021.2.3,60.06770827691016,
0-back,instructions\back-0.png,conditions\00back-e.xlsx,,,,,,,,,,,,,,,,,,,,,,,0,0,0,0,,,,,,,,,,,,,,,,,,,,,,,,,,,,,,,,,,,,,,,,,,,,,,,,,,,,,,,,,,,,,,,,,,,,,,,,,,,,,,,,,,,,,188.82625949988142,None,,,11045,001,2024_Apr_13_1128,nback,2021.2.3,60.06770827691016,
2-back,instructions\back-2.png,conditions\24back-e.xlsx,,,experiment,2,1,stim\yellow.png,stim\gray.png,stim\gray.png,stim\gray.png,None,,,,,,,,,,,,,0,1,1,12,0,0,0,0,,,,,,,,,,,,,,,190.00986830005422,194.51861419994384,194.45060080010444,None,,,,,,,,,,,,,,,,,,,,,,,,,,,,,,,,,,,,,,None,1,,194.83408689987846,None,194.83408689987846,None,194.83408689987846,195.83583760005422,194.83408689987846,195.83583760005422,194.83408689987846,195.83583760005422,194.83408689987846,195.83583760005422,194.83408689987846,195.3344835001044,194.83408689987846,195.3344835001044,194.83408689987846,195.3344835001044,194.83408689987846,195.3344835001044,194.83408689987846,None,,,,,11045,001,2024_Apr_13_1128,nback,2021.2.3,60.06770827691016,
2-back,instructions\back-2.png,conditions\24back-e.xlsx,,,experiment,2,2,stim\gray.png,stim\yellow.png,stim\gray.png,stim\gray.png,None,,,,,,,,,,,,,0,1,1,12,0,1,1,1,,,,,,,,,,,,,,,,,,,,,,,,,,,,,,,,,,,,,,,,,,,,,,,,,,,,,,,,up,0,1.4387574000284076,196.31947700004093,None,196.31947700004093,None,196.31947700004093,197.32129510003142,196.31947700004093,197.32129510003142,196.31947700004093,197.32129510003142,196.31947700004093,197.32129510003142,196.31947700004093,196.82016959995963,196.31947700004093,196.82016959995963,196.31947700004093,196.82016959995963,196.31947700004093,196.82016959995963,196.31947700004093,None,,,,,11045,001,2024_Apr_13_1128,nback,2021.2.3,60.06770827691016,
2-back,instructions\back-2.png,conditions\24back-e.xlsx,,,experiment,2,1,stim\yellow.png,stim\gray.png,stim\gray.png,stim\gray.png,up,,,,,,,,,,,,,0,1,1,12,0,2,2,2,,,,,,,,,,,,,,,,,,,,,,,,,,,,,,,,,,,,,,,,,,,,,,,,,,,,,,,,None,0,,197.8216333000455,None,197.8216333000455,None,197.8216333000455,198.823308999883,197.8216333000455,198.823308999883,197.8216333000455,198.823308999883,197.8216333000455,198.823308999883,197.8216333000455,198.3224492999725,197.8216333000455,198.3224492999725,197.8216333000455,198.3224492999725,197.8216333000455,198.3224492999725,197.8216333000455,None,,,,,11045,001,2024_Apr_13_1128,nback,2021.2.3,60.06770827691016,
2-back,instructions\back-2.png,conditions\24back-e.xlsx,,,experiment,2,4,stim\gray.png,stim\gray.png,stim\gray.png,stim\yellow.png,left,,,,,,,,,,,,,0,1,1,12,0,3,3,3,,,,,,,,,,,,,,,,,,,,,,,,,,,,,,,,,,,,,,,,,,,,,,,,,,,,,,,,up,0,1.402174400165677,199.32400060002692,None,199.32400060002692,None,199.32400060002692,200.32525120000355,199.32400060002692,200.32525120000355,199.32400060002692,200.32525120000355,199.32400060002692,200.32525120000355,199.32400060002692,199.82484430004843,199.32400060002692,199.82484430004843,199.32400060002692,199.82484430004843,199.32400060002692,199.82484430004843,199.32400060002692,None,,,,,11045,001,2024_Apr_13_1128,nback,2021.2.3,60.06770827691016,
2-back,instructions\back-2.png,conditions\24back-e.xlsx,,,experiment,2,3,stim\gray.png,stim\gray.png,stim\yellow.png,stim\gray.png,up,,,,,,,,,,,,,0,1,1,12,0,4,4,4,,,,,,,,,,,,,,,,,,,,,,,,,,,,,,,,,,,,,,,,,,,,,,,,,,,,,,,,down,0,1.2848026000428945,200.8262618998997,None,200.8262618998997,None,200.8262618998997,201.82766960002482,200.8262618998997,201.82766960002482,200.8262618998997,201.82766960002482,200.8262618998997,201.82766960002482,200.8262618998997,201.32702339999378,200.8262618998997,201.32702339999378,200.8262618998997,201.32702339999378,200.8262618998997,201.32702339999378,200.8262618998997,None,,,,,11045,001,2024_Apr_13_1128,nback,2021.2.3,60.06770827691016,
2-back,instructions\back-2.png,conditions\24back-e.xlsx,,,experiment,2,4,stim\gray.png,stim\gray.png,stim\gray.png,stim\yellow.png,down,,,,,,,,,,,,,0,1,1,12,0,5,5,5,,,,,,,,,,,,,,,,,,,,,,,,,,,,,,,,,,,,,,,,,,,,,,,,,,,,,,,,right,0,1.4542404999956489,202.31188490008935,None,202.31188490008935,None,202.31188490008935,203.3132732999511,202.31188490008935,203.3132732999511,202.31188490008935,203.3132732999511,202.31188490008935,203.3132732999511,202.31188490008935,202.81286940001883,202.31188490008935,202.81286940001883,202.31188490008935,202.81286940001883,202.31188490008935,202.81286940001883,202.31188490008935,None,,,,,11045,001,2024_Apr_13_1128,nback,2021.2.3,60.06770827691016,
2-back,instructions\back-2.png,conditions\24back-e.xlsx,,,experiment,2,3,stim\gray.png,stim\gray.png,stim\yellow.png,stim\gray.png,right,,,,,,,,,,,,,0,1,1,12,0,6,6,6,,,,,,,,,,,,,,,,,,,,,,,,,,,,,,,,,,,,,,,,,,,,,,,,,,,,,,,,down,0,1.3693458000198007,203.8139676998835,None,203.8139676998835,None,203.8139676998835,204.81560539989732,203.8139676998835,204.81560539989732,203.8139676998835,204.81560539989732,203.8139676998835,204.81560539989732,203.8139676998835,204.31484079989605,203.8139676998835,204.31484079989605,203.8139676998835,204.31484079989605,203.8139676998835,204.31484079989605,203.8139676998835,None,,,,,11045,001,2024_Apr_13_1128,nback,2021.2.3,60.06770827691016,
2-back,instructions\back-2.png,conditions\24back-e.xlsx,,,experiment,2,2,stim\gray.png,stim\yellow.png,stim\gray.png,stim\gray.png,down,,,,,,,,,,,,,0,1,1,12,0,7,7,7,,,,,,,,,,,,,,,,,,,,,,,,,,,,,,,,,,,,,,,,,,,,,,,,,,,,,,,,right,0,1.305972500005737,205.31635880004615,None,205.31635880004615,None,205.31635880004615,206.3179039999377,205.31635880004615,206.3179039999377,205.31635880004615,206.3179039999377,205.31635880004615,206.3179039999377,205.31635880004615,205.81709480006248,205.31635880004615,205.81709480006248,205.31635880004615,205.81709480006248,205.31635880004615,205.81709480006248,205.31635880004615,None,,,,,11045,001,2024_Apr_13_1128,nback,2021.2.3,60.06770827691016,
2-back,instructions\back-2.png,conditions\24back-e.xlsx,,,experiment,2,4,stim\gray.png,stim\gray.png,stim\gray.png,stim\yellow.png,right,,,,,,,,,,,,,0,1,1,12,0,8,8,8,,,,,,,,,,,,,,,,,,,,,,,,,,,,,,,,,,,,,,,,,,,,,,,,,,,,,,,,left,0,1.1957822998519987,206.81853950000368,None,206.81853950000368,None,206.81853950000368,207.82002609991468,206.81853950000368,207.82002609991468,206.81853950000368,207.82002609991468,206.81853950000368,207.82002609991468,206.81853950000368,207.31945819989778,206.81853950000368,207.31945819989778,206.81853950000368,207.31945819989778,206.81853950000368,207.31945819989778,206.81853950000368,None,,,,,11045,001,2024_Apr_13_1128,nback,2021.2.3,60.06770827691016,
2-back,instructions\back-2.png,conditions\24back-e.xlsx,,,experiment,2,1,stim\yellow.png,stim\gray.png,stim\gray.png,stim\gray.png,left,,,,,,,,,,,,,0,1,1,12,0,9,9,9,,,,,,,,,,,,,,,,,,,,,,,,,,,,,,,,,,,,,,,,,,,,,,,,,,,,,,,,down,0,1.1411526999436319,208.3211866999045,None,208.3211866999045,None,208.3211866999045,209.32229979988188,208.3211866999045,209.32229979988188,208.3211866999045,209.32229979988188,208.3211866999045,209.32229979988188,208.3211866999045,208.82146580005065,208.3211866999045,208.82146580005065,208.3211866999045,208.82146580005065,208.3211866999045,208.82146580005065,208.3211866999045,None,,,,,11045,001,2024_Apr_13_1128,nback,2021.2.3,60.06770827691016,
2-back,instructions\back-2.png,conditions\24back-e.xlsx,,,experiment,2,3,stim\gray.png,stim\gray.png,stim\yellow.png,stim\gray.png,down,,,,,,,,,,,,,0,1,1,12,0,10,10,10,,,,,,,,,,,,,,,,,,,,,,,,,,,,,,,,,,,,,,,,,,,,,,,,,,,,,,,,up,0,1.2954013999551535,209.8232311999891,None,209.8232311999891,None,209.8232311999891,210.82502079987898,209.8232311999891,210.82502079987898,209.8232311999891,210.82502079987898,209.8232311999891,210.82502079987898,209.8232311999891,210.32411050004885,209.8232311999891,210.32411050004885,209.8232311999891,210.32411050004885,209.8232311999891,210.32411050004885,209.8232311999891,None,,,,,11045,001,2024_Apr_13_1128,nback,2021.2.3,60.06770827691016,
2-back,instructions\back-2.png,conditions\24back-e.xlsx,,,experiment,2,1,stim\yellow.png,stim\gray.png,stim\gray.png,stim\gray.png,up,,,,,,,,,,,,,0,1,1,12,0,11,11,11,,,,,,,,,,,,,,,,,,,,,,,,,,,,,,,,,,,,,,,,,,,,,,,,,,,,,,,,None,0,,211.32535930001177,None,211.32535930001177,None,211.32535930001177,212.32737970002927,211.32535930001177,212.32737970002927,211.32535930001177,212.32737970002927,211.32535930001177,212.32737970002927,211.32535930001177,211.82619829988107,211.32535930001177,211.82619829988107,211.32535930001177,211.82619829988107,211.32535930001177,211.82619829988107,211.32535930001177,None,,,,,11045,001,2024_Apr_13_1128,nback,2021.2.3,60.06770827691016,
2-back,instructions\back-2.png,conditions\24back-e.xlsx,,,experiment,2,2,stim\gray.png,stim\yellow.png,stim\gray.png,stim\gray.png,right,,,,,,,,,,,,,0,1,1,12,0,12,12,12,,,,,,,,,,,,,,,,,,,,,,,,,,,,,,,,,,,,,,,,,,,,,,,,,,,,,,,,up,0,1.4438833000604063,212.8108425999526,None,212.8108425999526,None,212.8108425999526,213.81297990004532,212.8108425999526,213.81297990004532,212.8108425999526,213.81297990004532,212.8108425999526,213.81297990004532,212.8108425999526,213.3116897,212.8108425999526,213.3116897,212.8108425999526,213.3116897,212.8108425999526,213.3116897,212.8108425999526,None,,,,,11045,001,2024_Apr_13_1128,nback,2021.2.3,60.06770827691016,
2-back,instructions\back-2.png,conditions\24back-e.xlsx,,,experiment,2,4,stim\gray.png,stim\gray.png,stim\gray.png,stim\yellow.png,up,,,,,,,,,,,,,0,1,1,12,0,13,13,13,,,,,,,,,,,,,,,,,,,,,,,,,,,,,,,,,,,,,,,,,,,,,,,,,,,,,,,,None,0,,214.31317800004035,None,214.31317800004035,None,214.31317800004035,215.31525629991665,214.31317800004035,215.31525629991665,214.31317800004035,215.31525629991665,214.31317800004035,215.31525629991665,214.31317800004035,214.81396599998698,214.31317800004035,214.81396599998698,214.31317800004035,214.81396599998698,214.31317800004035,214.81396599998698,214.31317800004035,None,,,,,11045,001,2024_Apr_13_1128,nback,2021.2.3,60.06770827691016,
2-back,instructions\back-2.png,conditions\24back-e.xlsx,,,experiment,2,3,stim\gray.png,stim\gray.png,stim\yellow.png,stim\gray.png,left,,,,,,,,,,,,,0,1,1,12,0,14,14,14,,,,,,,,,,,,,,,,,,,,,,,,,,,,,,,,,,,,,,,,,,,,,,,,,,,,,,,,left,1,0.015369500033557415,215.81549130007625,None,215.81549130007625,None,215.81549130007625,216.81674639997073,215.81549130007625,216.81674639997073,215.81549130007625,216.81674639997073,215.81549130007625,216.81674639997073,215.81549130007625,216.31736669992097,215.81549130007625,216.31736669992097,215.81549130007625,216.31736669992097,215.81549130007625,216.31736669992097,215.81549130007625,None,,,,,11045,001,2024_Apr_13_1128,nback,2021.2.3,60.06770827691016,
2-back,instructions\back-2.png,conditions\24back-e.xlsx,,,experiment,2,2,stim\gray.png,stim\yellow.png,stim\gray.png,stim\gray.png,down,,,,,,,,,,,,,0,1,1,12,0,15,15,15,,,,,,,,,,,,,,,,,,,,,,,,,,,,,,,,,,,,,,,,,,,,,,,,,,,,,,,,down,1,0.12111960002221167,217.3177600998897,None,217.3177600998897,None,217.3177600998897,218.31925170007162,217.3177600998897,218.31925170007162,217.3177600998897,218.31925170007162,217.3177600998897,218.31925170007162,217.3177600998897,217.8185974000953,217.3177600998897,217.8185974000953,217.3177600998897,217.8185974000953,217.3177600998897,217.8185974000953,217.3177600998897,None,,,,,11045,001,2024_Apr_13_1128,nback,2021.2.3,60.06770827691016,
2-back,instructions\back-2.png,conditions\24back-e.xlsx,,,experiment,2,4,stim\gray.png,stim\gray.png,stim\gray.png,stim\yellow.png,right,,,,,,,,,,,,,0,1,1,12,0,16,16,16,,,,,,,,,,,,,,,,,,,,,,,,,,,,,,,,,,,,,,,,,,,,,,,,,,,,,,,,right,1,0.21055209985934198,218.8202738999389,None,218.8202738999389,None,218.8202738999389,219.8215940000955,218.8202738999389,219.8215940000955,218.8202738999389,219.8215940000955,218.8202738999389,219.8215940000955,218.8202738999389,219.32183449994773,218.8202738999389,219.32183449994773,218.8202738999389,219.32183449994773,218.8202738999389,219.32183449994773,218.8202738999389,None,,,,,11045,001,2024_Apr_13_1128,nback,2021.2.3,60.06770827691016,
2-back,instructions\back-2.png,conditions\24back-e.xlsx,,,experiment,2,3,stim\gray.png,stim\gray.png,stim\yellow.png,stim\gray.png,left,,,,,,,,,,,,,0,1,1,12,0,17,17,17,,,,,,,,,,,,,,,,,,,,,,,,,,,,,,,,,,,,,,,,,,,,,,,,,,,,,,,,left,1,0.2521526000928134,220.3223615998868,None,220.3223615998868,None,220.3223615998868,221.32378079998307,220.3223615998868,221.32378079998307,220.3223615998868,221.32378079998307,220.3223615998868,221.32378079998307,220.3223615998868,220.82339140004478,220.3223615998868,220.82339140004478,220.3223615998868,220.82339140004478,220.3223615998868,220.82339140004478,220.3223615998868,None,,,,,11045,001,2024_Apr_13_1128,nback,2021.2.3,60.06770827691016,
2-back,instructions\back-2.png,conditions\24back-e.xlsx,,,experiment,2,1,stim\yellow.png,stim\gray.png,stim\gray.png,stim\gray.png,down,,,,,,,,,,,,,0,1,1,12,0,18,18,18,,,,,,,,,,,,,,,,,,,,,,,,,,,,,,,,,,,,,,,,,,,,,,,,,,,,,,,,down,1,0.22248340002261102,221.82436239998788,None,221.82436239998788,None,221.82436239998788,222.8265164999757,221.82436239998788,222.8265164999757,221.82436239998788,222.8265164999757,221.82436239998788,222.8265164999757,221.82436239998788,222.32517409999855,221.82436239998788,222.32517409999855,221.82436239998788,222.32517409999855,221.82436239998788,222.32517409999855,221.82436239998788,None,,,,,11045,001,2024_Apr_13_1128,nback,2021.2.3,60.06770827691016,
2-back,instructions\back-2.png,conditions\24back-e.xlsx,,,experiment,2,2,stim\gray.png,stim\yellow.png,stim\gray.png,stim\gray.png,right,,,,,,,,,,,,,0,1,1,12,0,19,19,19,,,,,,,,,,,,,,,,,,,,,,,,,,,,,,,,,,,,,,,,,,,,,,,,,,,,,,,,right,1,0.0478407999034971,223.3268750999123,None,223.3268750999123,None,223.3268750999123,224.32852509990335,223.3268750999123,224.32852509990335,223.3268750999123,224.32852509990335,223.3268750999123,224.32852509990335,223.3268750999123,223.8276835998986,223.3268750999123,223.8276835998986,223.3268750999123,223.8276835998986,223.3268750999123,223.8276835998986,223.3268750999123,None,,,,,11045,001,2024_Apr_13_1128,nback,2021.2.3,60.06770827691016,
2-back,instructions\back-2.png,conditions\24back-e.xlsx,,,,,,,,,,,,,,,,,,,,,,,0,1,1,12,,,,,,,,,,,,,,,,,,,,,,,,,,,,,,,,,,,,,,,,,,,,,,,,,,,,,,,,,,,,,,,,,,,,,,,,,,,,,,,,,,,,,224.81291950005107,None,,,11045,001,2024_Apr_13_1128,nback,2021.2.3,60.06770827691016,
0-back,instructions\back-0.png,conditions\03back-e.xlsx,,,experiment,0,1,stim\yellow.png,stim\gray.png,stim\gray.png,stim\gray.png,up,,,,,,,,,,,,,0,2,2,11,0,0,0,0,,,,,,,,,,,,,,,226.01413020002656,230.5219862998929,230.45428550010547,None,,,,,,,,,,,,,,,,,,,,,,,,,,,,,,,,,,,,,,up,1,0.5763900999445468,230.83863099990413,None,230.83863099990413,None,230.83863099990413,231.8402360000182,230.83863099990413,231.8402360000182,230.83863099990413,231.8402360000182,230.83863099990413,231.8402360000182,230.83863099990413,231.33923629997298,230.83863099990413,231.33923629997298,230.83863099990413,231.33923629997298,230.83863099990413,231.33923629997298,230.83863099990413,None,,,,,11045,001,2024_Apr_13_1128,nback,2021.2.3,60.06770827691016,
0-back,instructions\back-0.png,conditions\03back-e.xlsx,,,experiment,0,2,stim\gray.png,stim\yellow.png,stim\gray.png,stim\gray.png,left,,,,,,,,,,,,,0,2,2,11,0,1,1,1,,,,,,,,,,,,,,,,,,,,,,,,,,,,,,,,,,,,,,,,,,,,,,,,,,,,,,,,left,1,0.33191479998640716,232.32379369996488,None,232.32379369996488,None,232.32379369996488,233.3258376000449,232.32379369996488,233.3258376000449,232.32379369996488,233.3258376000449,232.32379369996488,233.3258376000449,232.32379369996488,232.8247062000446,232.32379369996488,232.8247062000446,232.32379369996488,232.8247062000446,232.32379369996488,232.8247062000446,232.32379369996488,None,,,,,11045,001,2024_Apr_13_1128,nback,2021.2.3,60.06770827691016,
0-back,instructions\back-0.png,conditions\03back-e.xlsx,,,experiment,0,4,stim\gray.png,stim\gray.png,stim\gray.png,stim\yellow.png,down,,,,,,,,,,,,,0,2,2,11,0,2,2,2,,,,,,,,,,,,,,,,,,,,,,,,,,,,,,,,,,,,,,,,,,,,,,,,,,,,,,,,down,1,0.2768264999613166,233.82652110001072,None,233.82652110001072,None,233.82652110001072,234.82731409999542,233.82652110001072,234.82731409999542,233.82652110001072,234.82731409999542,233.82652110001072,234.82731409999542,233.82652110001072,234.32693589990959,233.82652110001072,234.32693589990959,233.82652110001072,234.32693589990959,233.82652110001072,234.32693589990959,233.82652110001072,None,,,,,11045,001,2024_Apr_13_1128,nback,2021.2.3,60.06770827691016,
0-back,instructions\back-0.png,conditions\03back-e.xlsx,,,experiment,0,3,stim\gray.png,stim\gray.png,stim\yellow.png,stim\gray.png,right,,,,,,,,,,,,,0,2,2,11,0,3,3,3,,,,,,,,,,,,,,,,,,,,,,,,,,,,,,,,,,,,,,,,,,,,,,,,,,,,,,,,right,1,0.32799130002968013,235.31160379992798,None,235.31160379992798,None,235.31160379992798,236.3133221999742,235.31160379992798,236.3133221999742,235.31160379992798,236.3133221999742,235.31160379992798,236.3133221999742,235.31160379992798,235.81229580007493,235.31160379992798,235.81229580007493,235.31160379992798,235.81229580007493,235.31160379992798,235.81229580007493,235.31160379992798,None,,,,,11045,001,2024_Apr_13_1128,nback,2021.2.3,60.06770827691016,
0-back,instructions\back-0.png,conditions\03back-e.xlsx,,,experiment,0,3,stim\gray.png,stim\gray.png,stim\yellow.png,stim\gray.png,right,,,,,,,,,,,,,0,2,2,11,0,4,4,4,,,,,,,,,,,,,,,,,,,,,,,,,,,,,,,,,,,,,,,,,,,,,,,,,,,,,,,,right,1,0.4253170997835696,236.8141177999787,None,236.8141177999787,None,236.8141177999787,237.81535240006633,236.8141177999787,237.81535240006633,236.8141177999787,237.81535240006633,236.8141177999787,237.81535240006633,236.8141177999787,237.31467240001075,236.8141177999787,237.31467240001075,236.8141177999787,237.31467240001075,236.8141177999787,237.31467240001075,236.8141177999787,None,,,,,11045,001,2024_Apr_13_1128,nback,2021.2.3,60.06770827691016,
0-back,instructions\back-0.png,conditions\03back-e.xlsx,,,experiment,0,1,stim\yellow.png,stim\gray.png,stim\gray.png,stim\gray.png,up,,,,,,,,,,,,,0,2,2,11,0,5,5,5,,,,,,,,,,,,,,,,,,,,,,,,,,,,,,,,,,,,,,,,,,,,,,,,,,,,,,,,up,1,0.3232475998811424,238.31598270009272,None,238.31598270009272,None,238.31598270009272,239.31758509995416,238.31598270009272,239.31758509995416,238.31598270009272,239.31758509995416,238.31598270009272,239.31758509995416,238.31598270009272,238.81683390005492,238.31598270009272,238.81683390005492,238.31598270009272,238.81683390005492,238.31598270009272,238.81683390005492,238.31598270009272,None,,,,,11045,001,2024_Apr_13_1128,nback,2021.2.3,60.06770827691016,
0-back,instructions\back-0.png,conditions\03back-e.xlsx,,,experiment,0,2,stim\gray.png,stim\yellow.png,stim\gray.png,stim\gray.png,left,,,,,,,,,,,,,0,2,2,11,0,6,6,6,,,,,,,,,,,,,,,,,,,,,,,,,,,,,,,,,,,,,,,,,,,,,,,,,,,,,,,,left,1,0.3580595999956131,239.8182653998956,None,239.8182653998956,None,239.8182653998956,240.82015729998238,239.8182653998956,240.82015729998238,239.8182653998956,240.82015729998238,239.8182653998956,240.82015729998238,239.8182653998956,240.31921239988878,239.8182653998956,240.31921239988878,239.8182653998956,240.31921239988878,239.8182653998956,240.31921239988878,239.8182653998956,None,,,,,11045,001,2024_Apr_13_1128,nback,2021.2.3,60.06770827691016,
0-back,instructions\back-0.png,conditions\03back-e.xlsx,,,experiment,0,3,stim\gray.png,stim\gray.png,stim\yellow.png,stim\gray.png,right,,,,,,,,,,,,,0,2,2,11,0,7,7,7,,,,,,,,,,,,,,,,,,,,,,,,,,,,,,,,,,,,,,,,,,,,,,,,,,,,,,,,right,1,0.4144753001164645,241.32110220007598,None,241.32110220007598,None,241.32110220007598,242.32271880004555,241.32110220007598,242.32271880004555,241.32110220007598,242.32271880004555,241.32110220007598,242.32271880004555,241.32110220007598,241.82216589991003,241.32110220007598,241.82216589991003,241.32110220007598,241.82216589991003,241.32110220007598,241.82216589991003,241.32110220007598,None,,,,,11045,001,2024_Apr_13_1128,nback,2021.2.3,60.06770827691016,
0-back,instructions\back-0.png,conditions\03back-e.xlsx,,,experiment,0,4,stim\gray.png,stim\gray.png,stim\gray.png,stim\yellow.png,down,,,,,,,,,,,,,0,2,2,11,0,8,8,8,,,,,,,,,,,,,,,,,,,,,,,,,,,,,,,,,,,,,,,,,,,,,,,,,,,,,,,,down,1,0.3125318998936564,242.8230792998802,None,242.8230792998802,None,242.8230792998802,243.82562720007263,242.8230792998802,243.82562720007263,242.8230792998802,243.82562720007263,242.8230792998802,243.82562720007263,242.8230792998802,243.32363880006596,242.8230792998802,243.32363880006596,242.8230792998802,243.32363880006596,242.8230792998802,243.32363880006596,242.8230792998802,None,,,,,11045,001,2024_Apr_13_1128,nback,2021.2.3,60.06770827691016,
0-back,instructions\back-0.png,conditions\03back-e.xlsx,,,experiment,0,4,stim\gray.png,stim\gray.png,stim\gray.png,stim\yellow.png,down,,,,,,,,,,,,,0,2,2,11,0,9,9,9,,,,,,,,,,,,,,,,,,,,,,,,,,,,,,,,,,,,,,,,,,,,,,,,,,,,,,,,down,1,0.5305073999334127,244.3252185001038,None,244.3252185001038,None,244.3252185001038,245.32692950009368,244.3252185001038,245.32692950009368,244.3252185001038,245.32692950009368,244.3252185001038,245.32692950009368,244.3252185001038,244.82712960010394,244.3252185001038,244.82712960010394,244.3252185001038,244.82712960010394,244.3252185001038,244.82712960010394,244.3252185001038,None,,,,,11045,001,2024_Apr_13_1128,nback,2021.2.3,60.06770827691016,
0-back,instructions\back-0.png,conditions\03back-e.xlsx,,,experiment,0,1,stim\yellow.png,stim\gray.png,stim\gray.png,stim\gray.png,up,,,,,,,,,,,,,0,2,2,11,0,10,10,10,,,,,,,,,,,,,,,,,,,,,,,,,,,,,,,,,,,,,,,,,,,,,,,,,,,,,,,,up,1,0.5566786001436412,245.81101120007224,None,245.81101120007224,None,245.81101120007224,246.81237559998408,245.81101120007224,246.81237559998408,245.81101120007224,246.81237559998408,245.81101120007224,246.81237559998408,245.81101120007224,246.3119844000321,245.81101120007224,246.3119844000321,245.81101120007224,246.3119844000321,245.81101120007224,246.3119844000321,245.81101120007224,None,,,,,11045,001,2024_Apr_13_1128,nback,2021.2.3,60.06770827691016,
0-back,instructions\back-0.png,conditions\03back-e.xlsx,,,experiment,0,4,stim\gray.png,stim\gray.png,stim\gray.png,stim\yellow.png,down,,,,,,,,,,,,,0,2,2,11,0,11,11,11,,,,,,,,,,,,,,,,,,,,,,,,,,,,,,,,,,,,,,,,,,,,,,,,,,,,,,,,down,1,0.47081139986403286,247.31302549992688,None,247.31302549992688,None,247.31302549992688,248.31455209990963,247.31302549992688,248.31455209990963,247.31302549992688,248.31455209990963,247.31302549992688,248.31455209990963,247.31302549992688,247.81412540003657,247.31302549992688,247.81412540003657,247.31302549992688,247.81412540003657,247.31302549992688,247.81412540003657,247.31302549992688,None,,,,,11045,001,2024_Apr_13_1128,nback,2021.2.3,60.06770827691016,
0-back,instructions\back-0.png,conditions\03back-e.xlsx,,,experiment,0,3,stim\gray.png,stim\gray.png,stim\yellow.png,stim\gray.png,right,,,,,,,,,,,,,0,2,2,11,0,12,12,12,,,,,,,,,,,,,,,,,,,,,,,,,,,,,,,,,,,,,,,,,,,,,,,,,,,,,,,,right,1,0.4251027998980135,248.81530499993823,None,248.81530499993823,None,248.81530499993823,249.816955300048,248.81530499993823,249.816955300048,248.81530499993823,249.816955300048,248.81530499993823,249.816955300048,248.81530499993823,249.3163642999716,248.81530499993823,249.3163642999716,248.81530499993823,249.3163642999716,248.81530499993823,249.3163642999716,248.81530499993823,None,,,,,11045,001,2024_Apr_13_1128,nback,2021.2.3,60.06770827691016,
0-back,instructions\back-0.png,conditions\03back-e.xlsx,,,experiment,0,1,stim\yellow.png,stim\gray.png,stim\gray.png,stim\gray.png,up,,,,,,,,,,,,,0,2,2,11,0,13,13,13,,,,,,,,,,,,,,,,,,,,,,,,,,,,,,,,,,,,,,,,,,,,,,,,,,,,,,,,up,1,0.44183959998190403,250.31807600008324,None,250.31807600008324,None,250.31807600008324,251.318841899978,250.31807600008324,251.318841899978,250.31807600008324,251.318841899978,250.31807600008324,251.318841899978,250.31807600008324,250.8182502000127,250.31807600008324,250.8182502000127,250.31807600008324,250.8182502000127,250.31807600008324,250.8182502000127,250.31807600008324,None,,,,,11045,001,2024_Apr_13_1128,nback,2021.2.3,60.06770827691016,
0-back,instructions\back-0.png,conditions\03back-e.xlsx,,,experiment,0,2,stim\gray.png,stim\yellow.png,stim\gray.png,stim\gray.png,left,,,,,,,,,,,,,0,2,2,11,0,14,14,14,,,,,,,,,,,,,,,,,,,,,,,,,,,,,,,,,,,,,,,,,,,,,,,,,,,,,,,,left,1,0.35601900005713105,251.81987260002643,None,251.81987260002643,None,251.81987260002643,252.8212748998776,251.81987260002643,252.8212748998776,251.81987260002643,252.8212748998776,251.81987260002643,252.8212748998776,251.81987260002643,252.32095479988493,251.81987260002643,252.32095479988493,251.81987260002643,252.32095479988493,251.81987260002643,252.32095479988493,251.81987260002643,None,,,,,11045,001,2024_Apr_13_1128,nback,2021.2.3,60.06770827691016,
0-back,instructions\back-0.png,conditions\03back-e.xlsx,,,experiment,0,1,stim\yellow.png,stim\gray.png,stim\gray.png,stim\gray.png,up,,,,,,,,,,,,,0,2,2,11,0,15,15,15,,,,,,,,,,,,,,,,,,,,,,,,,,,,,,,,,,,,,,,,,,,,,,,,,,,,,,,,up,1,0.5096555000636727,253.3222417999059,None,253.3222417999059,None,253.3222417999059,254.32366660004482,253.3222417999059,254.32366660004482,253.3222417999059,254.32366660004482,253.3222417999059,254.32366660004482,253.3222417999059,253.82359090005048,253.3222417999059,253.82359090005048,253.3222417999059,253.82359090005048,253.3222417999059,253.82359090005048,253.3222417999059,None,,,,,11045,001,2024_Apr_13_1128,nback,2021.2.3,60.06770827691016,
0-back,instructions\back-0.png,conditions\03back-e.xlsx,,,experiment,0,3,stim\gray.png,stim\gray.png,stim\yellow.png,stim\gray.png,right,,,,,,,,,,,,,0,2,2,11,0,16,16,16,,,,,,,,,,,,,,,,,,,,,,,,,,,,,,,,,,,,,,,,,,,,,,,,,,,,,,,,right,1,0.3436600000131875,254.82435339991935,None,254.82435339991935,None,254.82435339991935,255.82639249996282,254.82435339991935,255.82639249996282,254.82435339991935,255.82639249996282,254.82435339991935,255.82639249996282,254.82435339991935,255.32510549994186,254.82435339991935,255.32510549994186,254.82435339991935,255.32510549994186,254.82435339991935,255.32510549994186,254.82435339991935,None,,,,,11045,001,2024_Apr_13_1128,nback,2021.2.3,60.06770827691016,
0-back,instructions\back-0.png,conditions\03back-e.xlsx,,,experiment,0,4,stim\gray.png,stim\gray.png,stim\gray.png,stim\yellow.png,down,,,,,,,,,,,,,0,2,2,11,0,17,17,17,,,,,,,,,,,,,,,,,,,,,,,,,,,,,,,,,,,,,,,,,,,,,,,,,,,,,,,,down,1,0.6095455999020487,256.32664279988967,None,256.32664279988967,None,256.32664279988967,257.329037199961,256.32664279988967,257.329037199961,256.32664279988967,257.329037199961,256.32664279988967,257.329037199961,256.32664279988967,256.82791889994405,256.32664279988967,256.82791889994405,256.32664279988967,256.82791889994405,256.32664279988967,256.82791889994405,256.32664279988967,None,,,,,11045,001,2024_Apr_13_1128,nback,2021.2.3,60.06770827691016,
0-back,instructions\back-0.png,conditions\03back-e.xlsx,,,experiment,0,2,stim\gray.png,stim\yellow.png,stim\gray.png,stim\gray.png,left,,,,,,,,,,,,,0,2,2,11,0,18,18,18,,,,,,,,,,,,,,,,,,,,,,,,,,,,,,,,,,,,,,,,,,,,,,,,,,,,,,,,left,1,0.34739260002970695,257.81261530006304,None,257.81261530006304,None,257.81261530006304,258.8136545000598,257.81261530006304,258.8136545000598,257.81261530006304,258.8136545000598,257.81261530006304,258.8136545000598,257.81261530006304,258.3130628000945,257.81261530006304,258.3130628000945,257.81261530006304,258.3130628000945,257.81261530006304,258.3130628000945,257.81261530006304,None,,,,,11045,001,2024_Apr_13_1128,nback,2021.2.3,60.06770827691016,
0-back,instructions\back-0.png,conditions\03back-e.xlsx,,,experiment,0,2,stim\gray.png,stim\yellow.png,stim\gray.png,stim\gray.png,left,,,,,,,,,,,,,0,2,2,11,0,19,19,19,,,,,,,,,,,,,,,,,,,,,,,,,,,,,,,,,,,,,,,,,,,,,,,,,,,,,,,,left,1,0.4769758000038564,259.31479680002667,None,259.31479680002667,None,259.31479680002667,260.3160572000779,259.31479680002667,260.3160572000779,259.31479680002667,260.3160572000779,259.31479680002667,260.3160572000779,259.31479680002667,259.8153059000615,259.31479680002667,259.8153059000615,259.31479680002667,259.8153059000615,259.31479680002667,259.8153059000615,259.31479680002667,None,,,,,11045,001,2024_Apr_13_1128,nback,2021.2.3,60.06770827691016,
0-back,instructions\back-0.png,conditions\03back-e.xlsx,,,,,,,,,,,,,,,,,,,,,,,0,2,2,11,,,,,,,,,,,,,,,,,,,,,,,,,,,,,,,,,,,,,,,,,,,,,,,,,,,,,,,,,,,,,,,,,,,,,,,,,,,,,,,,,,,,,260.816846099915,None,,,11045,001,2024_Apr_13_1128,nback,2021.2.3,60.06770827691016,
1-back,instructions\back-1.png,conditions\11back-e.xlsx,,,experiment,1,3,stim\gray.png,stim\gray.png,stim\yellow.png,stim\gray.png,None,,,,,,,,,,,,,0,3,3,5,0,0,0,0,,,,,,,,,,,,,,,261.9684389999602,266.4770561000332,266.4418669999577,None,,,,,,,,,,,,,,,,,,,,,,,,,,,,,,,,,,,,,,None,1,,266.8444254999049,None,266.8444254999049,None,266.8444254999049,267.84422570001334,266.8444254999049,267.84422570001334,266.8444254999049,267.84422570001334,266.8444254999049,267.84422570001334,266.8444254999049,267.3604635000229,266.8444254999049,267.3604635000229,266.8444254999049,267.3604635000229,266.8444254999049,267.3604635000229,266.8444254999049,None,,,,,11045,001,2024_Apr_13_1128,nback,2021.2.3,60.06770827691016,
1-back,instructions\back-1.png,conditions\11back-e.xlsx,,,experiment,1,1,stim\yellow.png,stim\gray.png,stim\gray.png,stim\gray.png,right,,,,,,,,,,,,,0,3,3,5,0,1,1,1,,,,,,,,,,,,,,,,,,,,,,,,,,,,,,,,,,,,,,,,,,,,,,,,,,,,,,,,right,1,0.21758499997667968,268.3113851000089,None,268.3113851000089,None,268.3113851000089,269.31277279998176,268.3113851000089,269.31277279998176,268.3113851000089,269.31277279998176,268.3113851000089,269.31277279998176,268.3113851000089,268.8124551998917,268.3113851000089,268.8124551998917,268.3113851000089,268.8124551998917,268.3113851000089,268.8124551998917,268.3113851000089,None,,,,,11045,001,2024_Apr_13_1128,nback,2021.2.3,60.06770827691016,
1-back,instructions\back-1.png,conditions\11back-e.xlsx,,,experiment,1,4,stim\gray.png,stim\gray.png,stim\gray.png,stim\yellow.png,up,,,,,,,,,,,,,0,3,3,5,0,2,2,2,,,,,,,,,,,,,,,,,,,,,,,,,,,,,,,,,,,,,,,,,,,,,,,,,,,,,,,,up,1,0.25132280006073415,269.81371899996884,None,269.81371899996884,None,269.81371899996884,270.8152455999516,269.81371899996884,270.8152455999516,269.81371899996884,270.8152455999516,269.81371899996884,270.8152455999516,269.81371899996884,270.3144970999565,269.81371899996884,270.3144970999565,269.81371899996884,270.3144970999565,269.81371899996884,270.3144970999565,269.81371899996884,None,,,,,11045,001,2024_Apr_13_1128,nback,2021.2.3,60.06770827691016,
1-back,instructions\back-1.png,conditions\11back-e.xlsx,,,experiment,1,2,stim\gray.png,stim\yellow.png,stim\gray.png,stim\gray.png,down,,,,,,,,,,,,,0,3,3,5,0,3,3,3,,,,,,,,,,,,,,,,,,,,,,,,,,,,,,,,,,,,,,,,,,,,,,,,,,,,,,,,down,1,0.2684639999642968,271.315977799939,None,271.315977799939,None,271.315977799939,272.31752349995077,271.315977799939,272.31752349995077,271.315977799939,272.31752349995077,271.315977799939,272.31752349995077,271.315977799939,271.8170622000471,271.315977799939,271.8170622000471,271.315977799939,271.8170622000471,271.315977799939,271.8170622000471,271.315977799939,None,,,,,11045,001,2024_Apr_13_1128,nback,2021.2.3,60.06770827691016,
1-back,instructions\back-1.png,conditions\11back-e.xlsx,,,experiment,1,1,stim\yellow.png,stim\gray.png,stim\gray.png,stim\gray.png,left,,,,,,,,,,,,,0,3,3,5,0,4,4,4,,,,,,,,,,,,,,,,,,,,,,,,,,,,,,,,,,,,,,,,,,,,,,,,,,,,,,,,left,1,0.2303485998418182,272.81810700008646,None,272.81810700008646,None,272.81810700008646,273.8197057999205,272.81810700008646,273.8197057999205,272.81810700008646,273.8197057999205,272.81810700008646,273.8197057999205,272.81810700008646,273.31902060005814,272.81810700008646,273.31902060005814,272.81810700008646,273.31902060005814,272.81810700008646,273.31902060005814,272.81810700008646,None,,,,,11045,001,2024_Apr_13_1128,nback,2021.2.3,60.06770827691016,
1-back,instructions\back-1.png,conditions\11back-e.xlsx,,,experiment,1,2,stim\gray.png,stim\yellow.png,stim\gray.png,stim\gray.png,up,,,,,,,,,,,,,0,3,3,5,0,5,5,5,,,,,,,,,,,,,,,,,,,,,,,,,,,,,,,,,,,,,,,,,,,,,,,,,,,,,,,,up,1,0.20869669993408024,274.32050599996,None,274.32050599996,None,274.32050599996,275.3221877999604,274.32050599996,275.3221877999604,274.32050599996,275.3221877999604,274.32050599996,275.3221877999604,274.32050599996,274.82138710003346,274.32050599996,274.82138710003346,274.32050599996,274.82138710003346,274.32050599996,274.82138710003346,274.32050599996,None,,,,,11045,001,2024_Apr_13_1128,nback,2021.2.3,60.06770827691016,
1-back,instructions\back-1.png,conditions\11back-e.xlsx,,,experiment,1,3,stim\gray.png,stim\gray.png,stim\yellow.png,stim\gray.png,left,,,,,,,,,,,,,0,3,3,5,0,6,6,6,,,,,,,,,,,,,,,,,,,,,,,,,,,,,,,,,,,,,,,,,,,,,,,,,,,,,,,,left,1,0.24186279997229576,275.8227649999317,None,275.8227649999317,None,275.8227649999317,276.8243654000107,275.8227649999317,276.8243654000107,275.8227649999317,276.8243654000107,275.8227649999317,276.8243654000107,275.8227649999317,276.32354520005174,275.8227649999317,276.32354520005174,275.8227649999317,276.32354520005174,275.8227649999317,276.32354520005174,275.8227649999317,None,,,,,11045,001,2024_Apr_13_1128,nback,2021.2.3,60.06770827691016,
1-back,instructions\back-1.png,conditions\11back-e.xlsx,,,experiment,1,4,stim\gray.png,stim\gray.png,stim\gray.png,stim\yellow.png,right,,,,,,,,,,,,,0,3,3,5,0,7,7,7,,,,,,,,,,,,,,,,,,,,,,,,,,,,,,,,,,,,,,,,,,,,,,,,,,,,,,,,right,1,0.17950660013593733,277.3251292000059,None,277.3251292000059,None,277.3251292000059,278.3264613999054,277.3251292000059,278.3264613999054,277.3251292000059,278.3264613999054,277.3251292000059,278.3264613999054,277.3251292000059,277.8263699999079,277.3251292000059,277.8263699999079,277.3251292000059,277.8263699999079,277.3251292000059,277.8263699999079,277.3251292000059,None,,,,,11045,001,2024_Apr_13_1128,nback,2021.2.3,60.06770827691016,
1-back,instructions\back-1.png,conditions\11back-e.xlsx,,,experiment,1,4,stim\gray.png,stim\gray.png,stim\gray.png,stim\yellow.png,down,,,,,,,,,,,,,0,3,3,5,0,8,8,8,,,,,,,,,,,,,,,,,,,,,,,,,,,,,,,,,,,,,,,,,,,,,,,,,,,,,,,,down,1,0.20649939985014498,278.8109196999576,None,278.8109196999576,None,278.8109196999576,279.81222640001215,278.8109196999576,279.81222640001215,278.8109196999576,279.81222640001215,278.8109196999576,279.81222640001215,278.8109196999576,279.31143389991485,278.8109196999576,279.31143389991485,278.8109196999576,279.31143389991485,278.8109196999576,279.31143389991485,278.8109196999576,None,,,,,11045,001,2024_Apr_13_1128,nback,2021.2.3,60.06770827691016,
1-back,instructions\back-1.png,conditions\11back-e.xlsx,,,experiment,1,3,stim\gray.png,stim\gray.png,stim\yellow.png,stim\gray.png,down,,,,,,,,,,,,,0,3,3,5,0,9,9,9,,,,,,,,,,,,,,,,,,,,,,,,,,,,,,,,,,,,,,,,,,,,,,,,,,,,,,,,down,1,0.17577960016205907,280.31290220003575,None,280.31290220003575,None,280.31290220003575,281.3144423000049,280.31290220003575,281.3144423000049,280.31290220003575,281.3144423000049,280.31290220003575,281.3144423000049,280.31290220003575,280.8144980999641,280.31290220003575,280.8144980999641,280.31290220003575,280.8144980999641,280.31290220003575,280.8144980999641,280.31290220003575,None,,,,,11045,001,2024_Apr_13_1128,nback,2021.2.3,60.06770827691016,
1-back,instructions\back-1.png,conditions\11back-e.xlsx,,,experiment,1,1,stim\yellow.png,stim\gray.png,stim\gray.png,stim\gray.png,right,,,,,,,,,,,,,0,3,3,5,0,10,10,10,,,,,,,,,,,,,,,,,,,,,,,,,,,,,,,,,,,,,,,,,,,,,,,,,,,,,,,,right,1,0.33013180014677346,281.81504729995504,None,281.81504729995504,None,281.81504729995504,282.8167270999402,281.81504729995504,282.8167270999402,281.81504729995504,282.8167270999402,281.81504729995504,282.8167270999402,281.81504729995504,282.31610759999603,281.81504729995504,282.31610759999603,281.81504729995504,282.31610759999603,281.81504729995504,282.31610759999603,281.81504729995504,None,,,,,11045,001,2024_Apr_13_1128,nback,2021.2.3,60.06770827691016,
1-back,instructions\back-1.png,conditions\11back-e.xlsx,,,experiment,1,2,stim\gray.png,stim\yellow.png,stim\gray.png,stim\gray.png,up,,,,,,,,,,,,,0,3,3,5,0,11,11,11,,,,,,,,,,,,,,,,,,,,,,,,,,,,,,,,,,,,,,,,,,,,,,,,,,,,,,,,up,1,0.3234104998409748,283.3175725999754,None,283.3175725999754,None,283.3175725999754,284.318792700069,283.3175725999754,284.318792700069,283.3175725999754,284.318792700069,283.3175725999754,284.318792700069,283.3175725999754,283.818098400021,283.3175725999754,283.818098400021,283.3175725999754,283.818098400021,283.3175725999754,283.818098400021,283.3175725999754,None,,,,,11045,001,2024_Apr_13_1128,nback,2021.2.3,60.06770827691016,
1-back,instructions\back-1.png,conditions\11back-e.xlsx,,,experiment,1,3,stim\gray.png,stim\gray.png,stim\yellow.png,stim\gray.png,left,,,,,,,,,,,,,0,3,3,5,0,12,12,12,,,,,,,,,,,,,,,,,,,,,,,,,,,,,,,,,,,,,,,,,,,,,,,,,,,,,,,,left,1,0.21312359999865294,284.8196761999279,None,284.8196761999279,None,284.8196761999279,285.8211449000519,284.8196761999279,285.8211449000519,284.8196761999279,285.8211449000519,284.8196761999279,285.8211449000519,284.8196761999279,285.3204155000858,284.8196761999279,285.3204155000858,284.8196761999279,285.3204155000858,284.8196761999279,285.3204155000858,284.8196761999279,None,,,,,11045,001,2024_Apr_13_1128,nback,2021.2.3,60.06770827691016,
1-back,instructions\back-1.png,conditions\11back-e.xlsx,,,experiment,1,4,stim\gray.png,stim\gray.png,stim\gray.png,stim\yellow.png,right,,,,,,,,,,,,,0,3,3,5,0,13,13,13,,,,,,,,,,,,,,,,,,,,,,,,,,,,,,,,,,,,,,,,,,,,,,,,,,,,,,,,right,1,0.15903849992901087,286.3218437999021,None,286.3218437999021,None,286.3218437999021,287.3234447001014,286.3218437999021,287.3234447001014,286.3218437999021,287.3234447001014,286.3218437999021,287.3234447001014,286.3218437999021,286.8226695000194,286.3218437999021,286.8226695000194,286.3218437999021,286.8226695000194,286.3218437999021,286.8226695000194,286.3218437999021,None,,,,,11045,001,2024_Apr_13_1128,nback,2021.2.3,60.06770827691016,
1-back,instructions\back-1.png,conditions\11back-e.xlsx,,,experiment,1,1,stim\yellow.png,stim\gray.png,stim\gray.png,stim\gray.png,down,,,,,,,,,,,,,0,3,3,5,0,14,14,14,,,,,,,,,,,,,,,,,,,,,,,,,,,,,,,,,,,,,,,,,,,,,,,,,,,,,,,,up,0,1.4008897999301553,287.8240513999481,None,287.8240513999481,None,287.8240513999481,288.8258946998976,287.8240513999481,288.8258946998976,287.8240513999481,288.8258946998976,287.8240513999481,288.8258946998976,287.8240513999481,288.32503470010124,287.8240513999481,288.32503470010124,287.8240513999481,288.32503470010124,287.8240513999481,288.32503470010124,287.8240513999481,None,,,,,11045,001,2024_Apr_13_1128,nback,2021.2.3,60.06770827691016,
1-back,instructions\back-1.png,conditions\11back-e.xlsx,,,experiment,1,2,stim\gray.png,stim\yellow.png,stim\gray.png,stim\gray.png,up,,,,,,,,,,,,,0,3,3,5,0,15,15,15,,,,,,,,,,,,,,,,,,,,,,,,,,,,,,,,,,,,,,,,,,,,,,,,,,,,,,,,left,0,1.3304266999475658,289.32664959994145,None,289.32664959994145,None,289.32664959994145,290.3287198001053,289.32664959994145,290.3287198001053,289.32664959994145,290.3287198001053,289.32664959994145,290.3287198001053,289.32664959994145,289.82710810005665,289.32664959994145,289.82710810005665,289.32664959994145,289.82710810005665,289.32664959994145,289.82710810005665,289.32664959994145,None,,,,,11045,001,2024_Apr_13_1128,nback,2021.2.3,60.06770827691016,
1-back,instructions\back-1.png,conditions\11back-e.xlsx,,,experiment,1,2,stim\gray.png,stim\yellow.png,stim\gray.png,stim\gray.png,left,,,,,,,,,,,,,0,3,3,5,0,16,16,16,,,,,,,,,,,,,,,,,,,,,,,,,,,,,,,,,,,,,,,,,,,,,,,,,,,,,,,,None,0,,290.81249959999695,None,290.81249959999695,None,290.81249959999695,291.81389959994704,290.81249959999695,291.81389959994704,290.81249959999695,291.81389959994704,290.81249959999695,291.81389959994704,290.81249959999695,291.3129527999554,290.81249959999695,291.3129527999554,290.81249959999695,291.3129527999554,290.81249959999695,291.3129527999554,290.81249959999695,None,,,,,11045,001,2024_Apr_13_1128,nback,2021.2.3,60.06770827691016,
1-back,instructions\back-1.png,conditions\11back-e.xlsx,,,experiment,1,1,stim\yellow.png,stim\gray.png,stim\gray.png,stim\gray.png,left,,,,,,,,,,,,,0,3,3,5,0,17,17,17,,,,,,,,,,,,,,,,,,,,,,,,,,,,,,,,,,,,,,,,,,,,,,,,,,,,,,,,left,1,0.23887920007109642,292.31429750006646,None,292.31429750006646,None,292.31429750006646,293.3158859000541,292.31429750006646,293.3158859000541,292.31429750006646,293.3158859000541,292.31429750006646,293.3158859000541,292.31429750006646,292.81520069995895,292.31429750006646,292.81520069995895,292.31429750006646,292.81520069995895,292.31429750006646,292.81520069995895,292.31429750006646,None,,,,,11045,001,2024_Apr_13_1128,nback,2021.2.3,60.06770827691016,
