backseq,backinstr,backfile,instruction,size_in,Trialtype,back,number,P1,P2,P3,P4,corrAns,trials_practice.thisRepN,trials_practice.thisTrialN,trials_practice.thisN,trials_practice.thisIndex,trials.thisRepN,trials.thisTrialN,trials.thisN,trials.thisIndex,trials_3.thisRepN,trials_3.thisTrialN,trials_3.thisN,trials_3.thisIndex,trials_2.thisRepN,trials_2.thisTrialN,trials_2.thisN,trials_2.thisIndex,trials_4.thisRepN,trials_4.thisTrialN,trials_4.thisN,trials_4.thisIndex,image.started,image.stopped,image_2.started,image_2.stopped,key_resp.keys,key_resp.rt,key_resp.started,key_resp.stopped,image_3.started,image_3.stopped,key_resp_2.keys,key_resp_2.rt,key_resp_2.started,key_resp_2.stopped,image_4.started,image_4.stopped,text.started,text.stopped,H1.started,H1.stopped,H2.started,H2.stopped,H3.started,H3.stopped,H4.started,H4.stopped,key_resp_3.keys,key_resp_3.corr,key_resp_3.rt,key_resp_3.started,key_resp_3.stopped,text_4.started,text_4.stopped,F1.started,F1.stopped,F2.started,F2.stopped,F3.started,F3.stopped,F4.started,F4.stopped,image_7.started,image_7.stopped,text_5.started,text_5.stopped,key_resp_6.keys,key_resp_6.rt,key_resp_6.started,key_resp_6.stopped,image_5.started,image_5.stopped,key_resp_4.keys,key_resp_4.rt,key_resp_4.started,key_resp_4.stopped,key_resp_5.keys,key_resp_5.corr,key_resp_5.started,key_resp_5.stopped,text_3.started,text_3.stopped,H1_2.started,H1_2.stopped,H2_2.started,H2_2.stopped,H3_2.started,H3_2.stopped,H4_2.started,H4_2.stopped,F1_2.started,F1_2.stopped,F2_2.started,F2_2.stopped,F3_2.started,F3_2.stopped,F4_2.started,F4_2.stopped,image_8.started,image_8.stopped,key_resp_5.rt,text_2.started,text_2.stopped,image_6.started,image_6.stopped,participant,session,date,expName,psychopyVersion,frameRate,
,,,,,,,,,,,,,,,,,,,,,,,,,,,,,,,,,10.288893899996765,None,11.241545700002462,None,space,5.88321260001976,11.241545700002462,None,,,,,,,,,,,,,,,,,,,,,,,,,,,,,,,,,,,,,,,,,,,,,,,,,,,,,,,,,,,,,,,,,,,,,,,,,,,,,11043,001,2024_Mar_21_0830,nback,2021.2.3,60.06424472987095,
0-back,instructions\back-0.png,conditions\0back-p.xlsx,instructions\0-BACK.png,"(15, 8)",practice,0,1,stim\yellow.png,stim\gray.png,stim\gray.png,stim\gray.png,up,0,0,0,0,0,0,0,0,0,0,0,0,,,,,,,,,,,,,,,,,17.181872399989516,None,space,16.3590463999426,17.181872399989516,None,33.72412820009049,38.23118450003676,38.1978320000926,None,38.58236630004831,39.58288500003982,38.58236630004831,39.58288500003982,38.58236630004831,39.58288500003982,38.58236630004831,39.58288500003982,up,1,0.5185347000369802,38.58236630004831,None,38.58236630004831,None,38.58236630004831,39.08229340007529,38.58236630004831,39.08229340007529,38.58236630004831,39.08229340007529,38.58236630004831,39.08229340007529,38.58236630004831,None,,,,,,,,,,,,,,,,,,,,,,,,,,,,,,,,,,,,,,,,,,11043,001,2024_Mar_21_0830,nback,2021.2.3,60.06424472987095,
0-back,instructions\back-0.png,conditions\0back-p.xlsx,instructions\0-BACK.png,"(15, 8)",practice,0,2,stim\gray.png,stim\yellow.png,stim\gray.png,stim\gray.png,left,0,0,0,0,0,0,0,0,0,1,1,1,,,,,,,,,,,,,,,,,,,,,,,,,,,40.06690279999748,41.06867370009422,40.06690279999748,41.06867370009422,40.06690279999748,41.06867370009422,40.06690279999748,41.06867370009422,left,1,0.41842759994324297,40.06690279999748,None,40.06690279999748,None,40.06690279999748,40.567877800087444,40.06690279999748,40.567877800087444,40.06690279999748,40.567877800087444,40.06690279999748,40.567877800087444,40.06690279999748,None,,,,,,,,,,,,,,,,,,,,,,,,,,,,,,,,,,,,,,,,,,11043,001,2024_Mar_21_0830,nback,2021.2.3,60.06424472987095,
0-back,instructions\back-0.png,conditions\0back-p.xlsx,instructions\0-BACK.png,"(15, 8)",practice,0,3,stim\gray.png,stim\gray.png,stim\yellow.png,stim\gray.png,right,0,0,0,0,0,0,0,0,0,2,2,2,,,,,,,,,,,,,,,,,,,,,,,,,,,41.56941800005734,42.57100540003739,41.56941800005734,42.57100540003739,41.56941800005734,42.57100540003739,41.56941800005734,42.57100540003739,right,1,0.34767679998185486,41.56941800005734,None,41.56941800005734,None,41.56941800005734,42.07055930001661,41.56941800005734,42.07055930001661,41.56941800005734,42.07055930001661,41.56941800005734,42.07055930001661,41.56941800005734,None,,,,,,,,,,,,,,,,,,,,,,,,,,,,,,,,,,,,,,,,,,11043,001,2024_Mar_21_0830,nback,2021.2.3,60.06424472987095,
0-back,instructions\back-0.png,conditions\0back-p.xlsx,instructions\0-BACK.png,"(15, 8)",practice,0,4,stim\gray.png,stim\gray.png,stim\gray.png,stim\yellow.png,down,0,0,0,0,0,0,0,0,0,3,3,3,,,,,,,,,,,,,,,,,,,,,,,,,,,43.071523000020534,44.07353110006079,43.071523000020534,44.07353110006079,43.071523000020534,44.07353110006079,43.071523000020534,44.07353110006079,down,1,0.7336308999219909,43.071523000020534,None,43.071523000020534,None,43.071523000020534,43.57377960009035,43.071523000020534,43.57377960009035,43.071523000020534,43.57377960009035,43.071523000020534,43.57377960009035,43.071523000020534,None,,,,,,,,,,,,,,,,,,,,,,,,,,,,,,,,,,,,,,,,,,11043,001,2024_Mar_21_0830,nback,2021.2.3,60.06424472987095,
0-back,instructions\back-0.png,conditions\0back-p.xlsx,instructions\0-BACK.png,"(15, 8)",practice,0,2,stim\gray.png,stim\yellow.png,stim\gray.png,stim\gray.png,left,0,0,0,0,0,0,0,0,0,4,4,4,,,,,,,,,,,,,,,,,,,,,,,,,,,44.57422569999471,45.575270500034094,44.57422569999471,45.575270500034094,44.57422569999471,45.575270500034094,44.57422569999471,45.575270500034094,left,1,0.4790114000206813,44.57422569999471,None,44.57422569999471,None,44.57422569999471,45.07486719998997,44.57422569999471,45.07486719998997,44.57422569999471,45.07486719998997,44.57422569999471,45.07486719998997,44.57422569999471,None,,,,,,,,,,,,,,,,,,,,,,,,,,,,,,,,,,,,,,,,,,11043,001,2024_Mar_21_0830,nback,2021.2.3,60.06424472987095,
0-back,instructions\back-0.png,conditions\0back-p.xlsx,instructions\0-BACK.png,"(15, 8)",practice,0,1,stim\yellow.png,stim\gray.png,stim\gray.png,stim\gray.png,up,0,0,0,0,0,0,0,0,0,5,5,5,,,,,,,,,,,,,,,,,,,,,,,,,,,46.0762979000574,47.07789660000708,46.0762979000574,47.07789660000708,46.0762979000574,47.07789660000708,46.0762979000574,47.07789660000708,up,1,0.37720769993029535,46.0762979000574,None,46.0762979000574,None,46.0762979000574,46.577097100089304,46.0762979000574,46.577097100089304,46.0762979000574,46.577097100089304,46.0762979000574,46.577097100089304,46.0762979000574,None,,,,,,,,,,,,,,,,,,,,,,,,,,,,,,,,,,,,,,,,,,11043,001,2024_Mar_21_0830,nback,2021.2.3,60.06424472987095,
0-back,instructions\back-0.png,conditions\0back-p.xlsx,instructions\0-BACK.png,"(15, 8)",practice,0,4,stim\gray.png,stim\gray.png,stim\gray.png,stim\yellow.png,down,0,0,0,0,0,0,0,0,0,6,6,6,,,,,,,,,,,,,,,,,,,,,,,,,,,47.561651200056076,48.56339750008192,47.561651200056076,48.56339750008192,47.561651200056076,48.56339750008192,47.561651200056076,48.56339750008192,down,1,0.4435752999270335,47.561651200056076,None,47.561651200056076,None,47.561651200056076,48.06260880001355,47.561651200056076,48.06260880001355,47.561651200056076,48.06260880001355,47.561651200056076,48.06260880001355,47.561651200056076,None,,,,,,,,,,,,,,,,,,,,,,,,,,,,,,,,,,,,,,,,,,11043,001,2024_Mar_21_0830,nback,2021.2.3,60.06424472987095,
0-back,instructions\back-0.png,conditions\0back-p.xlsx,instructions\0-BACK.png,"(15, 8)",practice,0,3,stim\gray.png,stim\gray.png,stim\yellow.png,stim\gray.png,right,0,0,0,0,0,0,0,0,0,7,7,7,,,,,,,,,,,,,,,,,,,,,,,,,,,49.06384680001065,50.06713340000715,49.06384680001065,50.06713340000715,49.06384680001065,50.06713340000715,49.06384680001065,50.06713340000715,right,1,0.3653765000635758,49.06384680001065,None,49.06384680001065,None,49.06384680001065,49.56491479999386,49.06384680001065,49.56491479999386,49.06384680001065,49.56491479999386,49.06384680001065,49.56491479999386,49.06384680001065,None,,,,,,,,,,,,,,,,,,,,,,,,,,,,,,,,,,,,,,,,,,11043,001,2024_Mar_21_0830,nback,2021.2.3,60.06424472987095,
0-back,instructions\back-0.png,conditions\0back-p.xlsx,instructions\0-BACK.png,"(15, 8)",practice,0,3,stim\gray.png,stim\gray.png,stim\yellow.png,stim\gray.png,right,0,0,0,0,0,0,0,0,0,8,8,8,,,,,,,,,,,,,,,,,,,,,,,,,,,50.566139700007625,51.56840800005011,50.566139700007625,51.56840800005011,50.566139700007625,51.56840800005011,50.566139700007625,51.56840800005011,right,1,0.3840722000459209,50.566139700007625,None,50.566139700007625,None,50.566139700007625,51.067190700094216,50.566139700007625,51.067190700094216,50.566139700007625,51.067190700094216,50.566139700007625,51.067190700094216,50.566139700007625,None,,,,,,,,,,,,,,,,,,,,,,,,,,,,,,,,,,,,,,,,,,11043,001,2024_Mar_21_0830,nback,2021.2.3,60.06424472987095,
0-back,instructions\back-0.png,conditions\0back-p.xlsx,instructions\0-BACK.png,"(15, 8)",practice,0,4,stim\gray.png,stim\gray.png,stim\gray.png,stim\yellow.png,down,0,0,0,0,0,0,0,0,0,9,9,9,,,,,,,,,,,,,,,,,,,,,,,,,,,52.06851780007128,53.070823900052346,52.06851780007128,53.070823900052346,52.06851780007128,53.070823900052346,52.06851780007128,53.070823900052346,down,1,0.44881259999237955,52.06851780007128,None,52.06851780007128,None,52.06851780007128,52.56913900002837,52.06851780007128,52.56913900002837,52.06851780007128,52.56913900002837,52.06851780007128,52.56913900002837,52.06851780007128,None,,,,,,,,,,,,,,,,,,,,,,,,,,,,,,,,,,,,,,,,,,11043,001,2024_Mar_21_0830,nback,2021.2.3,60.06424472987095,
0-back,instructions\back-0.png,conditions\0back-p.xlsx,instructions\0-BACK.png,"(15, 8)",practice,0,1,stim\yellow.png,stim\gray.png,stim\gray.png,stim\gray.png,up,0,0,0,0,0,0,0,0,0,10,10,10,,,,,,,,,,,,,,,,,,,,,,,,,,,53.57088650006335,54.57213440001942,53.57088650006335,54.57213440001942,53.57088650006335,54.57213440001942,53.57088650006335,54.57213440001942,up,1,0.41033290000632405,53.57088650006335,None,53.57088650006335,None,53.57088650006335,54.0713825999992,53.57088650006335,54.0713825999992,53.57088650006335,54.0713825999992,53.57088650006335,54.0713825999992,53.57088650006335,None,,,,,,,,,,,,,,,,,,,,,,,,,,,,,,,,,,,,,,,,,,11043,001,2024_Mar_21_0830,nback,2021.2.3,60.06424472987095,
0-back,instructions\back-0.png,conditions\0back-p.xlsx,instructions\0-BACK.png,"(15, 8)",practice,0,2,stim\gray.png,stim\yellow.png,stim\gray.png,stim\gray.png,left,0,0,0,0,0,0,0,0,0,11,11,11,,,,,,,,,,,,,,,,,,,,,,,,,,,55.07323570002336,56.074594200006686,55.07323570002336,56.074594200006686,55.07323570002336,56.074594200006686,55.07323570002336,56.074594200006686,left,1,0.3084159999853,55.07323570002336,None,55.07323570002336,None,55.07323570002336,55.57412690005731,55.07323570002336,55.57412690005731,55.07323570002336,55.57412690005731,55.07323570002336,55.57412690005731,55.07323570002336,None,,,,,,,,,,,,,,,,,,,,,,,,,,,,,,,,,,,,,,,,,,11043,001,2024_Mar_21_0830,nback,2021.2.3,60.06424472987095,
0-back,instructions\back-0.png,conditions\0back-p.xlsx,instructions\0-BACK.png,"(15, 8)",practice,0,4,stim\gray.png,stim\gray.png,stim\gray.png,stim\yellow.png,down,0,0,0,0,0,0,0,0,0,12,12,12,,,,,,,,,,,,,,,,,,,,,,,,,,,56.57528920006007,57.57679590000771,56.57528920006007,57.57679590000771,56.57528920006007,57.57679590000771,56.57528920006007,57.57679590000771,down,1,0.3825793999712914,56.57528920006007,None,56.57528920006007,None,56.57528920006007,57.07619699998759,56.57528920006007,57.07619699998759,56.57528920006007,57.07619699998759,56.57528920006007,57.07619699998759,56.57528920006007,None,,,,,,,,,,,,,,,,,,,,,,,,,,,,,,,,,,,,,,,,,,11043,001,2024_Mar_21_0830,nback,2021.2.3,60.06424472987095,
0-back,instructions\back-0.png,conditions\0back-p.xlsx,instructions\0-BACK.png,"(15, 8)",practice,0,3,stim\gray.png,stim\gray.png,stim\yellow.png,stim\gray.png,right,0,0,0,0,0,0,0,0,0,13,13,13,,,,,,,,,,,,,,,,,,,,,,,,,,,58.07752320007421,59.07930620003026,58.07752320007421,59.07930620003026,58.07752320007421,59.07930620003026,58.07752320007421,59.07930620003026,right,1,0.3440577000146732,58.07752320007421,None,58.07752320007421,None,58.07752320007421,58.57840540003963,58.07752320007421,58.57840540003963,58.07752320007421,58.57840540003963,58.07752320007421,58.57840540003963,58.07752320007421,None,,,,,,,,,,,,,,,,,,,,,,,,,,,,,,,,,,,,,,,,,,11043,001,2024_Mar_21_0830,nback,2021.2.3,60.06424472987095,
0-back,instructions\back-0.png,conditions\0back-p.xlsx,instructions\0-BACK.png,"(15, 8)",practice,0,1,stim\yellow.png,stim\gray.png,stim\gray.png,stim\gray.png,up,0,0,0,0,0,0,0,0,0,14,14,14,,,,,,,,,,,,,,,,,,,,,,,,,,,59.56318250007462,60.56482219998725,59.56318250007462,60.56482219998725,59.56318250007462,60.56482219998725,59.56318250007462,60.56482219998725,up,1,0.3622000999748707,59.56318250007462,None,59.56318250007462,None,59.56318250007462,60.063791100052185,59.56318250007462,60.063791100052185,59.56318250007462,60.063791100052185,59.56318250007462,60.063791100052185,59.56318250007462,None,,,,,,,,,,,,,,,,,,,,,,,,,,,,,,,,,,,,,,,,,,11043,001,2024_Mar_21_0830,nback,2021.2.3,60.06424472987095,
0-back,instructions\back-0.png,conditions\0back-p.xlsx,instructions\0-BACK.png,"(15, 8)",practice,0,2,stim\gray.png,stim\yellow.png,stim\gray.png,stim\gray.png,left,0,0,0,0,0,0,0,0,0,15,15,15,,,,,,,,,,,,,,,,,,,,,,,,,,,61.06547760008834,62.06694100005552,61.06547760008834,62.06694100005552,61.06547760008834,62.06694100005552,61.06547760008834,62.06694100005552,left,1,0.29213549999985844,61.06547760008834,None,61.06547760008834,None,61.06547760008834,61.567393800010905,61.06547760008834,61.567393800010905,61.06547760008834,61.567393800010905,61.06547760008834,61.567393800010905,61.06547760008834,None,,,,,,,,,,,,,,,,,,,,,,,,,,,,,,,,,,,,,,,,,,11043,001,2024_Mar_21_0830,nback,2021.2.3,60.06424472987095,
0-back,instructions\back-0.png,conditions\0back-p.xlsx,instructions\0-BACK.png,"(15, 8)",practice,0,3,stim\gray.png,stim\gray.png,stim\yellow.png,stim\gray.png,right,0,0,0,0,0,0,0,0,0,16,16,16,,,,,,,,,,,,,,,,,,,,,,,,,,,62.56746530008968,63.569197900011204,62.56746530008968,63.569197900011204,62.56746530008968,63.569197900011204,62.56746530008968,63.569197900011204,right,1,0.3354502000147477,62.56746530008968,None,62.56746530008968,None,62.56746530008968,63.068483100039884,62.56746530008968,63.068483100039884,62.56746530008968,63.068483100039884,62.56746530008968,63.068483100039884,62.56746530008968,None,,,,,,,,,,,,,,,,,,,,,,,,,,,,,,,,,,,,,,,,,,11043,001,2024_Mar_21_0830,nback,2021.2.3,60.06424472987095,
0-back,instructions\back-0.png,conditions\0back-p.xlsx,instructions\0-BACK.png,"(15, 8)",practice,0,1,stim\yellow.png,stim\gray.png,stim\gray.png,stim\gray.png,up,0,0,0,0,0,0,0,0,0,17,17,17,,,,,,,,,,,,,,,,,,,,,,,,,,,64.07018150005024,65.07140910008457,64.07018150005024,65.07140910008457,64.07018150005024,65.07140910008457,64.07018150005024,65.07140910008457,up,1,0.3356813999125734,64.07018150005024,None,64.07018150005024,None,64.07018150005024,64.571151799988,64.07018150005024,64.571151799988,64.07018150005024,64.571151799988,64.07018150005024,64.571151799988,64.07018150005024,None,,,,,,,,,,,,,,,,,,,,,,,,,,,,,,,,,,,,,,,,,,11043,001,2024_Mar_21_0830,nback,2021.2.3,60.06424472987095,
0-back,instructions\back-0.png,conditions\0back-p.xlsx,instructions\0-BACK.png,"(15, 8)",practice,0,4,stim\gray.png,stim\gray.png,stim\gray.png,stim\yellow.png,down,0,0,0,0,0,0,0,0,0,18,18,18,,,,,,,,,,,,,,,,,,,,,,,,,,,65.57223580009304,66.57458920008503,65.57223580009304,66.57458920008503,65.57223580009304,66.57458920008503,65.57223580009304,66.57458920008503,down,1,0.3215115999337286,65.57223580009304,None,65.57223580009304,None,65.57223580009304,66.07346540002618,65.57223580009304,66.07346540002618,65.57223580009304,66.07346540002618,65.57223580009304,66.07346540002618,65.57223580009304,None,,,,,,,,,,,,,,,,,,,,,,,,,,,,,,,,,,,,,,,,,,11043,001,2024_Mar_21_0830,nback,2021.2.3,60.06424472987095,
0-back,instructions\back-0.png,conditions\0back-p.xlsx,instructions\0-BACK.png,"(15, 8)",practice,0,2,stim\gray.png,stim\yellow.png,stim\gray.png,stim\gray.png,left,0,0,0,0,0,0,0,0,0,19,19,19,,,,,,,,,,,,,,,,,,,,,,,,,,,67.0744356000796,68.07603220001329,67.0744356000796,68.07603220001329,67.0744356000796,68.07603220001329,67.0744356000796,68.07603220001329,left,1,0.34008100000210106,67.0744356000796,None,67.0744356000796,None,67.0744356000796,67.57523780001793,67.0744356000796,67.57523780001793,67.0744356000796,67.57523780001793,67.0744356000796,67.57523780001793,67.0744356000796,None,,,,,,,,,,,,,,,,,,,,,,,,,,,,,,,,,,,,,,,,,,11043,001,2024_Mar_21_0830,nback,2021.2.3,60.06424472987095,
0-back,instructions\back-0.png,conditions\0back-p.xlsx,instructions\0-BACK.png,"(15, 8)",,,,,,,,,0,0,0,0,0,0,0,0,,,,,,,,,,,,,,,,,,,,,,,,,,,,,,,,,,,,,,,,,,,,,,,,,,,,,,,,,,,,,,,,,,,,,,,,,,,,,,,,,,,,,,,,,,,,,,,,,11043,001,2024_Mar_21_0830,nback,2021.2.3,60.06424472987095,
1-back,instructions\back-1.png,conditions\1back-p.xlsx,instructions\1-BACK.png,"(25, 15)",practice,1,1,stim\yellow.png,stim\gray.png,stim\gray.png,stim\gray.png,None,0,0,0,0,0,1,1,1,0,0,0,0,,,,,,,,,,,,,,,,,68.71056400006637,None,space,19.400246200035326,68.71056400006637,None,88.25739600008819,92.76462580007501,92.72975970001426,None,93.16465440008324,94.16514110006392,93.16465440008324,94.16514110006392,93.16465440008324,94.16514110006392,93.16465440008324,94.16514110006392,None,1,,93.16465440008324,None,93.16465440008324,None,93.16465440008324,93.66480050003156,93.16465440008324,93.66480050003156,93.16465440008324,93.66480050003156,93.16465440008324,93.66480050003156,93.16465440008324,None,,,,,,,,,,,,,,,,,,,,,,,,,,,,,,,,,,,,,,,,,,11043,001,2024_Mar_21_0830,nback,2021.2.3,60.06424472987095,
1-back,instructions\back-1.png,conditions\1back-p.xlsx,instructions\1-BACK.png,"(25, 15)",practice,1,2,stim\gray.png,stim\yellow.png,stim\gray.png,stim\gray.png,up,0,0,0,0,0,1,1,1,0,1,1,1,,,,,,,,,,,,,,,,,,,,,,,,,,,94.64935920003336,95.65076980006415,94.64935920003336,95.65076980006415,94.64935920003336,95.65076980006415,94.64935920003336,95.65076980006415,up,1,0.47722160001285374,94.64935920003336,None,94.64935920003336,None,94.64935920003336,95.14998820004985,94.64935920003336,95.14998820004985,94.64935920003336,95.14998820004985,94.64935920003336,95.14998820004985,94.64935920003336,None,,,,,,,,,,,,,,,,,,,,,,,,,,,,,,,,,,,,,,,,,,11043,001,2024_Mar_21_0830,nback,2021.2.3,60.06424472987095,
1-back,instructions\back-1.png,conditions\1back-p.xlsx,instructions\1-BACK.png,"(25, 15)",practice,1,3,stim\gray.png,stim\gray.png,stim\yellow.png,stim\gray.png,left,0,0,0,0,0,1,1,1,0,2,2,2,,,,,,,,,,,,,,,,,,,,,,,,,,,96.1516359000234,97.15341020002961,96.1516359000234,97.15341020002961,96.1516359000234,97.15341020002961,96.1516359000234,97.15341020002961,left,1,0.3991290000267327,96.1516359000234,None,96.1516359000234,None,96.1516359000234,96.652332900092,96.1516359000234,96.652332900092,96.1516359000234,96.652332900092,96.1516359000234,96.652332900092,96.1516359000234,None,,,,,,,,,,,,,,,,,,,,,,,,,,,,,,,,,,,,,,,,,,11043,001,2024_Mar_21_0830,nback,2021.2.3,60.06424472987095,
1-back,instructions\back-1.png,conditions\1back-p.xlsx,instructions\1-BACK.png,"(25, 15)",practice,1,4,stim\gray.png,stim\gray.png,stim\gray.png,stim\yellow.png,right,0,0,0,0,0,1,1,1,0,3,3,3,,,,,,,,,,,,,,,,,,,,,,,,,,,97.65401380008552,98.65541040000971,97.65401380008552,98.65541040000971,97.65401380008552,98.65541040000971,97.65401380008552,98.65541040000971,right,1,0.3364617999177426,97.65401380008552,None,97.65401380008552,None,97.65401380008552,98.15461550001055,97.65401380008552,98.15461550001055,97.65401380008552,98.15461550001055,97.65401380008552,98.15461550001055,97.65401380008552,None,,,,,,,,,,,,,,,,,,,,,,,,,,,,,,,,,,,,,,,,,,11043,001,2024_Mar_21_0830,nback,2021.2.3,60.06424472987095,
1-back,instructions\back-1.png,conditions\1back-p.xlsx,instructions\1-BACK.png,"(25, 15)",practice,1,2,stim\gray.png,stim\yellow.png,stim\gray.png,stim\gray.png,down,0,0,0,0,0,1,1,1,0,4,4,4,,,,,,,,,,,,,,,,,,,,,,,,,,,99.15622080001049,100.15763840009458,99.15622080001049,100.15763840009458,99.15622080001049,100.15763840009458,99.15622080001049,100.15763840009458,down,1,0.4744136000517756,99.15622080001049,None,99.15622080001049,None,99.15622080001049,99.65714480006136,99.15622080001049,99.65714480006136,99.15622080001049,99.65714480006136,99.15622080001049,99.65714480006136,99.15622080001049,None,,,,,,,,,,,,,,,,,,,,,,,,,,,,,,,,,,,,,,,,,,11043,001,2024_Mar_21_0830,nback,2021.2.3,60.06424472987095,
1-back,instructions\back-1.png,conditions\1back-p.xlsx,instructions\1-BACK.png,"(25, 15)",practice,1,1,stim\yellow.png,stim\gray.png,stim\gray.png,stim\gray.png,left,0,0,0,0,0,1,1,1,0,5,5,5,,,,,,,,,,,,,,,,,,,,,,,,,,,100.6595317000756,101.66008739999961,100.6595317000756,101.66008739999961,100.6595317000756,101.66008739999961,100.6595317000756,101.66008739999961,left,1,0.45903899997938424,100.6595317000756,None,100.6595317000756,None,100.6595317000756,101.15902510005981,100.6595317000756,101.15902510005981,100.6595317000756,101.15902510005981,100.6595317000756,101.15902510005981,100.6595317000756,None,,,,,,,,,,,,,,,,,,,,,,,,,,,,,,,,,,,,,,,,,,11043,001,2024_Mar_21_0830,nback,2021.2.3,60.06424472987095,
1-back,instructions\back-1.png,conditions\1back-p.xlsx,instructions\1-BACK.png,"(25, 15)",practice,1,4,stim\gray.png,stim\gray.png,stim\gray.png,stim\yellow.png,up,0,0,0,0,0,1,1,1,0,6,6,6,,,,,,,,,,,,,,,,,,,,,,,,,,,102.14394259999972,103.14705710008275,102.14394259999972,103.14705710008275,102.14394259999972,103.14705710008275,102.14394259999972,103.14705710008275,up,1,0.3514803999569267,102.14394259999972,None,102.14394259999972,None,102.14394259999972,102.64497000002302,102.14394259999972,102.64497000002302,102.14394259999972,102.64497000002302,102.14394259999972,102.64497000002302,102.14394259999972,None,,,,,,,,,,,,,,,,,,,,,,,,,,,,,,,,,,,,,,,,,,11043,001,2024_Mar_21_0830,nback,2021.2.3,60.06424472987095,
1-back,instructions\back-1.png,conditions\1back-p.xlsx,instructions\1-BACK.png,"(25, 15)",practice,1,3,stim\gray.png,stim\gray.png,stim\yellow.png,stim\gray.png,down,0,0,0,0,0,1,1,1,0,7,7,7,,,,,,,,,,,,,,,,,,,,,,,,,,,103.6470515000401,104.64768300007563,103.6470515000401,104.64768300007563,103.6470515000401,104.64768300007563,103.6470515000401,104.64768300007563,right,0,1.463739400031045,103.6470515000401,None,103.6470515000401,None,103.6470515000401,104.14717790007126,103.6470515000401,104.14717790007126,103.6470515000401,104.14717790007126,103.6470515000401,104.14717790007126,103.6470515000401,None,,,,,,,,,,,,,,,,,,,,,,,,,,,,,,,,,,,,,,,,,,11043,001,2024_Mar_21_0830,nback,2021.2.3,60.06424472987095,
1-back,instructions\back-1.png,conditions\1back-p.xlsx,instructions\1-BACK.png,"(25, 15)",practice,1,3,stim\gray.png,stim\gray.png,stim\yellow.png,stim\gray.png,right,0,0,0,0,0,1,1,1,0,8,8,8,,,,,,,,,,,,,,,,,,,,,,,,,,,105.14856860006694,106.15017100004479,105.14856860006694,106.15017100004479,105.14856860006694,106.15017100004479,105.14856860006694,106.15017100004479,right,1,1.2664627999765798,105.14856860006694,None,105.14856860006694,None,105.14856860006694,105.64923470001668,105.14856860006694,105.64923470001668,105.14856860006694,105.64923470001668,105.14856860006694,105.64923470001668,105.14856860006694,None,,,,,,,,,,,,,,,,,,,,,,,,,,,,,,,,,,,,,,,,,,11043,001,2024_Mar_21_0830,nback,2021.2.3,60.06424472987095,
1-back,instructions\back-1.png,conditions\1back-p.xlsx,instructions\1-BACK.png,"(25, 15)",practice,1,4,stim\gray.png,stim\gray.png,stim\gray.png,stim\yellow.png,right,0,0,0,0,0,1,1,1,0,9,9,9,,,,,,,,,,,,,,,,,,,,,,,,,,,106.65040550008416,107.65233040007297,106.65040550008416,107.65233040007297,106.65040550008416,107.65233040007297,106.65040550008416,107.65233040007297,down,0,1.3965741998981684,106.65040550008416,None,106.65040550008416,None,106.65040550008416,107.15159980009776,106.65040550008416,107.15159980009776,106.65040550008416,107.15159980009776,106.65040550008416,107.15159980009776,106.65040550008416,None,,,,,,,,,,,,,,,,,,,,,,,,,,,,,,,,,,,,,,,,,,11043,001,2024_Mar_21_0830,nback,2021.2.3,60.06424472987095,
1-back,instructions\back-1.png,conditions\1back-p.xlsx,instructions\1-BACK.png,"(25, 15)",practice,1,1,stim\yellow.png,stim\gray.png,stim\gray.png,stim\gray.png,down,0,0,0,0,0,1,1,1,0,10,10,10,,,,,,,,,,,,,,,,,,,,,,,,,,,108.15290880005341,109.15510920004454,108.15290880005341,109.15510920004454,108.15290880005341,109.15510920004454,108.15290880005341,109.15510920004454,up,0,1.237878100015223,108.15290880005341,None,108.15290880005341,None,108.15290880005341,108.65496760001406,108.15290880005341,108.65496760001406,108.15290880005341,108.65496760001406,108.15290880005341,108.65496760001406,108.15290880005341,None,,,,,,,,,,,,,,,,,,,,,,,,,,,,,,,,,,,,,,,,,,11043,001,2024_Mar_21_0830,nback,2021.2.3,60.06424472987095,
1-back,instructions\back-1.png,conditions\1back-p.xlsx,instructions\1-BACK.png,"(25, 15)",practice,1,2,stim\gray.png,stim\yellow.png,stim\gray.png,stim\gray.png,up,0,0,0,0,0,1,1,1,0,11,11,11,,,,,,,,,,,,,,,,,,,,,,,,,,,109.65515680005774,110.65701060008723,109.65515680005774,110.65701060008723,109.65515680005774,110.65701060008723,109.65515680005774,110.65701060008723,None,0,,109.65515680005774,None,109.65515680005774,None,109.65515680005774,110.15604810009245,109.65515680005774,110.15604810009245,109.65515680005774,110.15604810009245,109.65515680005774,110.15604810009245,109.65515680005774,None,,,,,,,,,,,,,,,,,,,,,,,,,,,,,,,,,,,,,,,,,,11043,001,2024_Mar_21_0830,nback,2021.2.3,60.06424472987095,
1-back,instructions\back-1.png,conditions\1back-p.xlsx,instructions\1-BACK.png,"(25, 15)",practice,1,4,stim\gray.png,stim\gray.png,stim\gray.png,stim\yellow.png,left,0,0,0,0,0,1,1,1,0,12,12,12,,,,,,,,,,,,,,,,,,,,,,,,,,,111.15762650000397,112.1599489999935,111.15762650000397,112.1599489999935,111.15762650000397,112.1599489999935,111.15762650000397,112.1599489999935,left,1,0.8738216999918222,111.15762650000397,None,111.15762650000397,None,111.15762650000397,111.65829620009754,111.15762650000397,111.65829620009754,111.15762650000397,111.65829620009754,111.15762650000397,111.65829620009754,111.15762650000397,None,,,,,,,,,,,,,,,,,,,,,,,,,,,,,,,,,,,,,,,,,,11043,001,2024_Mar_21_0830,nback,2021.2.3,60.06424472987095,
1-back,instructions\back-1.png,conditions\1back-p.xlsx,instructions\1-BACK.png,"(25, 15)",practice,1,3,stim\gray.png,stim\gray.png,stim\yellow.png,stim\gray.png,down,0,0,0,0,0,1,1,1,0,13,13,13,,,,,,,,,,,,,,,,,,,,,,,,,,,112.64323290006723,113.64492580003571,112.64323290006723,113.64492580003571,112.64323290006723,113.64492580003571,112.64323290006723,113.64492580003571,down,1,0.6841829000040889,112.64323290006723,None,112.64323290006723,None,112.64323290006723,113.14394460001495,112.64323290006723,113.14394460001495,112.64323290006723,113.14394460001495,112.64323290006723,113.14394460001495,112.64323290006723,None,,,,,,,,,,,,,,,,,,,,,,,,,,,,,,,,,,,,,,,,,,11043,001,2024_Mar_21_0830,nback,2021.2.3,60.06424472987095,
1-back,instructions\back-1.png,conditions\1back-p.xlsx,instructions\1-BACK.png,"(25, 15)",practice,1,1,stim\yellow.png,stim\gray.png,stim\gray.png,stim\gray.png,right,0,0,0,0,0,1,1,1,0,14,14,14,,,,,,,,,,,,,,,,,,,,,,,,,,,114.14541850006208,115.14718269999139,114.14541850006208,115.14718269999139,114.14541850006208,115.14718269999139,114.14541850006208,115.14718269999139,right,1,0.6698771000374109,114.14541850006208,None,114.14541850006208,None,114.14541850006208,114.64629440009594,114.14541850006208,114.64629440009594,114.14541850006208,114.64629440009594,114.14541850006208,114.64629440009594,114.14541850006208,None,,,,,,,,,,,,,,,,,,,,,,,,,,,,,,,,,,,,,,,,,,11043,001,2024_Mar_21_0830,nback,2021.2.3,60.06424472987095,
1-back,instructions\back-1.png,conditions\1back-p.xlsx,instructions\1-BACK.png,"(25, 15)",practice,1,2,stim\gray.png,stim\yellow.png,stim\gray.png,stim\gray.png,up,0,0,0,0,0,1,1,1,0,15,15,15,,,,,,,,,,,,,,,,,,,,,,,,,,,115.64759390009567,116.64921420009341,115.64759390009567,116.64921420009341,115.64759390009567,116.64921420009341,115.64759390009567,116.64921420009341,up,1,0.6873629000037909,115.64759390009567,None,115.64759390009567,None,115.64759390009567,116.14839650003705,115.64759390009567,116.14839650003705,115.64759390009567,116.14839650003705,115.64759390009567,116.14839650003705,115.64759390009567,None,,,,,,,,,,,,,,,,,,,,,,,,,,,,,,,,,,,,,,,,,,11043,001,2024_Mar_21_0830,nback,2021.2.3,60.06424472987095,
1-back,instructions\back-1.png,conditions\1back-p.xlsx,instructions\1-BACK.png,"(25, 15)",practice,1,3,stim\gray.png,stim\gray.png,stim\yellow.png,stim\gray.png,left,0,0,0,0,0,1,1,1,0,16,16,16,,,,,,,,,,,,,,,,,,,,,,,,,,,117.15007900004275,118.15188900008798,117.15007900004275,118.15188900008798,117.15007900004275,118.15188900008798,117.15007900004275,118.15188900008798,left,1,0.5291542999912053,117.15007900004275,None,117.15007900004275,None,117.15007900004275,117.65073350002058,117.15007900004275,117.65073350002058,117.15007900004275,117.65073350002058,117.15007900004275,117.65073350002058,117.15007900004275,None,,,,,,,,,,,,,,,,,,,,,,,,,,,,,,,,,,,,,,,,,,11043,001,2024_Mar_21_0830,nback,2021.2.3,60.06424472987095,
1-back,instructions\back-1.png,conditions\1back-p.xlsx,instructions\1-BACK.png,"(25, 15)",practice,1,1,stim\yellow.png,stim\gray.png,stim\gray.png,stim\gray.png,right,0,0,0,0,0,1,1,1,0,17,17,17,,,,,,,,,,,,,,,,,,,,,,,,,,,118.65209450002294,119.65383940003812,118.65209450002294,119.65383940003812,118.65209450002294,119.65383940003812,118.65209450002294,119.65383940003812,right,1,0.49926119996234775,118.65209450002294,None,118.65209450002294,None,118.65209450002294,119.15288730000611,118.65209450002294,119.15288730000611,118.65209450002294,119.15288730000611,118.65209450002294,119.15288730000611,118.65209450002294,None,,,,,,,,,,,,,,,,,,,,,,,,,,,,,,,,,,,,,,,,,,11043,001,2024_Mar_21_0830,nback,2021.2.3,60.06424472987095,
1-back,instructions\back-1.png,conditions\1back-p.xlsx,instructions\1-BACK.png,"(25, 15)",practice,1,4,stim\gray.png,stim\gray.png,stim\gray.png,stim\yellow.png,up,0,0,0,0,0,1,1,1,0,18,18,18,,,,,,,,,,,,,,,,,,,,,,,,,,,120.15502000006381,121.15596150001511,120.15502000006381,121.15596150001511,120.15502000006381,121.15596150001511,120.15502000006381,121.15596150001511,up,1,0.4521683999337256,120.15502000006381,None,120.15502000006381,None,120.15502000006381,120.65636710007675,120.15502000006381,120.65636710007675,120.15502000006381,120.65636710007675,120.15502000006381,120.65636710007675,120.15502000006381,None,,,,,,,,,,,,,,,,,,,,,,,,,,,,,,,,,,,,,,,,,,11043,001,2024_Mar_21_0830,nback,2021.2.3,60.06424472987095,
1-back,instructions\back-1.png,conditions\1back-p.xlsx,instructions\1-BACK.png,"(25, 15)",practice,1,2,stim\gray.png,stim\yellow.png,stim\gray.png,stim\gray.png,down,0,0,0,0,0,1,1,1,0,19,19,19,,,,,,,,,,,,,,,,,,,,,,,,,,,121.65685400005896,122.65843790001236,121.65685400005896,122.65843790001236,121.65685400005896,122.65843790001236,121.65685400005896,122.65843790001236,down,1,0.41451469995081425,121.65685400005896,None,121.65685400005896,None,121.65685400005896,122.15747400000691,121.65685400005896,122.15747400000691,121.65685400005896,122.15747400000691,121.65685400005896,122.15747400000691,121.65685400005896,None,,,,,,,,,,,,,,,,,,,,,,,,,,,,,,,,,,,,,,,,,,11043,001,2024_Mar_21_0830,nback,2021.2.3,60.06424472987095,
1-back,instructions\back-1.png,conditions\1back-p.xlsx,instructions\1-BACK.png,"(25, 15)",,,,,,,,,0,0,0,0,0,1,1,1,,,,,,,,,,,,,,,,,,,,,,,,,,,,,,,,,,,,,,,,,,,,,,,,,,,,,,,,,,,,,,,,,,,,,,,,,,,,,,,,,,,,,,,,,,,,,,,,,11043,001,2024_Mar_21_0830,nback,2021.2.3,60.06424472987095,
2-back,instructions\back-2.png,conditions\2back-p.xlsx,instructions\2-BACK.png,"(25, 15)",practice,2,1,stim\yellow.png,stim\gray.png,stim\gray.png,stim\gray.png,None,0,0,0,0,0,2,2,2,0,0,0,0,,,,,,,,,,,,,,,,,123.29260480008088,None,space,10.634576500044204,123.29260480008088,None,134.0579111999832,138.56563690002076,138.54893040005118,None,138.98325210006442,139.9844660999952,138.98325210006442,139.9844660999952,138.98325210006442,139.9844660999952,138.98325210006442,139.9844660999952,None,1,,138.98325210006442,None,138.98325210006442,None,138.98325210006442,139.4840930000646,138.98325210006442,139.4840930000646,138.98325210006442,139.4840930000646,138.98325210006442,139.4840930000646,138.98325210006442,None,,,,,,,,,,,,,,,,,,,,,,,,,,,,,,,,,,,,,,,,,,11043,001,2024_Mar_21_0830,nback,2021.2.3,60.06424472987095,
2-back,instructions\back-2.png,conditions\2back-p.xlsx,instructions\2-BACK.png,"(25, 15)",practice,2,2,stim\gray.png,stim\yellow.png,stim\gray.png,stim\gray.png,None,0,0,0,0,0,2,2,2,0,1,1,1,,,,,,,,,,,,,,,,,,,,,,,,,,,140.4685089000268,141.47002860007342,140.4685089000268,141.47002860007342,140.4685089000268,141.47002860007342,140.4685089000268,141.47002860007342,None,1,,140.4685089000268,None,140.4685089000268,None,140.4685089000268,140.9690939000575,140.4685089000268,140.9690939000575,140.4685089000268,140.9690939000575,140.4685089000268,140.9690939000575,140.4685089000268,None,,,,,,,,,,,,,,,,,,,,,,,,,,,,,,,,,,,,,,,,,,11043,001,2024_Mar_21_0830,nback,2021.2.3,60.06424472987095,
2-back,instructions\back-2.png,conditions\2back-p.xlsx,instructions\2-BACK.png,"(25, 15)",practice,2,3,stim\gray.png,stim\gray.png,stim\yellow.png,stim\gray.png,up,0,0,0,0,0,2,2,2,0,2,2,2,,,,,,,,,,,,,,,,,,,,,,,,,,,141.97080550005194,142.97264500008896,141.97080550005194,142.97264500008896,141.97080550005194,142.97264500008896,141.97080550005194,142.97264500008896,up,1,0.29286689998116344,141.97080550005194,None,141.97080550005194,None,141.97080550005194,142.4715994000435,141.97080550005194,142.4715994000435,141.97080550005194,142.4715994000435,141.97080550005194,142.4715994000435,141.97080550005194,None,,,,,,,,,,,,,,,,,,,,,,,,,,,,,,,,,,,,,,,,,,11043,001,2024_Mar_21_0830,nback,2021.2.3,60.06424472987095,
2-back,instructions\back-2.png,conditions\2back-p.xlsx,instructions\2-BACK.png,"(25, 15)",practice,2,4,stim\gray.png,stim\gray.png,stim\gray.png,stim\yellow.png,left,0,0,0,0,0,2,2,2,0,3,3,3,,,,,,,,,,,,,,,,,,,,,,,,,,,143.47315550001804,144.4759636000963,143.47315550001804,144.4759636000963,143.47315550001804,144.4759636000963,143.47315550001804,144.4759636000963,left,1,0.6470117999706417,143.47315550001804,None,143.47315550001804,None,143.47315550001804,143.97379940003157,143.47315550001804,143.97379940003157,143.47315550001804,143.97379940003157,143.47315550001804,143.97379940003157,143.47315550001804,None,,,,,,,,,,,,,,,,,,,,,,,,,,,,,,,,,,,,,,,,,,11043,001,2024_Mar_21_0830,nback,2021.2.3,60.06424472987095,
2-back,instructions\back-2.png,conditions\2back-p.xlsx,instructions\2-BACK.png,"(25, 15)",practice,2,2,stim\gray.png,stim\yellow.png,stim\gray.png,stim\gray.png,right,0,0,0,0,0,2,2,2,0,4,4,4,,,,,,,,,,,,,,,,,,,,,,,,,,,144.97508420003578,145.9769418000942,144.97508420003578,145.9769418000942,144.97508420003578,145.9769418000942,144.97508420003578,145.9769418000942,right,1,0.6179480999708176,144.97508420003578,None,144.97508420003578,None,144.97508420003578,145.47595049999654,144.97508420003578,145.47595049999654,144.97508420003578,145.47595049999654,144.97508420003578,145.47595049999654,144.97508420003578,None,,,,,,,,,,,,,,,,,,,,,,,,,,,,,,,,,,,,,,,,,,11043,001,2024_Mar_21_0830,nback,2021.2.3,60.06424472987095,
2-back,instructions\back-2.png,conditions\2back-p.xlsx,instructions\2-BACK.png,"(25, 15)",practice,2,1,stim\yellow.png,stim\gray.png,stim\gray.png,stim\gray.png,down,0,0,0,0,0,2,2,2,0,5,5,5,,,,,,,,,,,,,,,,,,,,,,,,,,,146.47761960001662,147.47938830009662,146.47761960001662,147.47938830009662,146.47761960001662,147.47938830009662,146.47761960001662,147.47938830009662,down,1,0.6420900999801233,146.47761960001662,None,146.47761960001662,None,146.47761960001662,146.97837820008863,146.47761960001662,146.97837820008863,146.47761960001662,146.97837820008863,146.47761960001662,146.97837820008863,146.47761960001662,None,,,,,,,,,,,,,,,,,,,,,,,,,,,,,,,,,,,,,,,,,,11043,001,2024_Mar_21_0830,nback,2021.2.3,60.06424472987095,
2-back,instructions\back-2.png,conditions\2back-p.xlsx,instructions\2-BACK.png,"(25, 15)",practice,2,4,stim\gray.png,stim\gray.png,stim\gray.png,stim\yellow.png,left,0,0,0,0,0,2,2,2,0,6,6,6,,,,,,,,,,,,,,,,,,,,,,,,,,,147.96301669999957,148.96463920001406,147.96301669999957,148.96463920001406,147.96301669999957,148.96463920001406,147.96301669999957,148.96463920001406,left,1,0.533142999978736,147.96301669999957,None,147.96301669999957,None,147.96301669999957,148.4637108000461,147.96301669999957,148.4637108000461,147.96301669999957,148.4637108000461,147.96301669999957,148.4637108000461,147.96301669999957,None,,,,,,,,,,,,,,,,,,,,,,,,,,,,,,,,,,,,,,,,,,11043,001,2024_Mar_21_0830,nback,2021.2.3,60.06424472987095,
2-back,instructions\back-2.png,conditions\2back-p.xlsx,instructions\2-BACK.png,"(25, 15)",practice,2,3,stim\gray.png,stim\gray.png,stim\yellow.png,stim\gray.png,up,0,0,0,0,0,2,2,2,0,7,7,7,,,,,,,,,,,,,,,,,,,,,,,,,,,149.46525380003732,150.46809159999248,149.46525380003732,150.46809159999248,149.46525380003732,150.46809159999248,149.46525380003732,150.46809159999248,up,1,0.5347940999781713,149.46525380003732,None,149.46525380003732,None,149.46525380003732,149.96604750002734,149.46525380003732,149.96604750002734,149.46525380003732,149.96604750002734,149.46525380003732,149.96604750002734,149.46525380003732,None,,,,,,,,,,,,,,,,,,,,,,,,,,,,,,,,,,,,,,,,,,11043,001,2024_Mar_21_0830,nback,2021.2.3,60.06424472987095,
2-back,instructions\back-2.png,conditions\2back-p.xlsx,instructions\2-BACK.png,"(25, 15)",practice,2,3,stim\gray.png,stim\gray.png,stim\yellow.png,stim\gray.png,down,0,0,0,0,0,2,2,2,0,8,8,8,,,,,,,,,,,,,,,,,,,,,,,,,,,150.96762140002102,151.96901640004944,150.96762140002102,151.96901640004944,150.96762140002102,151.96901640004944,150.96762140002102,151.96901640004944,down,1,0.4726144000887871,150.96762140002102,None,150.96762140002102,None,150.96762140002102,151.4682918000035,150.96762140002102,151.4682918000035,150.96762140002102,151.4682918000035,150.96762140002102,151.4682918000035,150.96762140002102,None,,,,,,,,,,,,,,,,,,,,,,,,,,,,,,,,,,,,,,,,,,11043,001,2024_Mar_21_0830,nback,2021.2.3,60.06424472987095,
2-back,instructions\back-2.png,conditions\2back-p.xlsx,instructions\2-BACK.png,"(25, 15)",practice,2,4,stim\gray.png,stim\gray.png,stim\gray.png,stim\yellow.png,right,0,0,0,0,0,2,2,2,0,9,9,9,,,,,,,,,,,,,,,,,,,,,,,,,,,152.46989629999734,153.4712346000597,152.46989629999734,153.4712346000597,152.46989629999734,153.4712346000597,152.46989629999734,153.4712346000597,right,1,0.3066005998989567,152.46989629999734,None,152.46989629999734,None,152.46989629999734,152.97059869999066,152.46989629999734,152.97059869999066,152.46989629999734,152.97059869999066,152.46989629999734,152.97059869999066,152.46989629999734,None,,,,,,,,,,,,,,,,,,,,,,,,,,,,,,,,,,,,,,,,,,11043,001,2024_Mar_21_0830,nback,2021.2.3,60.06424472987095,
2-back,instructions\back-2.png,conditions\2back-p.xlsx,instructions\2-BACK.png,"(25, 15)",practice,2,1,stim\yellow.png,stim\gray.png,stim\gray.png,stim\gray.png,right,0,0,0,0,0,2,2,2,0,10,10,10,,,,,,,,,,,,,,,,,,,,,,,,,,,153.97194290009793,154.9736387000885,153.97194290009793,154.9736387000885,153.97194290009793,154.9736387000885,153.97194290009793,154.9736387000885,right,1,0.11623619997408241,153.97194290009793,None,153.97194290009793,None,153.97194290009793,154.4729253000114,153.97194290009793,154.4729253000114,153.97194290009793,154.4729253000114,153.97194290009793,154.4729253000114,153.97194290009793,None,,,,,,,,,,,,,,,,,,,,,,,,,,,,,,,,,,,,,,,,,,11043,001,2024_Mar_21_0830,nback,2021.2.3,60.06424472987095,
2-back,instructions\back-2.png,conditions\2back-p.xlsx,instructions\2-BACK.png,"(25, 15)",practice,2,2,stim\gray.png,stim\yellow.png,stim\gray.png,stim\gray.png,down,0,0,0,0,0,2,2,2,0,11,11,11,,,,,,,,,,,,,,,,,,,,,,,,,,,155.47452320007142,156.47628010006156,155.47452320007142,156.47628010006156,155.47452320007142,156.47628010006156,155.47452320007142,156.47628010006156,down,1,0.005752600030973554,155.47452320007142,None,155.47452320007142,None,155.47452320007142,155.975139999995,155.47452320007142,155.975139999995,155.47452320007142,155.975139999995,155.47452320007142,155.975139999995,155.47452320007142,None,,,,,,,,,,,,,,,,,,,,,,,,,,,,,,,,,,,,,,,,,,11043,001,2024_Mar_21_0830,nback,2021.2.3,60.06424472987095,
2-back,instructions\back-2.png,conditions\2back-p.xlsx,instructions\2-BACK.png,"(25, 15)",practice,2,4,stim\gray.png,stim\gray.png,stim\gray.png,stim\yellow.png,up,0,0,0,0,0,2,2,2,0,12,12,12,,,,,,,,,,,,,,,,,,,,,,,,,,,156.9766122000292,157.9783133000601,156.9766122000292,157.9783133000601,156.9766122000292,157.9783133000601,156.9766122000292,157.9783133000601,left,0,1.3523884000023827,156.9766122000292,None,156.9766122000292,None,156.9766122000292,157.47731380001642,156.9766122000292,157.47731380001642,156.9766122000292,157.47731380001642,156.9766122000292,157.47731380001642,156.9766122000292,None,,,,,,,,,,,,,,,,,,,,,,,,,,,,,,,,,,,,,,,,,,11043,001,2024_Mar_21_0830,nback,2021.2.3,60.06424472987095,
2-back,instructions\back-2.png,conditions\2back-p.xlsx,instructions\2-BACK.png,"(25, 15)",practice,2,3,stim\gray.png,stim\gray.png,stim\yellow.png,stim\gray.png,left,0,0,0,0,0,2,2,2,0,13,13,13,,,,,,,,,,,,,,,,,,,,,,,,,,,158.46217100007925,159.4636424999917,158.46217100007925,159.4636424999917,158.46217100007925,159.4636424999917,158.46217100007925,159.4636424999917,down,0,1.2340079999994487,158.46217100007925,None,158.46217100007925,None,158.46217100007925,158.9631263000192,158.46217100007925,158.9631263000192,158.46217100007925,158.9631263000192,158.46217100007925,158.9631263000192,158.46217100007925,None,,,,,,,,,,,,,,,,,,,,,,,,,,,,,,,,,,,,,,,,,,11043,001,2024_Mar_21_0830,nback,2021.2.3,60.06424472987095,
2-back,instructions\back-2.png,conditions\2back-p.xlsx,instructions\2-BACK.png,"(25, 15)",practice,2,1,stim\yellow.png,stim\gray.png,stim\gray.png,stim\gray.png,down,0,0,0,0,0,2,2,2,0,14,14,14,,,,,,,,,,,,,,,,,,,,,,,,,,,159.96451190009248,160.96732970001176,159.96451190009248,160.96732970001176,159.96451190009248,160.96732970001176,159.96451190009248,160.96732970001176,right,0,1.0921789000276476,159.96451190009248,None,159.96451190009248,None,159.96451190009248,160.46520970005076,159.96451190009248,160.46520970005076,159.96451190009248,160.46520970005076,159.96451190009248,160.46520970005076,159.96451190009248,None,,,,,,,,,,,,,,,,,,,,,,,,,,,,,,,,,,,,,,,,,,11043,001,2024_Mar_21_0830,nback,2021.2.3,60.06424472987095,
2-back,instructions\back-2.png,conditions\2back-p.xlsx,instructions\2-BACK.png,"(25, 15)",practice,2,2,stim\gray.png,stim\yellow.png,stim\gray.png,stim\gray.png,right,0,0,0,0,0,2,2,2,0,15,15,15,,,,,,,,,,,,,,,,,,,,,,,,,,,161.46703659999184,162.4682051000418,161.46703659999184,162.4682051000418,161.46703659999184,162.4682051000418,161.46703659999184,162.4682051000418,up,0,0.9491518000140786,161.46703659999184,None,161.46703659999184,None,161.46703659999184,161.96745780005585,161.46703659999184,161.96745780005585,161.46703659999184,161.96745780005585,161.46703659999184,161.96745780005585,161.46703659999184,None,,,,,,,,,,,,,,,,,,,,,,,,,,,,,,,,,,,,,,,,,,11043,001,2024_Mar_21_0830,nback,2021.2.3,60.06424472987095,
2-back,instructions\back-2.png,conditions\2back-p.xlsx,instructions\2-BACK.png,"(25, 15)",practice,2,3,stim\gray.png,stim\gray.png,stim\yellow.png,stim\gray.png,up,0,0,0,0,0,2,2,2,0,16,16,16,,,,,,,,,,,,,,,,,,,,,,,,,,,162.96920040005352,163.97057370003313,162.96920040005352,163.97057370003313,162.96920040005352,163.97057370003313,162.96920040005352,163.97057370003313,left,0,0.7353442000458017,162.96920040005352,None,162.96920040005352,None,162.96920040005352,163.4710193000501,162.96920040005352,163.4710193000501,162.96920040005352,163.4710193000501,162.96920040005352,163.4710193000501,162.96920040005352,None,,,,,,,,,,,,,,,,,,,,,,,,,,,,,,,,,,,,,,,,,,11043,001,2024_Mar_21_0830,nback,2021.2.3,60.06424472987095,
2-back,instructions\back-2.png,conditions\2back-p.xlsx,instructions\2-BACK.png,"(25, 15)",practice,2,1,stim\yellow.png,stim\gray.png,stim\gray.png,stim\gray.png,left,0,0,0,0,0,2,2,2,0,17,17,17,,,,,,,,,,,,,,,,,,,,,,,,,,,164.4711373000173,165.47292800003197,164.4711373000173,165.47292800003197,164.4711373000173,165.47292800003197,164.4711373000173,165.47292800003197,right,0,0.4974214000394568,164.4711373000173,None,164.4711373000173,None,164.4711373000173,164.97181320004165,164.4711373000173,164.97181320004165,164.4711373000173,164.97181320004165,164.4711373000173,164.97181320004165,164.4711373000173,None,,,,,,,,,,,,,,,,,,,,,,,,,,,,,,,,,,,,,,,,,,11043,001,2024_Mar_21_0830,nback,2021.2.3,60.06424472987095,
2-back,instructions\back-2.png,conditions\2back-p.xlsx,instructions\2-BACK.png,"(25, 15)",practice,2,4,stim\gray.png,stim\gray.png,stim\gray.png,stim\yellow.png,right,0,0,0,0,0,2,2,2,0,18,18,18,,,,,,,,,,,,,,,,,,,,,,,,,,,165.9735088000307,166.9750860000495,165.9735088000307,166.9750860000495,165.9735088000307,166.9750860000495,165.9735088000307,166.9750860000495,up,0,0.45876760000828654,165.9735088000307,None,165.9735088000307,None,165.9735088000307,166.47421090002172,165.9735088000307,166.47421090002172,165.9735088000307,166.47421090002172,165.9735088000307,166.47421090002172,165.9735088000307,None,,,,,,,,,,,,,,,,,,,,,,,,,,,,,,,,,,,,,,,,,,11043,001,2024_Mar_21_0830,nback,2021.2.3,60.06424472987095,
2-back,instructions\back-2.png,conditions\2back-p.xlsx,instructions\2-BACK.png,"(25, 15)",practice,2,2,stim\gray.png,stim\yellow.png,stim\gray.png,stim\gray.png,up,0,0,0,0,0,2,2,2,0,19,19,19,,,,,,,,,,,,,,,,,,,,,,,,,,,167.4757799000945,168.47718290006742,167.4757799000945,168.47718290006742,167.4757799000945,168.47718290006742,167.4757799000945,168.47718290006742,down,0,0.24467769998591393,167.4757799000945,None,167.4757799000945,None,167.4757799000945,167.97726000007242,167.4757799000945,167.97726000007242,167.4757799000945,167.97726000007242,167.4757799000945,167.97726000007242,167.4757799000945,None,,,,,,,,,,,,,,,,,,,,,,,,,,,,,,,,,,,,,,,,,,11043,001,2024_Mar_21_0830,nback,2021.2.3,60.06424472987095,
2-back,instructions\back-2.png,conditions\2back-p.xlsx,instructions\2-BACK.png,"(25, 15)",,,,,,,,,0,0,0,0,0,2,2,2,,,,,,,,,,,,,,,,,,,,,,,,,,,,,,,,,,,,,,,,,,,,,,,,,,,,,,,,,,,,,,,,,,,,,,,,,,,,,,,,,,,,,,,,,,,,,,,,,11043,001,2024_Mar_21_0830,nback,2021.2.3,60.06424472987095,
,,,,,,,,,,,,,0,0,0,0,,,,,,,,,,,,,,,,,,,,,,,,,,,,,,,,,,,,,,,,,,,,,,,,,,,,,,,,,,,,168.97796620009467,None,s,36.2475117999129,168.97796620009467,None,,,,,,,,,,,,,,,,,,,,,,,,,,,,,,,,,,,,11043,001,2024_Mar_21_0830,nback,2021.2.3,60.06424472987095,
0-back,instructions\back-0.png,conditions\0back-p.xlsx,instructions\0-BACK.png,"(15, 8)",practice,0,1,stim\yellow.png,stim\gray.png,stim\gray.png,stim\gray.png,up,1,0,1,0,0,0,0,0,0,0,0,0,,,,,,,,,,,,,,,,,205.3673508000793,None,space,3.2658994999947026,205.3673508000793,None,208.77057200006675,213.27815959998406,213.2288067000918,None,213.6804466000758,214.68036890006624,213.6804466000758,214.68036890006624,213.6804466000758,214.68036890006624,213.6804466000758,214.68036890006624,up,1,0.4734873999841511,213.6804466000758,None,213.6804466000758,None,213.6804466000758,214.19636440009344,213.6804466000758,214.19636440009344,213.6804466000758,214.19636440009344,213.6804466000758,214.19636440009344,213.6804466000758,None,,,,,,,,,,,,,,,,,,,,,,,,,,,,,,,,,,,,,,,,,,11043,001,2024_Mar_21_0830,nback,2021.2.3,60.06424472987095,
0-back,instructions\back-0.png,conditions\0back-p.xlsx,instructions\0-BACK.png,"(15, 8)",practice,0,2,stim\gray.png,stim\yellow.png,stim\gray.png,stim\gray.png,left,1,0,1,0,0,0,0,0,0,1,1,1,,,,,,,,,,,,,,,,,,,,,,,,,,,215.1643549000146,216.16584790009074,215.1643549000146,216.16584790009074,215.1643549000146,216.16584790009074,215.1643549000146,216.16584790009074,left,1,0.4212255000602454,215.1643549000146,None,215.1643549000146,None,215.1643549000146,215.66517130006105,215.1643549000146,215.66517130006105,215.1643549000146,215.66517130006105,215.1643549000146,215.66517130006105,215.1643549000146,None,,,,,,,,,,,,,,,,,,,,,,,,,,,,,,,,,,,,,,,,,,11043,001,2024_Mar_21_0830,nback,2021.2.3,60.06424472987095,
0-back,instructions\back-0.png,conditions\0back-p.xlsx,instructions\0-BACK.png,"(15, 8)",practice,0,3,stim\gray.png,stim\gray.png,stim\yellow.png,stim\gray.png,right,1,0,1,0,0,0,0,0,0,2,2,2,,,,,,,,,,,,,,,,,,,,,,,,,,,216.6677419000771,217.66843200009316,216.6677419000771,217.66843200009316,216.6677419000771,217.66843200009316,216.6677419000771,217.66843200009316,right,1,0.38207330007571727,216.6677419000771,None,216.6677419000771,None,216.6677419000771,217.16740720008966,216.6677419000771,217.16740720008966,216.6677419000771,217.16740720008966,216.6677419000771,217.16740720008966,216.6677419000771,None,,,,,,,,,,,,,,,,,,,,,,,,,,,,,,,,,,,,,,,,,,11043,001,2024_Mar_21_0830,nback,2021.2.3,60.06424472987095,
0-back,instructions\back-0.png,conditions\0back-p.xlsx,instructions\0-BACK.png,"(15, 8)",practice,0,4,stim\gray.png,stim\gray.png,stim\gray.png,stim\yellow.png,down,1,0,1,0,0,0,0,0,0,3,3,3,,,,,,,,,,,,,,,,,,,,,,,,,,,218.1689941000659,219.170427700039,218.1689941000659,219.170427700039,218.1689941000659,219.170427700039,218.1689941000659,219.170427700039,down,1,0.3609495999990031,218.1689941000659,None,218.1689941000659,None,218.1689941000659,218.67030210001394,218.1689941000659,218.67030210001394,218.1689941000659,218.67030210001394,218.1689941000659,218.67030210001394,218.1689941000659,None,,,,,,,,,,,,,,,,,,,,,,,,,,,,,,,,,,,,,,,,,,11043,001,2024_Mar_21_0830,nback,2021.2.3,60.06424472987095,
0-back,instructions\back-0.png,conditions\0back-p.xlsx,instructions\0-BACK.png,"(15, 8)",practice,0,2,stim\gray.png,stim\yellow.png,stim\gray.png,stim\gray.png,left,1,0,1,0,0,0,0,0,0,4,4,4,,,,,,,,,,,,,,,,,,,,,,,,,,,219.6711925000418,220.67276019998826,219.6711925000418,220.67276019998826,219.6711925000418,220.67276019998826,219.6711925000418,220.67276019998826,left,1,0.3787643000250682,219.6711925000418,None,219.6711925000418,None,219.6711925000418,220.1719865000341,219.6711925000418,220.1719865000341,219.6711925000418,220.1719865000341,219.6711925000418,220.1719865000341,219.6711925000418,None,,,,,,,,,,,,,,,,,,,,,,,,,,,,,,,,,,,,,,,,,,11043,001,2024_Mar_21_0830,nback,2021.2.3,60.06424472987095,
0-back,instructions\back-0.png,conditions\0back-p.xlsx,instructions\0-BACK.png,"(15, 8)",practice,0,1,stim\yellow.png,stim\gray.png,stim\gray.png,stim\gray.png,up,1,0,1,0,0,0,0,0,0,5,5,5,,,,,,,,,,,,,,,,,,,,,,,,,,,221.17352270008996,222.17540900001768,221.17352270008996,222.17540900001768,221.17352270008996,222.17540900001768,221.17352270008996,222.17540900001768,up,1,0.38084019999951124,221.17352270008996,None,221.17352270008996,None,221.17352270008996,221.67405880009755,221.17352270008996,221.67405880009755,221.17352270008996,221.67405880009755,221.17352270008996,221.67405880009755,221.17352270008996,None,,,,,,,,,,,,,,,,,,,,,,,,,,,,,,,,,,,,,,,,,,11043,001,2024_Mar_21_0830,nback,2021.2.3,60.06424472987095,
0-back,instructions\back-0.png,conditions\0back-p.xlsx,instructions\0-BACK.png,"(15, 8)",practice,0,4,stim\gray.png,stim\gray.png,stim\gray.png,stim\yellow.png,down,1,0,1,0,0,0,0,0,0,6,6,6,,,,,,,,,,,,,,,,,,,,,,,,,,,222.65903300000355,223.6611401999835,222.65903300000355,223.6611401999835,222.65903300000355,223.6611401999835,222.65903300000355,223.6611401999835,down,1,0.43945619999431074,222.65903300000355,None,222.65903300000355,None,222.65903300000355,223.1599167000968,222.65903300000355,223.1599167000968,222.65903300000355,223.1599167000968,222.65903300000355,223.1599167000968,222.65903300000355,None,,,,,,,,,,,,,,,,,,,,,,,,,,,,,,,,,,,,,,,,,,11043,001,2024_Mar_21_0830,nback,2021.2.3,60.06424472987095,
0-back,instructions\back-0.png,conditions\0back-p.xlsx,instructions\0-BACK.png,"(15, 8)",practice,0,3,stim\gray.png,stim\gray.png,stim\yellow.png,stim\gray.png,right,1,0,1,0,0,0,0,0,0,7,7,7,,,,,,,,,,,,,,,,,,,,,,,,,,,224.16132479999214,225.16431340004783,224.16132479999214,225.16431340004783,224.16132479999214,225.16431340004783,224.16132479999214,225.16431340004783,right,1,0.3527573999017477,224.16132479999214,None,224.16132479999214,None,224.16132479999214,224.6619187000906,224.16132479999214,224.6619187000906,224.16132479999214,224.6619187000906,224.16132479999214,224.6619187000906,224.16132479999214,None,,,,,,,,,,,,,,,,,,,,,,,,,,,,,,,,,,,,,,,,,,11043,001,2024_Mar_21_0830,nback,2021.2.3,60.06424472987095,
0-back,instructions\back-0.png,conditions\0back-p.xlsx,instructions\0-BACK.png,"(15, 8)",practice,0,3,stim\gray.png,stim\gray.png,stim\yellow.png,stim\gray.png,right,1,0,1,0,0,0,0,0,0,8,8,8,,,,,,,,,,,,,,,,,,,,,,,,,,,225.6635140000144,226.66495630005375,225.6635140000144,226.66495630005375,225.6635140000144,226.66495630005375,225.6635140000144,226.66495630005375,right,1,0.39455079997424036,225.6635140000144,None,225.6635140000144,None,225.6635140000144,226.16421170008834,225.6635140000144,226.16421170008834,225.6635140000144,226.16421170008834,225.6635140000144,226.16421170008834,225.6635140000144,None,,,,,,,,,,,,,,,,,,,,,,,,,,,,,,,,,,,,,,,,,,11043,001,2024_Mar_21_0830,nback,2021.2.3,60.06424472987095,
0-back,instructions\back-0.png,conditions\0back-p.xlsx,instructions\0-BACK.png,"(15, 8)",practice,0,4,stim\gray.png,stim\gray.png,stim\gray.png,stim\yellow.png,down,1,0,1,0,0,0,0,0,0,9,9,9,,,,,,,,,,,,,,,,,,,,,,,,,,,227.16553140000906,228.16759269998875,227.16553140000906,228.16759269998875,227.16553140000906,228.16759269998875,227.16553140000906,228.16759269998875,down,1,0.4445514000253752,227.16553140000906,None,227.16553140000906,None,227.16553140000906,227.66665510006715,227.16553140000906,227.66665510006715,227.16553140000906,227.66665510006715,227.16553140000906,227.66665510006715,227.16553140000906,None,,,,,,,,,,,,,,,,,,,,,,,,,,,,,,,,,,,,,,,,,,11043,001,2024_Mar_21_0830,nback,2021.2.3,60.06424472987095,
0-back,instructions\back-0.png,conditions\0back-p.xlsx,instructions\0-BACK.png,"(15, 8)",practice,0,1,stim\yellow.png,stim\gray.png,stim\gray.png,stim\gray.png,up,1,0,1,0,0,0,0,0,0,10,10,10,,,,,,,,,,,,,,,,,,,,,,,,,,,228.66891990008298,229.67037900001742,228.66891990008298,229.67037900001742,228.66891990008298,229.67037900001742,228.66891990008298,229.67037900001742,up,1,0.3810484999557957,228.66891990008298,None,228.66891990008298,None,228.66891990008298,229.16885920008644,228.66891990008298,229.16885920008644,228.66891990008298,229.16885920008644,228.66891990008298,229.16885920008644,228.66891990008298,None,,,,,,,,,,,,,,,,,,,,,,,,,,,,,,,,,,,,,,,,,,11043,001,2024_Mar_21_0830,nback,2021.2.3,60.06424472987095,
0-back,instructions\back-0.png,conditions\0back-p.xlsx,instructions\0-BACK.png,"(15, 8)",practice,0,2,stim\gray.png,stim\yellow.png,stim\gray.png,stim\gray.png,left,1,0,1,0,0,0,0,0,0,11,11,11,,,,,,,,,,,,,,,,,,,,,,,,,,,230.17028680001386,231.17181309999432,230.17028680001386,231.17181309999432,230.17028680001386,231.17181309999432,230.17028680001386,231.17181309999432,left,1,0.45582259993534535,230.17028680001386,None,230.17028680001386,None,230.17028680001386,230.6711388999829,230.17028680001386,230.6711388999829,230.17028680001386,230.6711388999829,230.17028680001386,230.6711388999829,230.17028680001386,None,,,,,,,,,,,,,,,,,,,,,,,,,,,,,,,,,,,,,,,,,,11043,001,2024_Mar_21_0830,nback,2021.2.3,60.06424472987095,
0-back,instructions\back-0.png,conditions\0back-p.xlsx,instructions\0-BACK.png,"(15, 8)",practice,0,4,stim\gray.png,stim\gray.png,stim\gray.png,stim\yellow.png,down,1,0,1,0,0,0,0,0,0,12,12,12,,,,,,,,,,,,,,,,,,,,,,,,,,,231.67264640005305,232.67429980007,231.67264640005305,232.67429980007,231.67264640005305,232.67429980007,231.67264640005305,232.67429980007,down,1,0.4182037999853492,231.67264640005305,None,231.67264640005305,None,231.67264640005305,232.1734504000051,231.67264640005305,232.1734504000051,231.67264640005305,232.1734504000051,231.67264640005305,232.1734504000051,231.67264640005305,None,,,,,,,,,,,,,,,,,,,,,,,,,,,,,,,,,,,,,,,,,,11043,001,2024_Mar_21_0830,nback,2021.2.3,60.06424472987095,
0-back,instructions\back-0.png,conditions\0back-p.xlsx,instructions\0-BACK.png,"(15, 8)",practice,0,3,stim\gray.png,stim\gray.png,stim\yellow.png,stim\gray.png,right,1,0,1,0,0,0,0,0,0,13,13,13,,,,,,,,,,,,,,,,,,,,,,,,,,,233.17489860008936,234.17643960006535,233.17489860008936,234.17643960006535,233.17489860008936,234.17643960006535,233.17489860008936,234.17643960006535,right,1,0.3474117999430746,233.17489860008936,None,233.17489860008936,None,233.17489860008936,233.6755579999881,233.17489860008936,233.6755579999881,233.17489860008936,233.6755579999881,233.17489860008936,233.6755579999881,233.17489860008936,None,,,,,,,,,,,,,,,,,,,,,,,,,,,,,,,,,,,,,,,,,,11043,001,2024_Mar_21_0830,nback,2021.2.3,60.06424472987095,
0-back,instructions\back-0.png,conditions\0back-p.xlsx,instructions\0-BACK.png,"(15, 8)",practice,0,1,stim\yellow.png,stim\gray.png,stim\gray.png,stim\gray.png,up,1,0,1,0,0,0,0,0,0,14,14,14,,,,,,,,,,,,,,,,,,,,,,,,,,,234.6605255000759,235.66248559998348,234.6605255000759,235.66248559998348,234.6605255000759,235.66248559998348,234.6605255000759,235.66248559998348,up,1,0.41351720003876835,234.6605255000759,None,234.6605255000759,None,234.6605255000759,235.16160440002568,234.6605255000759,235.16160440002568,234.6605255000759,235.16160440002568,234.6605255000759,235.16160440002568,234.6605255000759,None,,,,,,,,,,,,,,,,,,,,,,,,,,,,,,,,,,,,,,,,,,11043,001,2024_Mar_21_0830,nback,2021.2.3,60.06424472987095,
0-back,instructions\back-0.png,conditions\0back-p.xlsx,instructions\0-BACK.png,"(15, 8)",practice,0,2,stim\gray.png,stim\yellow.png,stim\gray.png,stim\gray.png,left,1,0,1,0,0,0,0,0,0,15,15,15,,,,,,,,,,,,,,,,,,,,,,,,,,,236.16254699998535,237.16434650006704,236.16254699998535,237.16434650006704,236.16254699998535,237.16434650006704,236.16254699998535,237.16434650006704,left,1,0.32795639999676496,236.16254699998535,None,236.16254699998535,None,236.16254699998535,236.66354960005265,236.16254699998535,236.66354960005265,236.16254699998535,236.66354960005265,236.16254699998535,236.66354960005265,236.16254699998535,None,,,,,,,,,,,,,,,,,,,,,,,,,,,,,,,,,,,,,,,,,,11043,001,2024_Mar_21_0830,nback,2021.2.3,60.06424472987095,
0-back,instructions\back-0.png,conditions\0back-p.xlsx,instructions\0-BACK.png,"(15, 8)",practice,0,3,stim\gray.png,stim\gray.png,stim\yellow.png,stim\gray.png,right,1,0,1,0,0,0,0,0,0,16,16,16,,,,,,,,,,,,,,,,,,,,,,,,,,,237.6648709999863,238.6673212000169,237.6648709999863,238.6673212000169,237.6648709999863,238.6673212000169,237.6648709999863,238.6673212000169,right,1,0.41795290005393326,237.6648709999863,None,237.6648709999863,None,237.6648709999863,238.16589679999743,237.6648709999863,238.16589679999743,237.6648709999863,238.16589679999743,237.6648709999863,238.16589679999743,237.6648709999863,None,,,,,,,,,,,,,,,,,,,,,,,,,,,,,,,,,,,,,,,,,,11043,001,2024_Mar_21_0830,nback,2021.2.3,60.06424472987095,
0-back,instructions\back-0.png,conditions\0back-p.xlsx,instructions\0-BACK.png,"(15, 8)",practice,0,1,stim\yellow.png,stim\gray.png,stim\gray.png,stim\gray.png,up,1,0,1,0,0,0,0,0,0,17,17,17,,,,,,,,,,,,,,,,,,,,,,,,,,,239.1672066000756,240.1687654000707,239.1672066000756,240.1687654000707,239.1672066000756,240.1687654000707,239.1672066000756,240.1687654000707,up,1,0.4028558999998495,239.1672066000756,None,239.1672066000756,None,239.1672066000756,239.66809290007222,239.1672066000756,239.66809290007222,239.1672066000756,239.66809290007222,239.1672066000756,239.66809290007222,239.1672066000756,None,,,,,,,,,,,,,,,,,,,,,,,,,,,,,,,,,,,,,,,,,,11043,001,2024_Mar_21_0830,nback,2021.2.3,60.06424472987095,
0-back,instructions\back-0.png,conditions\0back-p.xlsx,instructions\0-BACK.png,"(15, 8)",practice,0,4,stim\gray.png,stim\gray.png,stim\gray.png,stim\yellow.png,down,1,0,1,0,0,0,0,0,0,18,18,18,,,,,,,,,,,,,,,,,,,,,,,,,,,240.66944540000986,241.67099880008027,240.66944540000986,241.67099880008027,240.66944540000986,241.67099880008027,240.66944540000986,241.67099880008027,down,1,0.4375075000571087,240.66944540000986,None,240.66944540000986,None,240.66944540000986,241.17023070005234,240.66944540000986,241.17023070005234,240.66944540000986,241.17023070005234,240.66944540000986,241.17023070005234,240.66944540000986,None,,,,,,,,,,,,,,,,,,,,,,,,,,,,,,,,,,,,,,,,,,11043,001,2024_Mar_21_0830,nback,2021.2.3,60.06424472987095,
0-back,instructions\back-0.png,conditions\0back-p.xlsx,instructions\0-BACK.png,"(15, 8)",practice,0,2,stim\gray.png,stim\yellow.png,stim\gray.png,stim\gray.png,left,1,0,1,0,0,0,0,0,0,19,19,19,,,,,,,,,,,,,,,,,,,,,,,,,,,242.1718093000818,243.17374570004176,242.1718093000818,243.17374570004176,242.1718093000818,243.17374570004176,242.1718093000818,243.17374570004176,left,1,0.39123800001107156,242.1718093000818,None,242.1718093000818,None,242.1718093000818,242.67237829999067,242.1718093000818,242.67237829999067,242.1718093000818,242.67237829999067,242.1718093000818,242.67237829999067,242.1718093000818,None,,,,,,,,,,,,,,,,,,,,,,,,,,,,,,,,,,,,,,,,,,11043,001,2024_Mar_21_0830,nback,2021.2.3,60.06424472987095,
0-back,instructions\back-0.png,conditions\0back-p.xlsx,instructions\0-BACK.png,"(15, 8)",,,,,,,,,1,0,1,0,0,0,0,0,,,,,,,,,,,,,,,,,,,,,,,,,,,,,,,,,,,,,,,,,,,,,,,,,,,,,,,,,,,,,,,,,,,,,,,,,,,,,,,,,,,,,,,,,,,,,,,,,11043,001,2024_Mar_21_0830,nback,2021.2.3,60.06424472987095,
1-back,instructions\back-1.png,conditions\1back-p.xlsx,instructions\1-BACK.png,"(25, 15)",practice,1,1,stim\yellow.png,stim\gray.png,stim\gray.png,stim\gray.png,None,1,0,1,0,0,1,1,1,0,0,0,0,,,,,,,,,,,,,,,,,243.84076450008433,None,space,1.8735881000757217,243.84076450008433,None,245.84393720002845,250.3520525000058,250.33402330009267,None,250.76821470004506,251.7695044000866,250.76821470004506,251.7695044000866,250.76821470004506,251.7695044000866,250.76821470004506,251.7695044000866,None,1,,250.76821470004506,None,250.76821470004506,None,250.76821470004506,251.26898060005624,250.76821470004506,251.26898060005624,250.76821470004506,251.26898060005624,250.76821470004506,251.26898060005624,250.76821470004506,None,,,,,,,,,,,,,,,,,,,,,,,,,,,,,,,,,,,,,,,,,,11043,001,2024_Mar_21_0830,nback,2021.2.3,60.06424472987095,
1-back,instructions\back-1.png,conditions\1back-p.xlsx,instructions\1-BACK.png,"(25, 15)",practice,1,2,stim\gray.png,stim\yellow.png,stim\gray.png,stim\gray.png,up,1,0,1,0,0,1,1,1,0,1,1,1,,,,,,,,,,,,,,,,,,,,,,,,,,,252.25376670004334,253.25577879999764,252.25376670004334,253.25577879999764,252.25376670004334,253.25577879999764,252.25376670004334,253.25577879999764,up,1,0.7269908000016585,252.25376670004334,None,252.25376670004334,None,252.25376670004334,252.75442440004554,252.25376670004334,252.75442440004554,252.25376670004334,252.75442440004554,252.25376670004334,252.75442440004554,252.25376670004334,None,,,,,,,,,,,,,,,,,,,,,,,,,,,,,,,,,,,,,,,,,,11043,001,2024_Mar_21_0830,nback,2021.2.3,60.06424472987095,
1-back,instructions\back-1.png,conditions\1back-p.xlsx,instructions\1-BACK.png,"(25, 15)",practice,1,3,stim\gray.png,stim\gray.png,stim\yellow.png,stim\gray.png,left,1,0,1,0,0,1,1,1,0,2,2,2,,,,,,,,,,,,,,,,,,,,,,,,,,,253.75599630002398,254.75746330001857,253.75599630002398,254.75746330001857,253.75599630002398,254.75746330001857,253.75599630002398,254.75746330001857,left,1,0.950705400086008,253.75599630002398,None,253.75599630002398,None,253.75599630002398,254.25678400008474,253.75599630002398,254.25678400008474,253.75599630002398,254.25678400008474,253.75599630002398,254.25678400008474,253.75599630002398,None,,,,,,,,,,,,,,,,,,,,,,,,,,,,,,,,,,,,,,,,,,11043,001,2024_Mar_21_0830,nback,2021.2.3,60.06424472987095,
1-back,instructions\back-1.png,conditions\1back-p.xlsx,instructions\1-BACK.png,"(25, 15)",practice,1,4,stim\gray.png,stim\gray.png,stim\gray.png,stim\yellow.png,right,1,0,1,0,0,1,1,1,0,3,3,3,,,,,,,,,,,,,,,,,,,,,,,,,,,255.25816900003701,256.2596032000147,255.25816900003701,256.2596032000147,255.25816900003701,256.2596032000147,255.25816900003701,256.2596032000147,right,1,0.8724804000230506,255.25816900003701,None,255.25816900003701,None,255.25816900003701,255.75957890006248,255.25816900003701,255.75957890006248,255.25816900003701,255.75957890006248,255.25816900003701,255.75957890006248,255.25816900003701,None,,,,,,,,,,,,,,,,,,,,,,,,,,,,,,,,,,,,,,,,,,11043,001,2024_Mar_21_0830,nback,2021.2.3,60.06424472987095,
1-back,instructions\back-1.png,conditions\1back-p.xlsx,instructions\1-BACK.png,"(25, 15)",practice,1,2,stim\gray.png,stim\yellow.png,stim\gray.png,stim\gray.png,down,1,0,1,0,0,1,1,1,0,4,4,4,,,,,,,,,,,,,,,,,,,,,,,,,,,256.76053500000853,257.76192280009855,256.76053500000853,257.76192280009855,256.76053500000853,257.76192280009855,256.76053500000853,257.76192280009855,down,1,0.6983600999228656,256.76053500000853,None,256.76053500000853,None,256.76053500000853,257.2610171000706,256.76053500000853,257.2610171000706,256.76053500000853,257.2610171000706,256.76053500000853,257.2610171000706,256.76053500000853,None,,,,,,,,,,,,,,,,,,,,,,,,,,,,,,,,,,,,,,,,,,11043,001,2024_Mar_21_0830,nback,2021.2.3,60.06424472987095,
1-back,instructions\back-1.png,conditions\1back-p.xlsx,instructions\1-BACK.png,"(25, 15)",practice,1,1,stim\yellow.png,stim\gray.png,stim\gray.png,stim\gray.png,left,1,0,1,0,0,1,1,1,0,5,5,5,,,,,,,,,,,,,,,,,,,,,,,,,,,258.2627565000439,259.2640305000823,258.2627565000439,259.2640305000823,258.2627565000439,259.2640305000823,258.2627565000439,259.2640305000823,left,1,0.5165291000157595,258.2627565000439,None,258.2627565000439,None,258.2627565000439,258.763340500067,258.2627565000439,258.763340500067,258.2627565000439,258.763340500067,258.2627565000439,258.763340500067,258.2627565000439,None,,,,,,,,,,,,,,,,,,,,,,,,,,,,,,,,,,,,,,,,,,11043,001,2024_Mar_21_0830,nback,2021.2.3,60.06424472987095,
1-back,instructions\back-1.png,conditions\1back-p.xlsx,instructions\1-BACK.png,"(25, 15)",practice,1,4,stim\gray.png,stim\gray.png,stim\gray.png,stim\yellow.png,up,1,0,1,0,0,1,1,1,0,6,6,6,,,,,,,,,,,,,,,,,,,,,,,,,,,259.74823040002957,260.7514063999988,259.74823040002957,260.7514063999988,259.74823040002957,260.7514063999988,259.74823040002957,260.7514063999988,up,1,0.5024852000642568,259.74823040002957,None,259.74823040002957,None,259.74823040002957,260.2493211000692,259.74823040002957,260.2493211000692,259.74823040002957,260.2493211000692,259.74823040002957,260.2493211000692,259.74823040002957,None,,,,,,,,,,,,,,,,,,,,,,,,,,,,,,,,,,,,,,,,,,11043,001,2024_Mar_21_0830,nback,2021.2.3,60.06424472987095,
1-back,instructions\back-1.png,conditions\1back-p.xlsx,instructions\1-BACK.png,"(25, 15)",practice,1,3,stim\gray.png,stim\gray.png,stim\yellow.png,stim\gray.png,down,1,0,1,0,0,1,1,1,0,7,7,7,,,,,,,,,,,,,,,,,,,,,,,,,,,261.2505477000959,262.2520166999893,261.2505477000959,262.2520166999893,261.2505477000959,262.2520166999893,261.2505477000959,262.2520166999893,down,1,0.4412000000011176,261.2505477000959,None,261.2505477000959,None,261.2505477000959,261.7512721000239,261.2505477000959,261.7512721000239,261.2505477000959,261.7512721000239,261.2505477000959,261.7512721000239,261.2505477000959,None,,,,,,,,,,,,,,,,,,,,,,,,,,,,,,,,,,,,,,,,,,11043,001,2024_Mar_21_0830,nback,2021.2.3,60.06424472987095,
1-back,instructions\back-1.png,conditions\1back-p.xlsx,instructions\1-BACK.png,"(25, 15)",practice,1,3,stim\gray.png,stim\gray.png,stim\yellow.png,stim\gray.png,right,1,0,1,0,0,1,1,1,0,8,8,8,,,,,,,,,,,,,,,,,,,,,,,,,,,262.7527194999857,263.7543719999958,262.7527194999857,263.7543719999958,262.7527194999857,263.7543719999958,262.7527194999857,263.7543719999958,right,1,0.4510832999367267,262.7527194999857,None,262.7527194999857,None,262.7527194999857,263.25397960003465,262.7527194999857,263.25397960003465,262.7527194999857,263.25397960003465,262.7527194999857,263.25397960003465,262.7527194999857,None,,,,,,,,,,,,,,,,,,,,,,,,,,,,,,,,,,,,,,,,,,11043,001,2024_Mar_21_0830,nback,2021.2.3,60.06424472987095,
1-back,instructions\back-1.png,conditions\1back-p.xlsx,instructions\1-BACK.png,"(25, 15)",practice,1,4,stim\gray.png,stim\gray.png,stim\gray.png,stim\yellow.png,right,1,0,1,0,0,1,1,1,0,9,9,9,,,,,,,,,,,,,,,,,,,,,,,,,,,264.25509290001355,265.2566364000086,264.25509290001355,265.2566364000086,264.25509290001355,265.2566364000086,264.25509290001355,265.2566364000086,right,1,0.48447529994882643,264.25509290001355,None,264.25509290001355,None,264.25509290001355,264.75569370004814,264.25509290001355,264.75569370004814,264.25509290001355,264.75569370004814,264.25509290001355,264.75569370004814,264.25509290001355,None,,,,,,,,,,,,,,,,,,,,,,,,,,,,,,,,,,,,,,,,,,11043,001,2024_Mar_21_0830,nback,2021.2.3,60.06424472987095,
1-back,instructions\back-1.png,conditions\1back-p.xlsx,instructions\1-BACK.png,"(25, 15)",practice,1,1,stim\yellow.png,stim\gray.png,stim\gray.png,stim\gray.png,down,1,0,1,0,0,1,1,1,0,10,10,10,,,,,,,,,,,,,,,,,,,,,,,,,,,265.7572878000792,266.7594084000448,265.7572878000792,266.7594084000448,265.7572878000792,266.7594084000448,265.7572878000792,266.7594084000448,down,1,0.5978895999724045,265.7572878000792,None,265.7572878000792,None,265.7572878000792,266.2591220000759,265.7572878000792,266.2591220000759,265.7572878000792,266.2591220000759,265.7572878000792,266.2591220000759,265.7572878000792,None,,,,,,,,,,,,,,,,,,,,,,,,,,,,,,,,,,,,,,,,,,11043,001,2024_Mar_21_0830,nback,2021.2.3,60.06424472987095,
1-back,instructions\back-1.png,conditions\1back-p.xlsx,instructions\1-BACK.png,"(25, 15)",practice,1,2,stim\gray.png,stim\yellow.png,stim\gray.png,stim\gray.png,up,1,0,1,0,0,1,1,1,0,11,11,11,,,,,,,,,,,,,,,,,,,,,,,,,,,267.26009820005856,268.2611881000921,267.26009820005856,268.2611881000921,267.26009820005856,268.2611881000921,267.26009820005856,268.2611881000921,up,1,0.5591647999826819,267.26009820005856,None,267.26009820005856,None,267.26009820005856,267.76164150005206,267.26009820005856,267.76164150005206,267.26009820005856,267.76164150005206,267.26009820005856,267.76164150005206,267.26009820005856,None,,,,,,,,,,,,,,,,,,,,,,,,,,,,,,,,,,,,,,,,,,11043,001,2024_Mar_21_0830,nback,2021.2.3,60.06424472987095,
1-back,instructions\back-1.png,conditions\1back-p.xlsx,instructions\1-BACK.png,"(25, 15)",practice,1,4,stim\gray.png,stim\gray.png,stim\gray.png,stim\yellow.png,left,1,0,1,0,0,1,1,1,0,12,12,12,,,,,,,,,,,,,,,,,,,,,,,,,,,268.7621056000935,269.7633208000334,268.7621056000935,269.7633208000334,268.7621056000935,269.7633208000334,268.7621056000935,269.7633208000334,left,1,0.6248741999734193,268.7621056000935,None,268.7621056000935,None,268.7621056000935,269.26283890008926,268.7621056000935,269.26283890008926,268.7621056000935,269.26283890008926,268.7621056000935,269.26283890008926,268.7621056000935,None,,,,,,,,,,,,,,,,,,,,,,,,,,,,,,,,,,,,,,,,,,11043,001,2024_Mar_21_0830,nback,2021.2.3,60.06424472987095,
1-back,instructions\back-1.png,conditions\1back-p.xlsx,instructions\1-BACK.png,"(25, 15)",practice,1,3,stim\gray.png,stim\gray.png,stim\yellow.png,stim\gray.png,down,1,0,1,0,0,1,1,1,0,13,13,13,,,,,,,,,,,,,,,,,,,,,,,,,,,270.2639369000681,271.2654865999939,270.2639369000681,271.2654865999939,270.2639369000681,271.2654865999939,270.2639369000681,271.2654865999939,down,1,1.1553790000034496,270.2639369000681,None,270.2639369000681,None,270.2639369000681,270.7648912000004,270.2639369000681,270.7648912000004,270.2639369000681,270.7648912000004,270.2639369000681,270.7648912000004,270.2639369000681,None,,,,,,,,,,,,,,,,,,,,,,,,,,,,,,,,,,,,,,,,,,11043,001,2024_Mar_21_0830,nback,2021.2.3,60.06424472987095,
1-back,instructions\back-1.png,conditions\1back-p.xlsx,instructions\1-BACK.png,"(25, 15)",practice,1,1,stim\yellow.png,stim\gray.png,stim\gray.png,stim\gray.png,right,1,0,1,0,0,1,1,1,0,14,14,14,,,,,,,,,,,,,,,,,,,,,,,,,,,271.74938669998664,272.75125520001166,271.74938669998664,272.75125520001166,271.74938669998664,272.75125520001166,271.74938669998664,272.75125520001166,right,1,0.7902831999817863,271.74938669998664,None,271.74938669998664,None,271.74938669998664,272.25041310000233,271.74938669998664,272.25041310000233,271.74938669998664,272.25041310000233,271.74938669998664,272.25041310000233,271.74938669998664,None,,,,,,,,,,,,,,,,,,,,,,,,,,,,,,,,,,,,,,,,,,11043,001,2024_Mar_21_0830,nback,2021.2.3,60.06424472987095,
1-back,instructions\back-1.png,conditions\1back-p.xlsx,instructions\1-BACK.png,"(25, 15)",practice,1,2,stim\gray.png,stim\yellow.png,stim\gray.png,stim\gray.png,up,1,0,1,0,0,1,1,1,0,15,15,15,,,,,,,,,,,,,,,,,,,,,,,,,,,273.2518207000103,274.2537376000546,273.2518207000103,274.2537376000546,273.2518207000103,274.2537376000546,273.2518207000103,274.2537376000546,up,1,0.6241665999405086,273.2518207000103,None,273.2518207000103,None,273.2518207000103,273.7534007000504,273.2518207000103,273.7534007000504,273.2518207000103,273.7534007000504,273.2518207000103,273.7534007000504,273.2518207000103,None,,,,,,,,,,,,,,,,,,,,,,,,,,,,,,,,,,,,,,,,,,11043,001,2024_Mar_21_0830,nback,2021.2.3,60.06424472987095,
1-back,instructions\back-1.png,conditions\1back-p.xlsx,instructions\1-BACK.png,"(25, 15)",practice,1,3,stim\gray.png,stim\gray.png,stim\yellow.png,stim\gray.png,left,1,0,1,0,0,1,1,1,0,16,16,16,,,,,,,,,,,,,,,,,,,,,,,,,,,274.7543352000648,275.75579050008673,274.7543352000648,275.75579050008673,274.7543352000648,275.75579050008673,274.7543352000648,275.75579050008673,left,1,0.39314249996095896,274.7543352000648,None,274.7543352000648,None,274.7543352000648,275.25597230007406,274.7543352000648,275.25597230007406,274.7543352000648,275.25597230007406,274.7543352000648,275.25597230007406,274.7543352000648,None,,,,,,,,,,,,,,,,,,,,,,,,,,,,,,,,,,,,,,,,,,11043,001,2024_Mar_21_0830,nback,2021.2.3,60.06424472987095,
1-back,instructions\back-1.png,conditions\1back-p.xlsx,instructions\1-BACK.png,"(25, 15)",practice,1,1,stim\yellow.png,stim\gray.png,stim\gray.png,stim\gray.png,right,1,0,1,0,0,1,1,1,0,17,17,17,,,,,,,,,,,,,,,,,,,,,,,,,,,276.25709570001345,277.2579889000626,276.25709570001345,277.2579889000626,276.25709570001345,277.2579889000626,276.25709570001345,277.2579889000626,right,1,0.4102641000645235,276.25709570001345,None,276.25709570001345,None,276.25709570001345,276.7571134000318,276.25709570001345,276.7571134000318,276.25709570001345,276.7571134000318,276.25709570001345,276.7571134000318,276.25709570001345,None,,,,,,,,,,,,,,,,,,,,,,,,,,,,,,,,,,,,,,,,,,11043,001,2024_Mar_21_0830,nback,2021.2.3,60.06424472987095,
1-back,instructions\back-1.png,conditions\1back-p.xlsx,instructions\1-BACK.png,"(25, 15)",practice,1,4,stim\gray.png,stim\gray.png,stim\gray.png,stim\yellow.png,up,1,0,1,0,0,1,1,1,0,18,18,18,,,,,,,,,,,,,,,,,,,,,,,,,,,277.7588112000376,278.7603274000576,277.7588112000376,278.7603274000576,277.7588112000376,278.7603274000576,277.7588112000376,278.7603274000576,up,1,0.46861270000226796,277.7588112000376,None,277.7588112000376,None,277.7588112000376,278.25959480006713,277.7588112000376,278.25959480006713,277.7588112000376,278.25959480006713,277.7588112000376,278.25959480006713,277.7588112000376,None,,,,,,,,,,,,,,,,,,,,,,,,,,,,,,,,,,,,,,,,,,11043,001,2024_Mar_21_0830,nback,2021.2.3,60.06424472987095,
1-back,instructions\back-1.png,conditions\1back-p.xlsx,instructions\1-BACK.png,"(25, 15)",practice,1,2,stim\gray.png,stim\yellow.png,stim\gray.png,stim\gray.png,down,1,0,1,0,0,1,1,1,0,19,19,19,,,,,,,,,,,,,,,,,,,,,,,,,,,279.2608148000436,280.26240350003354,279.2608148000436,280.26240350003354,279.2608148000436,280.26240350003354,279.2608148000436,280.26240350003354,down,1,0.2948688000906259,279.2608148000436,None,279.2608148000436,None,279.2608148000436,279.7617806000635,279.2608148000436,279.7617806000635,279.2608148000436,279.7617806000635,279.2608148000436,279.7617806000635,279.2608148000436,None,,,,,,,,,,,,,,,,,,,,,,,,,,,,,,,,,,,,,,,,,,11043,001,2024_Mar_21_0830,nback,2021.2.3,60.06424472987095,
1-back,instructions\back-1.png,conditions\1back-p.xlsx,instructions\1-BACK.png,"(25, 15)",,,,,,,,,1,0,1,0,0,1,1,1,,,,,,,,,,,,,,,,,,,,,,,,,,,,,,,,,,,,,,,,,,,,,,,,,,,,,,,,,,,,,,,,,,,,,,,,,,,,,,,,,,,,,,,,,,,,,,,,,11043,001,2024_Mar_21_0830,nback,2021.2.3,60.06424472987095,
2-back,instructions\back-2.png,conditions\2back-p.xlsx,instructions\2-BACK.png,"(25, 15)",practice,2,1,stim\yellow.png,stim\gray.png,stim\gray.png,stim\gray.png,None,1,0,1,0,0,2,2,2,0,0,0,0,,,,,,,,,,,,,,,,,280.9304362999974,None,space,8.74523679993581,280.9304362999974,None,289.860291399993,294.3687184000155,294.30121780000627,None,294.7183927000733,295.71921610005666,294.7183927000733,295.71921610005666,294.7183927000733,295.71921610005666,294.7183927000733,295.71921610005666,None,1,,294.7183927000733,None,294.7183927000733,None,294.7183927000733,295.21848760009743,294.7183927000733,295.21848760009743,294.7183927000733,295.21848760009743,294.7183927000733,295.21848760009743,294.7183927000733,None,,,,,,,,,,,,,,,,,,,,,,,,,,,,,,,,,,,,,,,,,,11043,001,2024_Mar_21_0830,nback,2021.2.3,60.06424472987095,
2-back,instructions\back-2.png,conditions\2back-p.xlsx,instructions\2-BACK.png,"(25, 15)",practice,2,2,stim\gray.png,stim\yellow.png,stim\gray.png,stim\gray.png,None,1,0,1,0,0,2,2,2,0,1,1,1,,,,,,,,,,,,,,,,,,,,,,,,,,,296.2031809000764,297.20467310003005,296.2031809000764,297.20467310003005,296.2031809000764,297.20467310003005,296.2031809000764,297.20467310003005,None,1,,296.2031809000764,None,296.2031809000764,None,296.2031809000764,296.7039452000754,296.2031809000764,296.7039452000754,296.2031809000764,296.7039452000754,296.2031809000764,296.7039452000754,296.2031809000764,None,,,,,,,,,,,,,,,,,,,,,,,,,,,,,,,,,,,,,,,,,,11043,001,2024_Mar_21_0830,nback,2021.2.3,60.06424472987095,
2-back,instructions\back-2.png,conditions\2back-p.xlsx,instructions\2-BACK.png,"(25, 15)",practice,2,3,stim\gray.png,stim\gray.png,stim\yellow.png,stim\gray.png,up,1,0,1,0,0,2,2,2,0,2,2,2,,,,,,,,,,,,,,,,,,,,,,,,,,,297.705520800082,298.7070946000749,297.705520800082,298.7070946000749,297.705520800082,298.7070946000749,297.705520800082,298.7070946000749,up,1,0.6104208000469953,297.705520800082,None,297.705520800082,None,297.705520800082,298.2061100000283,297.705520800082,298.2061100000283,297.705520800082,298.2061100000283,297.705520800082,298.2061100000283,297.705520800082,None,,,,,,,,,,,,,,,,,,,,,,,,,,,,,,,,,,,,,,,,,,11043,001,2024_Mar_21_0830,nback,2021.2.3,60.06424472987095,
2-back,instructions\back-2.png,conditions\2back-p.xlsx,instructions\2-BACK.png,"(25, 15)",practice,2,4,stim\gray.png,stim\gray.png,stim\gray.png,stim\yellow.png,left,1,0,1,0,0,2,2,2,0,3,3,3,,,,,,,,,,,,,,,,,,,,,,,,,,,299.20769419998396,300.20936430001166,299.20769419998396,300.20936430001166,299.20769419998396,300.20936430001166,299.20769419998396,300.20936430001166,left,1,0.940310399979353,299.20769419998396,None,299.20769419998396,None,299.20769419998396,299.7083924000617,299.20769419998396,299.7083924000617,299.20769419998396,299.7083924000617,299.20769419998396,299.7083924000617,299.20769419998396,None,,,,,,,,,,,,,,,,,,,,,,,,,,,,,,,,,,,,,,,,,,11043,001,2024_Mar_21_0830,nback,2021.2.3,60.06424472987095,
2-back,instructions\back-2.png,conditions\2back-p.xlsx,instructions\2-BACK.png,"(25, 15)",practice,2,2,stim\gray.png,stim\yellow.png,stim\gray.png,stim\gray.png,right,1,0,1,0,0,2,2,2,0,4,4,4,,,,,,,,,,,,,,,,,,,,,,,,,,,300.70999640005175,301.71165300009307,300.70999640005175,301.71165300009307,300.70999640005175,301.71165300009307,300.70999640005175,301.71165300009307,right,1,0.9821441000094637,300.70999640005175,None,300.70999640005175,None,300.70999640005175,301.2109163000714,300.70999640005175,301.2109163000714,300.70999640005175,301.2109163000714,300.70999640005175,301.2109163000714,300.70999640005175,None,,,,,,,,,,,,,,,,,,,,,,,,,,,,,,,,,,,,,,,,,,11043,001,2024_Mar_21_0830,nback,2021.2.3,60.06424472987095,
2-back,instructions\back-2.png,conditions\2back-p.xlsx,instructions\2-BACK.png,"(25, 15)",practice,2,1,stim\yellow.png,stim\gray.png,stim\gray.png,stim\gray.png,down,1,0,1,0,0,2,2,2,0,5,5,5,,,,,,,,,,,,,,,,,,,,,,,,,,,302.2124612000771,303.21369050000794,302.2124612000771,303.21369050000794,302.2124612000771,303.21369050000794,302.2124612000771,303.21369050000794,down,1,1.1036048999521881,302.2124612000771,None,302.2124612000771,None,302.2124612000771,302.7138903000159,302.2124612000771,302.7138903000159,302.2124612000771,302.7138903000159,302.2124612000771,302.7138903000159,302.2124612000771,None,,,,,,,,,,,,,,,,,,,,,,,,,,,,,,,,,,,,,,,,,,11043,001,2024_Mar_21_0830,nback,2021.2.3,60.06424472987095,
2-back,instructions\back-2.png,conditions\2back-p.xlsx,instructions\2-BACK.png,"(25, 15)",practice,2,4,stim\gray.png,stim\gray.png,stim\gray.png,stim\yellow.png,left,1,0,1,0,0,2,2,2,0,6,6,6,,,,,,,,,,,,,,,,,,,,,,,,,,,303.69775190006476,304.6998130000429,303.69775190006476,304.6998130000429,303.69775190006476,304.6998130000429,303.69775190006476,304.6998130000429,left,1,1.2263522000284865,303.69775190006476,None,303.69775190006476,None,303.69775190006476,304.1985420000274,303.69775190006476,304.1985420000274,303.69775190006476,304.1985420000274,303.69775190006476,304.1985420000274,303.69775190006476,None,,,,,,,,,,,,,,,,,,,,,,,,,,,,,,,,,,,,,,,,,,11043,001,2024_Mar_21_0830,nback,2021.2.3,60.06424472987095,
2-back,instructions\back-2.png,conditions\2back-p.xlsx,instructions\2-BACK.png,"(25, 15)",practice,2,3,stim\gray.png,stim\gray.png,stim\yellow.png,stim\gray.png,up,1,0,1,0,0,2,2,2,0,7,7,7,,,,,,,,,,,,,,,,,,,,,,,,,,,305.2001681000693,306.20158240001183,305.2001681000693,306.20158240001183,305.2001681000693,306.20158240001183,305.2001681000693,306.20158240001183,up,1,1.2197799000423402,305.2001681000693,None,305.2001681000693,None,305.2001681000693,305.70090190006886,305.2001681000693,305.70090190006886,305.2001681000693,305.70090190006886,305.2001681000693,305.70090190006886,305.2001681000693,None,,,,,,,,,,,,,,,,,,,,,,,,,,,,,,,,,,,,,,,,,,11043,001,2024_Mar_21_0830,nback,2021.2.3,60.06424472987095,
2-back,instructions\back-2.png,conditions\2back-p.xlsx,instructions\2-BACK.png,"(25, 15)",practice,2,3,stim\gray.png,stim\gray.png,stim\yellow.png,stim\gray.png,down,1,0,1,0,0,2,2,2,0,8,8,8,,,,,,,,,,,,,,,,,,,,,,,,,,,306.7022374999942,307.7036725000944,306.7022374999942,307.7036725000944,306.7022374999942,307.7036725000944,306.7022374999942,307.7036725000944,down,1,1.3577554000075907,306.7022374999942,None,306.7022374999942,None,306.7022374999942,307.2032241000561,306.7022374999942,307.2032241000561,306.7022374999942,307.2032241000561,306.7022374999942,307.2032241000561,306.7022374999942,None,,,,,,,,,,,,,,,,,,,,,,,,,,,,,,,,,,,,,,,,,,11043,001,2024_Mar_21_0830,nback,2021.2.3,60.06424472987095,
2-back,instructions\back-2.png,conditions\2back-p.xlsx,instructions\2-BACK.png,"(25, 15)",practice,2,4,stim\gray.png,stim\gray.png,stim\gray.png,stim\yellow.png,right,1,0,1,0,0,2,2,2,0,9,9,9,,,,,,,,,,,,,,,,,,,,,,,,,,,308.20463090005796,309.2072518999921,308.20463090005796,309.2072518999921,308.20463090005796,309.2072518999921,308.20463090005796,309.2072518999921,right,1,1.4402112000389025,308.20463090005796,None,308.20463090005796,None,308.20463090005796,308.70536880008876,308.20463090005796,308.70536880008876,308.20463090005796,308.70536880008876,308.20463090005796,308.70536880008876,308.20463090005796,None,,,,,,,,,,,,,,,,,,,,,,,,,,,,,,,,,,,,,,,,,,11043,001,2024_Mar_21_0830,nback,2021.2.3,60.06424472987095,
2-back,instructions\back-2.png,conditions\2back-p.xlsx,instructions\2-BACK.png,"(25, 15)",practice,2,1,stim\yellow.png,stim\gray.png,stim\gray.png,stim\gray.png,right,1,0,1,0,0,2,2,2,0,10,10,10,,,,,,,,,,,,,,,,,,,,,,,,,,,309.7070564000169,310.7083461000584,309.7070564000169,310.7083461000584,309.7070564000169,310.7083461000584,309.7070564000169,310.7083461000584,None,0,,309.7070564000169,None,309.7070564000169,None,309.7070564000169,310.2076048000017,309.7070564000169,310.2076048000017,309.7070564000169,310.2076048000017,309.7070564000169,310.2076048000017,309.7070564000169,None,,,,,,,,,,,,,,,,,,,,,,,,,,,,,,,,,,,,,,,,,,11043,001,2024_Mar_21_0830,nback,2021.2.3,60.06424472987095,
2-back,instructions\back-2.png,conditions\2back-p.xlsx,instructions\2-BACK.png,"(25, 15)",practice,2,2,stim\gray.png,stim\yellow.png,stim\gray.png,stim\gray.png,down,1,0,1,0,0,2,2,2,0,11,11,11,,,,,,,,,,,,,,,,,,,,,,,,,,,311.2093034000136,312.2107732000295,311.2093034000136,312.2107732000295,311.2093034000136,312.2107732000295,311.2093034000136,312.2107732000295,right,0,0.15548369998577982,311.2093034000136,None,311.2093034000136,None,311.2093034000136,311.7099474000279,311.2093034000136,311.7099474000279,311.2093034000136,311.7099474000279,311.2093034000136,311.7099474000279,311.2093034000136,None,,,,,,,,,,,,,,,,,,,,,,,,,,,,,,,,,,,,,,,,,,11043,001,2024_Mar_21_0830,nback,2021.2.3,60.06424472987095,
2-back,instructions\back-2.png,conditions\2back-p.xlsx,instructions\2-BACK.png,"(25, 15)",practice,2,4,stim\gray.png,stim\gray.png,stim\gray.png,stim\yellow.png,up,1,0,1,0,0,2,2,2,0,12,12,12,,,,,,,,,,,,,,,,,,,,,,,,,,,312.71143390005454,313.7130254000658,312.71143390005454,313.7130254000658,312.71143390005454,313.7130254000658,312.71143390005454,313.7130254000658,up,1,0.11750249995384365,312.71143390005454,None,312.71143390005454,None,312.71143390005454,313.2120986999944,312.71143390005454,313.2120986999944,312.71143390005454,313.2120986999944,312.71143390005454,313.2120986999944,312.71143390005454,None,,,,,,,,,,,,,,,,,,,,,,,,,,,,,,,,,,,,,,,,,,11043,001,2024_Mar_21_0830,nback,2021.2.3,60.06424472987095,
2-back,instructions\back-2.png,conditions\2back-p.xlsx,instructions\2-BACK.png,"(25, 15)",practice,2,3,stim\gray.png,stim\gray.png,stim\yellow.png,stim\gray.png,left,1,0,1,0,0,2,2,2,0,13,13,13,,,,,,,,,,,,,,,,,,,,,,,,,,,314.19709710008465,315.1993341000052,314.19709710008465,315.1993341000052,314.19709710008465,315.1993341000052,314.19709710008465,315.1993341000052,down,0,0.13505939999595284,314.19709710008465,None,314.19709710008465,None,314.19709710008465,314.6977060000645,314.19709710008465,314.6977060000645,314.19709710008465,314.6977060000645,314.19709710008465,314.6977060000645,314.19709710008465,None,,,,,,,,,,,,,,,,,,,,,,,,,,,,,,,,,,,,,,,,,,11043,001,2024_Mar_21_0830,nback,2021.2.3,60.06424472987095,
2-back,instructions\back-2.png,conditions\2back-p.xlsx,instructions\2-BACK.png,"(25, 15)",practice,2,1,stim\yellow.png,stim\gray.png,stim\gray.png,stim\gray.png,down,1,0,1,0,0,2,2,2,0,14,14,14,,,,,,,,,,,,,,,,,,,,,,,,,,,315.69964600005187,316.70153650001157,315.69964600005187,316.70153650001157,315.69964600005187,316.70153650001157,315.69964600005187,316.70153650001157,up,0,0.5128349000588059,315.69964600005187,None,315.69964600005187,None,315.69964600005187,316.19991490000393,315.69964600005187,316.19991490000393,315.69964600005187,316.19991490000393,315.69964600005187,316.19991490000393,315.69964600005187,None,,,,,,,,,,,,,,,,,,,,,,,,,,,,,,,,,,,,,,,,,,11043,001,2024_Mar_21_0830,nback,2021.2.3,60.06424472987095,
2-back,instructions\back-2.png,conditions\2back-p.xlsx,instructions\2-BACK.png,"(25, 15)",practice,2,2,stim\gray.png,stim\yellow.png,stim\gray.png,stim\gray.png,right,1,0,1,0,0,2,2,2,0,15,15,15,,,,,,,,,,,,,,,,,,,,,,,,,,,317.2016258999938,318.20303870004136,317.2016258999938,318.20303870004136,317.2016258999938,318.20303870004136,317.2016258999938,318.20303870004136,left,0,0.5546890000114217,317.2016258999938,None,317.2016258999938,None,317.2016258999938,317.7022104000207,317.2016258999938,317.7022104000207,317.2016258999938,317.7022104000207,317.2016258999938,317.7022104000207,317.2016258999938,None,,,,,,,,,,,,,,,,,,,,,,,,,,,,,,,,,,,,,,,,,,11043,001,2024_Mar_21_0830,nback,2021.2.3,60.06424472987095,
2-back,instructions\back-2.png,conditions\2back-p.xlsx,instructions\2-BACK.png,"(25, 15)",practice,2,3,stim\gray.png,stim\gray.png,stim\yellow.png,stim\gray.png,up,1,0,1,0,0,2,2,2,0,16,16,16,,,,,,,,,,,,,,,,,,,,,,,,,,,318.70362990000285,319.7053396999836,318.70362990000285,319.7053396999836,318.70362990000285,319.7053396999836,318.70362990000285,319.7053396999836,right,0,1.3811006000032648,318.70362990000285,None,318.70362990000285,None,318.70362990000285,319.2049606000073,318.70362990000285,319.2049606000073,318.70362990000285,319.2049606000073,318.70362990000285,319.2049606000073,318.70362990000285,None,,,,,,,,,,,,,,,,,,,,,,,,,,,,,,,,,,,,,,,,,,11043,001,2024_Mar_21_0830,nback,2021.2.3,60.06424472987095,
2-back,instructions\back-2.png,conditions\2back-p.xlsx,instructions\2-BACK.png,"(25, 15)",practice,2,1,stim\yellow.png,stim\gray.png,stim\gray.png,stim\gray.png,left,1,0,1,0,0,2,2,2,0,17,17,17,,,,,,,,,,,,,,,,,,,,,,,,,,,320.2058307999978,321.20803600002546,320.2058307999978,321.20803600002546,320.2058307999978,321.20803600002546,320.2058307999978,321.20803600002546,None,0,,320.2058307999978,None,320.2058307999978,None,320.2058307999978,320.70696390001103,320.2058307999978,320.70696390001103,320.2058307999978,320.70696390001103,320.2058307999978,320.70696390001103,320.2058307999978,None,,,,,,,,,,,,,,,,,,,,,,,,,,,,,,,,,,,,,,,,,,11043,001,2024_Mar_21_0830,nback,2021.2.3,60.06424472987095,
2-back,instructions\back-2.png,conditions\2back-p.xlsx,instructions\2-BACK.png,"(25, 15)",practice,2,4,stim\gray.png,stim\gray.png,stim\gray.png,stim\yellow.png,right,1,0,1,0,0,2,2,2,0,18,18,18,,,,,,,,,,,,,,,,,,,,,,,,,,,321.708192500053,322.7098394000204,321.708192500053,322.7098394000204,321.708192500053,322.7098394000204,321.708192500053,322.7098394000204,down,0,0.4001521999016404,321.708192500053,None,321.708192500053,None,321.708192500053,322.2092172000557,321.708192500053,322.2092172000557,321.708192500053,322.2092172000557,321.708192500053,322.2092172000557,321.708192500053,None,,,,,,,,,,,,,,,,,,,,,,,,,,,,,,,,,,,,,,,,,,11043,001,2024_Mar_21_0830,nback,2021.2.3,60.06424472987095,
2-back,instructions\back-2.png,conditions\2back-p.xlsx,instructions\2-BACK.png,"(25, 15)",practice,2,2,stim\gray.png,stim\yellow.png,stim\gray.png,stim\gray.png,up,1,0,1,0,0,2,2,2,0,19,19,19,,,,,,,,,,,,,,,,,,,,,,,,,,,323.21052090008743,324.2123194000451,323.21052090008743,324.2123194000451,323.21052090008743,324.2123194000451,323.21052090008743,324.2123194000451,left,0,0.4425401999615133,323.21052090008743,None,323.21052090008743,None,323.21052090008743,323.7115622999845,323.21052090008743,323.7115622999845,323.21052090008743,323.7115622999845,323.21052090008743,323.7115622999845,323.21052090008743,None,,,,,,,,,,,,,,,,,,,,,,,,,,,,,,,,,,,,,,,,,,11043,001,2024_Mar_21_0830,nback,2021.2.3,60.06424472987095,
2-back,instructions\back-2.png,conditions\2back-p.xlsx,instructions\2-BACK.png,"(25, 15)",,,,,,,,,1,0,1,0,0,2,2,2,,,,,,,,,,,,,,,,,,,,,,,,,,,,,,,,,,,,,,,,,,,,,,,,,,,,,,,,,,,,,,,,,,,,,,,,,,,,,,,,,,,,,,,,,,,,,,,,,11043,001,2024_Mar_21_0830,nback,2021.2.3,60.06424472987095,
,,,,,,,,,,,,,1,0,1,0,,,,,,,,,,,,,,,,,,,,,,,,,,,,,,,,,,,,,,,,,,,,,,,,,,,,,,,,,,,,324.6968361000763,None,space,23.100604600040242,324.6968361000763,None,,,,,,,,,,,,,,,,,,,,,,,,,,,,,,,,,,,,11043,001,2024_Mar_21_0830,nback,2021.2.3,60.06424472987095,
,,,,,,,,,,,,,,,,,,,,,,,,,,,,,,,,,,,,,,,,,,,,,,,,,,,,,,,,,,,,,,,,,,,,,,,,,,,,,,,,,,347.81448739999905,None,space,19.359207100002095,347.81448739999905,None,,,,,,,,,,,,,,,,,,,,,,,,,,,,,,11043,001,2024_Mar_21_0830,nback,2021.2.3,60.06424472987095,
2-back,instructions\back-2.png,conditions\20back-e.xlsx,,,experiment,2,2,stim\gray.png,stim\yellow.png,stim\gray.png,stim\gray.png,None,,,,,,,,,,,,,0,0,0,2,0,0,0,0,,,,,,,,,,,,,,,367.3269268000731,371.8350744000636,371.81724100001156,None,,,,,,,,,,,,,,,,,,,,,,,,,,,,,,,,,,,,,,None,1,372.21780890005175,None,372.21780890005175,None,372.21780890005175,373.22034790006,372.21780890005175,373.22034790006,372.21780890005175,373.22034790006,372.21780890005175,373.22034790006,372.21780890005175,372.71846090001054,372.21780890005175,372.71846090001054,372.21780890005175,372.71846090001054,372.21780890005175,372.71846090001054,372.21780890005175,None,,,,,,11043,001,2024_Mar_21_0830,nback,2021.2.3,60.06424472987095,
2-back,instructions\back-2.png,conditions\20back-e.xlsx,,,experiment,2,1,stim\yellow.png,stim\gray.png,stim\gray.png,stim\gray.png,None,,,,,,,,,,,,,0,0,0,2,0,1,1,1,,,,,,,,,,,,,,,,,,,,,,,,,,,,,,,,,,,,,,,,,,,,,,,,,,,,,,,,None,1,373.7036732999841,None,373.7036732999841,None,373.7036732999841,374.70491120009683,373.7036732999841,374.70491120009683,373.7036732999841,374.70491120009683,373.7036732999841,374.70491120009683,373.7036732999841,374.2041289000772,373.7036732999841,374.2041289000772,373.7036732999841,374.2041289000772,373.7036732999841,374.2041289000772,373.7036732999841,None,,,,,,11043,001,2024_Mar_21_0830,nback,2021.2.3,60.06424472987095,
2-back,instructions\back-2.png,conditions\20back-e.xlsx,,,experiment,2,4,stim\gray.png,stim\gray.png,stim\gray.png,stim\yellow.png,left,,,,,,,,,,,,,0,0,0,2,0,2,2,2,,,,,,,,,,,,,,,,,,,,,,,,,,,,,,,,,,,,,,,,,,,,,,,,,,,,,,,,left,1,375.205343300011,None,375.205343300011,None,375.205343300011,376.207034900086,375.205343300011,376.207034900086,375.205343300011,376.207034900086,375.205343300011,376.207034900086,375.205343300011,375.70706970000174,375.205343300011,375.70706970000174,375.205343300011,375.70706970000174,375.205343300011,375.70706970000174,375.205343300011,None,0.04874709993600845,,,,,11043,001,2024_Mar_21_0830,nback,2021.2.3,60.06424472987095,
2-back,instructions\back-2.png,conditions\20back-e.xlsx,,,experiment,2,3,stim\gray.png,stim\gray.png,stim\yellow.png,stim\gray.png,up,,,,,,,,,,,,,0,0,0,2,0,3,3,3,,,,,,,,,,,,,,,,,,,,,,,,,,,,,,,,,,,,,,,,,,,,,,,,,,,,,,,,up,1,376.7077335000504,None,376.7077335000504,None,376.7077335000504,377.70941040001344,376.7077335000504,377.70941040001344,376.7077335000504,377.70941040001344,376.7077335000504,377.70941040001344,376.7077335000504,377.20859590009786,376.7077335000504,377.20859590009786,376.7077335000504,377.20859590009786,376.7077335000504,377.20859590009786,376.7077335000504,None,0.29108070000074804,,,,,11043,001,2024_Mar_21_0830,nback,2021.2.3,60.06424472987095,
2-back,instructions\back-2.png,conditions\20back-e.xlsx,,,experiment,2,1,stim\yellow.png,stim\gray.png,stim\gray.png,stim\gray.png,down,,,,,,,,,,,,,0,0,0,2,0,4,4,4,,,,,,,,,,,,,,,,,,,,,,,,,,,,,,,,,,,,,,,,,,,,,,,,,,,,,,,,down,1,378.2100827000104,None,378.2100827000104,None,378.2100827000104,379.2116393999895,378.2100827000104,379.2116393999895,378.2100827000104,379.2116393999895,378.2100827000104,379.2116393999895,378.2100827000104,378.7115802000044,378.2100827000104,378.7115802000044,378.2100827000104,378.7115802000044,378.2100827000104,378.7115802000044,378.2100827000104,None,0.2526503000408411,,,,,11043,001,2024_Mar_21_0830,nback,2021.2.3,60.06424472987095,
2-back,instructions\back-2.png,conditions\20back-e.xlsx,,,experiment,2,2,stim\gray.png,stim\yellow.png,stim\gray.png,stim\gray.png,right,,,,,,,,,,,,,0,0,0,2,0,5,5,5,,,,,,,,,,,,,,,,,,,,,,,,,,,,,,,,,,,,,,,,,,,,,,,,,,,,,,,,right,1,379.7124586000573,None,379.7124586000573,None,379.7124586000573,380.7150965000037,379.7124586000573,380.7150965000037,379.7124586000573,380.7150965000037,379.7124586000573,380.7150965000037,379.7124586000573,380.213068400044,379.7124586000573,380.213068400044,379.7124586000573,380.213068400044,379.7124586000573,380.213068400044,379.7124586000573,None,0.36570690001826733,,,,,11043,001,2024_Mar_21_0830,nback,2021.2.3,60.06424472987095,
2-back,instructions\back-2.png,conditions\20back-e.xlsx,,,experiment,2,3,stim\gray.png,stim\gray.png,stim\yellow.png,stim\gray.png,up,,,,,,,,,,,,,0,0,0,2,0,6,6,6,,,,,,,,,,,,,,,,,,,,,,,,,,,,,,,,,,,,,,,,,,,,,,,,,,,,,,,,up,1,381.1979305000277,None,381.1979305000277,None,381.1979305000277,382.1993480999954,381.1979305000277,382.1993480999954,381.1979305000277,382.1993480999954,381.1979305000277,382.1993480999954,381.1979305000277,381.6989217000082,381.1979305000277,381.6989217000082,381.1979305000277,381.6989217000082,381.1979305000277,381.6989217000082,381.1979305000277,None,0.7041609999723732,,,,,11043,001,2024_Mar_21_0830,nback,2021.2.3,60.06424472987095,
2-back,instructions\back-2.png,conditions\20back-e.xlsx,,,experiment,2,4,stim\gray.png,stim\gray.png,stim\gray.png,stim\yellow.png,left,,,,,,,,,,,,,0,0,0,2,0,7,7,7,,,,,,,,,,,,,,,,,,,,,,,,,,,,,,,,,,,,,,,,,,,,,,,,,,,,,,,,left,1,382.70025380002335,None,382.70025380002335,None,382.70025380002335,383.7016668000724,382.70025380002335,383.7016668000724,382.70025380002335,383.7016668000724,382.70025380002335,383.7016668000724,382.70025380002335,383.20102640008554,382.70025380002335,383.20102640008554,382.70025380002335,383.20102640008554,382.70025380002335,383.20102640008554,382.70025380002335,None,0.905865199980326,,,,,11043,001,2024_Mar_21_0830,nback,2021.2.3,60.06424472987095,
2-back,instructions\back-2.png,conditions\20back-e.xlsx,,,experiment,2,3,stim\gray.png,stim\gray.png,stim\yellow.png,stim\gray.png,right,,,,,,,,,,,,,0,0,0,2,0,8,8,8,,,,,,,,,,,,,,,,,,,,,,,,,,,,,,,,,,,,,,,,,,,,,,,,,,,,,,,,right,1,384.2023975000484,None,384.2023975000484,None,384.2023975000484,385.20391480007675,384.2023975000484,385.20391480007675,384.2023975000484,385.20391480007675,384.2023975000484,385.20391480007675,384.2023975000484,384.7033499000827,384.2023975000484,384.7033499000827,384.2023975000484,384.7033499000827,384.2023975000484,384.7033499000827,384.2023975000484,None,1.0198864999692887,,,,,11043,001,2024_Mar_21_0830,nback,2021.2.3,60.06424472987095,
2-back,instructions\back-2.png,conditions\20back-e.xlsx,,,experiment,2,4,stim\gray.png,stim\gray.png,stim\gray.png,stim\yellow.png,down,,,,,,,,,,,,,0,0,0,2,0,9,9,9,,,,,,,,,,,,,,,,,,,,,,,,,,,,,,,,,,,,,,,,,,,,,,,,,,,,,,,,down,1,385.70472969999537,None,385.70472969999537,None,385.70472969999537,386.7063423000509,385.70472969999537,386.7063423000509,385.70472969999537,386.7063423000509,385.70472969999537,386.7063423000509,385.70472969999537,386.205400200095,385.70472969999537,386.205400200095,385.70472969999537,386.205400200095,385.70472969999537,386.205400200095,385.70472969999537,None,1.08588119992055,,,,,11043,001,2024_Mar_21_0830,nback,2021.2.3,60.06424472987095,
2-back,instructions\back-2.png,conditions\20back-e.xlsx,,,experiment,2,1,stim\yellow.png,stim\gray.png,stim\gray.png,stim\gray.png,right,,,,,,,,,,,,,0,0,0,2,0,10,10,10,,,,,,,,,,,,,,,,,,,,,,,,,,,,,,,,,,,,,,,,,,,,,,,,,,,,,,,,down,0,387.20694090006873,None,387.20694090006873,None,387.20694090006873,388.2085141000571,387.20694090006873,388.2085141000571,387.20694090006873,388.2085141000571,387.20694090006873,388.2085141000571,387.20694090006873,387.7086238000775,387.20694090006873,387.7086238000775,387.20694090006873,387.7086238000775,387.20694090006873,387.7086238000775,387.20694090006873,None,1.1757296998985112,,,,,11043,001,2024_Mar_21_0830,nback,2021.2.3,60.06424472987095,
2-back,instructions\back-2.png,conditions\20back-e.xlsx,,,experiment,2,2,stim\gray.png,stim\yellow.png,stim\gray.png,stim\gray.png,down,,,,,,,,,,,,,0,0,0,2,0,11,11,11,,,,,,,,,,,,,,,,,,,,,,,,,,,,,,,,,,,,,,,,,,,,,,,,,,,,,,,,right,0,388.7093844000483,None,388.7093844000483,None,388.7093844000483,389.711026999983,388.7093844000483,389.711026999983,388.7093844000483,389.711026999983,388.7093844000483,389.711026999983,388.7093844000483,389.20992160006426,388.7093844000483,389.20992160006426,388.7093844000483,389.20992160006426,388.7093844000483,389.20992160006426,388.7093844000483,None,1.4251330000115559,,,,,11043,001,2024_Mar_21_0830,nback,2021.2.3,60.06424472987095,
2-back,instructions\back-2.png,conditions\20back-e.xlsx,,,experiment,2,3,stim\gray.png,stim\gray.png,stim\yellow.png,stim\gray.png,up,,,,,,,,,,,,,0,0,0,2,0,12,12,12,,,,,,,,,,,,,,,,,,,,,,,,,,,,,,,,,,,,,,,,,,,,,,,,,,,,,,,,None,0,390.2115450000856,None,390.2115450000856,None,390.2115450000856,391.2131295000436,390.2115450000856,391.2131295000436,390.2115450000856,391.2131295000436,390.2115450000856,391.2131295000436,390.2115450000856,390.71233970008325,390.2115450000856,390.71233970008325,390.2115450000856,390.71233970008325,390.2115450000856,390.71233970008325,390.2115450000856,None,,,,,,11043,001,2024_Mar_21_0830,nback,2021.2.3,60.06424472987095,
2-back,instructions\back-2.png,conditions\20back-e.xlsx,,,experiment,2,1,stim\yellow.png,stim\gray.png,stim\gray.png,stim\gray.png,left,,,,,,,,,,,,,0,0,0,2,0,13,13,13,,,,,,,,,,,,,,,,,,,,,,,,,,,,,,,,,,,,,,,,,,,,,,,,,,,,,,,,up,0,391.69690089998767,None,391.69690089998767,None,391.69690089998767,392.69963670009747,391.69690089998767,392.69963670009747,391.69690089998767,392.69963670009747,391.69690089998767,392.69963670009747,391.69690089998767,392.19841499999166,391.69690089998767,392.19841499999166,391.69690089998767,392.19841499999166,391.69690089998767,392.19841499999166,391.69690089998767,None,0.037458800012245774,,,,,11043,001,2024_Mar_21_0830,nback,2021.2.3,60.06424472987095,
