backseq,backinstr,backfile,instruction,size_in,Trialtype,back,number,P1,P2,P3,P4,corrAns,trials_practice.thisRepN,trials_practice.thisTrialN,trials_practice.thisN,trials_practice.thisIndex,trials.thisRepN,trials.thisTrialN,trials.thisN,trials.thisIndex,trials_3.thisRepN,trials_3.thisTrialN,trials_3.thisN,trials_3.thisIndex,trials_2.thisRepN,trials_2.thisTrialN,trials_2.thisN,trials_2.thisIndex,trials_4.thisRepN,trials_4.thisTrialN,trials_4.thisN,trials_4.thisIndex,image.started,image.stopped,image_2.started,image_2.stopped,key_resp.keys,key_resp.rt,key_resp.started,key_resp.stopped,image_3.started,image_3.stopped,key_resp_2.keys,key_resp_2.rt,key_resp_2.started,key_resp_2.stopped,image_4.started,image_4.stopped,text.started,text.stopped,H1.started,H1.stopped,H2.started,H2.stopped,H3.started,H3.stopped,H4.started,H4.stopped,key_resp_3.keys,key_resp_3.corr,key_resp_3.rt,key_resp_3.started,key_resp_3.stopped,text_4.started,text_4.stopped,F1.started,F1.stopped,F2.started,F2.stopped,F3.started,F3.stopped,F4.started,F4.stopped,image_7.started,image_7.stopped,text_5.started,text_5.stopped,key_resp_6.keys,key_resp_6.rt,key_resp_6.started,key_resp_6.stopped,image_5.started,image_5.stopped,key_resp_4.keys,key_resp_4.rt,key_resp_4.started,key_resp_4.stopped,key_resp_5.keys,key_resp_5.corr,key_resp_5.started,key_resp_5.stopped,text_3.started,text_3.stopped,H1_2.started,H1_2.stopped,H2_2.started,H2_2.stopped,H3_2.started,H3_2.stopped,H4_2.started,H4_2.stopped,F1_2.started,F1_2.stopped,F2_2.started,F2_2.stopped,F3_2.started,F3_2.stopped,F4_2.started,F4_2.stopped,image_8.started,image_8.stopped,key_resp_5.rt,text_2.started,text_2.stopped,image_6.started,image_6.stopped,participant,session,date,expName,psychopyVersion,frameRate,
,,,,,,,,,,,,,,,,,,,,,,,,,,,,,,,,,9.82907009999326,None,10.763857700003427,None,space,3.7051510000019334,10.763857700003427,None,,,,,,,,,,,,,,,,,,,,,,,,,,,,,,,,,,,,,,,,,,,,,,,,,,,,,,,,,,,,,,,,,,,,,,,,,,,,,11040,001,2024_Mar_13_1504,nback,2021.2.3,59.93062431127659,
0-back,instructions\back-0.png,conditions\0back-p.xlsx,instructions\0-BACK.png,"(15, 8)",practice,0,1,stim\yellow.png,stim\gray.png,stim\gray.png,stim\gray.png,up,0,0,0,0,0,0,0,0,0,0,0,0,,,,,,,,,,,,,,,,,14.535961300003692,None,space,7.276568600005703,14.535961300003692,None,22.047797399995034,26.55586389999371,26.470721000005142,None,26.856064299994614,27.856380900004297,26.856064299994614,27.856380900004297,26.856064299994614,27.856380900004297,26.856064299994614,27.856380900004297,up,1,0.5969344999903115,26.856064299994614,None,26.856064299994614,None,26.856064299994614,27.35655450000195,26.856064299994614,27.35655450000195,26.856064299994614,27.35655450000195,26.856064299994614,27.35655450000195,26.856064299994614,None,,,,,,,,,,,,,,,,,,,,,,,,,,,,,,,,,,,,,,,,,,11040,001,2024_Mar_13_1504,nback,2021.2.3,59.93062431127659,
0-back,instructions\back-0.png,conditions\0back-p.xlsx,instructions\0-BACK.png,"(15, 8)",practice,0,2,stim\gray.png,stim\yellow.png,stim\gray.png,stim\gray.png,left,0,0,0,0,0,0,0,0,0,1,1,1,,,,,,,,,,,,,,,,,,,,,,,,,,,28.34026709999307,29.342072800005553,28.34026709999307,29.342072800005553,28.34026709999307,29.342072800005553,28.34026709999307,29.342072800005553,left,1,0.5446097999956692,28.34026709999307,None,28.34026709999307,None,28.34026709999307,28.842587799998,28.34026709999307,28.842587799998,28.34026709999307,28.842587799998,28.34026709999307,28.842587799998,28.34026709999307,None,,,,,,,,,,,,,,,,,,,,,,,,,,,,,,,,,,,,,,,,,,11040,001,2024_Mar_13_1504,nback,2021.2.3,59.93062431127659,
0-back,instructions\back-0.png,conditions\0back-p.xlsx,instructions\0-BACK.png,"(15, 8)",practice,0,3,stim\gray.png,stim\gray.png,stim\yellow.png,stim\gray.png,right,0,0,0,0,0,0,0,0,0,2,2,2,,,,,,,,,,,,,,,,,,,,,,,,,,,29.842834800001583,30.844206099995063,29.842834800001583,30.844206099995063,29.842834800001583,30.844206099995063,29.842834800001583,30.844206099995063,right,1,0.3465368000033777,29.842834800001583,None,29.842834800001583,None,29.842834800001583,30.34339500000351,29.842834800001583,30.34339500000351,29.842834800001583,30.34339500000351,29.842834800001583,30.34339500000351,29.842834800001583,None,,,,,,,,,,,,,,,,,,,,,,,,,,,,,,,,,,,,,,,,,,11040,001,2024_Mar_13_1504,nback,2021.2.3,59.93062431127659,
0-back,instructions\back-0.png,conditions\0back-p.xlsx,instructions\0-BACK.png,"(15, 8)",practice,0,4,stim\gray.png,stim\gray.png,stim\gray.png,stim\yellow.png,down,0,0,0,0,0,0,0,0,0,3,3,3,,,,,,,,,,,,,,,,,,,,,,,,,,,31.34524120000424,32.347494799993,31.34524120000424,32.347494799993,31.34524120000424,32.347494799993,31.34524120000424,32.347494799993,down,1,0.3883613000070909,31.34524120000424,None,31.34524120000424,None,31.34524120000424,31.84692240000004,31.34524120000424,31.84692240000004,31.34524120000424,31.84692240000004,31.34524120000424,31.84692240000004,31.34524120000424,None,,,,,,,,,,,,,,,,,,,,,,,,,,,,,,,,,,,,,,,,,,11040,001,2024_Mar_13_1504,nback,2021.2.3,59.93062431127659,
0-back,instructions\back-0.png,conditions\0back-p.xlsx,instructions\0-BACK.png,"(15, 8)",practice,0,2,stim\gray.png,stim\yellow.png,stim\gray.png,stim\gray.png,left,0,0,0,0,0,0,0,0,0,4,4,4,,,,,,,,,,,,,,,,,,,,,,,,,,,32.8473273999989,33.848857300006784,32.8473273999989,33.848857300006784,32.8473273999989,33.848857300006784,32.8473273999989,33.848857300006784,left,1,0.3340368000062881,32.8473273999989,None,32.8473273999989,None,32.8473273999989,33.34797479999543,32.8473273999989,33.34797479999543,32.8473273999989,33.34797479999543,32.8473273999989,33.34797479999543,32.8473273999989,None,,,,,,,,,,,,,,,,,,,,,,,,,,,,,,,,,,,,,,,,,,11040,001,2024_Mar_13_1504,nback,2021.2.3,59.93062431127659,
0-back,instructions\back-0.png,conditions\0back-p.xlsx,instructions\0-BACK.png,"(15, 8)",practice,0,1,stim\yellow.png,stim\gray.png,stim\gray.png,stim\gray.png,up,0,0,0,0,0,0,0,0,0,5,5,5,,,,,,,,,,,,,,,,,,,,,,,,,,,34.349388899994665,35.35187280000537,34.349388899994665,35.35187280000537,34.349388899994665,35.35187280000537,34.349388899994665,35.35187280000537,up,1,0.38413609999406617,34.349388899994665,None,34.349388899994665,None,34.349388899994665,34.85033560000011,34.349388899994665,34.85033560000011,34.349388899994665,34.85033560000011,34.349388899994665,34.85033560000011,34.349388899994665,None,,,,,,,,,,,,,,,,,,,,,,,,,,,,,,,,,,,,,,,,,,11040,001,2024_Mar_13_1504,nback,2021.2.3,59.93062431127659,
0-back,instructions\back-0.png,conditions\0back-p.xlsx,instructions\0-BACK.png,"(15, 8)",practice,0,4,stim\gray.png,stim\gray.png,stim\gray.png,stim\yellow.png,down,0,0,0,0,0,0,0,0,0,6,6,6,,,,,,,,,,,,,,,,,,,,,,,,,,,35.835048399996595,36.83659580000676,35.835048399996595,36.83659580000676,35.835048399996595,36.83659580000676,35.835048399996595,36.83659580000676,down,1,0.3697810000012396,35.835048399996595,None,35.835048399996595,None,35.835048399996595,36.335869699993054,35.835048399996595,36.335869699993054,35.835048399996595,36.335869699993054,35.835048399996595,36.335869699993054,35.835048399996595,None,,,,,,,,,,,,,,,,,,,,,,,,,,,,,,,,,,,,,,,,,,11040,001,2024_Mar_13_1504,nback,2021.2.3,59.93062431127659,
0-back,instructions\back-0.png,conditions\0back-p.xlsx,instructions\0-BACK.png,"(15, 8)",practice,0,3,stim\gray.png,stim\gray.png,stim\yellow.png,stim\gray.png,right,0,0,0,0,0,0,0,0,0,7,7,7,,,,,,,,,,,,,,,,,,,,,,,,,,,37.337458900001366,38.33958780000103,37.337458900001366,38.33958780000103,37.337458900001366,38.33958780000103,37.337458900001366,38.33958780000103,right,1,0.33153440000023693,37.337458900001366,None,37.337458900001366,None,37.337458900001366,37.83803860000626,37.337458900001366,37.83803860000626,37.337458900001366,37.83803860000626,37.337458900001366,37.83803860000626,37.337458900001366,None,,,,,,,,,,,,,,,,,,,,,,,,,,,,,,,,,,,,,,,,,,11040,001,2024_Mar_13_1504,nback,2021.2.3,59.93062431127659,
0-back,instructions\back-0.png,conditions\0back-p.xlsx,instructions\0-BACK.png,"(15, 8)",practice,0,3,stim\gray.png,stim\gray.png,stim\yellow.png,stim\gray.png,right,0,0,0,0,0,0,0,0,0,8,8,8,,,,,,,,,,,,,,,,,,,,,,,,,,,38.839603800006444,39.84118259999377,38.839603800006444,39.84118259999377,38.839603800006444,39.84118259999377,38.839603800006444,39.84118259999377,right,1,0.35730690001219045,38.839603800006444,None,38.839603800006444,None,38.839603800006444,39.340231700000004,38.839603800006444,39.340231700000004,38.839603800006444,39.340231700000004,38.839603800006444,39.340231700000004,38.839603800006444,None,,,,,,,,,,,,,,,,,,,,,,,,,,,,,,,,,,,,,,,,,,11040,001,2024_Mar_13_1504,nback,2021.2.3,59.93062431127659,
0-back,instructions\back-0.png,conditions\0back-p.xlsx,instructions\0-BACK.png,"(15, 8)",practice,0,4,stim\gray.png,stim\gray.png,stim\gray.png,stim\yellow.png,down,0,0,0,0,0,0,0,0,0,9,9,9,,,,,,,,,,,,,,,,,,,,,,,,,,,40.3419189999986,41.34430120000616,40.3419189999986,41.34430120000616,40.3419189999986,41.34430120000616,40.3419189999986,41.34430120000616,down,1,0.35928400000557303,40.3419189999986,None,40.3419189999986,None,40.3419189999986,40.84288290000404,40.3419189999986,40.84288290000404,40.3419189999986,40.84288290000404,40.3419189999986,40.84288290000404,40.3419189999986,None,,,,,,,,,,,,,,,,,,,,,,,,,,,,,,,,,,,,,,,,,,11040,001,2024_Mar_13_1504,nback,2021.2.3,59.93062431127659,
0-back,instructions\back-0.png,conditions\0back-p.xlsx,instructions\0-BACK.png,"(15, 8)",practice,0,1,stim\yellow.png,stim\gray.png,stim\gray.png,stim\gray.png,up,0,0,0,0,0,0,0,0,0,10,10,10,,,,,,,,,,,,,,,,,,,,,,,,,,,41.84573719999753,42.845682700004545,41.84573719999753,42.845682700004545,41.84573719999753,42.845682700004545,41.84573719999753,42.845682700004545,up,1,0.4232988000003388,41.84573719999753,None,41.84573719999753,None,41.84573719999753,42.345012799996766,41.84573719999753,42.345012799996766,41.84573719999753,42.345012799996766,41.84573719999753,42.345012799996766,41.84573719999753,None,,,,,,,,,,,,,,,,,,,,,,,,,,,,,,,,,,,,,,,,,,11040,001,2024_Mar_13_1504,nback,2021.2.3,59.93062431127659,
0-back,instructions\back-0.png,conditions\0back-p.xlsx,instructions\0-BACK.png,"(15, 8)",practice,0,2,stim\gray.png,stim\yellow.png,stim\gray.png,stim\gray.png,left,0,0,0,0,0,0,0,0,0,11,11,11,,,,,,,,,,,,,,,,,,,,,,,,,,,43.346160700006294,44.34816939999291,43.346160700006294,44.34816939999291,43.346160700006294,44.34816939999291,43.346160700006294,44.34816939999291,left,1,0.2835087999992538,43.346160700006294,None,43.346160700006294,None,43.346160700006294,43.84780810000666,43.346160700006294,43.84780810000666,43.346160700006294,43.84780810000666,43.346160700006294,43.84780810000666,43.346160700006294,None,,,,,,,,,,,,,,,,,,,,,,,,,,,,,,,,,,,,,,,,,,11040,001,2024_Mar_13_1504,nback,2021.2.3,59.93062431127659,
0-back,instructions\back-0.png,conditions\0back-p.xlsx,instructions\0-BACK.png,"(15, 8)",practice,0,4,stim\gray.png,stim\gray.png,stim\gray.png,stim\yellow.png,down,0,0,0,0,0,0,0,0,0,12,12,12,,,,,,,,,,,,,,,,,,,,,,,,,,,44.84955650000484,45.85021190000407,44.84955650000484,45.85021190000407,44.84955650000484,45.85021190000407,44.84955650000484,45.85021190000407,down,1,0.7559483000077307,44.84955650000484,None,44.84955650000484,None,44.84955650000484,45.35021720000077,44.84955650000484,45.35021720000077,44.84955650000484,45.35021720000077,44.84955650000484,45.35021720000077,44.84955650000484,None,,,,,,,,,,,,,,,,,,,,,,,,,,,,,,,,,,,,,,,,,,11040,001,2024_Mar_13_1504,nback,2021.2.3,59.93062431127659,
0-back,instructions\back-0.png,conditions\0back-p.xlsx,instructions\0-BACK.png,"(15, 8)",practice,0,3,stim\gray.png,stim\gray.png,stim\yellow.png,stim\gray.png,right,0,0,0,0,0,0,0,0,0,13,13,13,,,,,,,,,,,,,,,,,,,,,,,,,,,46.35074809999787,47.352364899998065,46.35074809999787,47.352364899998065,46.35074809999787,47.352364899998065,46.35074809999787,47.352364899998065,right,1,0.49416309999651276,46.35074809999787,None,46.35074809999787,None,46.35074809999787,46.85142419999465,46.35074809999787,46.85142419999465,46.35074809999787,46.85142419999465,46.35074809999787,46.85142419999465,46.35074809999787,None,,,,,,,,,,,,,,,,,,,,,,,,,,,,,,,,,,,,,,,,,,11040,001,2024_Mar_13_1504,nback,2021.2.3,59.93062431127659,
0-back,instructions\back-0.png,conditions\0back-p.xlsx,instructions\0-BACK.png,"(15, 8)",practice,0,1,stim\yellow.png,stim\gray.png,stim\gray.png,stim\gray.png,up,0,0,0,0,0,0,0,0,0,14,14,14,,,,,,,,,,,,,,,,,,,,,,,,,,,47.83651360000658,48.83815159999358,47.83651360000658,48.83815159999358,47.83651360000658,48.83815159999358,47.83651360000658,48.83815159999358,up,1,0.4091123999969568,47.83651360000658,None,47.83651360000658,None,47.83651360000658,48.337237900006585,47.83651360000658,48.337237900006585,47.83651360000658,48.337237900006585,47.83651360000658,48.337237900006585,47.83651360000658,None,,,,,,,,,,,,,,,,,,,,,,,,,,,,,,,,,,,,,,,,,,11040,001,2024_Mar_13_1504,nback,2021.2.3,59.93062431127659,
0-back,instructions\back-0.png,conditions\0back-p.xlsx,instructions\0-BACK.png,"(15, 8)",practice,0,2,stim\gray.png,stim\yellow.png,stim\gray.png,stim\gray.png,left,0,0,0,0,0,0,0,0,0,15,15,15,,,,,,,,,,,,,,,,,,,,,,,,,,,49.3400810000021,50.34111930000654,49.3400810000021,50.34111930000654,49.3400810000021,50.34111930000654,49.3400810000021,50.34111930000654,left,1,0.37732309999410063,49.3400810000021,None,49.3400810000021,None,49.3400810000021,49.8395629000006,49.3400810000021,49.8395629000006,49.3400810000021,49.8395629000006,49.3400810000021,49.8395629000006,49.3400810000021,None,,,,,,,,,,,,,,,,,,,,,,,,,,,,,,,,,,,,,,,,,,11040,001,2024_Mar_13_1504,nback,2021.2.3,59.93062431127659,
0-back,instructions\back-0.png,conditions\0back-p.xlsx,instructions\0-BACK.png,"(15, 8)",practice,0,3,stim\gray.png,stim\gray.png,stim\yellow.png,stim\gray.png,right,0,0,0,0,0,0,0,0,0,16,16,16,,,,,,,,,,,,,,,,,,,,,,,,,,,50.842147100003785,51.84250030000112,50.842147100003785,51.84250030000112,50.842147100003785,51.84250030000112,50.842147100003785,51.84250030000112,right,1,0.3319011999992654,50.842147100003785,None,50.842147100003785,None,50.842147100003785,51.34343949999311,50.842147100003785,51.34343949999311,50.842147100003785,51.34343949999311,50.842147100003785,51.34343949999311,50.842147100003785,None,,,,,,,,,,,,,,,,,,,,,,,,,,,,,,,,,,,,,,,,,,11040,001,2024_Mar_13_1504,nback,2021.2.3,59.93062431127659,
0-back,instructions\back-0.png,conditions\0back-p.xlsx,instructions\0-BACK.png,"(15, 8)",practice,0,1,stim\yellow.png,stim\gray.png,stim\gray.png,stim\gray.png,up,0,0,0,0,0,0,0,0,0,17,17,17,,,,,,,,,,,,,,,,,,,,,,,,,,,52.34383820000221,53.34523819999595,52.34383820000221,53.34523819999595,52.34383820000221,53.34523819999595,52.34383820000221,53.34523819999595,up,1,0.45363230000657495,52.34383820000221,None,52.34383820000221,None,52.34383820000221,52.84402129999944,52.34383820000221,52.84402129999944,52.34383820000221,52.84402129999944,52.34383820000221,52.84402129999944,52.34383820000221,None,,,,,,,,,,,,,,,,,,,,,,,,,,,,,,,,,,,,,,,,,,11040,001,2024_Mar_13_1504,nback,2021.2.3,59.93062431127659,
0-back,instructions\back-0.png,conditions\0back-p.xlsx,instructions\0-BACK.png,"(15, 8)",practice,0,4,stim\gray.png,stim\gray.png,stim\gray.png,stim\yellow.png,down,0,0,0,0,0,0,0,0,0,18,18,18,,,,,,,,,,,,,,,,,,,,,,,,,,,53.845381199993426,54.84747310000239,53.845381199993426,54.84747310000239,53.845381199993426,54.84747310000239,53.845381199993426,54.84747310000239,down,1,0.4008074999874225,53.845381199993426,None,53.845381199993426,None,53.845381199993426,54.3461382999958,53.845381199993426,54.3461382999958,53.845381199993426,54.3461382999958,53.845381199993426,54.3461382999958,53.845381199993426,None,,,,,,,,,,,,,,,,,,,,,,,,,,,,,,,,,,,,,,,,,,11040,001,2024_Mar_13_1504,nback,2021.2.3,59.93062431127659,
0-back,instructions\back-0.png,conditions\0back-p.xlsx,instructions\0-BACK.png,"(15, 8)",practice,0,2,stim\gray.png,stim\yellow.png,stim\gray.png,stim\gray.png,left,0,0,0,0,0,0,0,0,0,19,19,19,,,,,,,,,,,,,,,,,,,,,,,,,,,55.34774300000572,56.34948410000652,55.34774300000572,56.34948410000652,55.34774300000572,56.34948410000652,55.34774300000572,56.34948410000652,left,1,0.3214961000048788,55.34774300000572,None,55.34774300000572,None,55.34774300000572,55.84940629999619,55.34774300000572,55.84940629999619,55.34774300000572,55.84940629999619,55.34774300000572,55.84940629999619,55.34774300000572,None,,,,,,,,,,,,,,,,,,,,,,,,,,,,,,,,,,,,,,,,,,11040,001,2024_Mar_13_1504,nback,2021.2.3,59.93062431127659,
0-back,instructions\back-0.png,conditions\0back-p.xlsx,instructions\0-BACK.png,"(15, 8)",,,,,,,,,0,0,0,0,0,0,0,0,,,,,,,,,,,,,,,,,,,,,,,,,,,,,,,,,,,,,,,,,,,,,,,,,,,,,,,,,,,,,,,,,,,,,,,,,,,,,,,,,,,,,,,,,,,,,,,,,11040,001,2024_Mar_13_1504,nback,2021.2.3,59.93062431127659,
1-back,instructions\back-1.png,conditions\1back-p.xlsx,instructions\1-BACK.png,"(25, 15)",practice,1,1,stim\yellow.png,stim\gray.png,stim\gray.png,stim\gray.png,None,0,0,0,0,0,1,1,1,0,0,0,0,,,,,,,,,,,,,,,,,57.03365660000418,None,space,4.236184800000046,57.03365660000418,None,61.40739380000741,65.91468309999618,65.88037139999506,None,66.31610219999857,67.31620390000171,66.31610219999857,67.31620390000171,66.31610219999857,67.31620390000171,66.31610219999857,67.31620390000171,None,1,,66.31610219999857,None,66.31610219999857,None,66.31610219999857,66.81508709999616,66.31610219999857,66.81508709999616,66.31610219999857,66.81508709999616,66.31610219999857,66.81508709999616,66.31610219999857,None,,,,,,,,,,,,,,,,,,,,,,,,,,,,,,,,,,,,,,,,,,11040,001,2024_Mar_13_1504,nback,2021.2.3,59.93062431127659,
1-back,instructions\back-1.png,conditions\1back-p.xlsx,instructions\1-BACK.png,"(25, 15)",practice,1,2,stim\gray.png,stim\yellow.png,stim\gray.png,stim\gray.png,up,0,0,0,0,0,1,1,1,0,1,1,1,,,,,,,,,,,,,,,,,,,,,,,,,,,67.80032160000701,68.8019490000006,67.80032160000701,68.8019490000006,67.80032160000701,68.8019490000006,67.80032160000701,68.8019490000006,up,1,0.4216434999980265,67.80032160000701,None,67.80032160000701,None,67.80032160000701,68.30044770000677,67.80032160000701,68.30044770000677,67.80032160000701,68.30044770000677,67.80032160000701,68.30044770000677,67.80032160000701,None,,,,,,,,,,,,,,,,,,,,,,,,,,,,,,,,,,,,,,,,,,11040,001,2024_Mar_13_1504,nback,2021.2.3,59.93062431127659,
1-back,instructions\back-1.png,conditions\1back-p.xlsx,instructions\1-BACK.png,"(25, 15)",practice,1,3,stim\gray.png,stim\gray.png,stim\yellow.png,stim\gray.png,left,0,0,0,0,0,1,1,1,0,2,2,2,,,,,,,,,,,,,,,,,,,,,,,,,,,69.30222830000275,70.30418930000451,69.30222830000275,70.30418930000451,69.30222830000275,70.30418930000451,69.30222830000275,70.30418930000451,left,1,0.28790830000070855,69.30222830000275,None,69.30222830000275,None,69.30222830000275,69.80289720000292,69.30222830000275,69.80289720000292,69.30222830000275,69.80289720000292,69.30222830000275,69.80289720000292,69.30222830000275,None,,,,,,,,,,,,,,,,,,,,,,,,,,,,,,,,,,,,,,,,,,11040,001,2024_Mar_13_1504,nback,2021.2.3,59.93062431127659,
1-back,instructions\back-1.png,conditions\1back-p.xlsx,instructions\1-BACK.png,"(25, 15)",practice,1,4,stim\gray.png,stim\gray.png,stim\gray.png,stim\yellow.png,right,0,0,0,0,0,1,1,1,0,3,3,3,,,,,,,,,,,,,,,,,,,,,,,,,,,70.8044116999954,71.80586799999583,70.8044116999954,71.80586799999583,70.8044116999954,71.80586799999583,70.8044116999954,71.80586799999583,right,1,0.1776782000088133,70.8044116999954,None,70.8044116999954,None,70.8044116999954,71.30539759999374,70.8044116999954,71.30539759999374,70.8044116999954,71.30539759999374,70.8044116999954,71.30539759999374,70.8044116999954,None,,,,,,,,,,,,,,,,,,,,,,,,,,,,,,,,,,,,,,,,,,11040,001,2024_Mar_13_1504,nback,2021.2.3,59.93062431127659,
1-back,instructions\back-1.png,conditions\1back-p.xlsx,instructions\1-BACK.png,"(25, 15)",practice,1,2,stim\gray.png,stim\yellow.png,stim\gray.png,stim\gray.png,down,0,0,0,0,0,1,1,1,0,4,4,4,,,,,,,,,,,,,,,,,,,,,,,,,,,72.3068568000017,73.30802179999591,72.3068568000017,73.30802179999591,72.3068568000017,73.30802179999591,72.3068568000017,73.30802179999591,down,1,0.20306549999804702,72.3068568000017,None,72.3068568000017,None,72.3068568000017,72.80857399999513,72.3068568000017,72.80857399999513,72.3068568000017,72.80857399999513,72.3068568000017,72.80857399999513,72.3068568000017,None,,,,,,,,,,,,,,,,,,,,,,,,,,,,,,,,,,,,,,,,,,11040,001,2024_Mar_13_1504,nback,2021.2.3,59.93062431127659,
1-back,instructions\back-1.png,conditions\1back-p.xlsx,instructions\1-BACK.png,"(25, 15)",practice,1,1,stim\yellow.png,stim\gray.png,stim\gray.png,stim\gray.png,left,0,0,0,0,0,1,1,1,0,5,5,5,,,,,,,,,,,,,,,,,,,,,,,,,,,73.80896120000398,74.8105768999958,73.80896120000398,74.8105768999958,73.80896120000398,74.8105768999958,73.80896120000398,74.8105768999958,left,1,0.03730409999843687,73.80896120000398,None,73.80896120000398,None,73.80896120000398,74.31044509999629,73.80896120000398,74.31044509999629,73.80896120000398,74.31044509999629,73.80896120000398,74.31044509999629,73.80896120000398,None,,,,,,,,,,,,,,,,,,,,,,,,,,,,,,,,,,,,,,,,,,11040,001,2024_Mar_13_1504,nback,2021.2.3,59.93062431127659,
1-back,instructions\back-1.png,conditions\1back-p.xlsx,instructions\1-BACK.png,"(25, 15)",practice,1,4,stim\gray.png,stim\gray.png,stim\gray.png,stim\yellow.png,up,0,0,0,0,0,1,1,1,0,6,6,6,,,,,,,,,,,,,,,,,,,,,,,,,,,75.29445499999565,76.29617240000516,75.29445499999565,76.29617240000516,75.29445499999565,76.29617240000516,75.29445499999565,76.29617240000516,up,1,0.6642948999942746,75.29445499999565,None,75.29445499999565,None,75.29445499999565,75.79610649999813,75.29445499999565,75.79610649999813,75.29445499999565,75.79610649999813,75.29445499999565,75.79610649999813,75.29445499999565,None,,,,,,,,,,,,,,,,,,,,,,,,,,,,,,,,,,,,,,,,,,11040,001,2024_Mar_13_1504,nback,2021.2.3,59.93062431127659,
1-back,instructions\back-1.png,conditions\1back-p.xlsx,instructions\1-BACK.png,"(25, 15)",practice,1,3,stim\gray.png,stim\gray.png,stim\yellow.png,stim\gray.png,down,0,0,0,0,0,1,1,1,0,7,7,7,,,,,,,,,,,,,,,,,,,,,,,,,,,76.79689040000085,77.79853840000578,76.79689040000085,77.79853840000578,76.79689040000085,77.79853840000578,76.79689040000085,77.79853840000578,down,1,1.0092051999963587,76.79689040000085,None,76.79689040000085,None,76.79689040000085,77.2974860999966,76.79689040000085,77.2974860999966,76.79689040000085,77.2974860999966,76.79689040000085,77.2974860999966,76.79689040000085,None,,,,,,,,,,,,,,,,,,,,,,,,,,,,,,,,,,,,,,,,,,11040,001,2024_Mar_13_1504,nback,2021.2.3,59.93062431127659,
1-back,instructions\back-1.png,conditions\1back-p.xlsx,instructions\1-BACK.png,"(25, 15)",practice,1,3,stim\gray.png,stim\gray.png,stim\yellow.png,stim\gray.png,right,0,0,0,0,0,1,1,1,0,8,8,8,,,,,,,,,,,,,,,,,,,,,,,,,,,78.29968169999484,79.30049839999992,78.29968169999484,79.30049839999992,78.29968169999484,79.30049839999992,78.29968169999484,79.30049839999992,None,0,,78.29968169999484,None,78.29968169999484,None,78.29968169999484,78.80006100000173,78.29968169999484,78.80006100000173,78.29968169999484,78.80006100000173,78.29968169999484,78.80006100000173,78.29968169999484,None,,,,,,,,,,,,,,,,,,,,,,,,,,,,,,,,,,,,,,,,,,11040,001,2024_Mar_13_1504,nback,2021.2.3,59.93062431127659,
1-back,instructions\back-1.png,conditions\1back-p.xlsx,instructions\1-BACK.png,"(25, 15)",practice,1,4,stim\gray.png,stim\gray.png,stim\gray.png,stim\yellow.png,right,0,0,0,0,0,1,1,1,0,9,9,9,,,,,,,,,,,,,,,,,,,,,,,,,,,79.80145990000165,80.80343739999807,79.80145990000165,80.80343739999807,79.80145990000165,80.80343739999807,79.80145990000165,80.80343739999807,None,0,,79.80145990000165,None,79.80145990000165,None,79.80145990000165,80.3020053000073,79.80145990000165,80.3020053000073,79.80145990000165,80.3020053000073,79.80145990000165,80.3020053000073,79.80145990000165,None,,,,,,,,,,,,,,,,,,,,,,,,,,,,,,,,,,,,,,,,,,11040,001,2024_Mar_13_1504,nback,2021.2.3,59.93062431127659,
1-back,instructions\back-1.png,conditions\1back-p.xlsx,instructions\1-BACK.png,"(25, 15)",practice,1,1,stim\yellow.png,stim\gray.png,stim\gray.png,stim\gray.png,down,0,0,0,0,0,1,1,1,0,10,10,10,,,,,,,,,,,,,,,,,,,,,,,,,,,81.30505789999734,82.30510060000233,81.30505789999734,82.30510060000233,81.30505789999734,82.30510060000233,81.30505789999734,82.30510060000233,up,0,0.43744259999948554,81.30505789999734,None,81.30505789999734,None,81.30505789999734,81.80507499999658,81.30505789999734,81.80507499999658,81.30505789999734,81.80507499999658,81.30505789999734,81.80507499999658,81.30505789999734,None,,,,,,,,,,,,,,,,,,,,,,,,,,,,,,,,,,,,,,,,,,11040,001,2024_Mar_13_1504,nback,2021.2.3,59.93062431127659,
1-back,instructions\back-1.png,conditions\1back-p.xlsx,instructions\1-BACK.png,"(25, 15)",practice,1,2,stim\gray.png,stim\yellow.png,stim\gray.png,stim\gray.png,up,0,0,0,0,0,1,1,1,0,11,11,11,,,,,,,,,,,,,,,,,,,,,,,,,,,82.80576570000267,83.80812359999982,82.80576570000267,83.80812359999982,82.80576570000267,83.80812359999982,82.80576570000267,83.80812359999982,up,1,1.1365454000042519,82.80576570000267,None,82.80576570000267,None,82.80576570000267,83.30793989999802,82.80576570000267,83.30793989999802,82.80576570000267,83.30793989999802,82.80576570000267,83.30793989999802,82.80576570000267,None,,,,,,,,,,,,,,,,,,,,,,,,,,,,,,,,,,,,,,,,,,11040,001,2024_Mar_13_1504,nback,2021.2.3,59.93062431127659,
1-back,instructions\back-1.png,conditions\1back-p.xlsx,instructions\1-BACK.png,"(25, 15)",practice,1,4,stim\gray.png,stim\gray.png,stim\gray.png,stim\yellow.png,left,0,0,0,0,0,1,1,1,0,12,12,12,,,,,,,,,,,,,,,,,,,,,,,,,,,84.30813039999339,85.30971169999975,84.30813039999339,85.30971169999975,84.30813039999339,85.30971169999975,84.30813039999339,85.30971169999975,left,1,1.0101434999960475,84.30813039999339,None,84.30813039999339,None,84.30813039999339,84.80880830000388,84.30813039999339,84.80880830000388,84.30813039999339,84.80880830000388,84.30813039999339,84.80880830000388,84.30813039999339,None,,,,,,,,,,,,,,,,,,,,,,,,,,,,,,,,,,,,,,,,,,11040,001,2024_Mar_13_1504,nback,2021.2.3,59.93062431127659,
1-back,instructions\back-1.png,conditions\1back-p.xlsx,instructions\1-BACK.png,"(25, 15)",practice,1,3,stim\gray.png,stim\gray.png,stim\yellow.png,stim\gray.png,down,0,0,0,0,0,1,1,1,0,13,13,13,,,,,,,,,,,,,,,,,,,,,,,,,,,85.81041960000584,86.81182869999611,85.81041960000584,86.81182869999611,85.81041960000584,86.81182869999611,85.81041960000584,86.81182869999611,down,1,0.6036949999979697,85.81041960000584,None,85.81041960000584,None,85.81041960000584,86.31115389999468,85.81041960000584,86.31115389999468,85.81041960000584,86.31115389999468,85.81041960000584,86.31115389999468,85.81041960000584,None,,,,,,,,,,,,,,,,,,,,,,,,,,,,,,,,,,,,,,,,,,11040,001,2024_Mar_13_1504,nback,2021.2.3,59.93062431127659,
1-back,instructions\back-1.png,conditions\1back-p.xlsx,instructions\1-BACK.png,"(25, 15)",practice,1,1,stim\yellow.png,stim\gray.png,stim\gray.png,stim\gray.png,right,0,0,0,0,0,1,1,1,0,14,14,14,,,,,,,,,,,,,,,,,,,,,,,,,,,87.29598490000353,88.29727090000233,87.29598490000353,88.29727090000233,87.29598490000353,88.29727090000233,87.29598490000353,88.29727090000233,right,1,1.0702890999964438,87.29598490000353,None,87.29598490000353,None,87.29598490000353,87.7966882000037,87.29598490000353,87.7966882000037,87.29598490000353,87.7966882000037,87.29598490000353,87.7966882000037,87.29598490000353,None,,,,,,,,,,,,,,,,,,,,,,,,,,,,,,,,,,,,,,,,,,11040,001,2024_Mar_13_1504,nback,2021.2.3,59.93062431127659,
1-back,instructions\back-1.png,conditions\1back-p.xlsx,instructions\1-BACK.png,"(25, 15)",practice,1,2,stim\gray.png,stim\yellow.png,stim\gray.png,stim\gray.png,up,0,0,0,0,0,1,1,1,0,15,15,15,,,,,,,,,,,,,,,,,,,,,,,,,,,88.7985320000007,89.79988069999672,88.7985320000007,89.79988069999672,88.7985320000007,89.79988069999672,88.7985320000007,89.79988069999672,up,1,0.7918502999964403,88.7985320000007,None,88.7985320000007,None,88.7985320000007,89.29896250000456,88.7985320000007,89.29896250000456,88.7985320000007,89.29896250000456,88.7985320000007,89.29896250000456,88.7985320000007,None,,,,,,,,,,,,,,,,,,,,,,,,,,,,,,,,,,,,,,,,,,11040,001,2024_Mar_13_1504,nback,2021.2.3,59.93062431127659,
1-back,instructions\back-1.png,conditions\1back-p.xlsx,instructions\1-BACK.png,"(25, 15)",practice,1,3,stim\gray.png,stim\gray.png,stim\yellow.png,stim\gray.png,left,0,0,0,0,0,1,1,1,0,16,16,16,,,,,,,,,,,,,,,,,,,,,,,,,,,90.3004590000055,91.30349160000333,90.3004590000055,91.30349160000333,90.3004590000055,91.30349160000333,90.3004590000055,91.30349160000333,left,1,1.081982000003336,90.3004590000055,None,90.3004590000055,None,90.3004590000055,90.80210210000223,90.3004590000055,90.80210210000223,90.3004590000055,90.80210210000223,90.3004590000055,90.80210210000223,90.3004590000055,None,,,,,,,,,,,,,,,,,,,,,,,,,,,,,,,,,,,,,,,,,,11040,001,2024_Mar_13_1504,nback,2021.2.3,59.93062431127659,
1-back,instructions\back-1.png,conditions\1back-p.xlsx,instructions\1-BACK.png,"(25, 15)",practice,1,1,stim\yellow.png,stim\gray.png,stim\gray.png,stim\gray.png,right,0,0,0,0,0,1,1,1,0,17,17,17,,,,,,,,,,,,,,,,,,,,,,,,,,,91.8027332000056,92.80437759999768,91.8027332000056,92.80437759999768,91.8027332000056,92.80437759999768,91.8027332000056,92.80437759999768,right,1,1.1635066000017105,91.8027332000056,None,91.8027332000056,None,91.8027332000056,92.30354409999563,91.8027332000056,92.30354409999563,91.8027332000056,92.30354409999563,91.8027332000056,92.30354409999563,91.8027332000056,None,,,,,,,,,,,,,,,,,,,,,,,,,,,,,,,,,,,,,,,,,,11040,001,2024_Mar_13_1504,nback,2021.2.3,59.93062431127659,
1-back,instructions\back-1.png,conditions\1back-p.xlsx,instructions\1-BACK.png,"(25, 15)",practice,1,4,stim\gray.png,stim\gray.png,stim\gray.png,stim\yellow.png,up,0,0,0,0,0,1,1,1,0,18,18,18,,,,,,,,,,,,,,,,,,,,,,,,,,,93.30499540000164,94.30664169999363,93.30499540000164,94.30664169999363,93.30499540000164,94.30664169999363,93.30499540000164,94.30664169999363,up,1,0.8452343999961158,93.30499540000164,None,93.30499540000164,None,93.30499540000164,93.80667570000514,93.30499540000164,93.80667570000514,93.30499540000164,93.80667570000514,93.30499540000164,93.80667570000514,93.30499540000164,None,,,,,,,,,,,,,,,,,,,,,,,,,,,,,,,,,,,,,,,,,,11040,001,2024_Mar_13_1504,nback,2021.2.3,59.93062431127659,
1-back,instructions\back-1.png,conditions\1back-p.xlsx,instructions\1-BACK.png,"(25, 15)",practice,1,2,stim\gray.png,stim\yellow.png,stim\gray.png,stim\gray.png,down,0,0,0,0,0,1,1,1,0,19,19,19,,,,,,,,,,,,,,,,,,,,,,,,,,,94.80736589999287,95.8095941000065,94.80736589999287,95.8095941000065,94.80736589999287,95.8095941000065,94.80736589999287,95.8095941000065,None,0,,94.80736589999287,None,94.80736589999287,None,94.80736589999287,95.30798260000302,94.80736589999287,95.30798260000302,94.80736589999287,95.30798260000302,94.80736589999287,95.30798260000302,94.80736589999287,None,,,,,,,,,,,,,,,,,,,,,,,,,,,,,,,,,,,,,,,,,,11040,001,2024_Mar_13_1504,nback,2021.2.3,59.93062431127659,
1-back,instructions\back-1.png,conditions\1back-p.xlsx,instructions\1-BACK.png,"(25, 15)",,,,,,,,,0,0,0,0,0,1,1,1,,,,,,,,,,,,,,,,,,,,,,,,,,,,,,,,,,,,,,,,,,,,,,,,,,,,,,,,,,,,,,,,,,,,,,,,,,,,,,,,,,,,,,,,,,,,,,,,,11040,001,2024_Mar_13_1504,nback,2021.2.3,59.93062431127659,
2-back,instructions\back-2.png,conditions\2back-p.xlsx,instructions\2-BACK.png,"(25, 15)",practice,2,1,stim\yellow.png,stim\gray.png,stim\gray.png,stim\gray.png,None,0,0,0,0,0,2,2,2,0,0,0,0,,,,,,,,,,,,,,,,,96.45986309999716,None,space,7.043434000006528,96.45986309999716,None,103.71988869999768,108.22848710000108,108.1778106999991,None,108.54594039999938,109.54609469999559,108.54594039999938,109.54609469999559,108.54594039999938,109.54609469999559,108.54594039999938,109.54609469999559,None,1,,108.54594039999938,None,108.54594039999938,None,108.54594039999938,109.04530699999304,108.54594039999938,109.04530699999304,108.54594039999938,109.04530699999304,108.54594039999938,109.04530699999304,108.54594039999938,None,,,,,,,,,,,,,,,,,,,,,,,,,,,,,,,,,,,,,,,,,,11040,001,2024_Mar_13_1504,nback,2021.2.3,59.93062431127659,
2-back,instructions\back-2.png,conditions\2back-p.xlsx,instructions\2-BACK.png,"(25, 15)",practice,2,2,stim\gray.png,stim\yellow.png,stim\gray.png,stim\gray.png,None,0,0,0,0,0,2,2,2,0,1,1,1,,,,,,,,,,,,,,,,,,,,,,,,,,,110.03019210000639,111.03168270000606,110.03019210000639,111.03168270000606,110.03019210000639,111.03168270000606,110.03019210000639,111.03168270000606,None,1,,110.03019210000639,None,110.03019210000639,None,110.03019210000639,110.53154240000003,110.03019210000639,110.53154240000003,110.03019210000639,110.53154240000003,110.03019210000639,110.53154240000003,110.03019210000639,None,,,,,,,,,,,,,,,,,,,,,,,,,,,,,,,,,,,,,,,,,,11040,001,2024_Mar_13_1504,nback,2021.2.3,59.93062431127659,
2-back,instructions\back-2.png,conditions\2back-p.xlsx,instructions\2-BACK.png,"(25, 15)",practice,2,3,stim\gray.png,stim\gray.png,stim\yellow.png,stim\gray.png,up,0,0,0,0,0,2,2,2,0,2,2,2,,,,,,,,,,,,,,,,,,,,,,,,,,,111.53257450000092,112.53412769999704,111.53257450000092,112.53412769999704,111.53257450000092,112.53412769999704,111.53257450000092,112.53412769999704,up,1,0.4186645000008866,111.53257450000092,None,111.53257450000092,None,111.53257450000092,112.03328269999474,111.53257450000092,112.03328269999474,111.53257450000092,112.03328269999474,111.53257450000092,112.03328269999474,111.53257450000092,None,,,,,,,,,,,,,,,,,,,,,,,,,,,,,,,,,,,,,,,,,,11040,001,2024_Mar_13_1504,nback,2021.2.3,59.93062431127659,
2-back,instructions\back-2.png,conditions\2back-p.xlsx,instructions\2-BACK.png,"(25, 15)",practice,2,4,stim\gray.png,stim\gray.png,stim\gray.png,stim\yellow.png,left,0,0,0,0,0,2,2,2,0,3,3,3,,,,,,,,,,,,,,,,,,,,,,,,,,,113.0350666000013,114.0362341,113.0350666000013,114.0362341,113.0350666000013,114.0362341,113.0350666000013,114.0362341,right,0,1.171820600007777,113.0350666000013,None,113.0350666000013,None,113.0350666000013,113.53549759999441,113.0350666000013,113.53549759999441,113.0350666000013,113.53549759999441,113.0350666000013,113.53549759999441,113.0350666000013,None,,,,,,,,,,,,,,,,,,,,,,,,,,,,,,,,,,,,,,,,,,11040,001,2024_Mar_13_1504,nback,2021.2.3,59.93062431127659,
2-back,instructions\back-2.png,conditions\2back-p.xlsx,instructions\2-BACK.png,"(25, 15)",practice,2,2,stim\gray.png,stim\yellow.png,stim\gray.png,stim\gray.png,right,0,0,0,0,0,2,2,2,0,4,4,4,,,,,,,,,,,,,,,,,,,,,,,,,,,114.53718889999436,115.53861760000291,114.53718889999436,115.53861760000291,114.53718889999436,115.53861760000291,114.53718889999436,115.53861760000291,down,0,0.5344240000122227,114.53718889999436,None,114.53718889999436,None,114.53718889999436,115.03782349999528,114.53718889999436,115.03782349999528,114.53718889999436,115.03782349999528,114.53718889999436,115.03782349999528,114.53718889999436,None,,,,,,,,,,,,,,,,,,,,,,,,,,,,,,,,,,,,,,,,,,11040,001,2024_Mar_13_1504,nback,2021.2.3,59.93062431127659,
2-back,instructions\back-2.png,conditions\2back-p.xlsx,instructions\2-BACK.png,"(25, 15)",practice,2,1,stim\yellow.png,stim\gray.png,stim\gray.png,stim\gray.png,down,0,0,0,0,0,2,2,2,0,5,5,5,,,,,,,,,,,,,,,,,,,,,,,,,,,116.03930800000671,117.04179580000346,116.03930800000671,117.04179580000346,116.03930800000671,117.04179580000346,116.03930800000671,117.04179580000346,left,0,0.2559810000093421,116.03930800000671,None,116.03930800000671,None,116.03930800000671,116.54090530000394,116.03930800000671,116.54090530000394,116.03930800000671,116.54090530000394,116.03930800000671,116.54090530000394,116.03930800000671,None,,,,,,,,,,,,,,,,,,,,,,,,,,,,,,,,,,,,,,,,,,11040,001,2024_Mar_13_1504,nback,2021.2.3,59.93062431127659,
2-back,instructions\back-2.png,conditions\2back-p.xlsx,instructions\2-BACK.png,"(25, 15)",practice,2,4,stim\gray.png,stim\gray.png,stim\gray.png,stim\yellow.png,left,0,0,0,0,0,2,2,2,0,6,6,6,,,,,,,,,,,,,,,,,,,,,,,,,,,117.52564589999383,118.52783799999452,117.52564589999383,118.52783799999452,117.52564589999383,118.52783799999452,117.52564589999383,118.52783799999452,None,0,,117.52564589999383,None,117.52564589999383,None,117.52564589999383,118.02550139999948,117.52564589999383,118.02550139999948,117.52564589999383,118.02550139999948,117.52564589999383,118.02550139999948,117.52564589999383,None,,,,,,,,,,,,,,,,,,,,,,,,,,,,,,,,,,,,,,,,,,11040,001,2024_Mar_13_1504,nback,2021.2.3,59.93062431127659,
2-back,instructions\back-2.png,conditions\2back-p.xlsx,instructions\2-BACK.png,"(25, 15)",practice,2,3,stim\gray.png,stim\gray.png,stim\yellow.png,stim\gray.png,up,0,0,0,0,0,2,2,2,0,7,7,7,,,,,,,,,,,,,,,,,,,,,,,,,,,119.0272427000018,120.02933119999943,119.0272427000018,120.02933119999943,119.0272427000018,120.02933119999943,119.0272427000018,120.02933119999943,None,0,,119.0272427000018,None,119.0272427000018,None,119.0272427000018,119.52789519999351,119.0272427000018,119.52789519999351,119.0272427000018,119.52789519999351,119.0272427000018,119.52789519999351,119.0272427000018,None,,,,,,,,,,,,,,,,,,,,,,,,,,,,,,,,,,,,,,,,,,11040,001,2024_Mar_13_1504,nback,2021.2.3,59.93062431127659,
2-back,instructions\back-2.png,conditions\2back-p.xlsx,instructions\2-BACK.png,"(25, 15)",practice,2,3,stim\gray.png,stim\gray.png,stim\yellow.png,stim\gray.png,down,0,0,0,0,0,2,2,2,0,8,8,8,,,,,,,,,,,,,,,,,,,,,,,,,,,120.52953470000648,121.53075330000138,120.52953470000648,121.53075330000138,120.52953470000648,121.53075330000138,120.52953470000648,121.53075330000138,None,0,,120.52953470000648,None,120.52953470000648,None,120.52953470000648,121.03101340000285,120.52953470000648,121.03101340000285,120.52953470000648,121.03101340000285,120.52953470000648,121.03101340000285,120.52953470000648,None,,,,,,,,,,,,,,,,,,,,,,,,,,,,,,,,,,,,,,,,,,11040,001,2024_Mar_13_1504,nback,2021.2.3,59.93062431127659,
2-back,instructions\back-2.png,conditions\2back-p.xlsx,instructions\2-BACK.png,"(25, 15)",practice,2,4,stim\gray.png,stim\gray.png,stim\gray.png,stim\yellow.png,right,0,0,0,0,0,2,2,2,0,9,9,9,,,,,,,,,,,,,,,,,,,,,,,,,,,122.03163270000368,123.03405070000736,122.03163270000368,123.03405070000736,122.03163270000368,123.03405070000736,122.03163270000368,123.03405070000736,None,0,,122.03163270000368,None,122.03163270000368,None,122.03163270000368,122.53247059999558,122.03163270000368,122.53247059999558,122.03163270000368,122.53247059999558,122.03163270000368,122.53247059999558,122.03163270000368,None,,,,,,,,,,,,,,,,,,,,,,,,,,,,,,,,,,,,,,,,,,11040,001,2024_Mar_13_1504,nback,2021.2.3,59.93062431127659,
2-back,instructions\back-2.png,conditions\2back-p.xlsx,instructions\2-BACK.png,"(25, 15)",practice,2,1,stim\yellow.png,stim\gray.png,stim\gray.png,stim\gray.png,right,0,0,0,0,0,2,2,2,0,10,10,10,,,,,,,,,,,,,,,,,,,,,,,,,,,123.5341466999962,124.5355375999934,123.5341466999962,124.5355375999934,123.5341466999962,124.5355375999934,123.5341466999962,124.5355375999934,None,0,,123.5341466999962,None,123.5341466999962,None,123.5341466999962,124.03481219999958,123.5341466999962,124.03481219999958,123.5341466999962,124.03481219999958,123.5341466999962,124.03481219999958,123.5341466999962,None,,,,,,,,,,,,,,,,,,,,,,,,,,,,,,,,,,,,,,,,,,11040,001,2024_Mar_13_1504,nback,2021.2.3,59.93062431127659,
2-back,instructions\back-2.png,conditions\2back-p.xlsx,instructions\2-BACK.png,"(25, 15)",practice,2,2,stim\gray.png,stim\yellow.png,stim\gray.png,stim\gray.png,down,0,0,0,0,0,2,2,2,0,11,11,11,,,,,,,,,,,,,,,,,,,,,,,,,,,125.03626330000407,126.03775370000221,125.03626330000407,126.03775370000221,125.03626330000407,126.03775370000221,125.03626330000407,126.03775370000221,None,0,,125.03626330000407,None,125.03626330000407,None,125.03626330000407,125.53690360000473,125.03626330000407,125.53690360000473,125.03626330000407,125.53690360000473,125.03626330000407,125.53690360000473,125.03626330000407,None,,,,,,,,,,,,,,,,,,,,,,,,,,,,,,,,,,,,,,,,,,11040,001,2024_Mar_13_1504,nback,2021.2.3,59.93062431127659,
2-back,instructions\back-2.png,conditions\2back-p.xlsx,instructions\2-BACK.png,"(25, 15)",practice,2,4,stim\gray.png,stim\gray.png,stim\gray.png,stim\yellow.png,up,0,0,0,0,0,2,2,2,0,12,12,12,,,,,,,,,,,,,,,,,,,,,,,,,,,126.53844200000458,127.53972289999365,126.53844200000458,127.53972289999365,126.53844200000458,127.53972289999365,126.53844200000458,127.53972289999365,up,1,0.34148600000480656,126.53844200000458,None,126.53844200000458,None,126.53844200000458,127.04042499999923,126.53844200000458,127.04042499999923,126.53844200000458,127.04042499999923,126.53844200000458,127.04042499999923,126.53844200000458,None,,,,,,,,,,,,,,,,,,,,,,,,,,,,,,,,,,,,,,,,,,11040,001,2024_Mar_13_1504,nback,2021.2.3,59.93062431127659,
2-back,instructions\back-2.png,conditions\2back-p.xlsx,instructions\2-BACK.png,"(25, 15)",practice,2,3,stim\gray.png,stim\gray.png,stim\yellow.png,stim\gray.png,left,0,0,0,0,0,2,2,2,0,13,13,13,,,,,,,,,,,,,,,,,,,,,,,,,,,128.0412542999984,129.04208250000374,128.0412542999984,129.04208250000374,128.0412542999984,129.04208250000374,128.0412542999984,129.04208250000374,left,1,0.4060686999873724,128.0412542999984,None,128.0412542999984,None,128.0412542999984,128.54133029999502,128.0412542999984,128.54133029999502,128.0412542999984,128.54133029999502,128.0412542999984,128.54133029999502,128.0412542999984,None,,,,,,,,,,,,,,,,,,,,,,,,,,,,,,,,,,,,,,,,,,11040,001,2024_Mar_13_1504,nback,2021.2.3,59.93062431127659,
2-back,instructions\back-2.png,conditions\2back-p.xlsx,instructions\2-BACK.png,"(25, 15)",practice,2,1,stim\yellow.png,stim\gray.png,stim\gray.png,stim\gray.png,down,0,0,0,0,0,2,2,2,0,14,14,14,,,,,,,,,,,,,,,,,,,,,,,,,,,129.5262936000072,130.52785810000205,129.5262936000072,130.52785810000205,129.5262936000072,130.52785810000205,129.5262936000072,130.52785810000205,down,1,0.6411682000034489,129.5262936000072,None,129.5262936000072,None,129.5262936000072,130.02708519999578,129.5262936000072,130.02708519999578,129.5262936000072,130.02708519999578,129.5262936000072,130.02708519999578,129.5262936000072,None,,,,,,,,,,,,,,,,,,,,,,,,,,,,,,,,,,,,,,,,,,11040,001,2024_Mar_13_1504,nback,2021.2.3,59.93062431127659,
2-back,instructions\back-2.png,conditions\2back-p.xlsx,instructions\2-BACK.png,"(25, 15)",practice,2,2,stim\gray.png,stim\yellow.png,stim\gray.png,stim\gray.png,right,0,0,0,0,0,2,2,2,0,15,15,15,,,,,,,,,,,,,,,,,,,,,,,,,,,131.02872849999403,132.03064100000483,131.02872849999403,132.03064100000483,131.02872849999403,132.03064100000483,131.02872849999403,132.03064100000483,up,0,1.4509295000025304,131.02872849999403,None,131.02872849999403,None,131.02872849999403,131.5303574999998,131.02872849999403,131.5303574999998,131.02872849999403,131.5303574999998,131.02872849999403,131.5303574999998,131.02872849999403,None,,,,,,,,,,,,,,,,,,,,,,,,,,,,,,,,,,,,,,,,,,11040,001,2024_Mar_13_1504,nback,2021.2.3,59.93062431127659,
2-back,instructions\back-2.png,conditions\2back-p.xlsx,instructions\2-BACK.png,"(25, 15)",practice,2,3,stim\gray.png,stim\gray.png,stim\yellow.png,stim\gray.png,up,0,0,0,0,0,2,2,2,0,16,16,16,,,,,,,,,,,,,,,,,,,,,,,,,,,132.53074370000104,133.5322382000013,132.53074370000104,133.5322382000013,132.53074370000104,133.5322382000013,132.53074370000104,133.5322382000013,None,0,,132.53074370000104,None,132.53074370000104,None,132.53074370000104,133.03170039999532,132.53074370000104,133.03170039999532,132.53074370000104,133.03170039999532,132.53074370000104,133.03170039999532,132.53074370000104,None,,,,,,,,,,,,,,,,,,,,,,,,,,,,,,,,,,,,,,,,,,11040,001,2024_Mar_13_1504,nback,2021.2.3,59.93062431127659,
2-back,instructions\back-2.png,conditions\2back-p.xlsx,instructions\2-BACK.png,"(25, 15)",practice,2,1,stim\yellow.png,stim\gray.png,stim\gray.png,stim\gray.png,left,0,0,0,0,0,2,2,2,0,17,17,17,,,,,,,,,,,,,,,,,,,,,,,,,,,134.03317249999964,135.03485490000458,134.03317249999964,135.03485490000458,134.03317249999964,135.03485490000458,134.03317249999964,135.03485490000458,None,0,,134.03317249999964,None,134.03317249999964,None,134.03317249999964,134.53358149999985,134.03317249999964,134.53358149999985,134.03317249999964,134.53358149999985,134.03317249999964,134.53358149999985,134.03317249999964,None,,,,,,,,,,,,,,,,,,,,,,,,,,,,,,,,,,,,,,,,,,11040,001,2024_Mar_13_1504,nback,2021.2.3,59.93062431127659,
2-back,instructions\back-2.png,conditions\2back-p.xlsx,instructions\2-BACK.png,"(25, 15)",practice,2,4,stim\gray.png,stim\gray.png,stim\gray.png,stim\yellow.png,right,0,0,0,0,0,2,2,2,0,18,18,18,,,,,,,,,,,,,,,,,,,,,,,,,,,135.53543580000405,136.53651920000266,135.53543580000405,136.53651920000266,135.53543580000405,136.53651920000266,135.53543580000405,136.53651920000266,None,0,,135.53543580000405,None,135.53543580000405,None,135.53543580000405,136.0361375000066,135.53543580000405,136.0361375000066,135.53543580000405,136.0361375000066,135.53543580000405,136.0361375000066,135.53543580000405,None,,,,,,,,,,,,,,,,,,,,,,,,,,,,,,,,,,,,,,,,,,11040,001,2024_Mar_13_1504,nback,2021.2.3,59.93062431127659,
2-back,instructions\back-2.png,conditions\2back-p.xlsx,instructions\2-BACK.png,"(25, 15)",practice,2,2,stim\gray.png,stim\yellow.png,stim\gray.png,stim\gray.png,up,0,0,0,0,0,2,2,2,0,19,19,19,,,,,,,,,,,,,,,,,,,,,,,,,,,137.03750099999888,138.04026840000006,137.03750099999888,138.04026840000006,137.03750099999888,138.04026840000006,137.03750099999888,138.04026840000006,None,0,,137.03750099999888,None,137.03750099999888,None,137.03750099999888,137.53921360000095,137.03750099999888,137.53921360000095,137.03750099999888,137.53921360000095,137.03750099999888,137.53921360000095,137.03750099999888,None,,,,,,,,,,,,,,,,,,,,,,,,,,,,,,,,,,,,,,,,,,11040,001,2024_Mar_13_1504,nback,2021.2.3,59.93062431127659,
2-back,instructions\back-2.png,conditions\2back-p.xlsx,instructions\2-BACK.png,"(25, 15)",,,,,,,,,0,0,0,0,0,2,2,2,,,,,,,,,,,,,,,,,,,,,,,,,,,,,,,,,,,,,,,,,,,,,,,,,,,,,,,,,,,,,,,,,,,,,,,,,,,,,,,,,,,,,,,,,,,,,,,,,11040,001,2024_Mar_13_1504,nback,2021.2.3,59.93062431127659,
,,,,,,,,,,,,,0,0,0,0,,,,,,,,,,,,,,,,,,,,,,,,,,,,,,,,,,,,,,,,,,,,,,,,,,,,,,,,,,,,138.5401825000008,None,s,4.667469200008782,138.5401825000008,None,,,,,,,,,,,,,,,,,,,,,,,,,,,,,,,,,,,,11040,001,2024_Mar_13_1504,nback,2021.2.3,59.93062431127659,
0-back,instructions\back-0.png,conditions\0back-p.xlsx,instructions\0-BACK.png,"(15, 8)",practice,0,1,stim\yellow.png,stim\gray.png,stim\gray.png,stim\gray.png,up,1,0,1,0,0,0,0,0,0,0,0,0,,,,,,,,,,,,,,,,,143.33056729999953,None,space,10.98983180000505,143.33056729999953,None,154.5810363000055,159.08739129999594,159.02080280000519,None,159.3723730000056,160.3725945000042,159.3723730000056,160.3725945000042,159.3723730000056,160.3725945000042,159.3723730000056,160.3725945000042,up,1,0.47559909999836236,159.3723730000056,None,159.3723730000056,None,159.3723730000056,159.87185739999404,159.3723730000056,159.87185739999404,159.3723730000056,159.87185739999404,159.3723730000056,159.87185739999404,159.3723730000056,None,,,,,,,,,,,,,,,,,,,,,,,,,,,,,,,,,,,,,,,,,,11040,001,2024_Mar_13_1504,nback,2021.2.3,59.93062431127659,
0-back,instructions\back-0.png,conditions\0back-p.xlsx,instructions\0-BACK.png,"(15, 8)",practice,0,2,stim\gray.png,stim\yellow.png,stim\gray.png,stim\gray.png,left,1,0,1,0,0,0,0,0,0,1,1,1,,,,,,,,,,,,,,,,,,,,,,,,,,,160.85687950000283,161.85920079999778,160.85687950000283,161.85920079999778,160.85687950000283,161.85920079999778,160.85687950000283,161.85920079999778,left,1,0.33562509999319445,160.85687950000283,None,160.85687950000283,None,160.85687950000283,161.35782049999398,160.85687950000283,161.35782049999398,160.85687950000283,161.35782049999398,160.85687950000283,161.35782049999398,160.85687950000283,None,,,,,,,,,,,,,,,,,,,,,,,,,,,,,,,,,,,,,,,,,,11040,001,2024_Mar_13_1504,nback,2021.2.3,59.93062431127659,
0-back,instructions\back-0.png,conditions\0back-p.xlsx,instructions\0-BACK.png,"(15, 8)",practice,0,3,stim\gray.png,stim\gray.png,stim\yellow.png,stim\gray.png,right,1,0,1,0,0,0,0,0,0,2,2,2,,,,,,,,,,,,,,,,,,,,,,,,,,,162.35927339999762,163.36085120000644,162.35927339999762,163.36085120000644,162.35927339999762,163.36085120000644,162.35927339999762,163.36085120000644,right,1,0.41729720000876114,162.35927339999762,None,162.35927339999762,None,162.35927339999762,162.8607131000026,162.35927339999762,162.8607131000026,162.35927339999762,162.8607131000026,162.35927339999762,162.8607131000026,162.35927339999762,None,,,,,,,,,,,,,,,,,,,,,,,,,,,,,,,,,,,,,,,,,,11040,001,2024_Mar_13_1504,nback,2021.2.3,59.93062431127659,
0-back,instructions\back-0.png,conditions\0back-p.xlsx,instructions\0-BACK.png,"(15, 8)",practice,0,4,stim\gray.png,stim\gray.png,stim\gray.png,stim\yellow.png,down,1,0,1,0,0,0,0,0,0,3,3,3,,,,,,,,,,,,,,,,,,,,,,,,,,,163.8612967999943,164.86371269999654,163.8612967999943,164.86371269999654,163.8612967999943,164.86371269999654,163.8612967999943,164.86371269999654,down,1,0.2996119000017643,163.8612967999943,None,163.8612967999943,None,163.8612967999943,164.36229540000204,163.8612967999943,164.36229540000204,163.8612967999943,164.36229540000204,163.8612967999943,164.36229540000204,163.8612967999943,None,,,,,,,,,,,,,,,,,,,,,,,,,,,,,,,,,,,,,,,,,,11040,001,2024_Mar_13_1504,nback,2021.2.3,59.93062431127659,
0-back,instructions\back-0.png,conditions\0back-p.xlsx,instructions\0-BACK.png,"(15, 8)",practice,0,2,stim\gray.png,stim\yellow.png,stim\gray.png,stim\gray.png,left,1,0,1,0,0,0,0,0,0,4,4,4,,,,,,,,,,,,,,,,,,,,,,,,,,,165.3634910999972,166.36519470000349,165.3634910999972,166.36519470000349,165.3634910999972,166.36519470000349,165.3634910999972,166.36519470000349,left,1,0.325282400008291,165.3634910999972,None,165.3634910999972,None,165.3634910999972,165.86520390000078,165.3634910999972,165.86520390000078,165.3634910999972,165.86520390000078,165.3634910999972,165.86520390000078,165.3634910999972,None,,,,,,,,,,,,,,,,,,,,,,,,,,,,,,,,,,,,,,,,,,11040,001,2024_Mar_13_1504,nback,2021.2.3,59.93062431127659,
0-back,instructions\back-0.png,conditions\0back-p.xlsx,instructions\0-BACK.png,"(15, 8)",practice,0,1,stim\yellow.png,stim\gray.png,stim\gray.png,stim\gray.png,up,1,0,1,0,0,0,0,0,0,5,5,5,,,,,,,,,,,,,,,,,,,,,,,,,,,166.86582940000517,167.8680095000018,166.86582940000517,167.8680095000018,166.86582940000517,167.8680095000018,166.86582940000517,167.8680095000018,up,1,0.3589710000087507,166.86582940000517,None,166.86582940000517,None,166.86582940000517,167.3675133999932,166.86582940000517,167.3675133999932,166.86582940000517,167.3675133999932,166.86582940000517,167.3675133999932,166.86582940000517,None,,,,,,,,,,,,,,,,,,,,,,,,,,,,,,,,,,,,,,,,,,11040,001,2024_Mar_13_1504,nback,2021.2.3,59.93062431127659,
0-back,instructions\back-0.png,conditions\0back-p.xlsx,instructions\0-BACK.png,"(15, 8)",practice,0,4,stim\gray.png,stim\gray.png,stim\gray.png,stim\yellow.png,down,1,0,1,0,0,0,0,0,0,6,6,6,,,,,,,,,,,,,,,,,,,,,,,,,,,168.36822859999666,169.36977990000742,168.36822859999666,169.36977990000742,168.36822859999666,169.36977990000742,168.36822859999666,169.36977990000742,down,1,0.46458839999104384,168.36822859999666,None,168.36822859999666,None,168.36822859999666,168.86892560000706,168.36822859999666,168.86892560000706,168.36822859999666,168.86892560000706,168.36822859999666,168.86892560000706,168.36822859999666,None,,,,,,,,,,,,,,,,,,,,,,,,,,,,,,,,,,,,,,,,,,11040,001,2024_Mar_13_1504,nback,2021.2.3,59.93062431127659,
0-back,instructions\back-0.png,conditions\0back-p.xlsx,instructions\0-BACK.png,"(15, 8)",practice,0,3,stim\gray.png,stim\gray.png,stim\yellow.png,stim\gray.png,right,1,0,1,0,0,0,0,0,0,7,7,7,,,,,,,,,,,,,,,,,,,,,,,,,,,169.85382590000518,170.8552694999962,169.85382590000518,170.8552694999962,169.85382590000518,170.8552694999962,169.85382590000518,170.8552694999962,right,1,0.2989554999949178,169.85382590000518,None,169.85382590000518,None,169.85382590000518,170.35453280000365,169.85382590000518,170.35453280000365,169.85382590000518,170.35453280000365,169.85382590000518,170.35453280000365,169.85382590000518,None,,,,,,,,,,,,,,,,,,,,,,,,,,,,,,,,,,,,,,,,,,11040,001,2024_Mar_13_1504,nback,2021.2.3,59.93062431127659,
0-back,instructions\back-0.png,conditions\0back-p.xlsx,instructions\0-BACK.png,"(15, 8)",practice,0,3,stim\gray.png,stim\gray.png,stim\yellow.png,stim\gray.png,right,1,0,1,0,0,0,0,0,0,8,8,8,,,,,,,,,,,,,,,,,,,,,,,,,,,171.35617410000123,172.35765619999438,171.35617410000123,172.35765619999438,171.35617410000123,172.35765619999438,171.35617410000123,172.35765619999438,right,1,0.3490354999958072,171.35617410000123,None,171.35617410000123,None,171.35617410000123,171.8567347000062,171.35617410000123,171.8567347000062,171.35617410000123,171.8567347000062,171.35617410000123,171.8567347000062,171.35617410000123,None,,,,,,,,,,,,,,,,,,,,,,,,,,,,,,,,,,,,,,,,,,11040,001,2024_Mar_13_1504,nback,2021.2.3,59.93062431127659,
0-back,instructions\back-0.png,conditions\0back-p.xlsx,instructions\0-BACK.png,"(15, 8)",practice,0,4,stim\gray.png,stim\gray.png,stim\gray.png,stim\yellow.png,down,1,0,1,0,0,0,0,0,0,9,9,9,,,,,,,,,,,,,,,,,,,,,,,,,,,172.8581761999958,173.85975560000225,172.8581761999958,173.85975560000225,172.8581761999958,173.85975560000225,172.8581761999958,173.85975560000225,down,1,0.4626012999942759,172.8581761999958,None,172.8581761999958,None,172.8581761999958,173.35993629999575,172.8581761999958,173.35993629999575,172.8581761999958,173.35993629999575,172.8581761999958,173.35993629999575,172.8581761999958,None,,,,,,,,,,,,,,,,,,,,,,,,,,,,,,,,,,,,,,,,,,11040,001,2024_Mar_13_1504,nback,2021.2.3,59.93062431127659,
0-back,instructions\back-0.png,conditions\0back-p.xlsx,instructions\0-BACK.png,"(15, 8)",practice,0,1,stim\yellow.png,stim\gray.png,stim\gray.png,stim\gray.png,up,1,0,1,0,0,0,0,0,0,10,10,10,,,,,,,,,,,,,,,,,,,,,,,,,,,174.36058340000454,175.36202950000006,174.36058340000454,175.36202950000006,174.36058340000454,175.36202950000006,174.36058340000454,175.36202950000006,up,1,0.33605190001253504,174.36058340000454,None,174.36058340000454,None,174.36058340000454,174.86123840000073,174.36058340000454,174.86123840000073,174.36058340000454,174.86123840000073,174.36058340000454,174.86123840000073,174.36058340000454,None,,,,,,,,,,,,,,,,,,,,,,,,,,,,,,,,,,,,,,,,,,11040,001,2024_Mar_13_1504,nback,2021.2.3,59.93062431127659,
0-back,instructions\back-0.png,conditions\0back-p.xlsx,instructions\0-BACK.png,"(15, 8)",practice,0,2,stim\gray.png,stim\yellow.png,stim\gray.png,stim\gray.png,left,1,0,1,0,0,0,0,0,0,11,11,11,,,,,,,,,,,,,,,,,,,,,,,,,,,175.86279889999423,176.86441080000077,175.86279889999423,176.86441080000077,175.86279889999423,176.86441080000077,175.86279889999423,176.86441080000077,left,1,0.2905700999981491,175.86279889999423,None,175.86279889999423,None,175.86279889999423,176.36348450000514,175.86279889999423,176.36348450000514,175.86279889999423,176.36348450000514,175.86279889999423,176.36348450000514,175.86279889999423,None,,,,,,,,,,,,,,,,,,,,,,,,,,,,,,,,,,,,,,,,,,11040,001,2024_Mar_13_1504,nback,2021.2.3,59.93062431127659,
0-back,instructions\back-0.png,conditions\0back-p.xlsx,instructions\0-BACK.png,"(15, 8)",practice,0,4,stim\gray.png,stim\gray.png,stim\gray.png,stim\yellow.png,down,1,0,1,0,0,0,0,0,0,12,12,12,,,,,,,,,,,,,,,,,,,,,,,,,,,177.36541009999928,178.36753889999818,177.36541009999928,178.36753889999818,177.36541009999928,178.36753889999818,177.36541009999928,178.36753889999818,down,1,0.3155116999987513,177.36541009999928,None,177.36541009999928,None,177.36541009999928,177.86675810000452,177.36541009999928,177.86675810000452,177.36541009999928,177.86675810000452,177.36541009999928,177.86675810000452,177.36541009999928,None,,,,,,,,,,,,,,,,,,,,,,,,,,,,,,,,,,,,,,,,,,11040,001,2024_Mar_13_1504,nback,2021.2.3,59.93062431127659,
0-back,instructions\back-0.png,conditions\0back-p.xlsx,instructions\0-BACK.png,"(15, 8)",practice,0,3,stim\gray.png,stim\gray.png,stim\yellow.png,stim\gray.png,right,1,0,1,0,0,0,0,0,0,13,13,13,,,,,,,,,,,,,,,,,,,,,,,,,,,178.86756300000707,179.868719399994,178.86756300000707,179.868719399994,178.86756300000707,179.868719399994,178.86756300000707,179.868719399994,right,1,0.3659614999924088,178.86756300000707,None,178.86756300000707,None,178.86756300000707,179.36835420000716,178.86756300000707,179.36835420000716,178.86756300000707,179.36835420000716,178.86756300000707,179.36835420000716,178.86756300000707,None,,,,,,,,,,,,,,,,,,,,,,,,,,,,,,,,,,,,,,,,,,11040,001,2024_Mar_13_1504,nback,2021.2.3,59.93062431127659,
0-back,instructions\back-0.png,conditions\0back-p.xlsx,instructions\0-BACK.png,"(15, 8)",practice,0,1,stim\yellow.png,stim\gray.png,stim\gray.png,stim\gray.png,up,1,0,1,0,0,0,0,0,0,14,14,14,,,,,,,,,,,,,,,,,,,,,,,,,,,180.35298340000736,181.35503900000185,180.35298340000736,181.35503900000185,180.35298340000736,181.35503900000185,180.35298340000736,181.35503900000185,up,1,0.32835689999046735,180.35298340000736,None,180.35298340000736,None,180.35298340000736,180.85453310000594,180.35298340000736,180.85453310000594,180.35298340000736,180.85453310000594,180.35298340000736,180.85453310000594,180.35298340000736,None,,,,,,,,,,,,,,,,,,,,,,,,,,,,,,,,,,,,,,,,,,11040,001,2024_Mar_13_1504,nback,2021.2.3,59.93062431127659,
0-back,instructions\back-0.png,conditions\0back-p.xlsx,instructions\0-BACK.png,"(15, 8)",practice,0,2,stim\gray.png,stim\yellow.png,stim\gray.png,stim\gray.png,left,1,0,1,0,0,0,0,0,0,15,15,15,,,,,,,,,,,,,,,,,,,,,,,,,,,181.8551554000005,182.85741959999723,181.8551554000005,182.85741959999723,181.8551554000005,182.85741959999723,181.8551554000005,182.85741959999723,left,1,0.2659260000073118,181.8551554000005,None,181.8551554000005,None,181.8551554000005,182.3560737999942,181.8551554000005,182.3560737999942,181.8551554000005,182.3560737999942,181.8551554000005,182.3560737999942,181.8551554000005,None,,,,,,,,,,,,,,,,,,,,,,,,,,,,,,,,,,,,,,,,,,11040,001,2024_Mar_13_1504,nback,2021.2.3,59.93062431127659,
0-back,instructions\back-0.png,conditions\0back-p.xlsx,instructions\0-BACK.png,"(15, 8)",practice,0,3,stim\gray.png,stim\gray.png,stim\yellow.png,stim\gray.png,right,1,0,1,0,0,0,0,0,0,16,16,16,,,,,,,,,,,,,,,,,,,,,,,,,,,183.35735210000712,184.35983820000547,183.35735210000712,184.35983820000547,183.35735210000712,184.35983820000547,183.35735210000712,184.35983820000547,right,1,0.45177610000246204,183.35735210000712,None,183.35735210000712,None,183.35735210000712,183.85907819999557,183.35735210000712,183.85907819999557,183.35735210000712,183.85907819999557,183.35735210000712,183.85907819999557,183.35735210000712,None,,,,,,,,,,,,,,,,,,,,,,,,,,,,,,,,,,,,,,,,,,11040,001,2024_Mar_13_1504,nback,2021.2.3,59.93062431127659,
0-back,instructions\back-0.png,conditions\0back-p.xlsx,instructions\0-BACK.png,"(15, 8)",practice,0,1,stim\yellow.png,stim\gray.png,stim\gray.png,stim\gray.png,up,1,0,1,0,0,0,0,0,0,17,17,17,,,,,,,,,,,,,,,,,,,,,,,,,,,184.8596519999992,185.86122039999464,184.8596519999992,185.86122039999464,184.8596519999992,185.86122039999464,184.8596519999992,185.86122039999464,up,1,0.3493887999939034,184.8596519999992,None,184.8596519999992,None,184.8596519999992,185.36054500000319,184.8596519999992,185.36054500000319,184.8596519999992,185.36054500000319,184.8596519999992,185.36054500000319,184.8596519999992,None,,,,,,,,,,,,,,,,,,,,,,,,,,,,,,,,,,,,,,,,,,11040,001,2024_Mar_13_1504,nback,2021.2.3,59.93062431127659,
0-back,instructions\back-0.png,conditions\0back-p.xlsx,instructions\0-BACK.png,"(15, 8)",practice,0,4,stim\gray.png,stim\gray.png,stim\gray.png,stim\yellow.png,down,1,0,1,0,0,0,0,0,0,18,18,18,,,,,,,,,,,,,,,,,,,,,,,,,,,186.3619289000053,187.36431170000287,186.3619289000053,187.36431170000287,186.3619289000053,187.36431170000287,186.3619289000053,187.36431170000287,down,1,0.4394341000006534,186.3619289000053,None,186.3619289000053,None,186.3619289000053,186.8632898000069,186.3619289000053,186.8632898000069,186.3619289000053,186.8632898000069,186.3619289000053,186.8632898000069,186.3619289000053,None,,,,,,,,,,,,,,,,,,,,,,,,,,,,,,,,,,,,,,,,,,11040,001,2024_Mar_13_1504,nback,2021.2.3,59.93062431127659,
0-back,instructions\back-0.png,conditions\0back-p.xlsx,instructions\0-BACK.png,"(15, 8)",practice,0,2,stim\gray.png,stim\yellow.png,stim\gray.png,stim\gray.png,left,1,0,1,0,0,0,0,0,0,19,19,19,,,,,,,,,,,,,,,,,,,,,,,,,,,187.8643265999999,188.86611699999776,187.8643265999999,188.86611699999776,187.8643265999999,188.86611699999776,187.8643265999999,188.86611699999776,left,1,0.3526679999922635,187.8643265999999,None,187.8643265999999,None,187.8643265999999,188.36500649999653,187.8643265999999,188.36500649999653,187.8643265999999,188.36500649999653,187.8643265999999,188.36500649999653,187.8643265999999,None,,,,,,,,,,,,,,,,,,,,,,,,,,,,,,,,,,,,,,,,,,11040,001,2024_Mar_13_1504,nback,2021.2.3,59.93062431127659,
0-back,instructions\back-0.png,conditions\0back-p.xlsx,instructions\0-BACK.png,"(15, 8)",,,,,,,,,1,0,1,0,0,0,0,0,,,,,,,,,,,,,,,,,,,,,,,,,,,,,,,,,,,,,,,,,,,,,,,,,,,,,,,,,,,,,,,,,,,,,,,,,,,,,,,,,,,,,,,,,,,,,,,,,11040,001,2024_Mar_13_1504,nback,2021.2.3,59.93062431127659,
1-back,instructions\back-1.png,conditions\1back-p.xlsx,instructions\1-BACK.png,"(25, 15)",practice,1,1,stim\yellow.png,stim\gray.png,stim\gray.png,stim\gray.png,None,1,0,1,0,0,1,1,1,0,0,0,0,,,,,,,,,,,,,,,,,189.60013269999763,None,space,7.305364700005157,189.60013269999763,None,197.07826670000213,201.58656820000033,201.56817909999518,None,201.95331749999605,202.95458400000643,201.95331749999605,202.95458400000643,201.95331749999605,202.95458400000643,201.95331749999605,202.95458400000643,None,1,,201.95331749999605,None,201.95331749999605,None,201.95331749999605,202.45311960000254,201.95331749999605,202.45311960000254,201.95331749999605,202.45311960000254,201.95331749999605,202.45311960000254,201.95331749999605,None,,,,,,,,,,,,,,,,,,,,,,,,,,,,,,,,,,,,,,,,,,11040,001,2024_Mar_13_1504,nback,2021.2.3,59.93062431127659,
1-back,instructions\back-1.png,conditions\1back-p.xlsx,instructions\1-BACK.png,"(25, 15)",practice,1,2,stim\gray.png,stim\yellow.png,stim\gray.png,stim\gray.png,up,1,0,1,0,0,1,1,1,0,1,1,1,,,,,,,,,,,,,,,,,,,,,,,,,,,203.4382867999957,204.4391978000058,203.4382867999957,204.4391978000058,203.4382867999957,204.4391978000058,203.4382867999957,204.4391978000058,up,1,0.4113694999978179,203.4382867999957,None,203.4382867999957,None,203.4382867999957,203.93842590000713,203.4382867999957,203.93842590000713,203.4382867999957,203.93842590000713,203.4382867999957,203.93842590000713,203.4382867999957,None,,,,,,,,,,,,,,,,,,,,,,,,,,,,,,,,,,,,,,,,,,11040,001,2024_Mar_13_1504,nback,2021.2.3,59.93062431127659,
1-back,instructions\back-1.png,conditions\1back-p.xlsx,instructions\1-BACK.png,"(25, 15)",practice,1,3,stim\gray.png,stim\gray.png,stim\yellow.png,stim\gray.png,left,1,0,1,0,0,1,1,1,0,2,2,2,,,,,,,,,,,,,,,,,,,,,,,,,,,204.9399953999964,205.94129489999614,204.9399953999964,205.94129489999614,204.9399953999964,205.94129489999614,204.9399953999964,205.94129489999614,left,1,0.3582350999931805,204.9399953999964,None,204.9399953999964,None,204.9399953999964,205.44072280000546,204.9399953999964,205.44072280000546,204.9399953999964,205.44072280000546,204.9399953999964,205.44072280000546,204.9399953999964,None,,,,,,,,,,,,,,,,,,,,,,,,,,,,,,,,,,,,,,,,,,11040,001,2024_Mar_13_1504,nback,2021.2.3,59.93062431127659,
1-back,instructions\back-1.png,conditions\1back-p.xlsx,instructions\1-BACK.png,"(25, 15)",practice,1,4,stim\gray.png,stim\gray.png,stim\gray.png,stim\yellow.png,right,1,0,1,0,0,1,1,1,0,3,3,3,,,,,,,,,,,,,,,,,,,,,,,,,,,206.4421788000036,207.44454609999957,206.4421788000036,207.44454609999957,206.4421788000036,207.44454609999957,206.4421788000036,207.44454609999957,right,1,0.3597116000019014,206.4421788000036,None,206.4421788000036,None,206.4421788000036,206.94388209999306,206.4421788000036,206.94388209999306,206.4421788000036,206.94388209999306,206.4421788000036,206.94388209999306,206.4421788000036,None,,,,,,,,,,,,,,,,,,,,,,,,,,,,,,,,,,,,,,,,,,11040,001,2024_Mar_13_1504,nback,2021.2.3,59.93062431127659,
1-back,instructions\back-1.png,conditions\1back-p.xlsx,instructions\1-BACK.png,"(25, 15)",practice,1,2,stim\gray.png,stim\yellow.png,stim\gray.png,stim\gray.png,down,1,0,1,0,0,1,1,1,0,4,4,4,,,,,,,,,,,,,,,,,,,,,,,,,,,207.9445696000039,208.94631780000054,207.9445696000039,208.94631780000054,207.9445696000039,208.94631780000054,207.9445696000039,208.94631780000054,down,1,0.44911089999368414,207.9445696000039,None,207.9445696000039,None,207.9445696000039,208.44531870000355,207.9445696000039,208.44531870000355,207.9445696000039,208.44531870000355,207.9445696000039,208.44531870000355,207.9445696000039,None,,,,,,,,,,,,,,,,,,,,,,,,,,,,,,,,,,,,,,,,,,11040,001,2024_Mar_13_1504,nback,2021.2.3,59.93062431127659,
1-back,instructions\back-1.png,conditions\1back-p.xlsx,instructions\1-BACK.png,"(25, 15)",practice,1,1,stim\yellow.png,stim\gray.png,stim\gray.png,stim\gray.png,left,1,0,1,0,0,1,1,1,0,5,5,5,,,,,,,,,,,,,,,,,,,,,,,,,,,209.44669329999306,210.44918450000114,209.44669329999306,210.44918450000114,209.44669329999306,210.44918450000114,209.44669329999306,210.44918450000114,None,0,,209.44669329999306,None,209.44669329999306,None,209.44669329999306,209.94813499999873,209.44669329999306,209.94813499999873,209.44669329999306,209.94813499999873,209.44669329999306,209.94813499999873,209.44669329999306,None,,,,,,,,,,,,,,,,,,,,,,,,,,,,,,,,,,,,,,,,,,11040,001,2024_Mar_13_1504,nback,2021.2.3,59.93062431127659,
1-back,instructions\back-1.png,conditions\1back-p.xlsx,instructions\1-BACK.png,"(25, 15)",practice,1,4,stim\gray.png,stim\gray.png,stim\gray.png,stim\yellow.png,up,1,0,1,0,0,1,1,1,0,6,6,6,,,,,,,,,,,,,,,,,,,,,,,,,,,210.93235570000252,211.93392809999932,210.93235570000252,211.93392809999932,210.93235570000252,211.93392809999932,210.93235570000252,211.93392809999932,up,1,0.8216007000009995,210.93235570000252,None,210.93235570000252,None,210.93235570000252,211.43315100000473,210.93235570000252,211.43315100000473,210.93235570000252,211.43315100000473,210.93235570000252,211.43315100000473,210.93235570000252,None,,,,,,,,,,,,,,,,,,,,,,,,,,,,,,,,,,,,,,,,,,11040,001,2024_Mar_13_1504,nback,2021.2.3,59.93062431127659,
1-back,instructions\back-1.png,conditions\1back-p.xlsx,instructions\1-BACK.png,"(25, 15)",practice,1,3,stim\gray.png,stim\gray.png,stim\yellow.png,stim\gray.png,down,1,0,1,0,0,1,1,1,0,7,7,7,,,,,,,,,,,,,,,,,,,,,,,,,,,212.43484849999368,213.436446599997,212.43484849999368,213.436446599997,212.43484849999368,213.436446599997,212.43484849999368,213.436446599997,down,1,0.4868661999935284,212.43484849999368,None,212.43484849999368,None,212.43484849999368,212.93539020000026,212.43484849999368,212.93539020000026,212.43484849999368,212.93539020000026,212.43484849999368,212.93539020000026,212.43484849999368,None,,,,,,,,,,,,,,,,,,,,,,,,,,,,,,,,,,,,,,,,,,11040,001,2024_Mar_13_1504,nback,2021.2.3,59.93062431127659,
1-back,instructions\back-1.png,conditions\1back-p.xlsx,instructions\1-BACK.png,"(25, 15)",practice,1,3,stim\gray.png,stim\gray.png,stim\yellow.png,stim\gray.png,right,1,0,1,0,0,1,1,1,0,8,8,8,,,,,,,,,,,,,,,,,,,,,,,,,,,213.9366832999949,214.93854259999353,213.9366832999949,214.93854259999353,213.9366832999949,214.93854259999353,213.9366832999949,214.93854259999353,right,1,0.5054376000043703,213.9366832999949,None,213.9366832999949,None,213.9366832999949,214.43845830000646,213.9366832999949,214.43845830000646,213.9366832999949,214.43845830000646,213.9366832999949,214.43845830000646,213.9366832999949,None,,,,,,,,,,,,,,,,,,,,,,,,,,,,,,,,,,,,,,,,,,11040,001,2024_Mar_13_1504,nback,2021.2.3,59.93062431127659,
1-back,instructions\back-1.png,conditions\1back-p.xlsx,instructions\1-BACK.png,"(25, 15)",practice,1,4,stim\gray.png,stim\gray.png,stim\gray.png,stim\yellow.png,right,1,0,1,0,0,1,1,1,0,9,9,9,,,,,,,,,,,,,,,,,,,,,,,,,,,215.43911330000265,216.4407627000037,215.43911330000265,216.4407627000037,215.43911330000265,216.4407627000037,215.43911330000265,216.4407627000037,right,1,0.4103451999981189,215.43911330000265,None,215.43911330000265,None,215.43911330000265,215.9400128999987,215.43911330000265,215.9400128999987,215.43911330000265,215.9400128999987,215.43911330000265,215.9400128999987,215.43911330000265,None,,,,,,,,,,,,,,,,,,,,,,,,,,,,,,,,,,,,,,,,,,11040,001,2024_Mar_13_1504,nback,2021.2.3,59.93062431127659,
1-back,instructions\back-1.png,conditions\1back-p.xlsx,instructions\1-BACK.png,"(25, 15)",practice,1,1,stim\yellow.png,stim\gray.png,stim\gray.png,stim\gray.png,down,1,0,1,0,0,1,1,1,0,10,10,10,,,,,,,,,,,,,,,,,,,,,,,,,,,216.9413768999948,217.9429492000054,216.9413768999948,217.9429492000054,216.9413768999948,217.9429492000054,216.9413768999948,217.9429492000054,down,1,0.4686362999927951,216.9413768999948,None,216.9413768999948,None,216.9413768999948,217.44214899999497,216.9413768999948,217.44214899999497,216.9413768999948,217.44214899999497,216.9413768999948,217.44214899999497,216.9413768999948,None,,,,,,,,,,,,,,,,,,,,,,,,,,,,,,,,,,,,,,,,,,11040,001,2024_Mar_13_1504,nback,2021.2.3,59.93062431127659,
1-back,instructions\back-1.png,conditions\1back-p.xlsx,instructions\1-BACK.png,"(25, 15)",practice,1,2,stim\gray.png,stim\yellow.png,stim\gray.png,stim\gray.png,up,1,0,1,0,0,1,1,1,0,11,11,11,,,,,,,,,,,,,,,,,,,,,,,,,,,218.44370699999854,219.44590200000675,218.44370699999854,219.44590200000675,218.44370699999854,219.44590200000675,218.44370699999854,219.44590200000675,up,1,0.2938875000108965,218.44370699999854,None,218.44370699999854,None,218.44370699999854,218.94478190000518,218.44370699999854,218.94478190000518,218.44370699999854,218.94478190000518,218.44370699999854,218.94478190000518,218.44370699999854,None,,,,,,,,,,,,,,,,,,,,,,,,,,,,,,,,,,,,,,,,,,11040,001,2024_Mar_13_1504,nback,2021.2.3,59.93062431127659,
1-back,instructions\back-1.png,conditions\1back-p.xlsx,instructions\1-BACK.png,"(25, 15)",practice,1,4,stim\gray.png,stim\gray.png,stim\gray.png,stim\yellow.png,left,1,0,1,0,0,1,1,1,0,12,12,12,,,,,,,,,,,,,,,,,,,,,,,,,,,219.94598140000016,220.94749390000652,219.94598140000016,220.94749390000652,219.94598140000016,220.94749390000652,219.94598140000016,220.94749390000652,left,1,0.6168280999991111,219.94598140000016,None,219.94598140000016,None,219.94598140000016,220.44663049999508,219.94598140000016,220.44663049999508,219.94598140000016,220.44663049999508,219.94598140000016,220.44663049999508,219.94598140000016,None,,,,,,,,,,,,,,,,,,,,,,,,,,,,,,,,,,,,,,,,,,11040,001,2024_Mar_13_1504,nback,2021.2.3,59.93062431127659,
1-back,instructions\back-1.png,conditions\1back-p.xlsx,instructions\1-BACK.png,"(25, 15)",practice,1,3,stim\gray.png,stim\gray.png,stim\yellow.png,stim\gray.png,down,1,0,1,0,0,1,1,1,0,13,13,13,,,,,,,,,,,,,,,,,,,,,,,,,,,221.44937930000015,222.450328299994,221.44937930000015,222.450328299994,221.44937930000015,222.450328299994,221.44937930000015,222.450328299994,down,1,0.3123656999960076,221.44937930000015,None,221.44937930000015,None,221.44937930000015,221.9503332000022,221.44937930000015,221.9503332000022,221.44937930000015,221.9503332000022,221.44937930000015,221.9503332000022,221.44937930000015,None,,,,,,,,,,,,,,,,,,,,,,,,,,,,,,,,,,,,,,,,,,11040,001,2024_Mar_13_1504,nback,2021.2.3,59.93062431127659,
1-back,instructions\back-1.png,conditions\1back-p.xlsx,instructions\1-BACK.png,"(25, 15)",practice,1,1,stim\yellow.png,stim\gray.png,stim\gray.png,stim\gray.png,right,1,0,1,0,0,1,1,1,0,14,14,14,,,,,,,,,,,,,,,,,,,,,,,,,,,222.93368309999641,223.93523669999558,222.93368309999641,223.93523669999558,222.93368309999641,223.93523669999558,222.93368309999641,223.93523669999558,right,1,0.1886646000057226,222.93368309999641,None,222.93368309999641,None,222.93368309999641,223.43463089999568,222.93368309999641,223.43463089999568,222.93368309999641,223.43463089999568,222.93368309999641,223.43463089999568,222.93368309999641,None,,,,,,,,,,,,,,,,,,,,,,,,,,,,,,,,,,,,,,,,,,11040,001,2024_Mar_13_1504,nback,2021.2.3,59.93062431127659,
1-back,instructions\back-1.png,conditions\1back-p.xlsx,instructions\1-BACK.png,"(25, 15)",practice,1,2,stim\gray.png,stim\yellow.png,stim\gray.png,stim\gray.png,up,1,0,1,0,0,1,1,1,0,15,15,15,,,,,,,,,,,,,,,,,,,,,,,,,,,224.43723549999413,225.43758300000627,224.43723549999413,225.43758300000627,224.43723549999413,225.43758300000627,224.43723549999413,225.43758300000627,up,1,0.21278909999819007,224.43723549999413,None,224.43723549999413,None,224.43723549999413,224.93666449999728,224.43723549999413,224.93666449999728,224.43723549999413,224.93666449999728,224.43723549999413,224.93666449999728,224.43723549999413,None,,,,,,,,,,,,,,,,,,,,,,,,,,,,,,,,,,,,,,,,,,11040,001,2024_Mar_13_1504,nback,2021.2.3,59.93062431127659,
1-back,instructions\back-1.png,conditions\1back-p.xlsx,instructions\1-BACK.png,"(25, 15)",practice,1,3,stim\gray.png,stim\gray.png,stim\yellow.png,stim\gray.png,left,1,0,1,0,0,1,1,1,0,16,16,16,,,,,,,,,,,,,,,,,,,,,,,,,,,225.93817090000084,226.93990539999504,225.93817090000084,226.93990539999504,225.93817090000084,226.93990539999504,225.93817090000084,226.93990539999504,right,0,1.2560450000019046,225.93817090000084,None,225.93817090000084,None,225.93817090000084,226.44086649999372,225.93817090000084,226.44086649999372,225.93817090000084,226.44086649999372,225.93817090000084,226.44086649999372,225.93817090000084,None,,,,,,,,,,,,,,,,,,,,,,,,,,,,,,,,,,,,,,,,,,11040,001,2024_Mar_13_1504,nback,2021.2.3,59.93062431127659,
1-back,instructions\back-1.png,conditions\1back-p.xlsx,instructions\1-BACK.png,"(25, 15)",practice,1,1,stim\yellow.png,stim\gray.png,stim\gray.png,stim\gray.png,right,1,0,1,0,0,1,1,1,0,17,17,17,,,,,,,,,,,,,,,,,,,,,,,,,,,227.44093050000083,228.44186120000086,227.44093050000083,228.44186120000086,227.44093050000083,228.44186120000086,227.44093050000083,228.44186120000086,up,0,0.9529841000039596,227.44093050000083,None,227.44093050000083,None,227.44093050000083,227.94238189999305,227.44093050000083,227.94238189999305,227.44093050000083,227.94238189999305,227.44093050000083,227.94238189999305,227.44093050000083,None,,,,,,,,,,,,,,,,,,,,,,,,,,,,,,,,,,,,,,,,,,11040,001,2024_Mar_13_1504,nback,2021.2.3,59.93062431127659,
1-back,instructions\back-1.png,conditions\1back-p.xlsx,instructions\1-BACK.png,"(25, 15)",practice,1,4,stim\gray.png,stim\gray.png,stim\gray.png,stim\yellow.png,up,1,0,1,0,0,1,1,1,0,18,18,18,,,,,,,,,,,,,,,,,,,,,,,,,,,228.94442349999736,229.94416499999352,228.94442349999736,229.94416499999352,228.94442349999736,229.94416499999352,228.94442349999736,229.94416499999352,None,0,,228.94442349999736,None,228.94442349999736,None,228.94442349999736,229.44433650000428,228.94442349999736,229.44433650000428,228.94442349999736,229.44433650000428,228.94442349999736,229.44433650000428,228.94442349999736,None,,,,,,,,,,,,,,,,,,,,,,,,,,,,,,,,,,,,,,,,,,11040,001,2024_Mar_13_1504,nback,2021.2.3,59.93062431127659,
1-back,instructions\back-1.png,conditions\1back-p.xlsx,instructions\1-BACK.png,"(25, 15)",practice,1,2,stim\gray.png,stim\yellow.png,stim\gray.png,stim\gray.png,down,1,0,1,0,0,1,1,1,0,19,19,19,,,,,,,,,,,,,,,,,,,,,,,,,,,230.44509039999684,231.4480132000026,230.44509039999684,231.4480132000026,230.44509039999684,231.4480132000026,230.44509039999684,231.4480132000026,down,1,0.3011763999966206,230.44509039999684,None,230.44509039999684,None,230.44509039999684,230.94673870000406,230.44509039999684,230.94673870000406,230.44509039999684,230.94673870000406,230.44509039999684,230.94673870000406,230.44509039999684,None,,,,,,,,,,,,,,,,,,,,,,,,,,,,,,,,,,,,,,,,,,11040,001,2024_Mar_13_1504,nback,2021.2.3,59.93062431127659,
1-back,instructions\back-1.png,conditions\1back-p.xlsx,instructions\1-BACK.png,"(25, 15)",,,,,,,,,1,0,1,0,0,1,1,1,,,,,,,,,,,,,,,,,,,,,,,,,,,,,,,,,,,,,,,,,,,,,,,,,,,,,,,,,,,,,,,,,,,,,,,,,,,,,,,,,,,,,,,,,,,,,,,,,11040,001,2024_Mar_13_1504,nback,2021.2.3,59.93062431127659,
2-back,instructions\back-2.png,conditions\2back-p.xlsx,instructions\2-BACK.png,"(25, 15)",practice,2,1,stim\yellow.png,stim\gray.png,stim\gray.png,stim\gray.png,None,1,0,1,0,0,2,2,2,0,0,0,0,,,,,,,,,,,,,,,,,232.13016299999435,None,space,3.256562300011865,232.13016299999435,None,235.568786799995,240.07690879999427,240.00918910000473,None,240.42745489999652,241.42970429999696,240.42745489999652,241.42970429999696,240.42745489999652,241.42970429999696,240.42745489999652,241.42970429999696,None,1,,240.42745489999652,None,240.42745489999652,None,240.42745489999652,240.92745309999736,240.42745489999652,240.92745309999736,240.42745489999652,240.92745309999736,240.42745489999652,240.92745309999736,240.42745489999652,None,,,,,,,,,,,,,,,,,,,,,,,,,,,,,,,,,,,,,,,,,,11040,001,2024_Mar_13_1504,nback,2021.2.3,59.93062431127659,
2-back,instructions\back-2.png,conditions\2back-p.xlsx,instructions\2-BACK.png,"(25, 15)",practice,2,2,stim\gray.png,stim\yellow.png,stim\gray.png,stim\gray.png,None,1,0,1,0,0,2,2,2,0,1,1,1,,,,,,,,,,,,,,,,,,,,,,,,,,,241.912359199996,242.9137095000042,241.912359199996,242.9137095000042,241.912359199996,242.9137095000042,241.912359199996,242.9137095000042,None,1,,241.912359199996,None,241.912359199996,None,241.912359199996,242.41300529999717,241.912359199996,242.41300529999717,241.912359199996,242.41300529999717,241.912359199996,242.41300529999717,241.912359199996,None,,,,,,,,,,,,,,,,,,,,,,,,,,,,,,,,,,,,,,,,,,11040,001,2024_Mar_13_1504,nback,2021.2.3,59.93062431127659,
2-back,instructions\back-2.png,conditions\2back-p.xlsx,instructions\2-BACK.png,"(25, 15)",practice,2,3,stim\gray.png,stim\gray.png,stim\yellow.png,stim\gray.png,up,1,0,1,0,0,2,2,2,0,2,2,2,,,,,,,,,,,,,,,,,,,,,,,,,,,243.41462670000328,244.41597750000074,243.41462670000328,244.41597750000074,243.41462670000328,244.41597750000074,243.41462670000328,244.41597750000074,up,1,0.516597299996647,243.41462670000328,None,243.41462670000328,None,243.41462670000328,243.91662730000098,243.41462670000328,243.91662730000098,243.41462670000328,243.91662730000098,243.41462670000328,243.91662730000098,243.41462670000328,None,,,,,,,,,,,,,,,,,,,,,,,,,,,,,,,,,,,,,,,,,,11040,001,2024_Mar_13_1504,nback,2021.2.3,59.93062431127659,
2-back,instructions\back-2.png,conditions\2back-p.xlsx,instructions\2-BACK.png,"(25, 15)",practice,2,4,stim\gray.png,stim\gray.png,stim\gray.png,stim\yellow.png,left,1,0,1,0,0,2,2,2,0,3,3,3,,,,,,,,,,,,,,,,,,,,,,,,,,,244.91693690000102,245.91974949999712,244.91693690000102,245.91974949999712,244.91693690000102,245.91974949999712,244.91693690000102,245.91974949999712,left,1,0.541674400010379,244.91693690000102,None,244.91693690000102,None,244.91693690000102,245.4176327000023,244.91693690000102,245.4176327000023,244.91693690000102,245.4176327000023,244.91693690000102,245.4176327000023,244.91693690000102,None,,,,,,,,,,,,,,,,,,,,,,,,,,,,,,,,,,,,,,,,,,11040,001,2024_Mar_13_1504,nback,2021.2.3,59.93062431127659,
2-back,instructions\back-2.png,conditions\2back-p.xlsx,instructions\2-BACK.png,"(25, 15)",practice,2,2,stim\gray.png,stim\yellow.png,stim\gray.png,stim\gray.png,right,1,0,1,0,0,2,2,2,0,4,4,4,,,,,,,,,,,,,,,,,,,,,,,,,,,246.41922209999757,247.42131829999562,246.41922209999757,247.42131829999562,246.41922209999757,247.42131829999562,246.41922209999757,247.42131829999562,right,1,0.5673665999929653,246.41922209999757,None,246.41922209999757,None,246.41922209999757,246.9198322000011,246.41922209999757,246.9198322000011,246.41922209999757,246.9198322000011,246.41922209999757,246.9198322000011,246.41922209999757,None,,,,,,,,,,,,,,,,,,,,,,,,,,,,,,,,,,,,,,,,,,11040,001,2024_Mar_13_1504,nback,2021.2.3,59.93062431127659,
2-back,instructions\back-2.png,conditions\2back-p.xlsx,instructions\2-BACK.png,"(25, 15)",practice,2,1,stim\yellow.png,stim\gray.png,stim\gray.png,stim\gray.png,down,1,0,1,0,0,2,2,2,0,5,5,5,,,,,,,,,,,,,,,,,,,,,,,,,,,247.92133549999562,248.92304120000335,247.92133549999562,248.92304120000335,247.92133549999562,248.92304120000335,247.92133549999562,248.92304120000335,down,1,0.20129499999166,247.92133549999562,None,247.92133549999562,None,247.92133549999562,248.42208360000222,247.92133549999562,248.42208360000222,247.92133549999562,248.42208360000222,247.92133549999562,248.42208360000222,247.92133549999562,None,,,,,,,,,,,,,,,,,,,,,,,,,,,,,,,,,,,,,,,,,,11040,001,2024_Mar_13_1504,nback,2021.2.3,59.93062431127659,
2-back,instructions\back-2.png,conditions\2back-p.xlsx,instructions\2-BACK.png,"(25, 15)",practice,2,4,stim\gray.png,stim\gray.png,stim\gray.png,stim\yellow.png,left,1,0,1,0,0,2,2,2,0,6,6,6,,,,,,,,,,,,,,,,,,,,,,,,,,,249.40696890000254,250.40856349999376,249.40696890000254,250.40856349999376,249.40696890000254,250.40856349999376,249.40696890000254,250.40856349999376,up,0,0.5395522999897366,249.40696890000254,None,249.40696890000254,None,249.40696890000254,249.90765079999983,249.40696890000254,249.90765079999983,249.40696890000254,249.90765079999983,249.40696890000254,249.90765079999983,249.40696890000254,None,,,,,,,,,,,,,,,,,,,,,,,,,,,,,,,,,,,,,,,,,,11040,001,2024_Mar_13_1504,nback,2021.2.3,59.93062431127659,
2-back,instructions\back-2.png,conditions\2back-p.xlsx,instructions\2-BACK.png,"(25, 15)",practice,2,3,stim\gray.png,stim\gray.png,stim\yellow.png,stim\gray.png,up,1,0,1,0,0,2,2,2,0,7,7,7,,,,,,,,,,,,,,,,,,,,,,,,,,,250.91009679999843,251.91143829999783,250.91009679999843,251.91143829999783,250.91009679999843,251.91143829999783,250.91009679999843,251.91143829999783,right,0,1.236526499997126,250.91009679999843,None,250.91009679999843,None,250.91009679999843,251.40976650000084,250.91009679999843,251.40976650000084,250.91009679999843,251.40976650000084,250.91009679999843,251.40976650000084,250.91009679999843,None,,,,,,,,,,,,,,,,,,,,,,,,,,,,,,,,,,,,,,,,,,11040,001,2024_Mar_13_1504,nback,2021.2.3,59.93062431127659,
2-back,instructions\back-2.png,conditions\2back-p.xlsx,instructions\2-BACK.png,"(25, 15)",practice,2,3,stim\gray.png,stim\gray.png,stim\yellow.png,stim\gray.png,down,1,0,1,0,0,2,2,2,0,8,8,8,,,,,,,,,,,,,,,,,,,,,,,,,,,252.41164859999844,253.41389609999896,252.41164859999844,253.41389609999896,252.41164859999844,253.41389609999896,252.41164859999844,253.41389609999896,None,0,,252.41164859999844,None,252.41164859999844,None,252.41164859999844,252.91327780000574,252.41164859999844,252.91327780000574,252.41164859999844,252.91327780000574,252.41164859999844,252.91327780000574,252.41164859999844,None,,,,,,,,,,,,,,,,,,,,,,,,,,,,,,,,,,,,,,,,,,11040,001,2024_Mar_13_1504,nback,2021.2.3,59.93062431127659,
2-back,instructions\back-2.png,conditions\2back-p.xlsx,instructions\2-BACK.png,"(25, 15)",practice,2,4,stim\gray.png,stim\gray.png,stim\gray.png,stim\yellow.png,right,1,0,1,0,0,2,2,2,0,9,9,9,,,,,,,,,,,,,,,,,,,,,,,,,,,253.91351739999664,254.91533469999558,253.91351739999664,254.91533469999558,253.91351739999664,254.91533469999558,253.91351739999664,254.91533469999558,None,0,,253.91351739999664,None,253.91351739999664,None,253.91351739999664,254.4150593999948,253.91351739999664,254.4150593999948,253.91351739999664,254.4150593999948,253.91351739999664,254.4150593999948,253.91351739999664,None,,,,,,,,,,,,,,,,,,,,,,,,,,,,,,,,,,,,,,,,,,11040,001,2024_Mar_13_1504,nback,2021.2.3,59.93062431127659,
2-back,instructions\back-2.png,conditions\2back-p.xlsx,instructions\2-BACK.png,"(25, 15)",practice,2,1,stim\yellow.png,stim\gray.png,stim\gray.png,stim\gray.png,right,1,0,1,0,0,2,2,2,0,10,10,10,,,,,,,,,,,,,,,,,,,,,,,,,,,255.41604070000176,256.41781379999884,255.41604070000176,256.41781379999884,255.41604070000176,256.41781379999884,255.41604070000176,256.41781379999884,None,0,,255.41604070000176,None,255.41604070000176,None,255.41604070000176,255.91698379999434,255.41604070000176,255.91698379999434,255.41604070000176,255.91698379999434,255.41604070000176,255.91698379999434,255.41604070000176,None,,,,,,,,,,,,,,,,,,,,,,,,,,,,,,,,,,,,,,,,,,11040,001,2024_Mar_13_1504,nback,2021.2.3,59.93062431127659,
2-back,instructions\back-2.png,conditions\2back-p.xlsx,instructions\2-BACK.png,"(25, 15)",practice,2,2,stim\gray.png,stim\yellow.png,stim\gray.png,stim\gray.png,down,1,0,1,0,0,2,2,2,0,11,11,11,,,,,,,,,,,,,,,,,,,,,,,,,,,256.9192711999931,257.9205474000046,256.9192711999931,257.9205474000046,256.9192711999931,257.9205474000046,256.9192711999931,257.9205474000046,down,1,0.2841139999945881,256.9192711999931,None,256.9192711999931,None,256.9192711999931,257.4190152999945,256.9192711999931,257.4190152999945,256.9192711999931,257.4190152999945,256.9192711999931,257.4190152999945,256.9192711999931,None,,,,,,,,,,,,,,,,,,,,,,,,,,,,,,,,,,,,,,,,,,11040,001,2024_Mar_13_1504,nback,2021.2.3,59.93062431127659,
2-back,instructions\back-2.png,conditions\2back-p.xlsx,instructions\2-BACK.png,"(25, 15)",practice,2,4,stim\gray.png,stim\gray.png,stim\gray.png,stim\yellow.png,up,1,0,1,0,0,2,2,2,0,12,12,12,,,,,,,,,,,,,,,,,,,,,,,,,,,258.4205279000016,259.4220390999981,258.4205279000016,259.4220390999981,258.4205279000016,259.4220390999981,258.4205279000016,259.4220390999981,up,1,0.23081500000262167,258.4205279000016,None,258.4205279000016,None,258.4205279000016,258.9218880999979,258.4205279000016,258.9218880999979,258.4205279000016,258.9218880999979,258.4205279000016,258.9218880999979,258.4205279000016,None,,,,,,,,,,,,,,,,,,,,,,,,,,,,,,,,,,,,,,,,,,11040,001,2024_Mar_13_1504,nback,2021.2.3,59.93062431127659,
2-back,instructions\back-2.png,conditions\2back-p.xlsx,instructions\2-BACK.png,"(25, 15)",practice,2,3,stim\gray.png,stim\gray.png,stim\yellow.png,stim\gray.png,left,1,0,1,0,0,2,2,2,0,13,13,13,,,,,,,,,,,,,,,,,,,,,,,,,,,259.92324129999906,260.9242868000001,259.92324129999906,260.9242868000001,259.92324129999906,260.9242868000001,259.92324129999906,260.9242868000001,left,1,0.21746609998808708,259.92324129999906,None,259.92324129999906,None,259.92324129999906,260.4235656999954,259.92324129999906,260.4235656999954,259.92324129999906,260.4235656999954,259.92324129999906,260.4235656999954,259.92324129999906,None,,,,,,,,,,,,,,,,,,,,,,,,,,,,,,,,,,,,,,,,,,11040,001,2024_Mar_13_1504,nback,2021.2.3,59.93062431127659,
2-back,instructions\back-2.png,conditions\2back-p.xlsx,instructions\2-BACK.png,"(25, 15)",practice,2,1,stim\yellow.png,stim\gray.png,stim\gray.png,stim\gray.png,down,1,0,1,0,0,2,2,2,0,14,14,14,,,,,,,,,,,,,,,,,,,,,,,,,,,261.4084268000006,262.4100294999953,261.4084268000006,262.4100294999953,261.4084268000006,262.4100294999953,261.4084268000006,262.4100294999953,down,1,0.24255760000960436,261.4084268000006,None,261.4084268000006,None,261.4084268000006,261.9091064999957,261.4084268000006,261.9091064999957,261.4084268000006,261.9091064999957,261.4084268000006,261.9091064999957,261.4084268000006,None,,,,,,,,,,,,,,,,,,,,,,,,,,,,,,,,,,,,,,,,,,11040,001,2024_Mar_13_1504,nback,2021.2.3,59.93062431127659,
2-back,instructions\back-2.png,conditions\2back-p.xlsx,instructions\2-BACK.png,"(25, 15)",practice,2,2,stim\gray.png,stim\yellow.png,stim\gray.png,stim\gray.png,right,1,0,1,0,0,2,2,2,0,15,15,15,,,,,,,,,,,,,,,,,,,,,,,,,,,262.9114578000008,263.91209729999537,262.9114578000008,263.91209729999537,262.9114578000008,263.91209729999537,262.9114578000008,263.91209729999537,right,1,0.14771319999999832,262.9114578000008,None,262.9114578000008,None,262.9114578000008,263.41239399999904,262.9114578000008,263.41239399999904,262.9114578000008,263.41239399999904,262.9114578000008,263.41239399999904,262.9114578000008,None,,,,,,,,,,,,,,,,,,,,,,,,,,,,,,,,,,,,,,,,,,11040,001,2024_Mar_13_1504,nback,2021.2.3,59.93062431127659,
2-back,instructions\back-2.png,conditions\2back-p.xlsx,instructions\2-BACK.png,"(25, 15)",practice,2,3,stim\gray.png,stim\gray.png,stim\yellow.png,stim\gray.png,up,1,0,1,0,0,2,2,2,0,16,16,16,,,,,,,,,,,,,,,,,,,,,,,,,,,264.41292729999986,265.41444560000673,264.41292729999986,265.41444560000673,264.41292729999986,265.41444560000673,264.41292729999986,265.41444560000673,up,1,0.2622409999894444,264.41292729999986,None,264.41292729999986,None,264.41292729999986,264.9144262000045,264.41292729999986,264.9144262000045,264.41292729999986,264.9144262000045,264.41292729999986,264.9144262000045,264.41292729999986,None,,,,,,,,,,,,,,,,,,,,,,,,,,,,,,,,,,,,,,,,,,11040,001,2024_Mar_13_1504,nback,2021.2.3,59.93062431127659,
2-back,instructions\back-2.png,conditions\2back-p.xlsx,instructions\2-BACK.png,"(25, 15)",practice,2,1,stim\yellow.png,stim\gray.png,stim\gray.png,stim\gray.png,left,1,0,1,0,0,2,2,2,0,17,17,17,,,,,,,,,,,,,,,,,,,,,,,,,,,265.9153776000021,266.91755600000033,265.9153776000021,266.91755600000033,265.9153776000021,266.91755600000033,265.9153776000021,266.91755600000033,left,1,0.1839289000054123,265.9153776000021,None,265.9153776000021,None,265.9153776000021,266.4167419000005,265.9153776000021,266.4167419000005,265.9153776000021,266.4167419000005,265.9153776000021,266.4167419000005,265.9153776000021,None,,,,,,,,,,,,,,,,,,,,,,,,,,,,,,,,,,,,,,,,,,11040,001,2024_Mar_13_1504,nback,2021.2.3,59.93062431127659,
2-back,instructions\back-2.png,conditions\2back-p.xlsx,instructions\2-BACK.png,"(25, 15)",practice,2,4,stim\gray.png,stim\gray.png,stim\gray.png,stim\yellow.png,right,1,0,1,0,0,2,2,2,0,18,18,18,,,,,,,,,,,,,,,,,,,,,,,,,,,267.4174389999971,268.4197126999934,267.4174389999971,268.4197126999934,267.4174389999971,268.4197126999934,267.4174389999971,268.4197126999934,up,0,1.4498393999965629,267.4174389999971,None,267.4174389999971,None,267.4174389999971,267.91896019999695,267.4174389999971,267.91896019999695,267.4174389999971,267.91896019999695,267.4174389999971,267.91896019999695,267.4174389999971,None,,,,,,,,,,,,,,,,,,,,,,,,,,,,,,,,,,,,,,,,,,11040,001,2024_Mar_13_1504,nback,2021.2.3,59.93062431127659,
2-back,instructions\back-2.png,conditions\2back-p.xlsx,instructions\2-BACK.png,"(25, 15)",practice,2,2,stim\gray.png,stim\yellow.png,stim\gray.png,stim\gray.png,up,1,0,1,0,0,2,2,2,0,19,19,19,,,,,,,,,,,,,,,,,,,,,,,,,,,268.9197671000002,269.9212775000051,268.9197671000002,269.9212775000051,268.9197671000002,269.9212775000051,268.9197671000002,269.9212775000051,down,0,1.1711903999967035,268.9197671000002,None,268.9197671000002,None,268.9197671000002,269.42038880000473,268.9197671000002,269.42038880000473,268.9197671000002,269.42038880000473,268.9197671000002,269.42038880000473,268.9197671000002,None,,,,,,,,,,,,,,,,,,,,,,,,,,,,,,,,,,,,,,,,,,11040,001,2024_Mar_13_1504,nback,2021.2.3,59.93062431127659,
2-back,instructions\back-2.png,conditions\2back-p.xlsx,instructions\2-BACK.png,"(25, 15)",,,,,,,,,1,0,1,0,0,2,2,2,,,,,,,,,,,,,,,,,,,,,,,,,,,,,,,,,,,,,,,,,,,,,,,,,,,,,,,,,,,,,,,,,,,,,,,,,,,,,,,,,,,,,,,,,,,,,,,,,11040,001,2024_Mar_13_1504,nback,2021.2.3,59.93062431127659,
,,,,,,,,,,,,,1,0,1,0,,,,,,,,,,,,,,,,,,,,,,,,,,,,,,,,,,,,,,,,,,,,,,,,,,,,,,,,,,,,270.4218302999943,None,space,3.717606499994872,270.4218302999943,None,,,,,,,,,,,,,,,,,,,,,,,,,,,,,,,,,,,,11040,001,2024_Mar_13_1504,nback,2021.2.3,59.93062431127659,
,,,,,,,,,,,,,,,,,,,,,,,,,,,,,,,,,,,,,,,,,,,,,,,,,,,,,,,,,,,,,,,,,,,,,,,,,,,,,,,,,,274.160864999998,None,space,17.123397200004547,274.160864999998,None,,,,,,,,,,,,,,,,,,,,,,,,,,,,,,11040,001,2024_Mar_13_1504,nback,2021.2.3,59.93062431127659,
2-back,instructions\back-2.png,conditions\20back-e.xlsx,,,experiment,2,2,stim\gray.png,stim\yellow.png,stim\gray.png,stim\gray.png,None,,,,,,,,,,,,,0,0,0,2,0,0,0,0,,,,,,,,,,,,,,,291.48702570000023,295.99500939999416,295.97708100000455,None,,,,,,,,,,,,,,,,,,,,,,,,,,,,,,,,,,,,,,None,1,296.3275947999937,None,296.3275947999937,None,296.3275947999937,297.3292369999981,296.3275947999937,297.3292369999981,296.3275947999937,297.3292369999981,296.3275947999937,297.3292369999981,296.3275947999937,296.8293330000015,296.3275947999937,296.8293330000015,296.3275947999937,296.8293330000015,296.3275947999937,296.8293330000015,296.3275947999937,None,,,,,,11040,001,2024_Mar_13_1504,nback,2021.2.3,59.93062431127659,
2-back,instructions\back-2.png,conditions\20back-e.xlsx,,,experiment,2,1,stim\yellow.png,stim\gray.png,stim\gray.png,stim\gray.png,None,,,,,,,,,,,,,0,0,0,2,0,1,1,1,,,,,,,,,,,,,,,,,,,,,,,,,,,,,,,,,,,,,,,,,,,,,,,,,,,,,,,,None,1,297.81336040000315,None,297.81336040000315,None,297.81336040000315,298.8149534999975,297.81336040000315,298.8149534999975,297.81336040000315,298.8149534999975,297.81336040000315,298.8149534999975,297.81336040000315,298.313934299993,297.81336040000315,298.313934299993,297.81336040000315,298.313934299993,297.81336040000315,298.313934299993,297.81336040000315,None,,,,,,11040,001,2024_Mar_13_1504,nback,2021.2.3,59.93062431127659,
2-back,instructions\back-2.png,conditions\20back-e.xlsx,,,experiment,2,4,stim\gray.png,stim\gray.png,stim\gray.png,stim\yellow.png,left,,,,,,,,,,,,,0,0,0,2,0,2,2,2,,,,,,,,,,,,,,,,,,,,,,,,,,,,,,,,,,,,,,,,,,,,,,,,,,,,,,,,left,1,299.31554660000256,None,299.31554660000256,None,299.31554660000256,300.3169818000024,299.31554660000256,300.3169818000024,299.31554660000256,300.3169818000024,299.31554660000256,300.3169818000024,299.31554660000256,299.8169603999995,299.31554660000256,299.8169603999995,299.31554660000256,299.8169603999995,299.31554660000256,299.8169603999995,299.31554660000256,None,0.2804717000108212,,,,,11040,001,2024_Mar_13_1504,nback,2021.2.3,59.93062431127659,
2-back,instructions\back-2.png,conditions\20back-e.xlsx,,,experiment,2,3,stim\gray.png,stim\gray.png,stim\yellow.png,stim\gray.png,up,,,,,,,,,,,,,0,0,0,2,0,3,3,3,,,,,,,,,,,,,,,,,,,,,,,,,,,,,,,,,,,,,,,,,,,,,,,,,,,,,,,,up,1,300.8178309000068,None,300.8178309000068,None,300.8178309000068,301.819187999994,300.8178309000068,301.819187999994,300.8178309000068,301.819187999994,300.8178309000068,301.819187999994,300.8178309000068,301.31887849999475,300.8178309000068,301.31887849999475,300.8178309000068,301.31887849999475,300.8178309000068,301.31887849999475,300.8178309000068,None,0.16217010001128074,,,,,11040,001,2024_Mar_13_1504,nback,2021.2.3,59.93062431127659,
2-back,instructions\back-2.png,conditions\20back-e.xlsx,,,experiment,2,1,stim\yellow.png,stim\gray.png,stim\gray.png,stim\gray.png,down,,,,,,,,,,,,,0,0,0,2,0,4,4,4,,,,,,,,,,,,,,,,,,,,,,,,,,,,,,,,,,,,,,,,,,,,,,,,,,,,,,,,down,1,302.32010420000006,None,302.32010420000006,None,302.32010420000006,303.32186470000306,302.32010420000006,303.32186470000306,302.32010420000006,303.32186470000306,302.32010420000006,303.32186470000306,302.32010420000006,302.8217779999977,302.32010420000006,302.8217779999977,302.32010420000006,302.8217779999977,302.32010420000006,302.8217779999977,302.32010420000006,None,0.2199691999994684,,,,,11040,001,2024_Mar_13_1504,nback,2021.2.3,59.93062431127659,
2-back,instructions\back-2.png,conditions\20back-e.xlsx,,,experiment,2,2,stim\gray.png,stim\yellow.png,stim\gray.png,stim\gray.png,right,,,,,,,,,,,,,0,0,0,2,0,5,5,5,,,,,,,,,,,,,,,,,,,,,,,,,,,,,,,,,,,,,,,,,,,,,,,,,,,,,,,,up,0,303.82209729999886,None,303.82209729999886,None,303.82209729999886,304.82374730000447,303.82209729999886,304.82374730000447,303.82209729999886,304.82374730000447,303.82209729999886,304.82374730000447,303.82209729999886,304.32341880000604,303.82209729999886,304.32341880000604,303.82209729999886,304.32341880000604,303.82209729999886,304.32341880000604,303.82209729999886,None,1.1818794000137132,,,,,11040,001,2024_Mar_13_1504,nback,2021.2.3,59.93062431127659,
2-back,instructions\back-2.png,conditions\20back-e.xlsx,,,experiment,2,3,stim\gray.png,stim\gray.png,stim\yellow.png,stim\gray.png,up,,,,,,,,,,,,,0,0,0,2,0,6,6,6,,,,,,,,,,,,,,,,,,,,,,,,,,,,,,,,,,,,,,,,,,,,,,,,,,,,,,,,None,0,305.3245820000011,None,305.3245820000011,None,305.3245820000011,306.32748740000534,305.3245820000011,306.32748740000534,305.3245820000011,306.32748740000534,305.3245820000011,306.32748740000534,305.3245820000011,305.8254287000018,305.3245820000011,305.8254287000018,305.3245820000011,305.8254287000018,305.3245820000011,305.8254287000018,305.3245820000011,None,,,,,,11040,001,2024_Mar_13_1504,nback,2021.2.3,59.93062431127659,
2-back,instructions\back-2.png,conditions\20back-e.xlsx,,,experiment,2,4,stim\gray.png,stim\gray.png,stim\gray.png,stim\yellow.png,left,,,,,,,,,,,,,0,0,0,2,0,7,7,7,,,,,,,,,,,,,,,,,,,,,,,,,,,,,,,,,,,,,,,,,,,,,,,,,,,,,,,,left,1,306.81026280000515,None,306.81026280000515,None,306.81026280000515,307.8117723000032,306.81026280000515,307.8117723000032,306.81026280000515,307.8117723000032,306.81026280000515,307.8117723000032,306.81026280000515,307.31190179999976,306.81026280000515,307.31190179999976,306.81026280000515,307.31190179999976,306.81026280000515,307.31190179999976,306.81026280000515,None,0.09825129999080673,,,,,11040,001,2024_Mar_13_1504,nback,2021.2.3,59.93062431127659,
2-back,instructions\back-2.png,conditions\20back-e.xlsx,,,experiment,2,3,stim\gray.png,stim\gray.png,stim\yellow.png,stim\gray.png,right,,,,,,,,,,,,,0,0,0,2,0,8,8,8,,,,,,,,,,,,,,,,,,,,,,,,,,,,,,,,,,,,,,,,,,,,,,,,,,,,,,,,None,0,308.3125257000065,None,308.3125257000065,None,308.3125257000065,309.3139693999983,308.3125257000065,309.3139693999983,308.3125257000065,309.3139693999983,308.3125257000065,309.3139693999983,308.3125257000065,308.8133797000046,308.3125257000065,308.8133797000046,308.3125257000065,308.8133797000046,308.3125257000065,308.8133797000046,308.3125257000065,None,,,,,,11040,001,2024_Mar_13_1504,nback,2021.2.3,59.93062431127659,
2-back,instructions\back-2.png,conditions\20back-e.xlsx,,,experiment,2,4,stim\gray.png,stim\gray.png,stim\gray.png,stim\yellow.png,down,,,,,,,,,,,,,0,0,0,2,0,9,9,9,,,,,,,,,,,,,,,,,,,,,,,,,,,,,,,,,,,,,,,,,,,,,,,,,,,,,,,,down,1,309.8147486999951,None,309.8147486999951,None,309.8147486999951,310.8172392999986,309.8147486999951,310.8172392999986,309.8147486999951,310.8172392999986,309.8147486999951,310.8172392999986,309.8147486999951,310.3154979999963,309.8147486999951,310.3154979999963,309.8147486999951,310.3154979999963,309.8147486999951,310.3154979999963,309.8147486999951,None,0.4301255000027595,,,,,11040,001,2024_Mar_13_1504,nback,2021.2.3,59.93062431127659,
2-back,instructions\back-2.png,conditions\20back-e.xlsx,,,experiment,2,1,stim\yellow.png,stim\gray.png,stim\gray.png,stim\gray.png,right,,,,,,,,,,,,,0,0,0,2,0,10,10,10,,,,,,,,,,,,,,,,,,,,,,,,,,,,,,,,,,,,,,,,,,,,,,,,,,,,,,,,right,1,311.31709379999666,None,311.31709379999666,None,311.31709379999666,312.3189738999936,311.31709379999666,312.3189738999936,311.31709379999666,312.3189738999936,311.31709379999666,312.3189738999936,311.31709379999666,311.8186720999947,311.31709379999666,311.8186720999947,311.31709379999666,311.8186720999947,311.31709379999666,311.8186720999947,311.31709379999666,None,0.41548370000964496,,,,,11040,001,2024_Mar_13_1504,nback,2021.2.3,59.93062431127659,
2-back,instructions\back-2.png,conditions\20back-e.xlsx,,,experiment,2,2,stim\gray.png,stim\yellow.png,stim\gray.png,stim\gray.png,down,,,,,,,,,,,,,0,0,0,2,0,11,11,11,,,,,,,,,,,,,,,,,,,,,,,,,,,,,,,,,,,,,,,,,,,,,,,,,,,,,,,,down,1,312.8204834000062,None,312.8204834000062,None,312.8204834000062,313.82064819999505,312.8204834000062,313.82064819999505,312.8204834000062,313.82064819999505,312.8204834000062,313.82064819999505,312.8204834000062,313.32011529999727,312.8204834000062,313.32011529999727,312.8204834000062,313.32011529999727,312.8204834000062,313.32011529999727,312.8204834000062,None,0.41630179999629036,,,,,11040,001,2024_Mar_13_1504,nback,2021.2.3,59.93062431127659,
2-back,instructions\back-2.png,conditions\20back-e.xlsx,,,experiment,2,3,stim\gray.png,stim\gray.png,stim\yellow.png,stim\gray.png,up,,,,,,,,,,,,,0,0,0,2,0,12,12,12,,,,,,,,,,,,,,,,,,,,,,,,,,,,,,,,,,,,,,,,,,,,,,,,,,,,,,,,up,1,314.3214692000038,None,314.3214692000038,None,314.3214692000038,315.3231106000021,314.3214692000038,315.3231106000021,314.3214692000038,315.3231106000021,314.3214692000038,315.3231106000021,314.3214692000038,314.82228579999355,314.3214692000038,314.82228579999355,314.3214692000038,314.82228579999355,314.3214692000038,314.82228579999355,314.3214692000038,None,0.3229548999952385,,,,,11040,001,2024_Mar_13_1504,nback,2021.2.3,59.93062431127659,
2-back,instructions\back-2.png,conditions\20back-e.xlsx,,,experiment,2,1,stim\yellow.png,stim\gray.png,stim\gray.png,stim\gray.png,left,,,,,,,,,,,,,0,0,0,2,0,13,13,13,,,,,,,,,,,,,,,,,,,,,,,,,,,,,,,,,,,,,,,,,,,,,,,,,,,,,,,,left,1,315.8236229000031,None,315.8236229000031,None,315.8236229000031,316.82645959999354,315.8236229000031,316.82645959999354,315.8236229000031,316.82645959999354,315.8236229000031,316.82645959999354,315.8236229000031,316.32439179999346,315.8236229000031,316.32439179999346,315.8236229000031,316.32439179999346,315.8236229000031,316.32439179999346,315.8236229000031,None,0.3325200999970548,,,,,11040,001,2024_Mar_13_1504,nback,2021.2.3,59.93062431127659,
