backseq,backinstr,backfile,instruction,size_in,Trialtype,back,number,P1,P2,P3,P4,corrAns,trials_practice.thisRepN,trials_practice.thisTrialN,trials_practice.thisN,trials_practice.thisIndex,trials.thisRepN,trials.thisTrialN,trials.thisN,trials.thisIndex,trials_3.thisRepN,trials_3.thisTrialN,trials_3.thisN,trials_3.thisIndex,trials_2.thisRepN,trials_2.thisTrialN,trials_2.thisN,trials_2.thisIndex,trials_4.thisRepN,trials_4.thisTrialN,trials_4.thisN,trials_4.thisIndex,image.started,image.stopped,image_2.started,image_2.stopped,key_resp.keys,key_resp.rt,key_resp.started,key_resp.stopped,image_3.started,image_3.stopped,key_resp_2.keys,key_resp_2.rt,key_resp_2.started,key_resp_2.stopped,image_4.started,image_4.stopped,text.started,text.stopped,H1.started,H1.stopped,H2.started,H2.stopped,H3.started,H3.stopped,H4.started,H4.stopped,key_resp_3.keys,key_resp_3.corr,key_resp_3.rt,key_resp_3.started,key_resp_3.stopped,text_4.started,text_4.stopped,F1.started,F1.stopped,F2.started,F2.stopped,F3.started,F3.stopped,F4.started,F4.stopped,image_7.started,image_7.stopped,text_5.started,text_5.stopped,key_resp_6.keys,key_resp_6.rt,key_resp_6.started,key_resp_6.stopped,image_5.started,image_5.stopped,key_resp_4.keys,key_resp_4.rt,key_resp_4.started,key_resp_4.stopped,key_resp_5.keys,key_resp_5.corr,key_resp_5.started,key_resp_5.stopped,text_3.started,text_3.stopped,H1_2.started,H1_2.stopped,H2_2.started,H2_2.stopped,H3_2.started,H3_2.stopped,H4_2.started,H4_2.stopped,F1_2.started,F1_2.stopped,F2_2.started,F2_2.stopped,F3_2.started,F3_2.stopped,F4_2.started,F4_2.stopped,image_8.started,image_8.stopped,key_resp_5.rt,text_2.started,text_2.stopped,image_6.started,image_6.stopped,participant,session,date,expName,psychopyVersion,frameRate,
,,,,,,,,,,,,,,,,,,,,,,,,,,,,,,,,,13.153408800018951,None,14.088095600018278,None,space,2.9651660000090487,14.088095600018278,None,,,,,,,,,,,,,,,,,,,,,,,,,,,,,,,,,,,,,,,,,,,,,,,,,,,,,,,,,,,,,,,,,,,,,,,,,,,,,11041,001,2024_Mar_15_1435,nback,2021.2.3,59.966634568763354,
0-back,instructions\back-0.png,conditions\0back-p.xlsx,instructions\0-BACK.png,"(15, 8)",practice,0,1,stim\yellow.png,stim\gray.png,stim\gray.png,stim\gray.png,up,0,0,0,0,0,0,0,0,0,0,0,0,,,,,,,,,,,,,,,,,17.12598509999225,None,space,2.399248300003819,17.12598509999225,None,19.73000810004305,24.237168100022245,24.16988310002489,None,24.571472500043456,25.572468300000764,24.571472500043456,25.572468300000764,24.571472500043456,25.572468300000764,24.571472500043456,25.572468300000764,up,1,0.4261512000230141,24.571472500043456,None,24.571472500043456,None,24.571472500043456,25.071326400036924,24.571472500043456,25.071326400036924,24.571472500043456,25.071326400036924,24.571472500043456,25.071326400036924,24.571472500043456,None,,,,,,,,,,,,,,,,,,,,,,,,,,,,,,,,,,,,,,,,,,11041,001,2024_Mar_15_1435,nback,2021.2.3,59.966634568763354,
0-back,instructions\back-0.png,conditions\0back-p.xlsx,instructions\0-BACK.png,"(15, 8)",practice,0,2,stim\gray.png,stim\yellow.png,stim\gray.png,stim\gray.png,left,0,0,0,0,0,0,0,0,0,1,1,1,,,,,,,,,,,,,,,,,,,,,,,,,,,26.056208699999843,27.05826890002936,26.056208699999843,27.05826890002936,26.056208699999843,27.05826890002936,26.056208699999843,27.05826890002936,left,1,0.4850544999935664,26.056208699999843,None,26.056208699999843,None,26.056208699999843,26.55683549999958,26.056208699999843,26.55683549999958,26.056208699999843,26.55683549999958,26.056208699999843,26.55683549999958,26.056208699999843,None,,,,,,,,,,,,,,,,,,,,,,,,,,,,,,,,,,,,,,,,,,11041,001,2024_Mar_15_1435,nback,2021.2.3,59.966634568763354,
0-back,instructions\back-0.png,conditions\0back-p.xlsx,instructions\0-BACK.png,"(15, 8)",practice,0,3,stim\gray.png,stim\gray.png,stim\yellow.png,stim\gray.png,right,0,0,0,0,0,0,0,0,0,2,2,2,,,,,,,,,,,,,,,,,,,,,,,,,,,27.558299400028773,28.55975950002903,27.558299400028773,28.55975950002903,27.558299400028773,28.55975950002903,27.558299400028773,28.55975950002903,right,1,0.33508519997121766,27.558299400028773,None,27.558299400028773,None,27.558299400028773,28.05910730001051,27.558299400028773,28.05910730001051,27.558299400028773,28.05910730001051,27.558299400028773,28.05910730001051,27.558299400028773,None,,,,,,,,,,,,,,,,,,,,,,,,,,,,,,,,,,,,,,,,,,11041,001,2024_Mar_15_1435,nback,2021.2.3,59.966634568763354,
0-back,instructions\back-0.png,conditions\0back-p.xlsx,instructions\0-BACK.png,"(15, 8)",practice,0,4,stim\gray.png,stim\gray.png,stim\gray.png,stim\yellow.png,down,0,0,0,0,0,0,0,0,0,3,3,3,,,,,,,,,,,,,,,,,,,,,,,,,,,29.060621400014497,30.062024699989706,29.060621400014497,30.062024699989706,29.060621400014497,30.062024699989706,29.060621400014497,30.062024699989706,down,1,0.37727419997099787,29.060621400014497,None,29.060621400014497,None,29.060621400014497,29.562136900029145,29.060621400014497,29.562136900029145,29.060621400014497,29.562136900029145,29.060621400014497,29.562136900029145,29.060621400014497,None,,,,,,,,,,,,,,,,,,,,,,,,,,,,,,,,,,,,,,,,,,11041,001,2024_Mar_15_1435,nback,2021.2.3,59.966634568763354,
0-back,instructions\back-0.png,conditions\0back-p.xlsx,instructions\0-BACK.png,"(15, 8)",practice,0,2,stim\gray.png,stim\yellow.png,stim\gray.png,stim\gray.png,left,0,0,0,0,0,0,0,0,0,4,4,4,,,,,,,,,,,,,,,,,,,,,,,,,,,30.5630291000125,31.56433449999895,30.5630291000125,31.56433449999895,30.5630291000125,31.56433449999895,30.5630291000125,31.56433449999895,left,1,0.35477129998616874,30.5630291000125,None,30.5630291000125,None,30.5630291000125,31.063689200032968,30.5630291000125,31.063689200032968,30.5630291000125,31.063689200032968,30.5630291000125,31.063689200032968,30.5630291000125,None,,,,,,,,,,,,,,,,,,,,,,,,,,,,,,,,,,,,,,,,,,11041,001,2024_Mar_15_1435,nback,2021.2.3,59.966634568763354,
0-back,instructions\back-0.png,conditions\0back-p.xlsx,instructions\0-BACK.png,"(15, 8)",practice,0,1,stim\yellow.png,stim\gray.png,stim\gray.png,stim\gray.png,up,0,0,0,0,0,0,0,0,0,5,5,5,,,,,,,,,,,,,,,,,,,,,,,,,,,32.065041700028814,33.06668330001412,32.065041700028814,33.06668330001412,32.065041700028814,33.06668330001412,32.065041700028814,33.06668330001412,up,1,0.4927744999877177,32.065041700028814,None,32.065041700028814,None,32.065041700028814,32.56645899999421,32.065041700028814,32.56645899999421,32.065041700028814,32.56645899999421,32.065041700028814,32.56645899999421,32.065041700028814,None,,,,,,,,,,,,,,,,,,,,,,,,,,,,,,,,,,,,,,,,,,11041,001,2024_Mar_15_1435,nback,2021.2.3,59.966634568763354,
0-back,instructions\back-0.png,conditions\0back-p.xlsx,instructions\0-BACK.png,"(15, 8)",practice,0,4,stim\gray.png,stim\gray.png,stim\gray.png,stim\yellow.png,down,0,0,0,0,0,0,0,0,0,6,6,6,,,,,,,,,,,,,,,,,,,,,,,,,,,33.55088880000403,34.55215560004581,33.55088880000403,34.55215560004581,33.55088880000403,34.55215560004581,33.55088880000403,34.55215560004581,down,1,0.599095200013835,33.55088880000403,None,33.55088880000403,None,33.55088880000403,34.0515771000064,33.55088880000403,34.0515771000064,33.55088880000403,34.0515771000064,33.55088880000403,34.0515771000064,33.55088880000403,None,,,,,,,,,,,,,,,,,,,,,,,,,,,,,,,,,,,,,,,,,,11041,001,2024_Mar_15_1435,nback,2021.2.3,59.966634568763354,
0-back,instructions\back-0.png,conditions\0back-p.xlsx,instructions\0-BACK.png,"(15, 8)",practice,0,3,stim\gray.png,stim\gray.png,stim\yellow.png,stim\gray.png,right,0,0,0,0,0,0,0,0,0,7,7,7,,,,,,,,,,,,,,,,,,,,,,,,,,,35.05288680002559,36.05490089999512,35.05288680002559,36.05490089999512,35.05288680002559,36.05490089999512,35.05288680002559,36.05490089999512,right,1,0.3769492999999784,35.05288680002559,None,35.05288680002559,None,35.05288680002559,35.55395020003198,35.05288680002559,35.55395020003198,35.05288680002559,35.55395020003198,35.05288680002559,35.55395020003198,35.05288680002559,None,,,,,,,,,,,,,,,,,,,,,,,,,,,,,,,,,,,,,,,,,,11041,001,2024_Mar_15_1435,nback,2021.2.3,59.966634568763354,
0-back,instructions\back-0.png,conditions\0back-p.xlsx,instructions\0-BACK.png,"(15, 8)",practice,0,3,stim\gray.png,stim\gray.png,stim\yellow.png,stim\gray.png,right,0,0,0,0,0,0,0,0,0,8,8,8,,,,,,,,,,,,,,,,,,,,,,,,,,,36.55520450003678,37.55708550004056,36.55520450003678,37.55708550004056,36.55520450003678,37.55708550004056,36.55520450003678,37.55708550004056,right,1,0.37079120002454147,36.55520450003678,None,36.55520450003678,None,36.55520450003678,37.05600169999525,36.55520450003678,37.05600169999525,36.55520450003678,37.05600169999525,36.55520450003678,37.05600169999525,36.55520450003678,None,,,,,,,,,,,,,,,,,,,,,,,,,,,,,,,,,,,,,,,,,,11041,001,2024_Mar_15_1435,nback,2021.2.3,59.966634568763354,
0-back,instructions\back-0.png,conditions\0back-p.xlsx,instructions\0-BACK.png,"(15, 8)",practice,0,4,stim\gray.png,stim\gray.png,stim\gray.png,stim\yellow.png,down,0,0,0,0,0,0,0,0,0,9,9,9,,,,,,,,,,,,,,,,,,,,,,,,,,,38.057567200041376,39.05905550002353,38.057567200041376,39.05905550002353,38.057567200041376,39.05905550002353,38.057567200041376,39.05905550002353,down,1,0.4523948000278324,38.057567200041376,None,38.057567200041376,None,38.057567200041376,38.60831119999057,38.057567200041376,38.60831119999057,38.057567200041376,38.60831119999057,38.057567200041376,38.60831119999057,38.057567200041376,None,,,,,,,,,,,,,,,,,,,,,,,,,,,,,,,,,,,,,,,,,,11041,001,2024_Mar_15_1435,nback,2021.2.3,59.966634568763354,
0-back,instructions\back-0.png,conditions\0back-p.xlsx,instructions\0-BACK.png,"(15, 8)",practice,0,1,stim\yellow.png,stim\gray.png,stim\gray.png,stim\gray.png,up,0,0,0,0,0,0,0,0,0,10,10,10,,,,,,,,,,,,,,,,,,,,,,,,,,,39.55986700003268,40.56148040003609,39.55986700003268,40.56148040003609,39.55986700003268,40.56148040003609,39.55986700003268,40.56148040003609,up,1,0.44589620002079755,39.55986700003268,None,39.55986700003268,None,39.55986700003268,40.06056000001263,39.55986700003268,40.06056000001263,39.55986700003268,40.06056000001263,39.55986700003268,40.06056000001263,39.55986700003268,None,,,,,,,,,,,,,,,,,,,,,,,,,,,,,,,,,,,,,,,,,,11041,001,2024_Mar_15_1435,nback,2021.2.3,59.966634568763354,
0-back,instructions\back-0.png,conditions\0back-p.xlsx,instructions\0-BACK.png,"(15, 8)",practice,0,2,stim\gray.png,stim\yellow.png,stim\gray.png,stim\gray.png,left,0,0,0,0,0,0,0,0,0,11,11,11,,,,,,,,,,,,,,,,,,,,,,,,,,,41.06202700000722,42.06378359999508,41.06202700000722,42.06378359999508,41.06202700000722,42.06378359999508,41.06202700000722,42.06378359999508,left,1,0.48790559999179095,41.06202700000722,None,41.06202700000722,None,41.06202700000722,41.56332449999172,41.06202700000722,41.56332449999172,41.06202700000722,41.56332449999172,41.06202700000722,41.56332449999172,41.06202700000722,None,,,,,,,,,,,,,,,,,,,,,,,,,,,,,,,,,,,,,,,,,,11041,001,2024_Mar_15_1435,nback,2021.2.3,59.966634568763354,
0-back,instructions\back-0.png,conditions\0back-p.xlsx,instructions\0-BACK.png,"(15, 8)",practice,0,4,stim\gray.png,stim\gray.png,stim\gray.png,stim\yellow.png,down,0,0,0,0,0,0,0,0,0,12,12,12,,,,,,,,,,,,,,,,,,,,,,,,,,,42.5642402000376,43.56588990002638,42.5642402000376,43.56588990002638,42.5642402000376,43.56588990002638,42.5642402000376,43.56588990002638,down,1,0.40991200000280514,42.5642402000376,None,42.5642402000376,None,42.5642402000376,43.065294400032144,42.5642402000376,43.065294400032144,42.5642402000376,43.065294400032144,42.5642402000376,43.065294400032144,42.5642402000376,None,,,,,,,,,,,,,,,,,,,,,,,,,,,,,,,,,,,,,,,,,,11041,001,2024_Mar_15_1435,nback,2021.2.3,59.966634568763354,
0-back,instructions\back-0.png,conditions\0back-p.xlsx,instructions\0-BACK.png,"(15, 8)",practice,0,3,stim\gray.png,stim\gray.png,stim\yellow.png,stim\gray.png,right,0,0,0,0,0,0,0,0,0,13,13,13,,,,,,,,,,,,,,,,,,,,,,,,,,,44.049778899992816,45.05135850002989,44.049778899992816,45.05135850002989,44.049778899992816,45.05135850002989,44.049778899992816,45.05135850002989,right,1,0.32469709997531027,44.049778899992816,None,44.049778899992816,None,44.049778899992816,44.55051020003157,44.049778899992816,44.55051020003157,44.049778899992816,44.55051020003157,44.049778899992816,44.55051020003157,44.049778899992816,None,,,,,,,,,,,,,,,,,,,,,,,,,,,,,,,,,,,,,,,,,,11041,001,2024_Mar_15_1435,nback,2021.2.3,59.966634568763354,
0-back,instructions\back-0.png,conditions\0back-p.xlsx,instructions\0-BACK.png,"(15, 8)",practice,0,1,stim\yellow.png,stim\gray.png,stim\gray.png,stim\gray.png,up,0,0,0,0,0,0,0,0,0,14,14,14,,,,,,,,,,,,,,,,,,,,,,,,,,,45.55213600001298,46.553823599999305,45.55213600001298,46.553823599999305,45.55213600001298,46.553823599999305,45.55213600001298,46.553823599999305,up,1,0.351126000052318,45.55213600001298,None,45.55213600001298,None,45.55213600001298,46.05281449999893,45.55213600001298,46.05281449999893,45.55213600001298,46.05281449999893,45.55213600001298,46.05281449999893,45.55213600001298,None,,,,,,,,,,,,,,,,,,,,,,,,,,,,,,,,,,,,,,,,,,11041,001,2024_Mar_15_1435,nback,2021.2.3,59.966634568763354,
0-back,instructions\back-0.png,conditions\0back-p.xlsx,instructions\0-BACK.png,"(15, 8)",practice,0,2,stim\gray.png,stim\yellow.png,stim\gray.png,stim\gray.png,left,0,0,0,0,0,0,0,0,0,15,15,15,,,,,,,,,,,,,,,,,,,,,,,,,,,47.054577300034,48.05604850000236,47.054577300034,48.05604850000236,47.054577300034,48.05604850000236,47.054577300034,48.05604850000236,left,1,0.4796574999927543,47.054577300034,None,47.054577300034,None,47.054577300034,47.55521740001859,47.054577300034,47.55521740001859,47.054577300034,47.55521740001859,47.054577300034,47.55521740001859,47.054577300034,None,,,,,,,,,,,,,,,,,,,,,,,,,,,,,,,,,,,,,,,,,,11041,001,2024_Mar_15_1435,nback,2021.2.3,59.966634568763354,
0-back,instructions\back-0.png,conditions\0back-p.xlsx,instructions\0-BACK.png,"(15, 8)",practice,0,3,stim\gray.png,stim\gray.png,stim\yellow.png,stim\gray.png,right,0,0,0,0,0,0,0,0,0,16,16,16,,,,,,,,,,,,,,,,,,,,,,,,,,,48.5571361000184,49.558160300017335,48.5571361000184,49.558160300017335,48.5571361000184,49.558160300017335,48.5571361000184,49.558160300017335,right,1,0.4094929000129923,48.5571361000184,None,48.5571361000184,None,48.5571361000184,49.057562900008634,48.5571361000184,49.057562900008634,48.5571361000184,49.057562900008634,48.5571361000184,49.057562900008634,48.5571361000184,None,,,,,,,,,,,,,,,,,,,,,,,,,,,,,,,,,,,,,,,,,,11041,001,2024_Mar_15_1435,nback,2021.2.3,59.966634568763354,
0-back,instructions\back-0.png,conditions\0back-p.xlsx,instructions\0-BACK.png,"(15, 8)",practice,0,1,stim\yellow.png,stim\gray.png,stim\gray.png,stim\gray.png,up,0,0,0,0,0,0,0,0,0,17,17,17,,,,,,,,,,,,,,,,,,,,,,,,,,,50.058890699991025,51.06085720000556,50.058890699991025,51.06085720000556,50.058890699991025,51.06085720000556,50.058890699991025,51.06085720000556,up,1,0.30804649996571243,50.058890699991025,None,50.058890699991025,None,50.058890699991025,50.559782700031064,50.058890699991025,50.559782700031064,50.058890699991025,50.559782700031064,50.058890699991025,50.559782700031064,50.058890699991025,None,,,,,,,,,,,,,,,,,,,,,,,,,,,,,,,,,,,,,,,,,,11041,001,2024_Mar_15_1435,nback,2021.2.3,59.966634568763354,
0-back,instructions\back-0.png,conditions\0back-p.xlsx,instructions\0-BACK.png,"(15, 8)",practice,0,4,stim\gray.png,stim\gray.png,stim\gray.png,stim\yellow.png,down,0,0,0,0,0,0,0,0,0,18,18,18,,,,,,,,,,,,,,,,,,,,,,,,,,,51.56154860003153,52.56339610001305,51.56154860003153,52.56339610001305,51.56154860003153,52.56339610001305,51.56154860003153,52.56339610001305,down,1,0.4046129999915138,51.56154860003153,None,51.56154860003153,None,51.56154860003153,52.06182150001405,51.56154860003153,52.06182150001405,51.56154860003153,52.06182150001405,51.56154860003153,52.06182150001405,51.56154860003153,None,,,,,,,,,,,,,,,,,,,,,,,,,,,,,,,,,,,,,,,,,,11041,001,2024_Mar_15_1435,nback,2021.2.3,59.966634568763354,
0-back,instructions\back-0.png,conditions\0back-p.xlsx,instructions\0-BACK.png,"(15, 8)",practice,0,2,stim\gray.png,stim\yellow.png,stim\gray.png,stim\gray.png,left,0,0,0,0,0,0,0,0,0,19,19,19,,,,,,,,,,,,,,,,,,,,,,,,,,,53.06345210003201,54.06483380001737,53.06345210003201,54.06483380001737,53.06345210003201,54.06483380001737,53.06345210003201,54.06483380001737,left,1,0.39909479999914765,53.06345210003201,None,53.06345210003201,None,53.06345210003201,53.56413790001534,53.06345210003201,53.56413790001534,53.06345210003201,53.56413790001534,53.06345210003201,53.56413790001534,53.06345210003201,None,,,,,,,,,,,,,,,,,,,,,,,,,,,,,,,,,,,,,,,,,,11041,001,2024_Mar_15_1435,nback,2021.2.3,59.966634568763354,
0-back,instructions\back-0.png,conditions\0back-p.xlsx,instructions\0-BACK.png,"(15, 8)",,,,,,,,,0,0,0,0,0,0,0,0,,,,,,,,,,,,,,,,,,,,,,,,,,,,,,,,,,,,,,,,,,,,,,,,,,,,,,,,,,,,,,,,,,,,,,,,,,,,,,,,,,,,,,,,,,,,,,,,,11041,001,2024_Mar_15_1435,nback,2021.2.3,59.966634568763354,
1-back,instructions\back-1.png,conditions\1back-p.xlsx,instructions\1-BACK.png,"(25, 15)",practice,1,1,stim\yellow.png,stim\gray.png,stim\gray.png,stim\gray.png,None,0,0,0,0,0,1,1,1,0,0,0,0,,,,,,,,,,,,,,,,,54.732289400009904,None,space,3.922837799997069,54.732289400009904,None,58.83881600003224,63.346386899997015,63.32895600004122,None,63.69774229999166,64.69829210004536,63.69774229999166,64.69829210004536,63.69774229999166,64.69829210004536,63.69774229999166,64.69829210004536,None,1,,63.69774229999166,None,63.69774229999166,None,63.69774229999166,64.19703790004132,63.69774229999166,64.19703790004132,63.69774229999166,64.19703790004132,63.69774229999166,64.19703790004132,63.69774229999166,None,,,,,,,,,,,,,,,,,,,,,,,,,,,,,,,,,,,,,,,,,,11041,001,2024_Mar_15_1435,nback,2021.2.3,59.966634568763354,
1-back,instructions\back-1.png,conditions\1back-p.xlsx,instructions\1-BACK.png,"(25, 15)",practice,1,2,stim\gray.png,stim\yellow.png,stim\gray.png,stim\gray.png,up,0,0,0,0,0,1,1,1,0,1,1,1,,,,,,,,,,,,,,,,,,,,,,,,,,,65.18177960003959,66.18300850002561,65.18177960003959,66.18300850002561,65.18177960003959,66.18300850002561,65.18177960003959,66.18300850002561,up,1,0.41772169998148456,65.18177960003959,None,65.18177960003959,None,65.18177960003959,65.68259770004079,65.18177960003959,65.68259770004079,65.18177960003959,65.68259770004079,65.18177960003959,65.68259770004079,65.18177960003959,None,,,,,,,,,,,,,,,,,,,,,,,,,,,,,,,,,,,,,,,,,,11041,001,2024_Mar_15_1435,nback,2021.2.3,59.966634568763354,
1-back,instructions\back-1.png,conditions\1back-p.xlsx,instructions\1-BACK.png,"(25, 15)",practice,1,3,stim\gray.png,stim\gray.png,stim\yellow.png,stim\gray.png,left,0,0,0,0,0,1,1,1,0,2,2,2,,,,,,,,,,,,,,,,,,,,,,,,,,,66.68413350003539,67.6853919000132,66.68413350003539,67.6853919000132,66.68413350003539,67.6853919000132,66.68413350003539,67.6853919000132,left,1,0.3946250999579206,66.68413350003539,None,66.68413350003539,None,66.68413350003539,67.18497130001197,66.68413350003539,67.18497130001197,66.68413350003539,67.18497130001197,66.68413350003539,67.18497130001197,66.68413350003539,None,,,,,,,,,,,,,,,,,,,,,,,,,,,,,,,,,,,,,,,,,,11041,001,2024_Mar_15_1435,nback,2021.2.3,59.966634568763354,
1-back,instructions\back-1.png,conditions\1back-p.xlsx,instructions\1-BACK.png,"(25, 15)",practice,1,4,stim\gray.png,stim\gray.png,stim\gray.png,stim\yellow.png,right,0,0,0,0,0,1,1,1,0,3,3,3,,,,,,,,,,,,,,,,,,,,,,,,,,,68.18630659999326,69.1885569000151,68.18630659999326,69.1885569000151,68.18630659999326,69.1885569000151,68.18630659999326,69.1885569000151,right,1,0.43634559999918565,68.18630659999326,None,68.18630659999326,None,68.18630659999326,68.68710480001755,68.18630659999326,68.68710480001755,68.18630659999326,68.68710480001755,68.18630659999326,68.68710480001755,68.18630659999326,None,,,,,,,,,,,,,,,,,,,,,,,,,,,,,,,,,,,,,,,,,,11041,001,2024_Mar_15_1435,nback,2021.2.3,59.966634568763354,
1-back,instructions\back-1.png,conditions\1back-p.xlsx,instructions\1-BACK.png,"(25, 15)",practice,1,2,stim\gray.png,stim\yellow.png,stim\gray.png,stim\gray.png,down,0,0,0,0,0,1,1,1,0,4,4,4,,,,,,,,,,,,,,,,,,,,,,,,,,,69.6885031000129,70.69034640002064,69.6885031000129,70.69034640002064,69.6885031000129,70.69034640002064,69.6885031000129,70.69034640002064,down,1,0.22260959999402985,69.6885031000129,None,69.6885031000129,None,69.6885031000129,70.18931260000682,69.6885031000129,70.18931260000682,69.6885031000129,70.18931260000682,69.6885031000129,70.18931260000682,69.6885031000129,None,,,,,,,,,,,,,,,,,,,,,,,,,,,,,,,,,,,,,,,,,,11041,001,2024_Mar_15_1435,nback,2021.2.3,59.966634568763354,
1-back,instructions\back-1.png,conditions\1back-p.xlsx,instructions\1-BACK.png,"(25, 15)",practice,1,1,stim\yellow.png,stim\gray.png,stim\gray.png,stim\gray.png,left,0,0,0,0,0,1,1,1,0,5,5,5,,,,,,,,,,,,,,,,,,,,,,,,,,,71.19069670001045,72.19290110003203,71.19069670001045,72.19290110003203,71.19069670001045,72.19290110003203,71.19069670001045,72.19290110003203,left,1,0.2559485000092536,71.19069670001045,None,71.19069670001045,None,71.19069670001045,71.69219740002882,71.19069670001045,71.69219740002882,71.19069670001045,71.69219740002882,71.19069670001045,71.69219740002882,71.19069670001045,None,,,,,,,,,,,,,,,,,,,,,,,,,,,,,,,,,,,,,,,,,,11041,001,2024_Mar_15_1435,nback,2021.2.3,59.966634568763354,
1-back,instructions\back-1.png,conditions\1back-p.xlsx,instructions\1-BACK.png,"(25, 15)",practice,1,4,stim\gray.png,stim\gray.png,stim\gray.png,stim\yellow.png,up,0,0,0,0,0,1,1,1,0,6,6,6,,,,,,,,,,,,,,,,,,,,,,,,,,,72.67642239999259,73.67819070001133,72.67642239999259,73.67819070001133,72.67642239999259,73.67819070001133,72.67642239999259,73.67819070001133,up,1,0.29863360000308603,72.67642239999259,None,72.67642239999259,None,72.67642239999259,73.17721270001493,72.67642239999259,73.17721270001493,72.67642239999259,73.17721270001493,72.67642239999259,73.17721270001493,72.67642239999259,None,,,,,,,,,,,,,,,,,,,,,,,,,,,,,,,,,,,,,,,,,,11041,001,2024_Mar_15_1435,nback,2021.2.3,59.966634568763354,
1-back,instructions\back-1.png,conditions\1back-p.xlsx,instructions\1-BACK.png,"(25, 15)",practice,1,3,stim\gray.png,stim\gray.png,stim\yellow.png,stim\gray.png,down,0,0,0,0,0,1,1,1,0,7,7,7,,,,,,,,,,,,,,,,,,,,,,,,,,,74.17900609999197,75.17996090004453,74.17900609999197,75.17996090004453,74.17900609999197,75.17996090004453,74.17900609999197,75.17996090004453,down,1,0.6520984999951907,74.17900609999197,None,74.17900609999197,None,74.17900609999197,74.67961640004069,74.17900609999197,74.67961640004069,74.17900609999197,74.67961640004069,74.17900609999197,74.67961640004069,74.17900609999197,None,,,,,,,,,,,,,,,,,,,,,,,,,,,,,,,,,,,,,,,,,,11041,001,2024_Mar_15_1435,nback,2021.2.3,59.966634568763354,
1-back,instructions\back-1.png,conditions\1back-p.xlsx,instructions\1-BACK.png,"(25, 15)",practice,1,3,stim\gray.png,stim\gray.png,stim\yellow.png,stim\gray.png,right,0,0,0,0,0,1,1,1,0,8,8,8,,,,,,,,,,,,,,,,,,,,,,,,,,,75.68107290001353,76.68328570004087,75.68107290001353,76.68328570004087,75.68107290001353,76.68328570004087,75.68107290001353,76.68328570004087,right,1,0.5740347999962978,75.68107290001353,None,75.68107290001353,None,75.68107290001353,76.18169810000109,75.68107290001353,76.18169810000109,75.68107290001353,76.18169810000109,75.68107290001353,76.18169810000109,75.68107290001353,None,,,,,,,,,,,,,,,,,,,,,,,,,,,,,,,,,,,,,,,,,,11041,001,2024_Mar_15_1435,nback,2021.2.3,59.966634568763354,
1-back,instructions\back-1.png,conditions\1back-p.xlsx,instructions\1-BACK.png,"(25, 15)",practice,1,4,stim\gray.png,stim\gray.png,stim\gray.png,stim\yellow.png,right,0,0,0,0,0,1,1,1,0,9,9,9,,,,,,,,,,,,,,,,,,,,,,,,,,,77.18320379999932,78.18460670002969,77.18320379999932,78.18460670002969,77.18320379999932,78.18460670002969,77.18320379999932,78.18460670002969,right,1,0.3359766000066884,77.18320379999932,None,77.18320379999932,None,77.18320379999932,77.68396180000855,77.18320379999932,77.68396180000855,77.18320379999932,77.68396180000855,77.18320379999932,77.68396180000855,77.18320379999932,None,,,,,,,,,,,,,,,,,,,,,,,,,,,,,,,,,,,,,,,,,,11041,001,2024_Mar_15_1435,nback,2021.2.3,59.966634568763354,
1-back,instructions\back-1.png,conditions\1back-p.xlsx,instructions\1-BACK.png,"(25, 15)",practice,1,1,stim\yellow.png,stim\gray.png,stim\gray.png,stim\gray.png,down,0,0,0,0,0,1,1,1,0,10,10,10,,,,,,,,,,,,,,,,,,,,,,,,,,,78.68530000001192,79.68779630004428,78.68530000001192,79.68779630004428,78.68530000001192,79.68779630004428,78.68530000001192,79.68779630004428,down,1,0.31378199998289347,78.68530000001192,None,78.68530000001192,None,78.68530000001192,79.1862796000205,78.68530000001192,79.1862796000205,78.68530000001192,79.1862796000205,78.68530000001192,79.1862796000205,78.68530000001192,None,,,,,,,,,,,,,,,,,,,,,,,,,,,,,,,,,,,,,,,,,,11041,001,2024_Mar_15_1435,nback,2021.2.3,59.966634568763354,
1-back,instructions\back-1.png,conditions\1back-p.xlsx,instructions\1-BACK.png,"(25, 15)",practice,1,2,stim\gray.png,stim\yellow.png,stim\gray.png,stim\gray.png,up,0,0,0,0,0,1,1,1,0,11,11,11,,,,,,,,,,,,,,,,,,,,,,,,,,,80.1877789000282,81.18942930002231,80.1877789000282,81.18942930002231,80.1877789000282,81.18942930002231,80.1877789000282,81.18942930002231,up,1,0.23512199998367578,80.1877789000282,None,80.1877789000282,None,80.1877789000282,80.68854270002339,80.1877789000282,80.68854270002339,80.1877789000282,80.68854270002339,80.1877789000282,80.68854270002339,80.1877789000282,None,,,,,,,,,,,,,,,,,,,,,,,,,,,,,,,,,,,,,,,,,,11041,001,2024_Mar_15_1435,nback,2021.2.3,59.966634568763354,
1-back,instructions\back-1.png,conditions\1back-p.xlsx,instructions\1-BACK.png,"(25, 15)",practice,1,4,stim\gray.png,stim\gray.png,stim\gray.png,stim\yellow.png,left,0,0,0,0,0,1,1,1,0,12,12,12,,,,,,,,,,,,,,,,,,,,,,,,,,,81.68996610003524,82.69183500000509,81.68996610003524,82.69183500000509,81.68996610003524,82.69183500000509,81.68996610003524,82.69183500000509,None,0,,81.68996610003524,None,81.68996610003524,None,81.68996610003524,82.19086030003382,81.68996610003524,82.19086030003382,81.68996610003524,82.19086030003382,81.68996610003524,82.19086030003382,81.68996610003524,None,,,,,,,,,,,,,,,,,,,,,,,,,,,,,,,,,,,,,,,,,,11041,001,2024_Mar_15_1435,nback,2021.2.3,59.966634568763354,
1-back,instructions\back-1.png,conditions\1back-p.xlsx,instructions\1-BACK.png,"(25, 15)",practice,1,3,stim\gray.png,stim\gray.png,stim\yellow.png,stim\gray.png,down,0,0,0,0,0,1,1,1,0,13,13,13,,,,,,,,,,,,,,,,,,,,,,,,,,,83.17559430003166,84.17767470004037,83.17559430003166,84.17767470004037,83.17559430003166,84.17767470004037,83.17559430003166,84.17767470004037,down,1,0.11955970001872629,83.17559430003166,None,83.17559430003166,None,83.17559430003166,83.6764185000211,83.17559430003166,83.6764185000211,83.17559430003166,83.6764185000211,83.17559430003166,83.6764185000211,83.17559430003166,None,,,,,,,,,,,,,,,,,,,,,,,,,,,,,,,,,,,,,,,,,,11041,001,2024_Mar_15_1435,nback,2021.2.3,59.966634568763354,
1-back,instructions\back-1.png,conditions\1back-p.xlsx,instructions\1-BACK.png,"(25, 15)",practice,1,1,stim\yellow.png,stim\gray.png,stim\gray.png,stim\gray.png,right,0,0,0,0,0,1,1,1,0,14,14,14,,,,,,,,,,,,,,,,,,,,,,,,,,,84.67782790004276,85.67929830000503,84.67782790004276,85.67929830000503,84.67782790004276,85.67929830000503,84.67782790004276,85.67929830000503,right,1,0.23414919996866956,84.67782790004276,None,84.67782790004276,None,84.67782790004276,85.17860270000529,84.67782790004276,85.17860270000529,84.67782790004276,85.17860270000529,84.67782790004276,85.17860270000529,84.67782790004276,None,,,,,,,,,,,,,,,,,,,,,,,,,,,,,,,,,,,,,,,,,,11041,001,2024_Mar_15_1435,nback,2021.2.3,59.966634568763354,
1-back,instructions\back-1.png,conditions\1back-p.xlsx,instructions\1-BACK.png,"(25, 15)",practice,1,2,stim\gray.png,stim\yellow.png,stim\gray.png,stim\gray.png,up,0,0,0,0,0,1,1,1,0,15,15,15,,,,,,,,,,,,,,,,,,,,,,,,,,,86.18006520002382,87.1819599000155,86.18006520002382,87.1819599000155,86.18006520002382,87.1819599000155,86.18006520002382,87.1819599000155,up,1,0.3392477000015788,86.18006520002382,None,86.18006520002382,None,86.18006520002382,86.68092100002104,86.18006520002382,86.68092100002104,86.18006520002382,86.68092100002104,86.18006520002382,86.68092100002104,86.18006520002382,None,,,,,,,,,,,,,,,,,,,,,,,,,,,,,,,,,,,,,,,,,,11041,001,2024_Mar_15_1435,nback,2021.2.3,59.966634568763354,
1-back,instructions\back-1.png,conditions\1back-p.xlsx,instructions\1-BACK.png,"(25, 15)",practice,1,3,stim\gray.png,stim\gray.png,stim\yellow.png,stim\gray.png,left,0,0,0,0,0,1,1,1,0,16,16,16,,,,,,,,,,,,,,,,,,,,,,,,,,,87.68326270004036,88.6839389000088,87.68326270004036,88.6839389000088,87.68326270004036,88.6839389000088,87.68326270004036,88.6839389000088,left,1,0.26008669997099787,87.68326270004036,None,87.68326270004036,None,87.68326270004036,88.18346710002515,87.68326270004036,88.18346710002515,87.68326270004036,88.18346710002515,87.68326270004036,88.18346710002515,87.68326270004036,None,,,,,,,,,,,,,,,,,,,,,,,,,,,,,,,,,,,,,,,,,,11041,001,2024_Mar_15_1435,nback,2021.2.3,59.966634568763354,
1-back,instructions\back-1.png,conditions\1back-p.xlsx,instructions\1-BACK.png,"(25, 15)",practice,1,1,stim\yellow.png,stim\gray.png,stim\gray.png,stim\gray.png,right,0,0,0,0,0,1,1,1,0,17,17,17,,,,,,,,,,,,,,,,,,,,,,,,,,,89.18461620004382,90.18613350001397,89.18461620004382,90.18613350001397,89.18461620004382,90.18613350001397,89.18461620004382,90.18613350001397,right,1,0.31087029998889193,89.18461620004382,None,89.18461620004382,None,89.18461620004382,89.68521130003501,89.18461620004382,89.68521130003501,89.18461620004382,89.68521130003501,89.18461620004382,89.68521130003501,89.18461620004382,None,,,,,,,,,,,,,,,,,,,,,,,,,,,,,,,,,,,,,,,,,,11041,001,2024_Mar_15_1435,nback,2021.2.3,59.966634568763354,
1-back,instructions\back-1.png,conditions\1back-p.xlsx,instructions\1-BACK.png,"(25, 15)",practice,1,4,stim\gray.png,stim\gray.png,stim\gray.png,stim\yellow.png,up,0,0,0,0,0,1,1,1,0,18,18,18,,,,,,,,,,,,,,,,,,,,,,,,,,,90.68683359998977,91.68875269999262,90.68683359998977,91.68875269999262,90.68683359998977,91.68875269999262,90.68683359998977,91.68875269999262,up,1,0.8165191999869421,90.68683359998977,None,90.68683359998977,None,90.68683359998977,91.18798160000006,90.68683359998977,91.18798160000006,90.68683359998977,91.18798160000006,90.68683359998977,91.18798160000006,90.68683359998977,None,,,,,,,,,,,,,,,,,,,,,,,,,,,,,,,,,,,,,,,,,,11041,001,2024_Mar_15_1435,nback,2021.2.3,59.966634568763354,
1-back,instructions\back-1.png,conditions\1back-p.xlsx,instructions\1-BACK.png,"(25, 15)",practice,1,2,stim\gray.png,stim\yellow.png,stim\gray.png,stim\gray.png,down,0,0,0,0,0,1,1,1,0,19,19,19,,,,,,,,,,,,,,,,,,,,,,,,,,,92.18922940001357,93.1906192000024,92.18922940001357,93.1906192000024,92.18922940001357,93.1906192000024,92.18922940001357,93.1906192000024,down,1,1.2025834000087343,92.18922940001357,None,92.18922940001357,None,92.18922940001357,92.689922199992,92.18922940001357,92.689922199992,92.18922940001357,92.689922199992,92.18922940001357,92.689922199992,92.18922940001357,None,,,,,,,,,,,,,,,,,,,,,,,,,,,,,,,,,,,,,,,,,,11041,001,2024_Mar_15_1435,nback,2021.2.3,59.966634568763354,
1-back,instructions\back-1.png,conditions\1back-p.xlsx,instructions\1-BACK.png,"(25, 15)",,,,,,,,,0,0,0,0,0,1,1,1,,,,,,,,,,,,,,,,,,,,,,,,,,,,,,,,,,,,,,,,,,,,,,,,,,,,,,,,,,,,,,,,,,,,,,,,,,,,,,,,,,,,,,,,,,,,,,,,,11041,001,2024_Mar_15_1435,nback,2021.2.3,59.966634568763354,
2-back,instructions\back-2.png,conditions\2back-p.xlsx,instructions\2-BACK.png,"(25, 15)",practice,2,1,stim\yellow.png,stim\gray.png,stim\gray.png,stim\gray.png,None,0,0,0,0,0,2,2,2,0,0,0,0,,,,,,,,,,,,,,,,,93.87501280003926,None,space,3.4202655000262894,93.87501280003926,None,97.53011710004648,102.03775660000974,101.90377560001798,None,102.33844010002213,103.33973990002414,102.33844010002213,103.33973990002414,102.33844010002213,103.33973990002414,102.33844010002213,103.33973990002414,None,1,,102.33844010002213,None,102.33844010002213,None,102.33844010002213,102.83862680004677,102.33844010002213,102.83862680004677,102.33844010002213,102.83862680004677,102.33844010002213,102.83862680004677,102.33844010002213,None,,,,,,,,,,,,,,,,,,,,,,,,,,,,,,,,,,,,,,,,,,11041,001,2024_Mar_15_1435,nback,2021.2.3,59.966634568763354,
2-back,instructions\back-2.png,conditions\2back-p.xlsx,instructions\2-BACK.png,"(25, 15)",practice,2,2,stim\gray.png,stim\yellow.png,stim\gray.png,stim\gray.png,None,0,0,0,0,0,2,2,2,0,1,1,1,,,,,,,,,,,,,,,,,,,,,,,,,,,103.82376729999669,104.8249556000228,103.82376729999669,104.8249556000228,103.82376729999669,104.8249556000228,103.82376729999669,104.8249556000228,None,1,,103.82376729999669,None,103.82376729999669,None,103.82376729999669,104.324444900034,103.82376729999669,104.324444900034,103.82376729999669,104.324444900034,103.82376729999669,104.324444900034,103.82376729999669,None,,,,,,,,,,,,,,,,,,,,,,,,,,,,,,,,,,,,,,,,,,11041,001,2024_Mar_15_1435,nback,2021.2.3,59.966634568763354,
2-back,instructions\back-2.png,conditions\2back-p.xlsx,instructions\2-BACK.png,"(25, 15)",practice,2,3,stim\gray.png,stim\gray.png,stim\yellow.png,stim\gray.png,up,0,0,0,0,0,2,2,2,0,2,2,2,,,,,,,,,,,,,,,,,,,,,,,,,,,105.3256163999904,106.32726570003433,105.3256163999904,106.32726570003433,105.3256163999904,106.32726570003433,105.3256163999904,106.32726570003433,up,1,0.3538533999817446,105.3256163999904,None,105.3256163999904,None,105.3256163999904,105.82697650004411,105.3256163999904,105.82697650004411,105.3256163999904,105.82697650004411,105.3256163999904,105.82697650004411,105.3256163999904,None,,,,,,,,,,,,,,,,,,,,,,,,,,,,,,,,,,,,,,,,,,11041,001,2024_Mar_15_1435,nback,2021.2.3,59.966634568763354,
2-back,instructions\back-2.png,conditions\2back-p.xlsx,instructions\2-BACK.png,"(25, 15)",practice,2,4,stim\gray.png,stim\gray.png,stim\gray.png,stim\yellow.png,left,0,0,0,0,0,2,2,2,0,3,3,3,,,,,,,,,,,,,,,,,,,,,,,,,,,106.82791560003534,107.82928550004726,106.82791560003534,107.82928550004726,106.82791560003534,107.82928550004726,106.82791560003534,107.82928550004726,left,1,0.40382220002356917,106.82791560003534,None,106.82791560003534,None,106.82791560003534,107.32861890003551,106.82791560003534,107.32861890003551,106.82791560003534,107.32861890003551,106.82791560003534,107.32861890003551,106.82791560003534,None,,,,,,,,,,,,,,,,,,,,,,,,,,,,,,,,,,,,,,,,,,11041,001,2024_Mar_15_1435,nback,2021.2.3,59.966634568763354,
2-back,instructions\back-2.png,conditions\2back-p.xlsx,instructions\2-BACK.png,"(25, 15)",practice,2,2,stim\gray.png,stim\yellow.png,stim\gray.png,stim\gray.png,right,0,0,0,0,0,2,2,2,0,4,4,4,,,,,,,,,,,,,,,,,,,,,,,,,,,108.33013459999347,109.33170100004645,108.33013459999347,109.33170100004645,108.33013459999347,109.33170100004645,108.33013459999347,109.33170100004645,right,1,0.5344455000013113,108.33013459999347,None,108.33013459999347,None,108.33013459999347,108.83069160004379,108.33013459999347,108.83069160004379,108.33013459999347,108.83069160004379,108.33013459999347,108.83069160004379,108.33013459999347,None,,,,,,,,,,,,,,,,,,,,,,,,,,,,,,,,,,,,,,,,,,11041,001,2024_Mar_15_1435,nback,2021.2.3,59.966634568763354,
2-back,instructions\back-2.png,conditions\2back-p.xlsx,instructions\2-BACK.png,"(25, 15)",practice,2,1,stim\yellow.png,stim\gray.png,stim\gray.png,stim\gray.png,down,0,0,0,0,0,2,2,2,0,5,5,5,,,,,,,,,,,,,,,,,,,,,,,,,,,109.83228460000828,110.83380980003858,109.83228460000828,110.83380980003858,109.83228460000828,110.83380980003858,109.83228460000828,110.83380980003858,left,0,0.5752427999977954,109.83228460000828,None,109.83228460000828,None,109.83228460000828,110.3332372000441,109.83228460000828,110.3332372000441,109.83228460000828,110.3332372000441,109.83228460000828,110.3332372000441,109.83228460000828,None,,,,,,,,,,,,,,,,,,,,,,,,,,,,,,,,,,,,,,,,,,11041,001,2024_Mar_15_1435,nback,2021.2.3,59.966634568763354,
2-back,instructions\back-2.png,conditions\2back-p.xlsx,instructions\2-BACK.png,"(25, 15)",practice,2,4,stim\gray.png,stim\gray.png,stim\gray.png,stim\yellow.png,left,0,0,0,0,0,2,2,2,0,6,6,6,,,,,,,,,,,,,,,,,,,,,,,,,,,111.31813249998959,112.31947039999068,111.31813249998959,112.31947039999068,111.31813249998959,112.31947039999068,111.31813249998959,112.31947039999068,up,0,0.8501577000133693,111.31813249998959,None,111.31813249998959,None,111.31813249998959,111.81892980000703,111.31813249998959,111.81892980000703,111.31813249998959,111.81892980000703,111.31813249998959,111.81892980000703,111.31813249998959,None,,,,,,,,,,,,,,,,,,,,,,,,,,,,,,,,,,,,,,,,,,11041,001,2024_Mar_15_1435,nback,2021.2.3,59.966634568763354,
2-back,instructions\back-2.png,conditions\2back-p.xlsx,instructions\2-BACK.png,"(25, 15)",practice,2,3,stim\gray.png,stim\gray.png,stim\yellow.png,stim\gray.png,up,0,0,0,0,0,2,2,2,0,7,7,7,,,,,,,,,,,,,,,,,,,,,,,,,,,112.82133440003963,113.82184839999536,112.82133440003963,113.82184839999536,112.82133440003963,113.82184839999536,112.82133440003963,113.82184839999536,left,0,1.2514647000352852,112.82133440003963,None,112.82133440003963,None,112.82133440003963,113.32078350003576,112.82133440003963,113.32078350003576,112.82133440003963,113.32078350003576,112.82133440003963,113.32078350003576,112.82133440003963,None,,,,,,,,,,,,,,,,,,,,,,,,,,,,,,,,,,,,,,,,,,11041,001,2024_Mar_15_1435,nback,2021.2.3,59.966634568763354,
2-back,instructions\back-2.png,conditions\2back-p.xlsx,instructions\2-BACK.png,"(25, 15)",practice,2,3,stim\gray.png,stim\gray.png,stim\yellow.png,stim\gray.png,down,0,0,0,0,0,2,2,2,0,8,8,8,,,,,,,,,,,,,,,,,,,,,,,,,,,114.32272140000714,115.32444709999254,114.32272140000714,115.32444709999254,114.32272140000714,115.32444709999254,114.32272140000714,115.32444709999254,None,0,,114.32272140000714,None,114.32272140000714,None,114.32272140000714,114.82339760003379,114.32272140000714,114.82339760003379,114.32272140000714,114.82339760003379,114.32272140000714,114.82339760003379,114.32272140000714,None,,,,,,,,,,,,,,,,,,,,,,,,,,,,,,,,,,,,,,,,,,11041,001,2024_Mar_15_1435,nback,2021.2.3,59.966634568763354,
2-back,instructions\back-2.png,conditions\2back-p.xlsx,instructions\2-BACK.png,"(25, 15)",practice,2,4,stim\gray.png,stim\gray.png,stim\gray.png,stim\yellow.png,right,0,0,0,0,0,2,2,2,0,9,9,9,,,,,,,,,,,,,,,,,,,,,,,,,,,115.8256058000261,116.82611150003504,115.8256058000261,116.82611150003504,115.8256058000261,116.82611150003504,115.8256058000261,116.82611150003504,right,1,1.350459800043609,115.8256058000261,None,115.8256058000261,None,115.8256058000261,116.3254671000177,115.8256058000261,116.3254671000177,115.8256058000261,116.3254671000177,115.8256058000261,116.3254671000177,115.8256058000261,None,,,,,,,,,,,,,,,,,,,,,,,,,,,,,,,,,,,,,,,,,,11041,001,2024_Mar_15_1435,nback,2021.2.3,59.966634568763354,
2-back,instructions\back-2.png,conditions\2back-p.xlsx,instructions\2-BACK.png,"(25, 15)",practice,2,1,stim\yellow.png,stim\gray.png,stim\gray.png,stim\gray.png,right,0,0,0,0,0,2,2,2,0,10,10,10,,,,,,,,,,,,,,,,,,,,,,,,,,,117.3270746000344,118.3285946000251,117.3270746000344,118.3285946000251,117.3270746000344,118.3285946000251,117.3270746000344,118.3285946000251,right,1,1.0647802000166848,117.3270746000344,None,117.3270746000344,None,117.3270746000344,117.82773110002745,117.3270746000344,117.82773110002745,117.3270746000344,117.82773110002745,117.3270746000344,117.82773110002745,117.3270746000344,None,,,,,,,,,,,,,,,,,,,,,,,,,,,,,,,,,,,,,,,,,,11041,001,2024_Mar_15_1435,nback,2021.2.3,59.966634568763354,
2-back,instructions\back-2.png,conditions\2back-p.xlsx,instructions\2-BACK.png,"(25, 15)",practice,2,2,stim\gray.png,stim\yellow.png,stim\gray.png,stim\gray.png,down,0,0,0,0,0,2,2,2,0,11,11,11,,,,,,,,,,,,,,,,,,,,,,,,,,,118.82922559999861,119.83084170002257,118.82922559999861,119.83084170002257,118.82922559999861,119.83084170002257,118.82922559999861,119.83084170002257,None,0,,118.82922559999861,None,118.82922559999861,None,118.82922559999861,119.33019940002123,118.82922559999861,119.33019940002123,118.82922559999861,119.33019940002123,118.82922559999861,119.33019940002123,118.82922559999861,None,,,,,,,,,,,,,,,,,,,,,,,,,,,,,,,,,,,,,,,,,,11041,001,2024_Mar_15_1435,nback,2021.2.3,59.966634568763354,
2-back,instructions\back-2.png,conditions\2back-p.xlsx,instructions\2-BACK.png,"(25, 15)",practice,2,4,stim\gray.png,stim\gray.png,stim\gray.png,stim\yellow.png,up,0,0,0,0,0,2,2,2,0,12,12,12,,,,,,,,,,,,,,,,,,,,,,,,,,,120.33152760000667,121.33312339999247,120.33152760000667,121.33312339999247,120.33152760000667,121.33312339999247,120.33152760000667,121.33312339999247,left,0,1.4363209000439383,120.33152760000667,None,120.33152760000667,None,120.33152760000667,120.83230130001903,120.33152760000667,120.83230130001903,120.33152760000667,120.83230130001903,120.33152760000667,120.83230130001903,120.33152760000667,None,,,,,,,,,,,,,,,,,,,,,,,,,,,,,,,,,,,,,,,,,,11041,001,2024_Mar_15_1435,nback,2021.2.3,59.966634568763354,
2-back,instructions\back-2.png,conditions\2back-p.xlsx,instructions\2-BACK.png,"(25, 15)",practice,2,3,stim\gray.png,stim\gray.png,stim\yellow.png,stim\gray.png,left,0,0,0,0,0,2,2,2,0,13,13,13,,,,,,,,,,,,,,,,,,,,,,,,,,,121.83361380000133,122.83540620002896,121.83361380000133,122.83540620002896,121.83361380000133,122.83540620002896,121.83361380000133,122.83540620002896,up,0,1.3264141000108793,121.83361380000133,None,121.83361380000133,None,121.83361380000133,122.33464650000678,121.83361380000133,122.33464650000678,121.83361380000133,122.33464650000678,121.83361380000133,122.33464650000678,121.83361380000133,None,,,,,,,,,,,,,,,,,,,,,,,,,,,,,,,,,,,,,,,,,,11041,001,2024_Mar_15_1435,nback,2021.2.3,59.966634568763354,
2-back,instructions\back-2.png,conditions\2back-p.xlsx,instructions\2-BACK.png,"(25, 15)",practice,2,1,stim\yellow.png,stim\gray.png,stim\gray.png,stim\gray.png,down,0,0,0,0,0,2,2,2,0,14,14,14,,,,,,,,,,,,,,,,,,,,,,,,,,,123.31938790000277,124.32095850002952,123.31938790000277,124.32095850002952,123.31938790000277,124.32095850002952,123.31938790000277,124.32095850002952,None,0,,123.31938790000277,None,123.31938790000277,None,123.31938790000277,123.82001750002382,123.31938790000277,123.82001750002382,123.31938790000277,123.82001750002382,123.31938790000277,123.82001750002382,123.31938790000277,None,,,,,,,,,,,,,,,,,,,,,,,,,,,,,,,,,,,,,,,,,,11041,001,2024_Mar_15_1435,nback,2021.2.3,59.966634568763354,
2-back,instructions\back-2.png,conditions\2back-p.xlsx,instructions\2-BACK.png,"(25, 15)",practice,2,2,stim\gray.png,stim\yellow.png,stim\gray.png,stim\gray.png,right,0,0,0,0,0,2,2,2,0,15,15,15,,,,,,,,,,,,,,,,,,,,,,,,,,,124.82240900001489,125.82315470004687,124.82240900001489,125.82315470004687,124.82240900001489,125.82315470004687,124.82240900001489,125.82315470004687,left,0,0.3461224000202492,124.82240900001489,None,124.82240900001489,None,124.82240900001489,125.3226588999969,124.82240900001489,125.3226588999969,124.82240900001489,125.3226588999969,124.82240900001489,125.3226588999969,124.82240900001489,None,,,,,,,,,,,,,,,,,,,,,,,,,,,,,,,,,,,,,,,,,,11041,001,2024_Mar_15_1435,nback,2021.2.3,59.966634568763354,
2-back,instructions\back-2.png,conditions\2back-p.xlsx,instructions\2-BACK.png,"(25, 15)",practice,2,3,stim\gray.png,stim\gray.png,stim\yellow.png,stim\gray.png,up,0,0,0,0,0,2,2,2,0,16,16,16,,,,,,,,,,,,,,,,,,,,,,,,,,,126.3240048000007,127.32528789999196,126.3240048000007,127.32528789999196,126.3240048000007,127.32528789999196,126.3240048000007,127.32528789999196,left,0,1.076270499965176,126.3240048000007,None,126.3240048000007,None,126.3240048000007,126.82464330003131,126.3240048000007,126.82464330003131,126.3240048000007,126.82464330003131,126.3240048000007,126.82464330003131,126.3240048000007,None,,,,,,,,,,,,,,,,,,,,,,,,,,,,,,,,,,,,,,,,,,11041,001,2024_Mar_15_1435,nback,2021.2.3,59.966634568763354,
2-back,instructions\back-2.png,conditions\2back-p.xlsx,instructions\2-BACK.png,"(25, 15)",practice,2,1,stim\yellow.png,stim\gray.png,stim\gray.png,stim\gray.png,left,0,0,0,0,0,2,2,2,0,17,17,17,,,,,,,,,,,,,,,,,,,,,,,,,,,127.8260689000017,128.82760330004385,127.8260689000017,128.82760330004385,127.8260689000017,128.82760330004385,127.8260689000017,128.82760330004385,None,0,,127.8260689000017,None,127.8260689000017,None,127.8260689000017,128.32692280004267,127.8260689000017,128.32692280004267,127.8260689000017,128.32692280004267,127.8260689000017,128.32692280004267,127.8260689000017,None,,,,,,,,,,,,,,,,,,,,,,,,,,,,,,,,,,,,,,,,,,11041,001,2024_Mar_15_1435,nback,2021.2.3,59.966634568763354,
2-back,instructions\back-2.png,conditions\2back-p.xlsx,instructions\2-BACK.png,"(25, 15)",practice,2,4,stim\gray.png,stim\gray.png,stim\gray.png,stim\yellow.png,right,0,0,0,0,0,2,2,2,0,18,18,18,,,,,,,,,,,,,,,,,,,,,,,,,,,129.32861570001114,130.3304877000046,129.32861570001114,130.3304877000046,129.32861570001114,130.3304877000046,129.32861570001114,130.3304877000046,up,0,1.2480146000161767,129.32861570001114,None,129.32861570001114,None,129.32861570001114,129.82960500003537,129.32861570001114,129.82960500003537,129.32861570001114,129.82960500003537,129.32861570001114,129.82960500003537,129.32861570001114,None,,,,,,,,,,,,,,,,,,,,,,,,,,,,,,,,,,,,,,,,,,11041,001,2024_Mar_15_1435,nback,2021.2.3,59.966634568763354,
2-back,instructions\back-2.png,conditions\2back-p.xlsx,instructions\2-BACK.png,"(25, 15)",practice,2,2,stim\gray.png,stim\yellow.png,stim\gray.png,stim\gray.png,up,0,0,0,0,0,2,2,2,0,19,19,19,,,,,,,,,,,,,,,,,,,,,,,,,,,130.8306625999976,131.83223110000836,130.8306625999976,131.83223110000836,130.8306625999976,131.83223110000836,130.8306625999976,131.83223110000836,None,0,,130.8306625999976,None,130.8306625999976,None,130.8306625999976,131.3312652000459,130.8306625999976,131.3312652000459,130.8306625999976,131.3312652000459,130.8306625999976,131.3312652000459,130.8306625999976,None,,,,,,,,,,,,,,,,,,,,,,,,,,,,,,,,,,,,,,,,,,11041,001,2024_Mar_15_1435,nback,2021.2.3,59.966634568763354,
2-back,instructions\back-2.png,conditions\2back-p.xlsx,instructions\2-BACK.png,"(25, 15)",,,,,,,,,0,0,0,0,0,2,2,2,,,,,,,,,,,,,,,,,,,,,,,,,,,,,,,,,,,,,,,,,,,,,,,,,,,,,,,,,,,,,,,,,,,,,,,,,,,,,,,,,,,,,,,,,,,,,,,,,11041,001,2024_Mar_15_1435,nback,2021.2.3,59.966634568763354,
,,,,,,,,,,,,,0,0,0,0,,,,,,,,,,,,,,,,,,,,,,,,,,,,,,,,,,,,,,,,,,,,,,,,,,,,,,,,,,,,132.3330328000011,None,space,24.3005070000072,132.3330328000011,None,,,,,,,,,,,,,,,,,,,,,,,,,,,,,,,,,,,,11041,001,2024_Mar_15_1435,nback,2021.2.3,59.966634568763354,
,,,,,,,,,,,,,,,,,,,,,,,,,,,,,,,,,,,,,,,,,,,,,,,,,,,,,,,,,,,,,,,,,,,,,,,,,,,,,,,,,,156.65280370000983,None,space,13.748571500007529,156.65280370000983,None,,,,,,,,,,,,,,,,,,,,,,,,,,,,,,11041,001,2024_Mar_15_1435,nback,2021.2.3,59.966634568763354,
1-back,instructions\back-1.png,conditions\12back-e.xlsx,,,experiment,1,2,stim\gray.png,stim\yellow.png,stim\gray.png,stim\gray.png,None,,,,,,,,,,,,,0,0,0,6,0,0,0,0,,,,,,,,,,,,,,,170.641337500012,175.14951040002052,175.06415019999258,None,,,,,,,,,,,,,,,,,,,,,,,,,,,,,,,,,,,,,,None,1,175.44792530004634,None,175.44792530004634,None,175.44792530004634,176.44937520002713,175.44792530004634,176.44937520002713,175.44792530004634,176.44937520002713,175.44792530004634,176.44937520002713,175.44792530004634,175.9487819999922,175.44792530004634,175.9487819999922,175.44792530004634,175.9487819999922,175.44792530004634,175.9487819999922,175.44792530004634,None,,,,,,11041,001,2024_Mar_15_1435,nback,2021.2.3,59.966634568763354,
1-back,instructions\back-1.png,conditions\12back-e.xlsx,,,experiment,1,3,stim\gray.png,stim\gray.png,stim\yellow.png,stim\gray.png,left,,,,,,,,,,,,,0,0,0,6,0,1,1,1,,,,,,,,,,,,,,,,,,,,,,,,,,,,,,,,,,,,,,,,,,,,,,,,,,,,,,,,left,1,176.93358740000986,None,176.93358740000986,None,176.93358740000986,177.93595469999127,176.93358740000986,177.93595469999127,176.93358740000986,177.93595469999127,176.93358740000986,177.93595469999127,176.93358740000986,177.43472940003267,176.93358740000986,177.43472940003267,176.93358740000986,177.43472940003267,176.93358740000986,177.43472940003267,176.93358740000986,None,0.31616539997048676,,,,,11041,001,2024_Mar_15_1435,nback,2021.2.3,59.966634568763354,
1-back,instructions\back-1.png,conditions\12back-e.xlsx,,,experiment,1,4,stim\gray.png,stim\gray.png,stim\gray.png,stim\yellow.png,right,,,,,,,,,,,,,0,0,0,6,0,2,2,2,,,,,,,,,,,,,,,,,,,,,,,,,,,,,,,,,,,,,,,,,,,,,,,,,,,,,,,,right,1,178.43572569999378,None,178.43572569999378,None,178.43572569999378,179.4376340000308,178.43572569999378,179.4376340000308,178.43572569999378,179.4376340000308,178.43572569999378,179.4376340000308,178.43572569999378,178.93651720002526,178.43572569999378,178.93651720002526,178.43572569999378,178.93651720002526,178.43572569999378,178.93651720002526,178.43572569999378,None,0.2858400999684818,,,,,11041,001,2024_Mar_15_1435,nback,2021.2.3,59.966634568763354,
1-back,instructions\back-1.png,conditions\12back-e.xlsx,,,experiment,1,3,stim\gray.png,stim\gray.png,stim\yellow.png,stim\gray.png,down,,,,,,,,,,,,,0,0,0,6,0,3,3,3,,,,,,,,,,,,,,,,,,,,,,,,,,,,,,,,,,,,,,,,,,,,,,,,,,,,,,,,down,1,179.937968800019,None,179.937968800019,None,179.937968800019,180.94005900004413,179.937968800019,180.94005900004413,179.937968800019,180.94005900004413,179.937968800019,180.94005900004413,179.937968800019,180.43898440001067,179.937968800019,180.43898440001067,179.937968800019,180.43898440001067,179.937968800019,180.43898440001067,179.937968800019,None,0.4164763000444509,,,,,11041,001,2024_Mar_15_1435,nback,2021.2.3,59.966634568763354,
1-back,instructions\back-1.png,conditions\12back-e.xlsx,,,experiment,1,1,stim\yellow.png,stim\gray.png,stim\gray.png,stim\gray.png,right,,,,,,,,,,,,,0,0,0,6,0,4,4,4,,,,,,,,,,,,,,,,,,,,,,,,,,,,,,,,,,,,,,,,,,,,,,,,,,,,,,,,right,1,181.44041090004612,None,181.44041090004612,None,181.44041090004612,182.44211070000893,181.44041090004612,182.44211070000893,181.44041090004612,182.44211070000893,181.44041090004612,182.44211070000893,181.44041090004612,181.94092180003645,181.44041090004612,181.94092180003645,181.44041090004612,181.94092180003645,181.44041090004612,181.94092180003645,181.44041090004612,None,0.36917850002646446,,,,,11041,001,2024_Mar_15_1435,nback,2021.2.3,59.966634568763354,
1-back,instructions\back-1.png,conditions\12back-e.xlsx,,,experiment,1,2,stim\gray.png,stim\yellow.png,stim\gray.png,stim\gray.png,up,,,,,,,,,,,,,0,0,0,6,0,5,5,5,,,,,,,,,,,,,,,,,,,,,,,,,,,,,,,,,,,,,,,,,,,,,,,,,,,,,,,,up,1,182.9426298000035,None,182.9426298000035,None,182.9426298000035,183.94429300003685,182.9426298000035,183.94429300003685,182.9426298000035,183.94429300003685,182.9426298000035,183.94429300003685,182.9426298000035,183.44328310003038,182.9426298000035,183.44328310003038,182.9426298000035,183.44328310003038,182.9426298000035,183.44328310003038,182.9426298000035,None,0.459212799964007,,,,,11041,001,2024_Mar_15_1435,nback,2021.2.3,59.966634568763354,
1-back,instructions\back-1.png,conditions\12back-e.xlsx,,,experiment,1,2,stim\gray.png,stim\yellow.png,stim\gray.png,stim\gray.png,left,,,,,,,,,,,,,0,0,0,6,0,6,6,6,,,,,,,,,,,,,,,,,,,,,,,,,,,,,,,,,,,,,,,,,,,,,,,,,,,,,,,,left,1,184.42820600001141,None,184.42820600001141,None,184.42820600001141,185.42955280002207,184.42820600001141,185.42955280002207,184.42820600001141,185.42955280002207,184.42820600001141,185.42955280002207,184.42820600001141,184.92908970004646,184.42820600001141,184.92908970004646,184.42820600001141,184.92908970004646,184.42820600001141,184.92908970004646,184.42820600001141,None,0.3500126000144519,,,,,11041,001,2024_Mar_15_1435,nback,2021.2.3,59.966634568763354,
1-back,instructions\back-1.png,conditions\12back-e.xlsx,,,experiment,1,4,stim\gray.png,stim\gray.png,stim\gray.png,stim\yellow.png,left,,,,,,,,,,,,,0,0,0,6,0,7,7,7,,,,,,,,,,,,,,,,,,,,,,,,,,,,,,,,,,,,,,,,,,,,,,,,,,,,,,,,left,1,185.9310717000044,None,185.9310717000044,None,185.9310717000044,186.93190630001482,185.9310717000044,186.93190630001482,185.9310717000044,186.93190630001482,185.9310717000044,186.93190630001482,185.9310717000044,186.43119130004197,185.9310717000044,186.43119130004197,185.9310717000044,186.43119130004197,185.9310717000044,186.43119130004197,185.9310717000044,None,0.22293559997342527,,,,,11041,001,2024_Mar_15_1435,nback,2021.2.3,59.966634568763354,
1-back,instructions\back-1.png,conditions\12back-e.xlsx,,,experiment,1,1,stim\yellow.png,stim\gray.png,stim\gray.png,stim\gray.png,down,,,,,,,,,,,,,0,0,0,6,0,8,8,8,,,,,,,,,,,,,,,,,,,,,,,,,,,,,,,,,,,,,,,,,,,,,,,,,,,,,,,,down,1,187.43261820002226,None,187.43261820002226,None,187.43261820002226,188.43423700000858,187.43261820002226,188.43423700000858,187.43261820002226,188.43423700000858,187.43261820002226,188.43423700000858,187.43261820002226,187.93405360000907,187.43261820002226,187.93405360000907,187.43261820002226,187.93405360000907,187.43261820002226,187.93405360000907,187.43261820002226,None,0.08131669997237623,,,,,11041,001,2024_Mar_15_1435,nback,2021.2.3,59.966634568763354,
1-back,instructions\back-1.png,conditions\12back-e.xlsx,,,experiment,1,3,stim\gray.png,stim\gray.png,stim\yellow.png,stim\gray.png,up,,,,,,,,,,,,,0,0,0,6,0,9,9,9,,,,,,,,,,,,,,,,,,,,,,,,,,,,,,,,,,,,,,,,,,,,,,,,,,,,,,,,up,1,188.93485780002084,None,188.93485780002084,None,188.93485780002084,189.93658370000776,188.93485780002084,189.93658370000776,188.93485780002084,189.93658370000776,188.93485780002084,189.93658370000776,188.93485780002084,189.43565150001086,188.93485780002084,189.43565150001086,188.93485780002084,189.43565150001086,188.93485780002084,189.43565150001086,188.93485780002084,None,0.20297179999761283,,,,,11041,001,2024_Mar_15_1435,nback,2021.2.3,59.966634568763354,
1-back,instructions\back-1.png,conditions\12back-e.xlsx,,,experiment,1,4,stim\gray.png,stim\gray.png,stim\gray.png,stim\yellow.png,right,,,,,,,,,,,,,0,0,0,6,0,10,10,10,,,,,,,,,,,,,,,,,,,,,,,,,,,,,,,,,,,,,,,,,,,,,,,,,,,,,,,,right,1,190.43709300004411,None,190.43709300004411,None,190.43709300004411,191.4388525999966,190.43709300004411,191.4388525999966,190.43709300004411,191.4388525999966,190.43709300004411,191.4388525999966,190.43709300004411,190.93797050003195,190.43709300004411,190.93797050003195,190.43709300004411,190.93797050003195,190.43709300004411,190.93797050003195,190.43709300004411,None,0.372749800037127,,,,,11041,001,2024_Mar_15_1435,nback,2021.2.3,59.966634568763354,
1-back,instructions\back-1.png,conditions\12back-e.xlsx,,,experiment,1,3,stim\gray.png,stim\gray.png,stim\yellow.png,stim\gray.png,down,,,,,,,,,,,,,0,0,0,6,0,11,11,11,,,,,,,,,,,,,,,,,,,,,,,,,,,,,,,,,,,,,,,,,,,,,,,,,,,,,,,,down,1,191.93953140004305,None,191.93953140004305,None,191.93953140004305,192.94091980002122,191.93953140004305,192.94091980002122,191.93953140004305,192.94091980002122,191.93953140004305,192.94091980002122,191.93953140004305,192.44031800003722,191.93953140004305,192.44031800003722,191.93953140004305,192.44031800003722,191.93953140004305,192.44031800003722,191.93953140004305,None,0.3512107999995351,,,,,11041,001,2024_Mar_15_1435,nback,2021.2.3,59.966634568763354,
1-back,instructions\back-1.png,conditions\12back-e.xlsx,,,experiment,1,1,stim\yellow.png,stim\gray.png,stim\gray.png,stim\gray.png,left,,,,,,,,,,,,,0,0,0,6,0,12,12,12,,,,,,,,,,,,,,,,,,,,,,,,,,,,,,,,,,,,,,,,,,,,,,,,,,,,,,,,right,0,193.44180400000187,None,193.44180400000187,None,193.44180400000187,194.4432383000385,193.44180400000187,194.4432383000385,193.44180400000187,194.4432383000385,193.44180400000187,194.4432383000385,193.44180400000187,193.9424047000357,193.44180400000187,193.9424047000357,193.44180400000187,193.9424047000357,193.44180400000187,193.9424047000357,193.44180400000187,None,0.36000819999026135,,,,,11041,001,2024_Mar_15_1435,nback,2021.2.3,59.966634568763354,
1-back,instructions\back-1.png,conditions\12back-e.xlsx,,,experiment,1,4,stim\gray.png,stim\gray.png,stim\gray.png,stim\yellow.png,up,,,,,,,,,,,,,0,0,0,6,0,13,13,13,,,,,,,,,,,,,,,,,,,,,,,,,,,,,,,,,,,,,,,,,,,,,,,,,,,,,,,,up,1,194.92722770001274,None,194.92722770001274,None,194.92722770001274,195.92900530004408,194.92722770001274,195.92900530004408,194.92722770001274,195.92900530004408,194.92722770001274,195.92900530004408,194.92722770001274,195.428267100011,194.92722770001274,195.428267100011,194.92722770001274,195.428267100011,194.92722770001274,195.428267100011,194.92722770001274,None,0.48358910001115873,,,,,11041,001,2024_Mar_15_1435,nback,2021.2.3,59.966634568763354,
1-back,instructions\back-1.png,conditions\12back-e.xlsx,,,experiment,1,1,stim\yellow.png,stim\gray.png,stim\gray.png,stim\gray.png,down,,,,,,,,,,,,,0,0,0,6,0,14,14,14,,,,,,,,,,,,,,,,,,,,,,,,,,,,,,,,,,,,,,,,,,,,,,,,,,,,,,,,down,1,196.4294412000454,None,196.4294412000454,None,196.4294412000454,197.4312419000198,196.4294412000454,197.4312419000198,196.4294412000454,197.4312419000198,196.4294412000454,197.4312419000198,196.4294412000454,196.9304429999902,196.4294412000454,196.9304429999902,196.4294412000454,196.9304429999902,196.4294412000454,196.9304429999902,196.4294412000454,None,0.4127438999712467,,,,,11041,001,2024_Mar_15_1435,nback,2021.2.3,59.966634568763354,
1-back,instructions\back-1.png,conditions\12back-e.xlsx,,,experiment,1,2,stim\gray.png,stim\yellow.png,stim\gray.png,stim\gray.png,up,,,,,,,,,,,,,0,0,0,6,0,15,15,15,,,,,,,,,,,,,,,,,,,,,,,,,,,,,,,,,,,,,,,,,,,,,,,,,,,,,,,,up,1,197.9316885000444,None,197.9316885000444,None,197.9316885000444,198.933432299993,197.9316885000444,198.933432299993,197.9316885000444,198.933432299993,197.9316885000444,198.933432299993,197.9316885000444,198.43260590004502,197.9316885000444,198.43260590004502,197.9316885000444,198.43260590004502,197.9316885000444,198.43260590004502,197.9316885000444,None,0.39841129997512326,,,,,11041,001,2024_Mar_15_1435,nback,2021.2.3,59.966634568763354,
1-back,instructions\back-1.png,conditions\12back-e.xlsx,,,experiment,1,1,stim\yellow.png,stim\gray.png,stim\gray.png,stim\gray.png,left,,,,,,,,,,,,,0,0,0,6,0,16,16,16,,,,,,,,,,,,,,,,,,,,,,,,,,,,,,,,,,,,,,,,,,,,,,,,,,,,,,,,left,1,199.43394600000465,None,199.43394600000465,None,199.43394600000465,200.4356690000277,199.43394600000465,200.4356690000277,199.43394600000465,200.4356690000277,199.43394600000465,200.4356690000277,199.43394600000465,199.9348084999947,199.43394600000465,199.9348084999947,199.43394600000465,199.9348084999947,199.43394600000465,199.9348084999947,199.43394600000465,None,0.3282085999962874,,,,,11041,001,2024_Mar_15_1435,nback,2021.2.3,59.966634568763354,
1-back,instructions\back-1.png,conditions\12back-e.xlsx,,,experiment,1,3,stim\gray.png,stim\gray.png,stim\yellow.png,stim\gray.png,up,,,,,,,,,,,,,0,0,0,6,0,17,17,17,,,,,,,,,,,,,,,,,,,,,,,,,,,,,,,,,,,,,,,,,,,,,,,,,,,,,,,,up,1,200.9364363999921,None,200.9364363999921,None,200.9364363999921,201.93807820003713,200.9364363999921,201.93807820003713,200.9364363999921,201.93807820003713,200.9364363999921,201.93807820003713,200.9364363999921,201.43710660003126,200.9364363999921,201.43710660003126,200.9364363999921,201.43710660003126,200.9364363999921,201.43710660003126,200.9364363999921,None,0.1937249000184238,,,,,11041,001,2024_Mar_15_1435,nback,2021.2.3,59.966634568763354,
1-back,instructions\back-1.png,conditions\12back-e.xlsx,,,experiment,1,2,stim\gray.png,stim\yellow.png,stim\gray.png,stim\gray.png,right,,,,,,,,,,,,,0,0,0,6,0,18,18,18,,,,,,,,,,,,,,,,,,,,,,,,,,,,,,,,,,,,,,,,,,,,,,,,,,,,,,,,right,1,202.43929559999378,None,202.43929559999378,None,202.43929559999378,203.44039290002547,202.43929559999378,203.44039290002547,202.43929559999378,203.44039290002547,202.43929559999378,203.44039290002547,202.43929559999378,202.93971710000187,202.43929559999378,202.93971710000187,202.43929559999378,202.93971710000187,202.43929559999378,202.93971710000187,202.43929559999378,None,0.19493530003819615,,,,,11041,001,2024_Mar_15_1435,nback,2021.2.3,59.966634568763354,
1-back,instructions\back-1.png,conditions\12back-e.xlsx,,,experiment,1,4,stim\gray.png,stim\gray.png,stim\gray.png,stim\yellow.png,left,,,,,,,,,,,,,0,0,0,6,0,19,19,19,,,,,,,,,,,,,,,,,,,,,,,,,,,,,,,,,,,,,,,,,,,,,,,,,,,,,,,,left,1,203.94069560000207,None,203.94069560000207,None,203.94069560000207,204.94295749999583,203.94069560000207,204.94295749999583,203.94069560000207,204.94295749999583,203.94069560000207,204.94295749999583,203.94069560000207,204.4423524000449,203.94069560000207,204.4423524000449,203.94069560000207,204.4423524000449,203.94069560000207,204.4423524000449,203.94069560000207,None,0.3499290000181645,,,,,11041,001,2024_Mar_15_1435,nback,2021.2.3,59.966634568763354,
1-back,instructions\back-1.png,conditions\12back-e.xlsx,,,,,,,,,,,,,,,,,,,,,,,0,0,0,6,,,,,,,,,,,,,,,,,,,,,,,,,,,,,,,,,,,,,,,,,,,,,,,,,,,,,,,,,,,,,,,,,,,,,,,,,,,,,,,,,,,,,205.4433824000298,None,,,11041,001,2024_Mar_15_1435,nback,2021.2.3,59.966634568763354,
0-back,instructions\back-0.png,conditions\01back-e.xlsx,,,experiment,0,2,stim\gray.png,stim\yellow.png,stim\gray.png,stim\gray.png,left,,,,,,,,,,,,,0,1,1,4,0,0,0,0,,,,,,,,,,,,,,,206.5782148000435,211.08568080002442,211.0684908000403,None,,,,,,,,,,,,,,,,,,,,,,,,,,,,,,,,,,,,,,left,1,211.4535368999932,None,211.4535368999932,None,211.4535368999932,212.4536758000031,211.4535368999932,212.4536758000031,211.4535368999932,212.4536758000031,211.4535368999932,212.4536758000031,211.4535368999932,211.95352350000758,211.4535368999932,211.95352350000758,211.4535368999932,211.95352350000758,211.4535368999932,211.95352350000758,211.4535368999932,None,0.5010326000046916,,,,,11041,001,2024_Mar_15_1435,nback,2021.2.3,59.966634568763354,
0-back,instructions\back-0.png,conditions\01back-e.xlsx,,,experiment,0,4,stim\gray.png,stim\gray.png,stim\gray.png,stim\yellow.png,down,,,,,,,,,,,,,0,1,1,4,0,1,1,1,,,,,,,,,,,,,,,,,,,,,,,,,,,,,,,,,,,,,,,,,,,,,,,,,,,,,,,,down,1,212.9376664000447,None,212.9376664000447,None,212.9376664000447,213.939266100002,212.9376664000447,213.939266100002,212.9376664000447,213.939266100002,212.9376664000447,213.939266100002,212.9376664000447,213.43863410002086,212.9376664000447,213.43863410002086,212.9376664000447,213.43863410002086,212.9376664000447,213.43863410002086,212.9376664000447,None,0.4568184000090696,,,,,11041,001,2024_Mar_15_1435,nback,2021.2.3,59.966634568763354,
0-back,instructions\back-0.png,conditions\01back-e.xlsx,,,experiment,0,1,stim\yellow.png,stim\gray.png,stim\gray.png,stim\gray.png,up,,,,,,,,,,,,,0,1,1,4,0,2,2,2,,,,,,,,,,,,,,,,,,,,,,,,,,,,,,,,,,,,,,,,,,,,,,,,,,,,,,,,up,1,214.4400508000399,None,214.4400508000399,None,214.4400508000399,215.44164500001352,214.4400508000399,215.44164500001352,214.4400508000399,215.44164500001352,214.4400508000399,215.44164500001352,214.4400508000399,214.94075050001265,214.4400508000399,214.94075050001265,214.4400508000399,214.94075050001265,214.4400508000399,214.94075050001265,214.4400508000399,None,0.42662609997205436,,,,,11041,001,2024_Mar_15_1435,nback,2021.2.3,59.966634568763354,
0-back,instructions\back-0.png,conditions\01back-e.xlsx,,,experiment,0,2,stim\gray.png,stim\yellow.png,stim\gray.png,stim\gray.png,left,,,,,,,,,,,,,0,1,1,4,0,3,3,3,,,,,,,,,,,,,,,,,,,,,,,,,,,,,,,,,,,,,,,,,,,,,,,,,,,,,,,,left,1,215.94217100000242,None,215.94217100000242,None,215.94217100000242,216.9437516000471,215.94217100000242,216.9437516000471,215.94217100000242,216.9437516000471,215.94217100000242,216.9437516000471,215.94217100000242,216.44282110000495,215.94217100000242,216.44282110000495,215.94217100000242,216.44282110000495,215.94217100000242,216.44282110000495,215.94217100000242,None,0.35639059997629374,,,,,11041,001,2024_Mar_15_1435,nback,2021.2.3,59.966634568763354,
0-back,instructions\back-0.png,conditions\01back-e.xlsx,,,experiment,0,3,stim\gray.png,stim\gray.png,stim\yellow.png,stim\gray.png,right,,,,,,,,,,,,,0,1,1,4,0,4,4,4,,,,,,,,,,,,,,,,,,,,,,,,,,,,,,,,,,,,,,,,,,,,,,,,,,,,,,,,right,1,217.42784300004132,None,217.42784300004132,None,217.42784300004132,218.42986160004511,217.42784300004132,218.42986160004511,217.42784300004132,218.42986160004511,217.42784300004132,218.42986160004511,217.42784300004132,217.929000300006,217.42784300004132,217.929000300006,217.42784300004132,217.929000300006,217.42784300004132,217.929000300006,217.42784300004132,None,0.3272869000211358,,,,,11041,001,2024_Mar_15_1435,nback,2021.2.3,59.966634568763354,
0-back,instructions\back-0.png,conditions\01back-e.xlsx,,,experiment,0,1,stim\yellow.png,stim\gray.png,stim\gray.png,stim\gray.png,up,,,,,,,,,,,,,0,1,1,4,0,5,5,5,,,,,,,,,,,,,,,,,,,,,,,,,,,,,,,,,,,,,,,,,,,,,,,,,,,,,,,,up,1,218.93022189999465,None,218.93022189999465,None,218.93022189999465,219.93230069999117,218.93022189999465,219.93230069999117,218.93022189999465,219.93230069999117,218.93022189999465,219.93230069999117,218.93022189999465,219.43096060003154,218.93022189999465,219.43096060003154,218.93022189999465,219.43096060003154,218.93022189999465,219.43096060003154,218.93022189999465,None,0.36068379995413125,,,,,11041,001,2024_Mar_15_1435,nback,2021.2.3,59.966634568763354,
0-back,instructions\back-0.png,conditions\01back-e.xlsx,,,experiment,0,4,stim\gray.png,stim\gray.png,stim\gray.png,stim\yellow.png,down,,,,,,,,,,,,,0,1,1,4,0,6,6,6,,,,,,,,,,,,,,,,,,,,,,,,,,,,,,,,,,,,,,,,,,,,,,,,,,,,,,,,down,1,220.43250360002276,None,220.43250360002276,None,220.43250360002276,221.4346900000237,220.43250360002276,221.4346900000237,220.43250360002276,221.4346900000237,220.43250360002276,221.4346900000237,220.43250360002276,220.93318440002622,220.43250360002276,220.93318440002622,220.43250360002276,220.93318440002622,220.43250360002276,220.93318440002622,220.43250360002276,None,0.3783588000223972,,,,,11041,001,2024_Mar_15_1435,nback,2021.2.3,59.966634568763354,
0-back,instructions\back-0.png,conditions\01back-e.xlsx,,,experiment,0,3,stim\gray.png,stim\gray.png,stim\yellow.png,stim\gray.png,right,,,,,,,,,,,,,0,1,1,4,0,7,7,7,,,,,,,,,,,,,,,,,,,,,,,,,,,,,,,,,,,,,,,,,,,,,,,,,,,,,,,,right,1,221.9346258000005,None,221.9346258000005,None,221.9346258000005,222.93647529999726,221.9346258000005,222.93647529999726,221.9346258000005,222.93647529999726,221.9346258000005,222.93647529999726,221.9346258000005,222.43549649999477,221.9346258000005,222.43549649999477,221.9346258000005,222.43549649999477,221.9346258000005,222.43549649999477,221.9346258000005,None,0.36431670002639294,,,,,11041,001,2024_Mar_15_1435,nback,2021.2.3,59.966634568763354,
0-back,instructions\back-0.png,conditions\01back-e.xlsx,,,experiment,0,4,stim\gray.png,stim\gray.png,stim\gray.png,stim\yellow.png,down,,,,,,,,,,,,,0,1,1,4,0,8,8,8,,,,,,,,,,,,,,,,,,,,,,,,,,,,,,,,,,,,,,,,,,,,,,,,,,,,,,,,down,1,223.43698950001271,None,223.43698950001271,None,223.43698950001271,224.4385414000135,223.43698950001271,224.4385414000135,223.43698950001271,224.4385414000135,223.43698950001271,224.4385414000135,223.43698950001271,223.93861680000555,223.43698950001271,223.93861680000555,223.43698950001271,223.93861680000555,223.43698950001271,223.93861680000555,223.43698950001271,None,0.45369399996707216,,,,,11041,001,2024_Mar_15_1435,nback,2021.2.3,59.966634568763354,
0-back,instructions\back-0.png,conditions\01back-e.xlsx,,,experiment,0,3,stim\gray.png,stim\gray.png,stim\yellow.png,stim\gray.png,right,,,,,,,,,,,,,0,1,1,4,0,9,9,9,,,,,,,,,,,,,,,,,,,,,,,,,,,,,,,,,,,,,,,,,,,,,,,,,,,,,,,,right,1,224.9394392000395,None,224.9394392000395,None,224.9394392000395,225.9411858000094,224.9394392000395,225.9411858000094,224.9394392000395,225.9411858000094,224.9394392000395,225.9411858000094,224.9394392000395,225.4398474000045,224.9394392000395,225.4398474000045,224.9394392000395,225.4398474000045,224.9394392000395,225.4398474000045,224.9394392000395,None,0.3676747999852523,,,,,11041,001,2024_Mar_15_1435,nback,2021.2.3,59.966634568763354,
0-back,instructions\back-0.png,conditions\01back-e.xlsx,,,experiment,0,3,stim\gray.png,stim\gray.png,stim\yellow.png,stim\gray.png,right,,,,,,,,,,,,,0,1,1,4,0,10,10,10,,,,,,,,,,,,,,,,,,,,,,,,,,,,,,,,,,,,,,,,,,,,,,,,,,,,,,,,right,1,226.44194059999427,None,226.44194059999427,None,226.44194059999427,227.44321650004713,226.44194059999427,227.44321650004713,226.44194059999427,227.44321650004713,226.44194059999427,227.44321650004713,226.44194059999427,226.94242830004077,226.44194059999427,226.94242830004077,226.44194059999427,226.94242830004077,226.44194059999427,226.94242830004077,226.44194059999427,None,0.3370321999536827,,,,,11041,001,2024_Mar_15_1435,nback,2021.2.3,59.966634568763354,
0-back,instructions\back-0.png,conditions\01back-e.xlsx,,,experiment,0,1,stim\yellow.png,stim\gray.png,stim\gray.png,stim\gray.png,up,,,,,,,,,,,,,0,1,1,4,0,11,11,11,,,,,,,,,,,,,,,,,,,,,,,,,,,,,,,,,,,,,,,,,,,,,,,,,,,,,,,,up,1,227.94384230003925,None,227.94384230003925,None,227.94384230003925,228.94709289999446,227.94384230003925,228.94709289999446,227.94384230003925,228.94709289999446,227.94384230003925,228.94709289999446,227.94384230003925,228.44457059999695,227.94384230003925,228.44457059999695,227.94384230003925,228.44457059999695,227.94384230003925,228.44457059999695,227.94384230003925,None,0.45137359999353066,,,,,11041,001,2024_Mar_15_1435,nback,2021.2.3,59.966634568763354,
0-back,instructions\back-0.png,conditions\01back-e.xlsx,,,experiment,0,3,stim\gray.png,stim\gray.png,stim\yellow.png,stim\gray.png,right,,,,,,,,,,,,,0,1,1,4,0,12,12,12,,,,,,,,,,,,,,,,,,,,,,,,,,,,,,,,,,,,,,,,,,,,,,,,,,,,,,,,right,1,229.42908380000154,None,229.42908380000154,None,229.42908380000154,230.43259189999662,229.42908380000154,230.43259189999662,229.42908380000154,230.43259189999662,229.42908380000154,230.43259189999662,229.42908380000154,229.93051840004046,229.42908380000154,229.93051840004046,229.42908380000154,229.93051840004046,229.42908380000154,229.93051840004046,229.42908380000154,None,0.3262364999973215,,,,,11041,001,2024_Mar_15_1435,nback,2021.2.3,59.966634568763354,
0-back,instructions\back-0.png,conditions\01back-e.xlsx,,,experiment,0,1,stim\yellow.png,stim\gray.png,stim\gray.png,stim\gray.png,up,,,,,,,,,,,,,0,1,1,4,0,13,13,13,,,,,,,,,,,,,,,,,,,,,,,,,,,,,,,,,,,,,,,,,,,,,,,,,,,,,,,,up,1,230.93166280002333,None,230.93166280002333,None,230.93166280002333,231.93341669999063,230.93166280002333,231.93341669999063,230.93166280002333,231.93341669999063,230.93166280002333,231.93341669999063,230.93166280002333,231.43244589999085,230.93166280002333,231.43244589999085,230.93166280002333,231.43244589999085,230.93166280002333,231.43244589999085,230.93166280002333,None,0.34353139996528625,,,,,11041,001,2024_Mar_15_1435,nback,2021.2.3,59.966634568763354,
0-back,instructions\back-0.png,conditions\01back-e.xlsx,,,experiment,0,4,stim\gray.png,stim\gray.png,stim\gray.png,stim\yellow.png,down,,,,,,,,,,,,,0,1,1,4,0,14,14,14,,,,,,,,,,,,,,,,,,,,,,,,,,,,,,,,,,,,,,,,,,,,,,,,,,,,,,,,down,1,232.4337216000422,None,232.4337216000422,None,232.4337216000422,233.43563300004462,232.4337216000422,233.43563300004462,232.4337216000422,233.43563300004462,232.4337216000422,233.43563300004462,232.4337216000422,232.93450070003746,232.4337216000422,232.93450070003746,232.4337216000422,232.93450070003746,232.4337216000422,232.93450070003746,232.4337216000422,None,0.4414534000097774,,,,,11041,001,2024_Mar_15_1435,nback,2021.2.3,59.966634568763354,
0-back,instructions\back-0.png,conditions\01back-e.xlsx,,,experiment,0,2,stim\gray.png,stim\yellow.png,stim\gray.png,stim\gray.png,left,,,,,,,,,,,,,0,1,1,4,0,15,15,15,,,,,,,,,,,,,,,,,,,,,,,,,,,,,,,,,,,,,,,,,,,,,,,,,,,,,,,,left,1,233.93636890000198,None,233.93636890000198,None,233.93636890000198,234.93770509999013,233.93636890000198,234.93770509999013,233.93636890000198,234.93770509999013,233.93636890000198,234.93770509999013,233.93636890000198,234.43704580003396,233.93636890000198,234.43704580003396,233.93636890000198,234.43704580003396,233.93636890000198,234.43704580003396,233.93636890000198,None,0.31484899995848536,,,,,11041,001,2024_Mar_15_1435,nback,2021.2.3,59.966634568763354,
0-back,instructions\back-0.png,conditions\01back-e.xlsx,,,experiment,0,1,stim\yellow.png,stim\gray.png,stim\gray.png,stim\gray.png,up,,,,,,,,,,,,,0,1,1,4,0,16,16,16,,,,,,,,,,,,,,,,,,,,,,,,,,,,,,,,,,,,,,,,,,,,,,,,,,,,,,,,up,1,235.4390542000183,None,235.4390542000183,None,235.4390542000183,236.43977970001288,235.4390542000183,236.43977970001288,235.4390542000183,236.43977970001288,235.4390542000183,236.43977970001288,235.4390542000183,235.93917610001517,235.4390542000183,235.93917610001517,235.4390542000183,235.93917610001517,235.4390542000183,235.93917610001517,235.4390542000183,None,0.4442638999898918,,,,,11041,001,2024_Mar_15_1435,nback,2021.2.3,59.966634568763354,
0-back,instructions\back-0.png,conditions\01back-e.xlsx,,,experiment,0,2,stim\gray.png,stim\yellow.png,stim\gray.png,stim\gray.png,left,,,,,,,,,,,,,0,1,1,4,0,17,17,17,,,,,,,,,,,,,,,,,,,,,,,,,,,,,,,,,,,,,,,,,,,,,,,,,,,,,,,,left,1,236.9405677000177,None,236.9405677000177,None,236.9405677000177,237.94212650001282,236.9405677000177,237.94212650001282,236.9405677000177,237.94212650001282,236.9405677000177,237.94212650001282,236.9405677000177,237.44141550001223,236.9405677000177,237.44141550001223,236.9405677000177,237.44141550001223,236.9405677000177,237.44141550001223,236.9405677000177,None,0.3588663999689743,,,,,11041,001,2024_Mar_15_1435,nback,2021.2.3,59.966634568763354,
0-back,instructions\back-0.png,conditions\01back-e.xlsx,,,experiment,0,4,stim\gray.png,stim\gray.png,stim\gray.png,stim\yellow.png,down,,,,,,,,,,,,,0,1,1,4,0,18,18,18,,,,,,,,,,,,,,,,,,,,,,,,,,,,,,,,,,,,,,,,,,,,,,,,,,,,,,,,down,1,238.44296469999244,None,238.44296469999244,None,238.44296469999244,239.44492300000275,238.44296469999244,239.44492300000275,238.44296469999244,239.44492300000275,238.44296469999244,239.44492300000275,238.44296469999244,238.94381070003146,238.44296469999244,238.94381070003146,238.44296469999244,238.94381070003146,238.44296469999244,238.94381070003146,238.44296469999244,None,0.472151699999813,,,,,11041,001,2024_Mar_15_1435,nback,2021.2.3,59.966634568763354,
0-back,instructions\back-0.png,conditions\01back-e.xlsx,,,experiment,0,2,stim\gray.png,stim\yellow.png,stim\gray.png,stim\gray.png,left,,,,,,,,,,,,,0,1,1,4,0,19,19,19,,,,,,,,,,,,,,,,,,,,,,,,,,,,,,,,,,,,,,,,,,,,,,,,,,,,,,,,left,1,239.92831899999874,None,239.92831899999874,None,239.92831899999874,240.9308611000306,239.92831899999874,240.9308611000306,239.92831899999874,240.9308611000306,239.92831899999874,240.9308611000306,239.92831899999874,240.42960120004136,239.92831899999874,240.42960120004136,239.92831899999874,240.42960120004136,239.92831899999874,240.42960120004136,239.92831899999874,None,0.41100409999489784,,,,,11041,001,2024_Mar_15_1435,nback,2021.2.3,59.966634568763354,
0-back,instructions\back-0.png,conditions\01back-e.xlsx,,,,,,,,,,,,,,,,,,,,,,,0,1,1,4,,,,,,,,,,,,,,,,,,,,,,,,,,,,,,,,,,,,,,,,,,,,,,,,,,,,,,,,,,,,,,,,,,,,,,,,,,,,,,,,,,,,,241.4315668999916,None,,,11041,001,2024_Mar_15_1435,nback,2021.2.3,59.966634568763354,
1-back,instructions\back-1.png,conditions\10back-e.xlsx,,,experiment,1,3,stim\gray.png,stim\gray.png,stim\yellow.png,stim\gray.png,None,,,,,,,,,,,,,0,2,2,1,0,0,0,0,,,,,,,,,,,,,,,242.56567090004683,247.07250660000136,247.0393880000338,None,,,,,,,,,,,,,,,,,,,,,,,,,,,,,,,,,,,,,,None,1,247.45825150003657,None,247.45825150003657,None,247.45825150003657,248.4579556999961,247.45825150003657,248.4579556999961,247.45825150003657,248.4579556999961,247.45825150003657,248.4579556999961,247.45825150003657,247.95743300003232,247.45825150003657,247.95743300003232,247.45825150003657,247.95743300003232,247.45825150003657,247.95743300003232,247.45825150003657,None,,,,,,11041,001,2024_Mar_15_1435,nback,2021.2.3,59.966634568763354,
1-back,instructions\back-1.png,conditions\10back-e.xlsx,,,experiment,1,4,stim\gray.png,stim\gray.png,stim\gray.png,stim\yellow.png,right,,,,,,,,,,,,,0,2,2,1,0,1,1,1,,,,,,,,,,,,,,,,,,,,,,,,,,,,,,,,,,,,,,,,,,,,,,,,,,,,,,,,down,0,248.94216810003854,None,248.94216810003854,None,248.94216810003854,249.9436952000251,248.94216810003854,249.9436952000251,248.94216810003854,249.9436952000251,248.94216810003854,249.9436952000251,248.94216810003854,249.44266490003793,248.94216810003854,249.44266490003793,248.94216810003854,249.44266490003793,248.94216810003854,249.44266490003793,248.94216810003854,None,1.341386699990835,,,,,11041,001,2024_Mar_15_1435,nback,2021.2.3,59.966634568763354,
1-back,instructions\back-1.png,conditions\10back-e.xlsx,,,experiment,1,4,stim\gray.png,stim\gray.png,stim\gray.png,stim\yellow.png,down,,,,,,,,,,,,,0,2,2,1,0,2,2,2,,,,,,,,,,,,,,,,,,,,,,,,,,,,,,,,,,,,,,,,,,,,,,,,,,,,,,,,down,1,250.4276438000379,None,250.4276438000379,None,250.4276438000379,251.429575200018,250.4276438000379,251.429575200018,250.4276438000379,251.429575200018,250.4276438000379,251.429575200018,250.4276438000379,250.92837540002074,250.4276438000379,250.92837540002074,250.4276438000379,250.92837540002074,250.4276438000379,250.92837540002074,250.4276438000379,None,1.2321333999861963,,,,,11041,001,2024_Mar_15_1435,nback,2021.2.3,59.966634568763354,
1-back,instructions\back-1.png,conditions\10back-e.xlsx,,,experiment,1,2,stim\gray.png,stim\yellow.png,stim\gray.png,stim\gray.png,down,,,,,,,,,,,,,0,2,2,1,0,3,3,3,,,,,,,,,,,,,,,,,,,,,,,,,,,,,,,,,,,,,,,,,,,,,,,,,,,,,,,,None,0,251.92994270002237,None,251.92994270002237,None,251.92994270002237,252.93140820000554,251.92994270002237,252.93140820000554,251.92994270002237,252.93140820000554,251.92994270002237,252.93140820000554,251.92994270002237,252.43051690002903,251.92994270002237,252.43051690002903,251.92994270002237,252.43051690002903,251.92994270002237,252.43051690002903,251.92994270002237,None,,,,,,11041,001,2024_Mar_15_1435,nback,2021.2.3,59.966634568763354,
1-back,instructions\back-1.png,conditions\10back-e.xlsx,,,experiment,1,1,stim\yellow.png,stim\gray.png,stim\gray.png,stim\gray.png,left,,,,,,,,,,,,,0,2,2,1,0,4,4,4,,,,,,,,,,,,,,,,,,,,,,,,,,,,,,,,,,,,,,,,,,,,,,,,,,,,,,,,left,1,253.43217690003803,None,253.43217690003803,None,253.43217690003803,254.43371000001207,253.43217690003803,254.43371000001207,253.43217690003803,254.43371000001207,253.43217690003803,254.43371000001207,253.43217690003803,253.93330979999155,253.43217690003803,253.93330979999155,253.43217690003803,253.93330979999155,253.43217690003803,253.93330979999155,253.43217690003803,None,0.4117936000111513,,,,,11041,001,2024_Mar_15_1435,nback,2021.2.3,59.966634568763354,
1-back,instructions\back-1.png,conditions\10back-e.xlsx,,,experiment,1,2,stim\gray.png,stim\yellow.png,stim\gray.png,stim\gray.png,up,,,,,,,,,,,,,0,2,2,1,0,5,5,5,,,,,,,,,,,,,,,,,,,,,,,,,,,,,,,,,,,,,,,,,,,,,,,,,,,,,,,,up,1,254.93433600000571,None,254.93433600000571,None,254.93433600000571,255.9358742000186,254.93433600000571,255.9358742000186,254.93433600000571,255.9358742000186,254.93433600000571,255.9358742000186,254.93433600000571,255.43523990001995,254.93433600000571,255.43523990001995,254.93433600000571,255.43523990001995,254.93433600000571,255.43523990001995,254.93433600000571,None,0.045439999958034605,,,,,11041,001,2024_Mar_15_1435,nback,2021.2.3,59.966634568763354,
1-back,instructions\back-1.png,conditions\10back-e.xlsx,,,experiment,1,3,stim\gray.png,stim\gray.png,stim\yellow.png,stim\gray.png,left,,,,,,,,,,,,,0,2,2,1,0,6,6,6,,,,,,,,,,,,,,,,,,,,,,,,,,,,,,,,,,,,,,,,,,,,,,,,,,,,,,,,up,0,256.43656740000006,None,256.43656740000006,None,256.43656740000006,257.43813270004466,256.43656740000006,257.43813270004466,256.43656740000006,257.43813270004466,256.43656740000006,257.43813270004466,256.43656740000006,256.937439500005,256.43656740000006,256.937439500005,256.43656740000006,256.937439500005,256.43656740000006,256.937439500005,256.43656740000006,None,0.2310225999681279,,,,,11041,001,2024_Mar_15_1435,nback,2021.2.3,59.966634568763354,
1-back,instructions\back-1.png,conditions\10back-e.xlsx,,,experiment,1,4,stim\gray.png,stim\gray.png,stim\gray.png,stim\yellow.png,right,,,,,,,,,,,,,0,2,2,1,0,7,7,7,,,,,,,,,,,,,,,,,,,,,,,,,,,,,,,,,,,,,,,,,,,,,,,,,,,,,,,,right,1,257.9389841000084,None,257.9389841000084,None,257.9389841000084,258.9405313000316,257.9389841000084,258.9405313000316,257.9389841000084,258.9405313000316,257.9389841000084,258.9405313000316,257.9389841000084,258.440045299998,257.9389841000084,258.440045299998,257.9389841000084,258.440045299998,257.9389841000084,258.440045299998,257.9389841000084,None,0.32058140001026914,,,,,11041,001,2024_Mar_15_1435,nback,2021.2.3,59.966634568763354,
1-back,instructions\back-1.png,conditions\10back-e.xlsx,,,experiment,1,1,stim\yellow.png,stim\gray.png,stim\gray.png,stim\gray.png,down,,,,,,,,,,,,,0,2,2,1,0,8,8,8,,,,,,,,,,,,,,,,,,,,,,,,,,,,,,,,,,,,,,,,,,,,,,,,,,,,,,,,down,1,259.44115590001456,None,259.44115590001456,None,259.44115590001456,260.44254560000263,259.44115590001456,260.44254560000263,259.44115590001456,260.44254560000263,259.44115590001456,260.44254560000263,259.44115590001456,259.9423297000467,259.44115590001456,259.9423297000467,259.44115590001456,259.9423297000467,259.44115590001456,259.9423297000467,259.44115590001456,None,0.32345680001890287,,,,,11041,001,2024_Mar_15_1435,nback,2021.2.3,59.966634568763354,
1-back,instructions\back-1.png,conditions\10back-e.xlsx,,,experiment,1,3,stim\gray.png,stim\gray.png,stim\yellow.png,stim\gray.png,up,,,,,,,,,,,,,0,2,2,1,0,9,9,9,,,,,,,,,,,,,,,,,,,,,,,,,,,,,,,,,,,,,,,,,,,,,,,,,,,,,,,,up,1,260.94357040000614,None,260.94357040000614,None,260.94357040000614,261.945337400015,260.94357040000614,261.945337400015,260.94357040000614,261.945337400015,260.94357040000614,261.945337400015,260.94357040000614,261.4442217000178,260.94357040000614,261.4442217000178,260.94357040000614,261.4442217000178,260.94357040000614,261.4442217000178,260.94357040000614,None,0.22007760003907606,,,,,11041,001,2024_Mar_15_1435,nback,2021.2.3,59.966634568763354,
1-back,instructions\back-1.png,conditions\10back-e.xlsx,,,experiment,1,1,stim\yellow.png,stim\gray.png,stim\gray.png,stim\gray.png,right,,,,,,,,,,,,,0,2,2,1,0,10,10,10,,,,,,,,,,,,,,,,,,,,,,,,,,,,,,,,,,,,,,,,,,,,,,,,,,,,,,,,right,1,262.42915620002896,None,262.42915620002896,None,262.42915620002896,263.43131680000806,262.42915620002896,263.43131680000806,262.42915620002896,263.43131680000806,262.42915620002896,263.43131680000806,262.42915620002896,262.93035929999314,262.42915620002896,262.93035929999314,262.42915620002896,262.93035929999314,262.42915620002896,262.93035929999314,262.42915620002896,None,0.030734900035895407,,,,,11041,001,2024_Mar_15_1435,nback,2021.2.3,59.966634568763354,
1-back,instructions\back-1.png,conditions\10back-e.xlsx,,,experiment,1,2,stim\gray.png,stim\yellow.png,stim\gray.png,stim\gray.png,up,,,,,,,,,,,,,0,2,2,1,0,11,11,11,,,,,,,,,,,,,,,,,,,,,,,,,,,,,,,,,,,,,,,,,,,,,,,,,,,,,,,,None,0,263.93120869999984,None,263.93120869999984,None,263.93120869999984,264.93293619999895,263.93120869999984,264.93293619999895,263.93120869999984,264.93293619999895,263.93120869999984,264.93293619999895,263.93120869999984,264.43216490000486,263.93120869999984,264.43216490000486,263.93120869999984,264.43216490000486,263.93120869999984,264.43216490000486,263.93120869999984,None,,,,,,11041,001,2024_Mar_15_1435,nback,2021.2.3,59.966634568763354,
1-back,instructions\back-1.png,conditions\10back-e.xlsx,,,experiment,1,4,stim\gray.png,stim\gray.png,stim\gray.png,stim\yellow.png,left,,,,,,,,,,,,,0,2,2,1,0,12,12,12,,,,,,,,,,,,,,,,,,,,,,,,,,,,,,,,,,,,,,,,,,,,,,,,,,,,,,,,left,1,265.43354240001645,None,265.43354240001645,None,265.43354240001645,266.4354952000431,265.43354240001645,266.4354952000431,265.43354240001645,266.4354952000431,265.43354240001645,266.4354952000431,265.43354240001645,265.934423800034,265.43354240001645,265.934423800034,265.43354240001645,265.934423800034,265.43354240001645,265.934423800034,265.43354240001645,None,0.13844509999034926,,,,,11041,001,2024_Mar_15_1435,nback,2021.2.3,59.966634568763354,
1-back,instructions\back-1.png,conditions\10back-e.xlsx,,,experiment,1,3,stim\gray.png,stim\gray.png,stim\yellow.png,stim\gray.png,down,,,,,,,,,,,,,0,2,2,1,0,13,13,13,,,,,,,,,,,,,,,,,,,,,,,,,,,,,,,,,,,,,,,,,,,,,,,,,,,,,,,,down,1,266.9357143000234,None,266.9357143000234,None,266.9357143000234,267.93737639999017,266.9357143000234,267.93737639999017,266.9357143000234,267.93737639999017,266.9357143000234,267.93737639999017,266.9357143000234,267.4364440999925,266.9357143000234,267.4364440999925,266.9357143000234,267.4364440999925,266.9357143000234,267.4364440999925,266.9357143000234,None,0.10826520004775375,,,,,11041,001,2024_Mar_15_1435,nback,2021.2.3,59.966634568763354,
1-back,instructions\back-1.png,conditions\10back-e.xlsx,,,experiment,1,1,stim\yellow.png,stim\gray.png,stim\gray.png,stim\gray.png,right,,,,,,,,,,,,,0,2,2,1,0,14,14,14,,,,,,,,,,,,,,,,,,,,,,,,,,,,,,,,,,,,,,,,,,,,,,,,,,,,,,,,right,1,268.438106400019,None,268.438106400019,None,268.438106400019,269.4399284000392,268.438106400019,269.4399284000392,268.438106400019,269.4399284000392,268.438106400019,269.4399284000392,268.438106400019,268.9389272000408,268.438106400019,268.9389272000408,268.438106400019,268.9389272000408,268.438106400019,268.9389272000408,268.438106400019,None,0.1510559000307694,,,,,11041,001,2024_Mar_15_1435,nback,2021.2.3,59.966634568763354,
1-back,instructions\back-1.png,conditions\10back-e.xlsx,,,experiment,1,2,stim\gray.png,stim\yellow.png,stim\gray.png,stim\gray.png,up,,,,,,,,,,,,,0,2,2,1,0,15,15,15,,,,,,,,,,,,,,,,,,,,,,,,,,,,,,,,,,,,,,,,,,,,,,,,,,,,,,,,up,1,269.94038800004637,None,269.94038800004637,None,269.94038800004637,270.9421943000052,269.94038800004637,270.9421943000052,269.94038800004637,270.9421943000052,269.94038800004637,270.9421943000052,269.94038800004637,270.44108690001303,269.94038800004637,270.44108690001303,269.94038800004637,270.44108690001303,269.94038800004637,270.44108690001303,269.94038800004637,None,0.17590289999498054,,,,,11041,001,2024_Mar_15_1435,nback,2021.2.3,59.966634568763354,
1-back,instructions\back-1.png,conditions\10back-e.xlsx,,,experiment,1,3,stim\gray.png,stim\gray.png,stim\yellow.png,stim\gray.png,left,,,,,,,,,,,,,0,2,2,1,0,16,16,16,,,,,,,,,,,,,,,,,,,,,,,,,,,,,,,,,,,,,,,,,,,,,,,,,,,,,,,,left,1,271.4424983999925,None,271.4424983999925,None,271.4424983999925,272.44399340002565,271.4424983999925,272.44399340002565,271.4424983999925,272.44399340002565,271.4424983999925,272.44399340002565,271.4424983999925,271.94351110002026,271.4424983999925,271.94351110002026,271.4424983999925,271.94351110002026,271.4424983999925,271.94351110002026,271.4424983999925,None,0.15355729998555034,,,,,11041,001,2024_Mar_15_1435,nback,2021.2.3,59.966634568763354,
1-back,instructions\back-1.png,conditions\10back-e.xlsx,,,experiment,1,2,stim\gray.png,stim\yellow.png,stim\gray.png,stim\gray.png,right,,,,,,,,,,,,,0,2,2,1,0,17,17,17,,,,,,,,,,,,,,,,,,,,,,,,,,,,,,,,,,,,,,,,,,,,,,,,,,,,,,,,right,1,272.9282047000015,None,272.9282047000015,None,272.9282047000015,273.92967959999805,272.9282047000015,273.92967959999805,272.9282047000015,273.92967959999805,272.9282047000015,273.92967959999805,272.9282047000015,273.4292718000361,272.9282047000015,273.4292718000361,272.9282047000015,273.4292718000361,272.9282047000015,273.4292718000361,272.9282047000015,None,0.09275399998296052,,,,,11041,001,2024_Mar_15_1435,nback,2021.2.3,59.966634568763354,
1-back,instructions\back-1.png,conditions\10back-e.xlsx,,,experiment,1,1,stim\yellow.png,stim\gray.png,stim\gray.png,stim\gray.png,left,,,,,,,,,,,,,0,2,2,1,0,18,18,18,,,,,,,,,,,,,,,,,,,,,,,,,,,,,,,,,,,,,,,,,,,,,,,,,,,,,,,,left,1,274.4304921000148,None,274.4304921000148,None,274.4304921000148,275.43202860001475,274.4304921000148,275.43202860001475,274.4304921000148,275.43202860001475,274.4304921000148,275.43202860001475,274.4304921000148,274.9310743000242,274.4304921000148,274.9310743000242,274.4304921000148,274.9310743000242,274.4304921000148,274.9310743000242,274.4304921000148,None,0.22198540001409128,,,,,11041,001,2024_Mar_15_1435,nback,2021.2.3,59.966634568763354,
1-back,instructions\back-1.png,conditions\10back-e.xlsx,,,experiment,1,4,stim\gray.png,stim\gray.png,stim\gray.png,stim\yellow.png,up,,,,,,,,,,,,,0,2,2,1,0,19,19,19,,,,,,,,,,,,,,,,,,,,,,,,,,,,,,,,,,,,,,,,,,,,,,,,,,,,,,,,up,1,275.9327307000058,None,275.9327307000058,None,275.9327307000058,276.93431440001586,275.9327307000058,276.93431440001586,275.9327307000058,276.93431440001586,275.9327307000058,276.93431440001586,275.9327307000058,276.4334760000347,275.9327307000058,276.4334760000347,275.9327307000058,276.4334760000347,275.9327307000058,276.4334760000347,275.9327307000058,None,0.20747470000060275,,,,,11041,001,2024_Mar_15_1435,nback,2021.2.3,59.966634568763354,
1-back,instructions\back-1.png,conditions\10back-e.xlsx,,,,,,,,,,,,,,,,,,,,,,,0,2,2,1,,,,,,,,,,,,,,,,,,,,,,,,,,,,,,,,,,,,,,,,,,,,,,,,,,,,,,,,,,,,,,,,,,,,,,,,,,,,,,,,,,,,,277.435015199997,None,,,11041,001,2024_Mar_15_1435,nback,2021.2.3,59.966634568763354,
2-back,instructions\back-2.png,conditions\22back-e.xlsx,,,experiment,2,2,stim\gray.png,stim\yellow.png,stim\gray.png,stim\gray.png,None,,,,,,,,,,,,,0,3,3,8,0,0,0,0,,,,,,,,,,,,,,,278.6198591000284,283.1271105000051,283.06003660004353,None,,,,,,,,,,,,,,,,,,,,,,,,,,,,,,,,,,,,,,None,1,283.44456490001176,None,283.44456490001176,None,283.44456490001176,284.4456414000015,283.44456490001176,284.4456414000015,283.44456490001176,284.4456414000015,283.44456490001176,284.4456414000015,283.44456490001176,283.9448346000281,283.44456490001176,283.9448346000281,283.44456490001176,283.9448346000281,283.44456490001176,283.9448346000281,283.44456490001176,None,,,,,,11041,001,2024_Mar_15_1435,nback,2021.2.3,59.966634568763354,
2-back,instructions\back-2.png,conditions\22back-e.xlsx,,,experiment,2,3,stim\gray.png,stim\gray.png,stim\yellow.png,stim\gray.png,None,,,,,,,,,,,,,0,3,3,8,0,1,1,1,,,,,,,,,,,,,,,,,,,,,,,,,,,,,,,,,,,,,,,,,,,,,,,,,,,,,,,,None,1,284.929540000041,None,284.929540000041,None,284.929540000041,285.93100380001124,284.929540000041,285.93100380001124,284.929540000041,285.93100380001124,284.929540000041,285.93100380001124,284.929540000041,285.4303993000067,284.929540000041,285.4303993000067,284.929540000041,285.4303993000067,284.929540000041,285.4303993000067,284.929540000041,None,,,,,,11041,001,2024_Mar_15_1435,nback,2021.2.3,59.966634568763354,
2-back,instructions\back-2.png,conditions\22back-e.xlsx,,,experiment,2,1,stim\yellow.png,stim\gray.png,stim\gray.png,stim\gray.png,left,,,,,,,,,,,,,0,3,3,8,0,2,2,2,,,,,,,,,,,,,,,,,,,,,,,,,,,,,,,,,,,,,,,,,,,,,,,,,,,,,,,,left,1,286.4318551000324,None,286.4318551000324,None,286.4318551000324,287.433642900025,286.4318551000324,287.433642900025,286.4318551000324,287.433642900025,286.4318551000324,287.433642900025,286.4318551000324,286.9326479000156,286.4318551000324,286.9326479000156,286.4318551000324,286.9326479000156,286.4318551000324,286.9326479000156,286.4318551000324,None,0.15687439998146147,,,,,11041,001,2024_Mar_15_1435,nback,2021.2.3,59.966634568763354,
2-back,instructions\back-2.png,conditions\22back-e.xlsx,,,experiment,2,2,stim\gray.png,stim\yellow.png,stim\gray.png,stim\gray.png,right,,,,,,,,,,,,,0,3,3,8,0,3,3,3,,,,,,,,,,,,,,,,,,,,,,,,,,,,,,,,,,,,,,,,,,,,,,,,,,,,,,,,right,1,287.9342961999937,None,287.9342961999937,None,287.9342961999937,288.93569469999056,287.9342961999937,288.93569469999056,287.9342961999937,288.93569469999056,287.9342961999937,288.93569469999056,287.9342961999937,288.4353658000473,287.9342961999937,288.4353658000473,287.9342961999937,288.4353658000473,287.9342961999937,288.4353658000473,287.9342961999937,None,0.06227749999379739,,,,,11041,001,2024_Mar_15_1435,nback,2021.2.3,59.966634568763354,
2-back,instructions\back-2.png,conditions\22back-e.xlsx,,,experiment,2,1,stim\yellow.png,stim\gray.png,stim\gray.png,stim\gray.png,up,,,,,,,,,,,,,0,3,3,8,0,4,4,4,,,,,,,,,,,,,,,,,,,,,,,,,,,,,,,,,,,,,,,,,,,,,,,,,,,,,,,,up,1,289.43635580001865,None,289.43635580001865,None,289.43635580001865,290.43804760003695,289.43635580001865,290.43804760003695,289.43635580001865,290.43804760003695,289.43635580001865,290.43804760003695,289.43635580001865,289.9375936000142,289.43635580001865,289.9375936000142,289.43635580001865,289.9375936000142,289.43635580001865,289.9375936000142,289.43635580001865,None,0.032650799956172705,,,,,11041,001,2024_Mar_15_1435,nback,2021.2.3,59.966634568763354,
2-back,instructions\back-2.png,conditions\22back-e.xlsx,,,experiment,2,4,stim\gray.png,stim\gray.png,stim\gray.png,stim\yellow.png,left,,,,,,,,,,,,,0,3,3,8,0,5,5,5,,,,,,,,,,,,,,,,,,,,,,,,,,,,,,,,,,,,,,,,,,,,,,,,,,,,,,,,left,1,290.9384938000003,None,290.9384938000003,None,290.9384938000003,291.9407729000086,290.9384938000003,291.9407729000086,290.9384938000003,291.9407729000086,290.9384938000003,291.9407729000086,290.9384938000003,291.43928869999945,290.9384938000003,291.43928869999945,290.9384938000003,291.43928869999945,290.9384938000003,291.43928869999945,290.9384938000003,None,1.0824365000007674,,,,,11041,001,2024_Mar_15_1435,nback,2021.2.3,59.966634568763354,
2-back,instructions\back-2.png,conditions\22back-e.xlsx,,,experiment,2,3,stim\gray.png,stim\gray.png,stim\yellow.png,stim\gray.png,up,,,,,,,,,,,,,0,3,3,8,0,6,6,6,,,,,,,,,,,,,,,,,,,,,,,,,,,,,,,,,,,,,,,,,,,,,,,,,,,,,,,,down,0,292.44117559998995,None,292.44117559998995,None,292.44117559998995,293.4430592000135,292.44117559998995,293.4430592000135,292.44117559998995,293.4430592000135,292.44117559998995,293.4430592000135,292.44117559998995,292.94199240003945,292.44117559998995,292.94199240003945,292.44117559998995,292.94199240003945,292.44117559998995,292.94199240003945,292.44117559998995,None,0.7155465999967419,,,,,11041,001,2024_Mar_15_1435,nback,2021.2.3,59.966634568763354,
2-back,instructions\back-2.png,conditions\22back-e.xlsx,,,experiment,2,1,stim\yellow.png,stim\gray.png,stim\gray.png,stim\gray.png,down,,,,,,,,,,,,,0,3,3,8,0,7,7,7,,,,,,,,,,,,,,,,,,,,,,,,,,,,,,,,,,,,,,,,,,,,,,,,,,,,,,,,None,0,293.94332870002836,None,293.94332870002836,None,293.94332870002836,294.9448292000452,293.94332870002836,294.9448292000452,293.94332870002836,294.9448292000452,293.94332870002836,294.9448292000452,293.94332870002836,294.44407130003674,293.94332870002836,294.44407130003674,293.94332870002836,294.44407130003674,293.94332870002836,294.44407130003674,293.94332870002836,None,,,,,,11041,001,2024_Mar_15_1435,nback,2021.2.3,59.966634568763354,
2-back,instructions\back-2.png,conditions\22back-e.xlsx,,,experiment,2,2,stim\gray.png,stim\yellow.png,stim\gray.png,stim\gray.png,right,,,,,,,,,,,,,0,3,3,8,0,8,8,8,,,,,,,,,,,,,,,,,,,,,,,,,,,,,,,,,,,,,,,,,,,,,,,,,,,,,,,,right,1,295.4289885000326,None,295.4289885000326,None,295.4289885000326,296.43048560002353,295.4289885000326,296.43048560002353,295.4289885000326,296.43048560002353,295.4289885000326,296.43048560002353,295.4289885000326,295.9307589000091,295.4289885000326,295.9307589000091,295.4289885000326,295.9307589000091,295.4289885000326,295.9307589000091,295.4289885000326,None,0.4323288000305183,,,,,11041,001,2024_Mar_15_1435,nback,2021.2.3,59.966634568763354,
2-back,instructions\back-2.png,conditions\22back-e.xlsx,,,experiment,2,1,stim\yellow.png,stim\gray.png,stim\gray.png,stim\gray.png,up,,,,,,,,,,,,,0,3,3,8,0,9,9,9,,,,,,,,,,,,,,,,,,,,,,,,,,,,,,,,,,,,,,,,,,,,,,,,,,,,,,,,left,0,296.9314887000364,None,296.9314887000364,None,296.9314887000364,297.9326227999991,296.9314887000364,297.9326227999991,296.9314887000364,297.9326227999991,296.9314887000364,297.9326227999991,296.9314887000364,297.4318112000474,296.9314887000364,297.4318112000474,296.9314887000364,297.4318112000474,296.9314887000364,297.4318112000474,296.9314887000364,None,1.3692742999992333,,,,,11041,001,2024_Mar_15_1435,nback,2021.2.3,59.966634568763354,
2-back,instructions\back-2.png,conditions\22back-e.xlsx,,,experiment,2,4,stim\gray.png,stim\gray.png,stim\gray.png,stim\yellow.png,left,,,,,,,,,,,,,0,3,3,8,0,10,10,10,,,,,,,,,,,,,,,,,,,,,,,,,,,,,,,,,,,,,,,,,,,,,,,,,,,,,,,,up,0,298.43336130003445,None,298.43336130003445,None,298.43336130003445,299.4351805000333,298.43336130003445,299.4351805000333,298.43336130003445,299.4351805000333,298.43336130003445,299.4351805000333,298.43336130003445,298.9341265000403,298.43336130003445,298.9341265000403,298.43336130003445,298.9341265000403,298.43336130003445,298.9341265000403,298.43336130003445,None,1.411401300050784,,,,,11041,001,2024_Mar_15_1435,nback,2021.2.3,59.966634568763354,
2-back,instructions\back-2.png,conditions\22back-e.xlsx,,,experiment,2,2,stim\gray.png,stim\yellow.png,stim\gray.png,stim\gray.png,up,,,,,,,,,,,,,0,3,3,8,0,11,11,11,,,,,,,,,,,,,,,,,,,,,,,,,,,,,,,,,,,,,,,,,,,,,,,,,,,,,,,,down,0,299.9354452000116,None,299.9354452000116,None,299.9354452000116,300.9370939999935,299.9354452000116,300.9370939999935,299.9354452000116,300.9370939999935,299.9354452000116,300.9370939999935,299.9354452000116,300.4362390000024,299.9354452000116,300.4362390000024,299.9354452000116,300.4362390000024,299.9354452000116,300.4362390000024,299.9354452000116,None,1.189241599990055,,,,,11041,001,2024_Mar_15_1435,nback,2021.2.3,59.966634568763354,
2-back,instructions\back-2.png,conditions\22back-e.xlsx,,,experiment,2,4,stim\gray.png,stim\gray.png,stim\gray.png,stim\yellow.png,down,,,,,,,,,,,,,0,3,3,8,0,12,12,12,,,,,,,,,,,,,,,,,,,,,,,,,,,,,,,,,,,,,,,,,,,,,,,,,,,,,,,,right,0,301.4378364000004,None,301.4378364000004,None,301.4378364000004,302.4398324000067,301.4378364000004,302.4398324000067,301.4378364000004,302.4398324000067,301.4378364000004,302.4398324000067,301.4378364000004,301.93884419999085,301.4378364000004,301.93884419999085,301.4378364000004,301.93884419999085,301.4378364000004,301.93884419999085,301.4378364000004,None,1.1031149000045843,,,,,11041,001,2024_Mar_15_1435,nback,2021.2.3,59.966634568763354,
2-back,instructions\back-2.png,conditions\22back-e.xlsx,,,experiment,2,3,stim\gray.png,stim\gray.png,stim\yellow.png,stim\gray.png,left,,,,,,,,,,,,,0,3,3,8,0,13,13,13,,,,,,,,,,,,,,,,,,,,,,,,,,,,,,,,,,,,,,,,,,,,,,,,,,,,,,,,left,1,302.9400779000134,None,302.9400779000134,None,302.9400779000134,303.9414428000455,302.9400779000134,303.9414428000455,302.9400779000134,303.9414428000455,302.9400779000134,303.9414428000455,302.9400779000134,303.4407887000125,302.9400779000134,303.4407887000125,302.9400779000134,303.4407887000125,302.9400779000134,303.4407887000125,302.9400779000134,None,0.9851459999918006,,,,,11041,001,2024_Mar_15_1435,nback,2021.2.3,59.966634568763354,
2-back,instructions\back-2.png,conditions\22back-e.xlsx,,,experiment,2,3,stim\gray.png,stim\gray.png,stim\yellow.png,stim\gray.png,down,,,,,,,,,,,,,0,3,3,8,0,14,14,14,,,,,,,,,,,,,,,,,,,,,,,,,,,,,,,,,,,,,,,,,,,,,,,,,,,,,,,,down,1,304.442436500045,None,304.442436500045,None,304.442436500045,305.44483809999656,304.442436500045,305.44483809999656,304.442436500045,305.44483809999656,304.442436500045,305.44483809999656,304.442436500045,304.94346090004547,304.442436500045,304.94346090004547,304.442436500045,304.94346090004547,304.442436500045,304.94346090004547,304.442436500045,None,0.4907140000141226,,,,,11041,001,2024_Mar_15_1435,nback,2021.2.3,59.966634568763354,
2-back,instructions\back-2.png,conditions\22back-e.xlsx,,,experiment,2,4,stim\gray.png,stim\gray.png,stim\gray.png,stim\yellow.png,right,,,,,,,,,,,,,0,3,3,8,0,15,15,15,,,,,,,,,,,,,,,,,,,,,,,,,,,,,,,,,,,,,,,,,,,,,,,,,,,,,,,,right,1,305.92778680002084,None,305.92778680002084,None,305.92778680002084,306.92942709999625,305.92778680002084,306.92942709999625,305.92778680002084,306.92942709999625,305.92778680002084,306.92942709999625,305.92778680002084,306.42907960002776,305.92778680002084,306.42907960002776,305.92778680002084,306.42907960002776,305.92778680002084,306.42907960002776,305.92778680002084,None,1.2209997000172734,,,,,11041,001,2024_Mar_15_1435,nback,2021.2.3,59.966634568763354,
2-back,instructions\back-2.png,conditions\22back-e.xlsx,,,experiment,2,2,stim\gray.png,stim\yellow.png,stim\gray.png,stim\gray.png,right,,,,,,,,,,,,,0,3,3,8,0,16,16,16,,,,,,,,,,,,,,,,,,,,,,,,,,,,,,,,,,,,,,,,,,,,,,,,,,,,,,,,None,0,307.4303448999999,None,307.4303448999999,None,307.4303448999999,308.4318191999919,307.4303448999999,308.4318191999919,307.4303448999999,308.4318191999919,307.4303448999999,308.4318191999919,307.4303448999999,307.9310067000333,307.4303448999999,307.9310067000333,307.4303448999999,307.9310067000333,307.4303448999999,307.9310067000333,307.4303448999999,None,,,,,,11041,001,2024_Mar_15_1435,nback,2021.2.3,59.966634568763354,
2-back,instructions\back-2.png,conditions\22back-e.xlsx,,,experiment,2,1,stim\yellow.png,stim\gray.png,stim\gray.png,stim\gray.png,down,,,,,,,,,,,,,0,3,3,8,0,17,17,17,,,,,,,,,,,,,,,,,,,,,,,,,,,,,,,,,,,,,,,,,,,,,,,,,,,,,,,,up,0,308.9326042000321,None,308.9326042000321,None,308.9326042000321,309.9338023000164,308.9326042000321,309.9338023000164,308.9326042000321,309.9338023000164,308.9326042000321,309.9338023000164,308.9326042000321,309.4335541999899,308.9326042000321,309.4335541999899,308.9326042000321,309.4335541999899,308.9326042000321,309.4335541999899,308.9326042000321,None,0.7124617999652401,,,,,11041,001,2024_Mar_15_1435,nback,2021.2.3,59.966634568763354,
