backseq,backinstr,backfile,instruction,size_in,Trialtype,back,number,P1,P2,P3,P4,corrAns,trials_practice.thisRepN,trials_practice.thisTrialN,trials_practice.thisN,trials_practice.thisIndex,trials.thisRepN,trials.thisTrialN,trials.thisN,trials.thisIndex,trials_3.thisRepN,trials_3.thisTrialN,trials_3.thisN,trials_3.thisIndex,trials_2.thisRepN,trials_2.thisTrialN,trials_2.thisN,trials_2.thisIndex,trials_4.thisRepN,trials_4.thisTrialN,trials_4.thisN,trials_4.thisIndex,image.started,image.stopped,image_2.started,image_2.stopped,key_resp.keys,key_resp.rt,key_resp.started,key_resp.stopped,image_3.started,image_3.stopped,key_resp_2.keys,key_resp_2.rt,key_resp_2.started,key_resp_2.stopped,image_4.started,image_4.stopped,text.started,text.stopped,H1.started,H1.stopped,H2.started,H2.stopped,H3.started,H3.stopped,H4.started,H4.stopped,key_resp_3.keys,key_resp_3.corr,key_resp_3.rt,key_resp_3.started,key_resp_3.stopped,text_4.started,text_4.stopped,F1.started,F1.stopped,F2.started,F2.stopped,F3.started,F3.stopped,F4.started,F4.stopped,image_7.started,image_7.stopped,text_5.started,text_5.stopped,key_resp_6.keys,key_resp_6.rt,key_resp_6.started,key_resp_6.stopped,image_5.started,image_5.stopped,key_resp_4.keys,key_resp_4.rt,key_resp_4.started,key_resp_4.stopped,key_resp_5.keys,key_resp_5.corr,key_resp_5.rt,key_resp_5.started,key_resp_5.stopped,text_3.started,text_3.stopped,H1_2.started,H1_2.stopped,H2_2.started,H2_2.stopped,H3_2.started,H3_2.stopped,H4_2.started,H4_2.stopped,F1_2.started,F1_2.stopped,F2_2.started,F2_2.stopped,F3_2.started,F3_2.stopped,F4_2.started,F4_2.stopped,image_8.started,image_8.stopped,text_2.started,text_2.stopped,image_6.started,image_6.stopped,participant,session,date,expName,psychopyVersion,frameRate,
,,,,,,,,,,,,,,,,,,,,,,,,,,,,,,,,,9.954910499975085,None,10.908090700162575,None,space,7.092864299891517,10.908090700162575,None,,,,,,,,,,,,,,,,,,,,,,,,,,,,,,,,,,,,,,,,,,,,,,,,,,,,,,,,,,,,,,,,,,,,,,,,,,,,,11046,001,2024_Apr_15_1401,nback,2021.2.3,60.0326217094636,
0-back,instructions\back-0.png,conditions\0back-p.xlsx,instructions\0-BACK.png,"(15, 8)",practice,0,1,stim\yellow.png,stim\gray.png,stim\gray.png,stim\gray.png,up,0,0,0,0,0,0,0,0,0,0,0,0,,,,,,,,,,,,,,,,,18.06785099999979,None,space,3.65266520017758,18.06785099999979,None,21.923272900050506,26.430024600122124,26.38004139997065,None,26.81434340006672,27.81555539998226,26.81434340006672,27.81555539998226,26.81434340006672,27.81555539998226,26.81434340006672,27.81555539998226,up,1,0.546509400010109,26.81434340006672,None,26.81434340006672,None,26.81434340006672,27.31524799996987,26.81434340006672,27.31524799996987,26.81434340006672,27.31524799996987,26.81434340006672,27.31524799996987,26.81434340006672,None,,,,,,,,,,,,,,,,,,,,,,,,,,,,,,,,,,,,,,,,,,11046,001,2024_Apr_15_1401,nback,2021.2.3,60.0326217094636,
0-back,instructions\back-0.png,conditions\0back-p.xlsx,instructions\0-BACK.png,"(15, 8)",practice,0,2,stim\gray.png,stim\yellow.png,stim\gray.png,stim\gray.png,left,0,0,0,0,0,0,0,0,0,1,1,1,,,,,,,,,,,,,,,,,,,,,,,,,,,28.249400400090963,29.251300400123,28.249400400090963,29.251300400123,28.249400400090963,29.251300400123,28.249400400090963,29.251300400123,left,1,0.42324439994990826,28.249400400090963,None,28.249400400090963,None,28.249400400090963,28.7503977001179,28.249400400090963,28.7503977001179,28.249400400090963,28.7503977001179,28.249400400090963,28.7503977001179,28.249400400090963,None,,,,,,,,,,,,,,,,,,,,,,,,,,,,,,,,,,,,,,,,,,11046,001,2024_Apr_15_1401,nback,2021.2.3,60.0326217094636,
0-back,instructions\back-0.png,conditions\0back-p.xlsx,instructions\0-BACK.png,"(15, 8)",practice,0,3,stim\gray.png,stim\gray.png,stim\yellow.png,stim\gray.png,right,0,0,0,0,0,0,0,0,0,2,2,2,,,,,,,,,,,,,,,,,,,,,,,,,,,29.751665600109845,30.75370590016246,29.751665600109845,30.75370590016246,29.751665600109845,30.75370590016246,29.751665600109845,30.75370590016246,right,1,0.3855896000750363,29.751665600109845,None,29.751665600109845,None,29.751665600109845,30.25254310015589,29.751665600109845,30.25254310015589,29.751665600109845,30.25254310015589,29.751665600109845,30.25254310015589,29.751665600109845,None,,,,,,,,,,,,,,,,,,,,,,,,,,,,,,,,,,,,,,,,,,11046,001,2024_Apr_15_1401,nback,2021.2.3,60.0326217094636,
0-back,instructions\back-0.png,conditions\0back-p.xlsx,instructions\0-BACK.png,"(15, 8)",practice,0,4,stim\gray.png,stim\gray.png,stim\gray.png,stim\yellow.png,down,0,0,0,0,0,0,0,0,0,3,3,3,,,,,,,,,,,,,,,,,,,,,,,,,,,31.254135000053793,32.25562960002571,31.254135000053793,32.25562960002571,31.254135000053793,32.25562960002571,31.254135000053793,32.25562960002571,down,1,0.3634341999422759,31.254135000053793,None,31.254135000053793,None,31.254135000053793,31.75516130006872,31.254135000053793,31.75516130006872,31.254135000053793,31.75516130006872,31.254135000053793,31.75516130006872,31.254135000053793,None,,,,,,,,,,,,,,,,,,,,,,,,,,,,,,,,,,,,,,,,,,11046,001,2024_Apr_15_1401,nback,2021.2.3,60.0326217094636,
0-back,instructions\back-0.png,conditions\0back-p.xlsx,instructions\0-BACK.png,"(15, 8)",practice,0,2,stim\gray.png,stim\yellow.png,stim\gray.png,stim\gray.png,left,0,0,0,0,0,0,0,0,0,4,4,4,,,,,,,,,,,,,,,,,,,,,,,,,,,32.75617830012925,33.75784820015542,32.75617830012925,33.75784820015542,32.75617830012925,33.75784820015542,32.75617830012925,33.75784820015542,left,1,0.34074939996935427,32.75617830012925,None,32.75617830012925,None,32.75617830012925,33.2571248000022,32.75617830012925,33.2571248000022,32.75617830012925,33.2571248000022,32.75617830012925,33.2571248000022,32.75617830012925,None,,,,,,,,,,,,,,,,,,,,,,,,,,,,,,,,,,,,,,,,,,11046,001,2024_Apr_15_1401,nback,2021.2.3,60.0326217094636,
0-back,instructions\back-0.png,conditions\0back-p.xlsx,instructions\0-BACK.png,"(15, 8)",practice,0,1,stim\yellow.png,stim\gray.png,stim\gray.png,stim\gray.png,up,0,0,0,0,0,0,0,0,0,5,5,5,,,,,,,,,,,,,,,,,,,,,,,,,,,34.25925390003249,35.260024999966845,34.25925390003249,35.260024999966845,34.25925390003249,35.260024999966845,34.25925390003249,35.260024999966845,up,1,0.3657342998776585,34.25925390003249,None,34.25925390003249,None,34.25925390003249,34.75959810009226,34.25925390003249,34.75959810009226,34.25925390003249,34.75959810009226,34.25925390003249,34.75959810009226,34.25925390003249,None,,,,,,,,,,,,,,,,,,,,,,,,,,,,,,,,,,,,,,,,,,11046,001,2024_Apr_15_1401,nback,2021.2.3,60.0326217094636,
0-back,instructions\back-0.png,conditions\0back-p.xlsx,instructions\0-BACK.png,"(15, 8)",practice,0,4,stim\gray.png,stim\gray.png,stim\gray.png,stim\yellow.png,down,0,0,0,0,0,0,0,0,0,6,6,6,,,,,,,,,,,,,,,,,,,,,,,,,,,35.74423429998569,36.74586550006643,35.74423429998569,36.74586550006643,35.74423429998569,36.74586550006643,35.74423429998569,36.74586550006643,down,1,0.5208112001419067,35.74423429998569,None,35.74423429998569,None,35.74423429998569,36.24489470012486,35.74423429998569,36.24489470012486,35.74423429998569,36.24489470012486,35.74423429998569,36.24489470012486,35.74423429998569,None,,,,,,,,,,,,,,,,,,,,,,,,,,,,,,,,,,,,,,,,,,11046,001,2024_Apr_15_1401,nback,2021.2.3,60.0326217094636,
0-back,instructions\back-0.png,conditions\0back-p.xlsx,instructions\0-BACK.png,"(15, 8)",practice,0,3,stim\gray.png,stim\gray.png,stim\yellow.png,stim\gray.png,right,0,0,0,0,0,0,0,0,0,7,7,7,,,,,,,,,,,,,,,,,,,,,,,,,,,37.24645210010931,38.247967100003734,37.24645210010931,38.247967100003734,37.24645210010931,38.247967100003734,37.24645210010931,38.247967100003734,right,1,0.37867049989290535,37.24645210010931,None,37.24645210010931,None,37.24645210010931,37.7472500000149,37.24645210010931,37.7472500000149,37.24645210010931,37.7472500000149,37.24645210010931,37.7472500000149,37.24645210010931,None,,,,,,,,,,,,,,,,,,,,,,,,,,,,,,,,,,,,,,,,,,11046,001,2024_Apr_15_1401,nback,2021.2.3,60.0326217094636,
0-back,instructions\back-0.png,conditions\0back-p.xlsx,instructions\0-BACK.png,"(15, 8)",practice,0,3,stim\gray.png,stim\gray.png,stim\yellow.png,stim\gray.png,right,0,0,0,0,0,0,0,0,0,8,8,8,,,,,,,,,,,,,,,,,,,,,,,,,,,38.748515400104225,39.75020939996466,38.748515400104225,39.75020939996466,38.748515400104225,39.75020939996466,38.748515400104225,39.75020939996466,right,1,0.43668189994059503,38.748515400104225,None,38.748515400104225,None,38.748515400104225,39.24950260017067,38.748515400104225,39.24950260017067,38.748515400104225,39.24950260017067,38.748515400104225,39.24950260017067,38.748515400104225,None,,,,,,,,,,,,,,,,,,,,,,,,,,,,,,,,,,,,,,,,,,11046,001,2024_Apr_15_1401,nback,2021.2.3,60.0326217094636,
0-back,instructions\back-0.png,conditions\0back-p.xlsx,instructions\0-BACK.png,"(15, 8)",practice,0,4,stim\gray.png,stim\gray.png,stim\gray.png,stim\yellow.png,down,0,0,0,0,0,0,0,0,0,9,9,9,,,,,,,,,,,,,,,,,,,,,,,,,,,40.25090180011466,41.25253800000064,40.25090180011466,41.25253800000064,40.25090180011466,41.25253800000064,40.25090180011466,41.25253800000064,down,1,0.5025197002105415,40.25090180011466,None,40.25090180011466,None,40.25090180011466,40.75184649997391,40.25090180011466,40.75184649997391,40.25090180011466,40.75184649997391,40.25090180011466,40.75184649997391,40.25090180011466,None,,,,,,,,,,,,,,,,,,,,,,,,,,,,,,,,,,,,,,,,,,11046,001,2024_Apr_15_1401,nback,2021.2.3,60.0326217094636,
0-back,instructions\back-0.png,conditions\0back-p.xlsx,instructions\0-BACK.png,"(15, 8)",practice,0,1,stim\yellow.png,stim\gray.png,stim\gray.png,stim\gray.png,up,0,0,0,0,0,0,0,0,0,10,10,10,,,,,,,,,,,,,,,,,,,,,,,,,,,41.75324260001071,42.754722099984065,41.75324260001071,42.754722099984065,41.75324260001071,42.754722099984065,41.75324260001071,42.754722099984065,up,1,0.3680365001782775,41.75324260001071,None,41.75324260001071,None,41.75324260001071,42.25391130009666,41.75324260001071,42.25391130009666,41.75324260001071,42.25391130009666,41.75324260001071,42.25391130009666,41.75324260001071,None,,,,,,,,,,,,,,,,,,,,,,,,,,,,,,,,,,,,,,,,,,11046,001,2024_Apr_15_1401,nback,2021.2.3,60.0326217094636,
0-back,instructions\back-0.png,conditions\0back-p.xlsx,instructions\0-BACK.png,"(15, 8)",practice,0,2,stim\gray.png,stim\yellow.png,stim\gray.png,stim\gray.png,left,0,0,0,0,0,0,0,0,0,11,11,11,,,,,,,,,,,,,,,,,,,,,,,,,,,43.2555399001576,44.257212799973786,43.2555399001576,44.257212799973786,43.2555399001576,44.257212799973786,43.2555399001576,44.257212799973786,left,1,0.32147919991984963,43.2555399001576,None,43.2555399001576,None,43.2555399001576,43.75659100012854,43.2555399001576,43.75659100012854,43.2555399001576,43.75659100012854,43.2555399001576,43.75659100012854,43.2555399001576,None,,,,,,,,,,,,,,,,,,,,,,,,,,,,,,,,,,,,,,,,,,11046,001,2024_Apr_15_1401,nback,2021.2.3,60.0326217094636,
0-back,instructions\back-0.png,conditions\0back-p.xlsx,instructions\0-BACK.png,"(15, 8)",practice,0,4,stim\gray.png,stim\gray.png,stim\gray.png,stim\yellow.png,down,0,0,0,0,0,0,0,0,0,12,12,12,,,,,,,,,,,,,,,,,,,,,,,,,,,44.7578151000198,45.759228200186044,44.7578151000198,45.759228200186044,44.7578151000198,45.759228200186044,44.7578151000198,45.759228200186044,down,1,0.29916619998402894,44.7578151000198,None,44.7578151000198,None,44.7578151000198,45.25902900006622,44.7578151000198,45.25902900006622,44.7578151000198,45.25902900006622,44.7578151000198,45.25902900006622,44.7578151000198,None,,,,,,,,,,,,,,,,,,,,,,,,,,,,,,,,,,,,,,,,,,11046,001,2024_Apr_15_1401,nback,2021.2.3,60.0326217094636,
0-back,instructions\back-0.png,conditions\0back-p.xlsx,instructions\0-BACK.png,"(15, 8)",practice,0,3,stim\gray.png,stim\gray.png,stim\yellow.png,stim\gray.png,right,0,0,0,0,0,0,0,0,0,13,13,13,,,,,,,,,,,,,,,,,,,,,,,,,,,46.26001329999417,47.26153600006364,46.26001329999417,47.26153600006364,46.26001329999417,47.26153600006364,46.26001329999417,47.26153600006364,right,1,0.33366900007240474,46.26001329999417,None,46.26001329999417,None,46.26001329999417,46.761262100189924,46.26001329999417,46.761262100189924,46.26001329999417,46.761262100189924,46.26001329999417,46.761262100189924,46.26001329999417,None,,,,,,,,,,,,,,,,,,,,,,,,,,,,,,,,,,,,,,,,,,11046,001,2024_Apr_15_1401,nback,2021.2.3,60.0326217094636,
0-back,instructions\back-0.png,conditions\0back-p.xlsx,instructions\0-BACK.png,"(15, 8)",practice,0,1,stim\yellow.png,stim\gray.png,stim\gray.png,stim\gray.png,up,0,0,0,0,0,0,0,0,0,14,14,14,,,,,,,,,,,,,,,,,,,,,,,,,,,47.74557200004347,48.74712119996548,47.74557200004347,48.74712119996548,47.74557200004347,48.74712119996548,47.74557200004347,48.74712119996548,up,1,0.3118665998335928,47.74557200004347,None,47.74557200004347,None,47.74557200004347,48.24695030017756,47.74557200004347,48.24695030017756,47.74557200004347,48.24695030017756,47.74557200004347,48.24695030017756,47.74557200004347,None,,,,,,,,,,,,,,,,,,,,,,,,,,,,,,,,,,,,,,,,,,11046,001,2024_Apr_15_1401,nback,2021.2.3,60.0326217094636,
0-back,instructions\back-0.png,conditions\0back-p.xlsx,instructions\0-BACK.png,"(15, 8)",practice,0,2,stim\gray.png,stim\yellow.png,stim\gray.png,stim\gray.png,left,0,0,0,0,0,0,0,0,0,15,15,15,,,,,,,,,,,,,,,,,,,,,,,,,,,49.2480948001612,50.24943840014748,49.2480948001612,50.24943840014748,49.2480948001612,50.24943840014748,49.2480948001612,50.24943840014748,left,1,0.3530727999750525,49.2480948001612,None,49.2480948001612,None,49.2480948001612,49.74878789996728,49.2480948001612,49.74878789996728,49.2480948001612,49.74878789996728,49.2480948001612,49.74878789996728,49.2480948001612,None,,,,,,,,,,,,,,,,,,,,,,,,,,,,,,,,,,,,,,,,,,11046,001,2024_Apr_15_1401,nback,2021.2.3,60.0326217094636,
0-back,instructions\back-0.png,conditions\0back-p.xlsx,instructions\0-BACK.png,"(15, 8)",practice,0,3,stim\gray.png,stim\gray.png,stim\yellow.png,stim\gray.png,right,0,0,0,0,0,0,0,0,0,16,16,16,,,,,,,,,,,,,,,,,,,,,,,,,,,50.750146200181916,51.75166500010528,50.750146200181916,51.75166500010528,50.750146200181916,51.75166500010528,50.750146200181916,51.75166500010528,right,1,0.47540140012279153,50.750146200181916,None,50.750146200181916,None,50.750146200181916,51.25128780002706,50.750146200181916,51.25128780002706,50.750146200181916,51.25128780002706,50.750146200181916,51.25128780002706,50.750146200181916,None,,,,,,,,,,,,,,,,,,,,,,,,,,,,,,,,,,,,,,,,,,11046,001,2024_Apr_15_1401,nback,2021.2.3,60.0326217094636,
0-back,instructions\back-0.png,conditions\0back-p.xlsx,instructions\0-BACK.png,"(15, 8)",practice,0,1,stim\yellow.png,stim\gray.png,stim\gray.png,stim\gray.png,up,0,0,0,0,0,0,0,0,0,17,17,17,,,,,,,,,,,,,,,,,,,,,,,,,,,52.252409500069916,53.25398220005445,52.252409500069916,53.25398220005445,52.252409500069916,53.25398220005445,52.252409500069916,53.25398220005445,up,1,0.4531610000412911,52.252409500069916,None,52.252409500069916,None,52.252409500069916,52.75322149996646,52.252409500069916,52.75322149996646,52.252409500069916,52.75322149996646,52.252409500069916,52.75322149996646,52.252409500069916,None,,,,,,,,,,,,,,,,,,,,,,,,,,,,,,,,,,,,,,,,,,11046,001,2024_Apr_15_1401,nback,2021.2.3,60.0326217094636,
0-back,instructions\back-0.png,conditions\0back-p.xlsx,instructions\0-BACK.png,"(15, 8)",practice,0,4,stim\gray.png,stim\gray.png,stim\gray.png,stim\yellow.png,down,0,0,0,0,0,0,0,0,0,18,18,18,,,,,,,,,,,,,,,,,,,,,,,,,,,53.7547236001119,54.756148600019515,53.7547236001119,54.756148600019515,53.7547236001119,54.756148600019515,53.7547236001119,54.756148600019515,down,1,0.4630001001060009,53.7547236001119,None,53.7547236001119,None,53.7547236001119,54.256119900150225,53.7547236001119,54.256119900150225,53.7547236001119,54.256119900150225,53.7547236001119,54.256119900150225,53.7547236001119,None,,,,,,,,,,,,,,,,,,,,,,,,,,,,,,,,,,,,,,,,,,11046,001,2024_Apr_15_1401,nback,2021.2.3,60.0326217094636,
0-back,instructions\back-0.png,conditions\0back-p.xlsx,instructions\0-BACK.png,"(15, 8)",practice,0,2,stim\gray.png,stim\yellow.png,stim\gray.png,stim\gray.png,left,0,0,0,0,0,0,0,0,0,19,19,19,,,,,,,,,,,,,,,,,,,,,,,,,,,55.256779100047424,56.25868710014038,55.256779100047424,56.25868710014038,55.256779100047424,56.25868710014038,55.256779100047424,56.25868710014038,left,1,0.3526484000030905,55.256779100047424,None,55.256779100047424,None,55.256779100047424,55.757749899988994,55.256779100047424,55.757749899988994,55.256779100047424,55.757749899988994,55.256779100047424,55.757749899988994,55.256779100047424,None,,,,,,,,,,,,,,,,,,,,,,,,,,,,,,,,,,,,,,,,,,11046,001,2024_Apr_15_1401,nback,2021.2.3,60.0326217094636,
0-back,instructions\back-0.png,conditions\0back-p.xlsx,instructions\0-BACK.png,"(15, 8)",,,,,,,,,0,0,0,0,0,0,0,0,,,,,,,,,,,,,,,,,,,,,,,,,,,,,,,,,,,,,,,,,,,,,,,,,,,,,,,,,,,,,,,,,,,,,,,,,,,,,,,,,,,,,,,,,,,,,,,,,11046,001,2024_Apr_15_1401,nback,2021.2.3,60.0326217094636,
1-back,instructions\back-1.png,conditions\1back-p.xlsx,instructions\1-BACK.png,"(25, 15)",practice,1,1,stim\yellow.png,stim\gray.png,stim\gray.png,stim\gray.png,None,0,0,0,0,0,1,1,1,0,0,0,0,,,,,,,,,,,,,,,,,56.942828400060534,None,space,2.898942300118506,56.942828400060534,None,59.964052400086075,64.47144760005176,64.45402289996855,None,64.8891335001681,65.89023550017737,64.8891335001681,65.89023550017737,64.8891335001681,65.89023550017737,64.8891335001681,65.89023550017737,up,0,0.44909740006551147,64.8891335001681,None,64.8891335001681,None,64.8891335001681,65.3892129000742,64.8891335001681,65.3892129000742,64.8891335001681,65.3892129000742,64.8891335001681,65.3892129000742,64.8891335001681,None,,,,,,,,,,,,,,,,,,,,,,,,,,,,,,,,,,,,,,,,,,11046,001,2024_Apr_15_1401,nback,2021.2.3,60.0326217094636,
1-back,instructions\back-1.png,conditions\1back-p.xlsx,instructions\1-BACK.png,"(25, 15)",practice,1,2,stim\gray.png,stim\yellow.png,stim\gray.png,stim\gray.png,up,0,0,0,0,0,1,1,1,0,1,1,1,,,,,,,,,,,,,,,,,,,,,,,,,,,66.37430989998393,67.37554830010049,66.37430989998393,67.37554830010049,66.37430989998393,67.37554830010049,66.37430989998393,67.37554830010049,up,1,0.5717069001402706,66.37430989998393,None,66.37430989998393,None,66.37430989998393,66.87493490008637,66.37430989998393,66.87493490008637,66.37430989998393,66.87493490008637,66.37430989998393,66.87493490008637,66.37430989998393,None,,,,,,,,,,,,,,,,,,,,,,,,,,,,,,,,,,,,,,,,,,11046,001,2024_Apr_15_1401,nback,2021.2.3,60.0326217094636,
1-back,instructions\back-1.png,conditions\1back-p.xlsx,instructions\1-BACK.png,"(25, 15)",practice,1,3,stim\gray.png,stim\gray.png,stim\yellow.png,stim\gray.png,left,0,0,0,0,0,1,1,1,0,2,2,2,,,,,,,,,,,,,,,,,,,,,,,,,,,67.87602750002407,68.8777803000994,67.87602750002407,68.8777803000994,67.87602750002407,68.8777803000994,67.87602750002407,68.8777803000994,left,1,0.31783710001036525,67.87602750002407,None,67.87602750002407,None,67.87602750002407,68.3767519001849,67.87602750002407,68.3767519001849,67.87602750002407,68.3767519001849,67.87602750002407,68.3767519001849,67.87602750002407,None,,,,,,,,,,,,,,,,,,,,,,,,,,,,,,,,,,,,,,,,,,11046,001,2024_Apr_15_1401,nback,2021.2.3,60.0326217094636,
1-back,instructions\back-1.png,conditions\1back-p.xlsx,instructions\1-BACK.png,"(25, 15)",practice,1,4,stim\gray.png,stim\gray.png,stim\gray.png,stim\yellow.png,right,0,0,0,0,0,1,1,1,0,3,3,3,,,,,,,,,,,,,,,,,,,,,,,,,,,69.37837549997494,70.37973250006326,69.37837549997494,70.37973250006326,69.37837549997494,70.37973250006326,69.37837549997494,70.37973250006326,right,1,0.41571729979477823,69.37837549997494,None,69.37837549997494,None,69.37837549997494,69.87910290015861,69.37837549997494,69.87910290015861,69.37837549997494,69.87910290015861,69.37837549997494,69.87910290015861,69.37837549997494,None,,,,,,,,,,,,,,,,,,,,,,,,,,,,,,,,,,,,,,,,,,11046,001,2024_Apr_15_1401,nback,2021.2.3,60.0326217094636,
1-back,instructions\back-1.png,conditions\1back-p.xlsx,instructions\1-BACK.png,"(25, 15)",practice,1,2,stim\gray.png,stim\yellow.png,stim\gray.png,stim\gray.png,down,0,0,0,0,0,1,1,1,0,4,4,4,,,,,,,,,,,,,,,,,,,,,,,,,,,70.88075710018165,71.88310910016298,70.88075710018165,71.88310910016298,70.88075710018165,71.88310910016298,70.88075710018165,71.88310910016298,down,1,0.513306399807334,70.88075710018165,None,70.88075710018165,None,70.88075710018165,71.38117050006986,70.88075710018165,71.38117050006986,70.88075710018165,71.38117050006986,70.88075710018165,71.38117050006986,70.88075710018165,None,,,,,,,,,,,,,,,,,,,,,,,,,,,,,,,,,,,,,,,,,,11046,001,2024_Apr_15_1401,nback,2021.2.3,60.0326217094636,
1-back,instructions\back-1.png,conditions\1back-p.xlsx,instructions\1-BACK.png,"(25, 15)",practice,1,1,stim\yellow.png,stim\gray.png,stim\gray.png,stim\gray.png,left,0,0,0,0,0,1,1,1,0,5,5,5,,,,,,,,,,,,,,,,,,,,,,,,,,,72.38322010007687,73.38468650006689,72.38322010007687,73.38468650006689,72.38322010007687,73.38468650006689,72.38322010007687,73.38468650006689,left,1,0.2908860999159515,72.38322010007687,None,72.38322010007687,None,72.38322010007687,72.883935400052,72.38322010007687,72.883935400052,72.38322010007687,72.883935400052,72.38322010007687,72.883935400052,72.38322010007687,None,,,,,,,,,,,,,,,,,,,,,,,,,,,,,,,,,,,,,,,,,,11046,001,2024_Apr_15_1401,nback,2021.2.3,60.0326217094636,
1-back,instructions\back-1.png,conditions\1back-p.xlsx,instructions\1-BACK.png,"(25, 15)",practice,1,4,stim\gray.png,stim\gray.png,stim\gray.png,stim\yellow.png,up,0,0,0,0,0,1,1,1,0,6,6,6,,,,,,,,,,,,,,,,,,,,,,,,,,,73.8683478999883,74.87089600018226,73.8683478999883,74.87089600018226,73.8683478999883,74.87089600018226,73.8683478999883,74.87089600018226,up,1,0.22213140013627708,73.8683478999883,None,73.8683478999883,None,73.8683478999883,74.36935780011117,73.8683478999883,74.36935780011117,73.8683478999883,74.36935780011117,73.8683478999883,74.36935780011117,73.8683478999883,None,,,,,,,,,,,,,,,,,,,,,,,,,,,,,,,,,,,,,,,,,,11046,001,2024_Apr_15_1401,nback,2021.2.3,60.0326217094636,
1-back,instructions\back-1.png,conditions\1back-p.xlsx,instructions\1-BACK.png,"(25, 15)",practice,1,3,stim\gray.png,stim\gray.png,stim\yellow.png,stim\gray.png,down,0,0,0,0,0,1,1,1,0,7,7,7,,,,,,,,,,,,,,,,,,,,,,,,,,,75.37122490000911,76.372505400097,75.37122490000911,76.372505400097,75.37122490000911,76.372505400097,75.37122490000911,76.372505400097,down,1,0.25530499988235533,75.37122490000911,None,75.37122490000911,None,75.37122490000911,75.87144090002403,75.37122490000911,75.87144090002403,75.37122490000911,75.87144090002403,75.37122490000911,75.87144090002403,75.37122490000911,None,,,,,,,,,,,,,,,,,,,,,,,,,,,,,,,,,,,,,,,,,,11046,001,2024_Apr_15_1401,nback,2021.2.3,60.0326217094636,
1-back,instructions\back-1.png,conditions\1back-p.xlsx,instructions\1-BACK.png,"(25, 15)",practice,1,3,stim\gray.png,stim\gray.png,stim\yellow.png,stim\gray.png,right,0,0,0,0,0,1,1,1,0,8,8,8,,,,,,,,,,,,,,,,,,,,,,,,,,,76.87274530017748,77.87442800006829,76.87274530017748,77.87442800006829,76.87274530017748,77.87442800006829,76.87274530017748,77.87442800006829,right,1,1.4413715000264347,76.87274530017748,None,76.87274530017748,None,76.87274530017748,77.37370270001702,76.87274530017748,77.37370270001702,76.87274530017748,77.37370270001702,76.87274530017748,77.37370270001702,76.87274530017748,None,,,,,,,,,,,,,,,,,,,,,,,,,,,,,,,,,,,,,,,,,,11046,001,2024_Apr_15_1401,nback,2021.2.3,60.0326217094636,
1-back,instructions\back-1.png,conditions\1back-p.xlsx,instructions\1-BACK.png,"(25, 15)",practice,1,4,stim\gray.png,stim\gray.png,stim\gray.png,stim\yellow.png,right,0,0,0,0,0,1,1,1,0,9,9,9,,,,,,,,,,,,,,,,,,,,,,,,,,,78.3750241000671,79.37753970013,78.3750241000671,79.37753970013,78.3750241000671,79.37753970013,78.3750241000671,79.37753970013,down,0,1.2113691999111325,78.3750241000671,None,78.3750241000671,None,78.3750241000671,78.87589690019377,78.3750241000671,78.87589690019377,78.3750241000671,78.87589690019377,78.3750241000671,78.87589690019377,78.3750241000671,None,,,,,,,,,,,,,,,,,,,,,,,,,,,,,,,,,,,,,,,,,,11046,001,2024_Apr_15_1401,nback,2021.2.3,60.0326217094636,
1-back,instructions\back-1.png,conditions\1back-p.xlsx,instructions\1-BACK.png,"(25, 15)",practice,1,1,stim\yellow.png,stim\gray.png,stim\gray.png,stim\gray.png,down,0,0,0,0,0,1,1,1,0,10,10,10,,,,,,,,,,,,,,,,,,,,,,,,,,,79.87740790005773,80.87898160004988,79.87740790005773,80.87898160004988,79.87740790005773,80.87898160004988,79.87740790005773,80.87898160004988,up,0,0.9970958000048995,79.87740790005773,None,79.87740790005773,None,79.87740790005773,80.3784491000697,79.87740790005773,80.3784491000697,79.87740790005773,80.3784491000697,79.87740790005773,80.3784491000697,79.87740790005773,None,,,,,,,,,,,,,,,,,,,,,,,,,,,,,,,,,,,,,,,,,,11046,001,2024_Apr_15_1401,nback,2021.2.3,60.0326217094636,
1-back,instructions\back-1.png,conditions\1back-p.xlsx,instructions\1-BACK.png,"(25, 15)",practice,1,2,stim\gray.png,stim\yellow.png,stim\gray.png,stim\gray.png,up,0,0,0,0,0,1,1,1,0,11,11,11,,,,,,,,,,,,,,,,,,,,,,,,,,,81.3797169001773,82.38104100013152,81.3797169001773,82.38104100013152,81.3797169001773,82.38104100013152,81.3797169001773,82.38104100013152,left,0,0.9355015999171883,81.3797169001773,None,81.3797169001773,None,81.3797169001773,81.88044980005361,81.3797169001773,81.88044980005361,81.3797169001773,81.88044980005361,81.3797169001773,81.88044980005361,81.3797169001773,None,,,,,,,,,,,,,,,,,,,,,,,,,,,,,,,,,,,,,,,,,,11046,001,2024_Apr_15_1401,nback,2021.2.3,60.0326217094636,
1-back,instructions\back-1.png,conditions\1back-p.xlsx,instructions\1-BACK.png,"(25, 15)",practice,1,4,stim\gray.png,stim\gray.png,stim\gray.png,stim\yellow.png,left,0,0,0,0,0,1,1,1,0,12,12,12,,,,,,,,,,,,,,,,,,,,,,,,,,,82.88206760003231,83.88374680001289,82.88206760003231,83.88374680001289,82.88206760003231,83.88374680001289,82.88206760003231,83.88374680001289,None,0,,82.88206760003231,None,82.88206760003231,None,82.88206760003231,83.38300770008937,82.88206760003231,83.38300770008937,82.88206760003231,83.38300770008937,82.88206760003231,83.38300770008937,82.88206760003231,None,,,,,,,,,,,,,,,,,,,,,,,,,,,,,,,,,,,,,,,,,,11046,001,2024_Apr_15_1401,nback,2021.2.3,60.0326217094636,
1-back,instructions\back-1.png,conditions\1back-p.xlsx,instructions\1-BACK.png,"(25, 15)",practice,1,3,stim\gray.png,stim\gray.png,stim\yellow.png,stim\gray.png,down,0,0,0,0,0,1,1,1,0,13,13,13,,,,,,,,,,,,,,,,,,,,,,,,,,,84.38438630010933,85.38570030010305,84.38438630010933,85.38570030010305,84.38438630010933,85.38570030010305,84.38438630010933,85.38570030010305,down,1,1.2258581998758018,84.38438630010933,None,84.38438630010933,None,84.38438630010933,84.88514540018514,84.38438630010933,84.88514540018514,84.38438630010933,84.88514540018514,84.38438630010933,84.88514540018514,84.38438630010933,None,,,,,,,,,,,,,,,,,,,,,,,,,,,,,,,,,,,,,,,,,,11046,001,2024_Apr_15_1401,nback,2021.2.3,60.0326217094636,
1-back,instructions\back-1.png,conditions\1back-p.xlsx,instructions\1-BACK.png,"(25, 15)",practice,1,1,stim\yellow.png,stim\gray.png,stim\gray.png,stim\gray.png,right,0,0,0,0,0,1,1,1,0,14,14,14,,,,,,,,,,,,,,,,,,,,,,,,,,,85.86974560003728,86.87124140001833,85.86974560003728,86.87124140001833,85.86974560003728,86.87124140001833,85.86974560003728,86.87124140001833,right,1,1.2450453999917954,85.86974560003728,None,85.86974560003728,None,85.86974560003728,86.37059010006487,85.86974560003728,86.37059010006487,85.86974560003728,86.37059010006487,85.86974560003728,86.37059010006487,85.86974560003728,None,,,,,,,,,,,,,,,,,,,,,,,,,,,,,,,,,,,,,,,,,,11046,001,2024_Apr_15_1401,nback,2021.2.3,60.0326217094636,
1-back,instructions\back-1.png,conditions\1back-p.xlsx,instructions\1-BACK.png,"(25, 15)",practice,1,2,stim\gray.png,stim\yellow.png,stim\gray.png,stim\gray.png,up,0,0,0,0,0,1,1,1,0,15,15,15,,,,,,,,,,,,,,,,,,,,,,,,,,,87.37207640009001,88.37353890016675,87.37207640009001,88.37353890016675,87.37207640009001,88.37353890016675,87.37207640009001,88.37353890016675,up,1,1.1502771999221295,87.37207640009001,None,87.37207640009001,None,87.37207640009001,87.87279060017318,87.37207640009001,87.87279060017318,87.37207640009001,87.87279060017318,87.37207640009001,87.87279060017318,87.37207640009001,None,,,,,,,,,,,,,,,,,,,,,,,,,,,,,,,,,,,,,,,,,,11046,001,2024_Apr_15_1401,nback,2021.2.3,60.0326217094636,
1-back,instructions\back-1.png,conditions\1back-p.xlsx,instructions\1-BACK.png,"(25, 15)",practice,1,3,stim\gray.png,stim\gray.png,stim\yellow.png,stim\gray.png,left,0,0,0,0,0,1,1,1,0,16,16,16,,,,,,,,,,,,,,,,,,,,,,,,,,,88.87451710016467,89.8759304000996,88.87451710016467,89.8759304000996,88.87451710016467,89.8759304000996,88.87451710016467,89.8759304000996,left,1,0.9681023000739515,88.87451710016467,None,88.87451710016467,None,88.87451710016467,89.37505510007031,88.87451710016467,89.37505510007031,88.87451710016467,89.37505510007031,88.87451710016467,89.37505510007031,88.87451710016467,None,,,,,,,,,,,,,,,,,,,,,,,,,,,,,,,,,,,,,,,,,,11046,001,2024_Apr_15_1401,nback,2021.2.3,60.0326217094636,
1-back,instructions\back-1.png,conditions\1back-p.xlsx,instructions\1-BACK.png,"(25, 15)",practice,1,1,stim\yellow.png,stim\gray.png,stim\gray.png,stim\gray.png,right,0,0,0,0,0,1,1,1,0,17,17,17,,,,,,,,,,,,,,,,,,,,,,,,,,,90.37676130002365,91.37807480012998,90.37676130002365,91.37807480012998,90.37676130002365,91.37807480012998,90.37676130002365,91.37807480012998,right,1,1.0501445999834687,90.37676130002365,None,90.37676130002365,None,90.37676130002365,90.87727910000831,90.37676130002365,90.87727910000831,90.37676130002365,90.87727910000831,90.37676130002365,90.87727910000831,90.37676130002365,None,,,,,,,,,,,,,,,,,,,,,,,,,,,,,,,,,,,,,,,,,,11046,001,2024_Apr_15_1401,nback,2021.2.3,60.0326217094636,
1-back,instructions\back-1.png,conditions\1back-p.xlsx,instructions\1-BACK.png,"(25, 15)",practice,1,4,stim\gray.png,stim\gray.png,stim\gray.png,stim\yellow.png,up,0,0,0,0,0,1,1,1,0,18,18,18,,,,,,,,,,,,,,,,,,,,,,,,,,,91.87897459999658,92.88022839999758,91.87897459999658,92.88022839999758,91.87897459999658,92.88022839999758,91.87897459999658,92.88022839999758,up,1,0.8919371000956744,91.87897459999658,None,91.87897459999658,None,91.87897459999658,92.3796098001767,91.87897459999658,92.3796098001767,91.87897459999658,92.3796098001767,91.87897459999658,92.3796098001767,91.87897459999658,None,,,,,,,,,,,,,,,,,,,,,,,,,,,,,,,,,,,,,,,,,,11046,001,2024_Apr_15_1401,nback,2021.2.3,60.0326217094636,
1-back,instructions\back-1.png,conditions\1back-p.xlsx,instructions\1-BACK.png,"(25, 15)",practice,1,2,stim\gray.png,stim\yellow.png,stim\gray.png,stim\gray.png,down,0,0,0,0,0,1,1,1,0,19,19,19,,,,,,,,,,,,,,,,,,,,,,,,,,,93.38130220002495,94.38301390013658,93.38130220002495,94.38301390013658,93.38130220002495,94.38301390013658,93.38130220002495,94.38301390013658,down,1,0.5893673999235034,93.38130220002495,None,93.38130220002495,None,93.38130220002495,93.88204420008697,93.38130220002495,93.88204420008697,93.38130220002495,93.88204420008697,93.38130220002495,93.88204420008697,93.38130220002495,None,,,,,,,,,,,,,,,,,,,,,,,,,,,,,,,,,,,,,,,,,,11046,001,2024_Apr_15_1401,nback,2021.2.3,60.0326217094636,
1-back,instructions\back-1.png,conditions\1back-p.xlsx,instructions\1-BACK.png,"(25, 15)",,,,,,,,,0,0,0,0,0,1,1,1,,,,,,,,,,,,,,,,,,,,,,,,,,,,,,,,,,,,,,,,,,,,,,,,,,,,,,,,,,,,,,,,,,,,,,,,,,,,,,,,,,,,,,,,,,,,,,,,,11046,001,2024_Apr_15_1401,nback,2021.2.3,60.0326217094636,
2-back,instructions\back-2.png,conditions\2back-p.xlsx,instructions\2-BACK.png,"(25, 15)",practice,2,1,stim\yellow.png,stim\gray.png,stim\gray.png,stim\gray.png,None,0,0,0,0,0,2,2,2,0,0,0,0,,,,,,,,,,,,,,,,,95.03344590007327,None,space,28.08201689994894,95.03344590007327,None,123.32617160002701,127.83374779997393,127.76638140017167,None,128.16802119999193,129.16857170010917,128.16802119999193,129.16857170010917,128.16802119999193,129.16857170010917,128.16802119999193,129.16857170010917,None,1,,128.16802119999193,None,128.16802119999193,None,128.16802119999193,128.6679049001541,128.16802119999193,128.6679049001541,128.16802119999193,128.6679049001541,128.16802119999193,128.6679049001541,128.16802119999193,None,,,,,,,,,,,,,,,,,,,,,,,,,,,,,,,,,,,,,,,,,,11046,001,2024_Apr_15_1401,nback,2021.2.3,60.0326217094636,
2-back,instructions\back-2.png,conditions\2back-p.xlsx,instructions\2-BACK.png,"(25, 15)",practice,2,2,stim\gray.png,stim\yellow.png,stim\gray.png,stim\gray.png,None,0,0,0,0,0,2,2,2,0,1,1,1,,,,,,,,,,,,,,,,,,,,,,,,,,,129.6530036001932,130.65428970009089,129.6530036001932,130.65428970009089,129.6530036001932,130.65428970009089,129.6530036001932,130.65428970009089,None,1,,129.6530036001932,None,129.6530036001932,None,129.6530036001932,130.15369990002364,129.6530036001932,130.15369990002364,129.6530036001932,130.15369990002364,129.6530036001932,130.15369990002364,129.6530036001932,None,,,,,,,,,,,,,,,,,,,,,,,,,,,,,,,,,,,,,,,,,,11046,001,2024_Apr_15_1401,nback,2021.2.3,60.0326217094636,
2-back,instructions\back-2.png,conditions\2back-p.xlsx,instructions\2-BACK.png,"(25, 15)",practice,2,3,stim\gray.png,stim\gray.png,stim\yellow.png,stim\gray.png,up,0,0,0,0,0,2,2,2,0,2,2,2,,,,,,,,,,,,,,,,,,,,,,,,,,,131.15495490003377,132.1565346000716,131.15495490003377,132.1565346000716,131.15495490003377,132.1565346000716,131.15495490003377,132.1565346000716,up,1,0.5206382998730987,131.15495490003377,None,131.15495490003377,None,131.15495490003377,131.65562740014866,131.15495490003377,131.65562740014866,131.15495490003377,131.65562740014866,131.15495490003377,131.65562740014866,131.15495490003377,None,,,,,,,,,,,,,,,,,,,,,,,,,,,,,,,,,,,,,,,,,,11046,001,2024_Apr_15_1401,nback,2021.2.3,60.0326217094636,
2-back,instructions\back-2.png,conditions\2back-p.xlsx,instructions\2-BACK.png,"(25, 15)",practice,2,4,stim\gray.png,stim\gray.png,stim\gray.png,stim\yellow.png,left,0,0,0,0,0,2,2,2,0,3,3,3,,,,,,,,,,,,,,,,,,,,,,,,,,,132.65709430002607,133.65888090012595,132.65709430002607,133.65888090012595,132.65709430002607,133.65888090012595,132.65709430002607,133.65888090012595,left,1,0.37888039997778833,132.65709430002607,None,132.65709430002607,None,132.65709430002607,133.15802870015614,132.65709430002607,133.15802870015614,132.65709430002607,133.15802870015614,132.65709430002607,133.15802870015614,132.65709430002607,None,,,,,,,,,,,,,,,,,,,,,,,,,,,,,,,,,,,,,,,,,,11046,001,2024_Apr_15_1401,nback,2021.2.3,60.0326217094636,
2-back,instructions\back-2.png,conditions\2back-p.xlsx,instructions\2-BACK.png,"(25, 15)",practice,2,2,stim\gray.png,stim\yellow.png,stim\gray.png,stim\gray.png,right,0,0,0,0,0,2,2,2,0,4,4,4,,,,,,,,,,,,,,,,,,,,,,,,,,,134.15944029996172,135.16094600013457,134.15944029996172,135.16094600013457,134.15944029996172,135.16094600013457,134.15944029996172,135.16094600013457,right,1,0.4526398000307381,134.15944029996172,None,134.15944029996172,None,134.15944029996172,134.66182949999347,134.15944029996172,134.66182949999347,134.15944029996172,134.66182949999347,134.15944029996172,134.66182949999347,134.15944029996172,None,,,,,,,,,,,,,,,,,,,,,,,,,,,,,,,,,,,,,,,,,,11046,001,2024_Apr_15_1401,nback,2021.2.3,60.0326217094636,
2-back,instructions\back-2.png,conditions\2back-p.xlsx,instructions\2-BACK.png,"(25, 15)",practice,2,1,stim\yellow.png,stim\gray.png,stim\gray.png,stim\gray.png,down,0,0,0,0,0,2,2,2,0,5,5,5,,,,,,,,,,,,,,,,,,,,,,,,,,,135.6619078000076,136.66325740003958,135.6619078000076,136.66325740003958,135.6619078000076,136.66325740003958,135.6619078000076,136.66325740003958,down,1,0.2627360001206398,135.6619078000076,None,135.6619078000076,None,135.6619078000076,136.16227800003253,135.6619078000076,136.16227800003253,135.6619078000076,136.16227800003253,135.6619078000076,136.16227800003253,135.6619078000076,None,,,,,,,,,,,,,,,,,,,,,,,,,,,,,,,,,,,,,,,,,,11046,001,2024_Apr_15_1401,nback,2021.2.3,60.0326217094636,
2-back,instructions\back-2.png,conditions\2back-p.xlsx,instructions\2-BACK.png,"(25, 15)",practice,2,4,stim\gray.png,stim\gray.png,stim\gray.png,stim\yellow.png,left,0,0,0,0,0,2,2,2,0,6,6,6,,,,,,,,,,,,,,,,,,,,,,,,,,,137.14731270004995,138.1491638000589,137.14731270004995,138.1491638000589,137.14731270004995,138.1491638000589,137.14731270004995,138.1491638000589,left,1,0.2810068998951465,137.14731270004995,None,137.14731270004995,None,137.14731270004995,137.64792310004123,137.14731270004995,137.64792310004123,137.14731270004995,137.64792310004123,137.14731270004995,137.64792310004123,137.14731270004995,None,,,,,,,,,,,,,,,,,,,,,,,,,,,,,,,,,,,,,,,,,,11046,001,2024_Apr_15_1401,nback,2021.2.3,60.0326217094636,
2-back,instructions\back-2.png,conditions\2back-p.xlsx,instructions\2-BACK.png,"(25, 15)",practice,2,3,stim\gray.png,stim\gray.png,stim\yellow.png,stim\gray.png,up,0,0,0,0,0,2,2,2,0,7,7,7,,,,,,,,,,,,,,,,,,,,,,,,,,,138.64959509996697,139.65215710015036,138.64959509996697,139.65215710015036,138.64959509996697,139.65215710015036,138.64959509996697,139.65215710015036,up,1,0.5302349999547005,138.64959509996697,None,138.64959509996697,None,138.64959509996697,139.1502561001107,138.64959509996697,139.1502561001107,138.64959509996697,139.1502561001107,138.64959509996697,139.1502561001107,138.64959509996697,None,,,,,,,,,,,,,,,,,,,,,,,,,,,,,,,,,,,,,,,,,,11046,001,2024_Apr_15_1401,nback,2021.2.3,60.0326217094636,
2-back,instructions\back-2.png,conditions\2back-p.xlsx,instructions\2-BACK.png,"(25, 15)",practice,2,3,stim\gray.png,stim\gray.png,stim\yellow.png,stim\gray.png,down,0,0,0,0,0,2,2,2,0,8,8,8,,,,,,,,,,,,,,,,,,,,,,,,,,,140.15185270016082,141.15341330016963,140.15185270016082,141.15341330016963,140.15185270016082,141.15341330016963,140.15185270016082,141.15341330016963,left,0,1.1482431998010725,140.15185270016082,None,140.15185270016082,None,140.15185270016082,140.65258290013298,140.15185270016082,140.65258290013298,140.15185270016082,140.65258290013298,140.15185270016082,140.65258290013298,140.15185270016082,None,,,,,,,,,,,,,,,,,,,,,,,,,,,,,,,,,,,,,,,,,,11046,001,2024_Apr_15_1401,nback,2021.2.3,60.0326217094636,
2-back,instructions\back-2.png,conditions\2back-p.xlsx,instructions\2-BACK.png,"(25, 15)",practice,2,4,stim\gray.png,stim\gray.png,stim\gray.png,stim\yellow.png,right,0,0,0,0,0,2,2,2,0,9,9,9,,,,,,,,,,,,,,,,,,,,,,,,,,,141.65468200016767,142.6561057001818,141.65468200016767,142.6561057001818,141.65468200016767,142.6561057001818,141.65468200016767,142.6561057001818,right,1,1.461646200157702,141.65468200016767,None,141.65468200016767,None,141.65468200016767,142.1550273001194,141.65468200016767,142.1550273001194,141.65468200016767,142.1550273001194,141.65468200016767,142.1550273001194,141.65468200016767,None,,,,,,,,,,,,,,,,,,,,,,,,,,,,,,,,,,,,,,,,,,11046,001,2024_Apr_15_1401,nback,2021.2.3,60.0326217094636,
2-back,instructions\back-2.png,conditions\2back-p.xlsx,instructions\2-BACK.png,"(25, 15)",practice,2,1,stim\yellow.png,stim\gray.png,stim\gray.png,stim\gray.png,right,0,0,0,0,0,2,2,2,0,10,10,10,,,,,,,,,,,,,,,,,,,,,,,,,,,143.15619190013967,144.15800950000994,143.15619190013967,144.15800950000994,143.15619190013967,144.15800950000994,143.15619190013967,144.15800950000994,None,0,,143.15619190013967,None,143.15619190013967,None,143.15619190013967,143.65756210009567,143.15619190013967,143.65756210009567,143.15619190013967,143.65756210009567,143.15619190013967,143.65756210009567,143.15619190013967,None,,,,,,,,,,,,,,,,,,,,,,,,,,,,,,,,,,,,,,,,,,11046,001,2024_Apr_15_1401,nback,2021.2.3,60.0326217094636,
2-back,instructions\back-2.png,conditions\2back-p.xlsx,instructions\2-BACK.png,"(25, 15)",practice,2,2,stim\gray.png,stim\yellow.png,stim\gray.png,stim\gray.png,down,0,0,0,0,0,2,2,2,0,11,11,11,,,,,,,,,,,,,,,,,,,,,,,,,,,144.65859300014563,145.66019860003144,144.65859300014563,145.66019860003144,144.65859300014563,145.66019860003144,144.65859300014563,145.66019860003144,right,0,0.08218939998187125,144.65859300014563,None,144.65859300014563,None,144.65859300014563,145.1597524001263,144.65859300014563,145.1597524001263,144.65859300014563,145.1597524001263,144.65859300014563,145.1597524001263,144.65859300014563,None,,,,,,,,,,,,,,,,,,,,,,,,,,,,,,,,,,,,,,,,,,11046,001,2024_Apr_15_1401,nback,2021.2.3,60.0326217094636,
2-back,instructions\back-2.png,conditions\2back-p.xlsx,instructions\2-BACK.png,"(25, 15)",practice,2,4,stim\gray.png,stim\gray.png,stim\gray.png,stim\yellow.png,up,0,0,0,0,0,2,2,2,0,12,12,12,,,,,,,,,,,,,,,,,,,,,,,,,,,146.16173740010709,147.16222850000486,146.16173740010709,147.16222850000486,146.16173740010709,147.16222850000486,146.16173740010709,147.16222850000486,up,1,0.08258399995975196,146.16173740010709,None,146.16173740010709,None,146.16173740010709,146.66200220002793,146.16173740010709,146.66200220002793,146.16173740010709,146.66200220002793,146.16173740010709,146.66200220002793,146.16173740010709,None,,,,,,,,,,,,,,,,,,,,,,,,,,,,,,,,,,,,,,,,,,11046,001,2024_Apr_15_1401,nback,2021.2.3,60.0326217094636,
2-back,instructions\back-2.png,conditions\2back-p.xlsx,instructions\2-BACK.png,"(25, 15)",practice,2,3,stim\gray.png,stim\gray.png,stim\yellow.png,stim\gray.png,left,0,0,0,0,0,2,2,2,0,13,13,13,,,,,,,,,,,,,,,,,,,,,,,,,,,147.6631689001806,148.66462980001234,147.6631689001806,148.66462980001234,147.6631689001806,148.66462980001234,147.6631689001806,148.66462980001234,None,0,,147.6631689001806,None,147.6631689001806,None,147.6631689001806,148.1639700999949,147.6631689001806,148.1639700999949,147.6631689001806,148.1639700999949,147.6631689001806,148.1639700999949,147.6631689001806,None,,,,,,,,,,,,,,,,,,,,,,,,,,,,,,,,,,,,,,,,,,11046,001,2024_Apr_15_1401,nback,2021.2.3,60.0326217094636,
2-back,instructions\back-2.png,conditions\2back-p.xlsx,instructions\2-BACK.png,"(25, 15)",practice,2,1,stim\yellow.png,stim\gray.png,stim\gray.png,stim\gray.png,down,0,0,0,0,0,2,2,2,0,14,14,14,,,,,,,,,,,,,,,,,,,,,,,,,,,149.1487744001206,150.15040280018002,149.1487744001206,150.15040280018002,149.1487744001206,150.15040280018002,149.1487744001206,150.15040280018002,down,1,0.18366830004379153,149.1487744001206,None,149.1487744001206,None,149.1487744001206,149.64951799996197,149.1487744001206,149.64951799996197,149.1487744001206,149.64951799996197,149.1487744001206,149.64951799996197,149.1487744001206,None,,,,,,,,,,,,,,,,,,,,,,,,,,,,,,,,,,,,,,,,,,11046,001,2024_Apr_15_1401,nback,2021.2.3,60.0326217094636,
2-back,instructions\back-2.png,conditions\2back-p.xlsx,instructions\2-BACK.png,"(25, 15)",practice,2,2,stim\gray.png,stim\yellow.png,stim\gray.png,stim\gray.png,right,0,0,0,0,0,2,2,2,0,15,15,15,,,,,,,,,,,,,,,,,,,,,,,,,,,150.65095010004006,151.65344250015914,150.65095010004006,151.65344250015914,150.65095010004006,151.65344250015914,150.65095010004006,151.65344250015914,up,0,0.37769800005480647,150.65095010004006,None,150.65095010004006,None,150.65095010004006,151.15215250011533,150.65095010004006,151.15215250011533,150.65095010004006,151.15215250011533,150.65095010004006,151.15215250011533,150.65095010004006,None,,,,,,,,,,,,,,,,,,,,,,,,,,,,,,,,,,,,,,,,,,11046,001,2024_Apr_15_1401,nback,2021.2.3,60.0326217094636,
2-back,instructions\back-2.png,conditions\2back-p.xlsx,instructions\2-BACK.png,"(25, 15)",practice,2,3,stim\gray.png,stim\gray.png,stim\yellow.png,stim\gray.png,up,0,0,0,0,0,2,2,2,0,16,16,16,,,,,,,,,,,,,,,,,,,,,,,,,,,152.1531994000543,153.15504169999622,152.1531994000543,153.15504169999622,152.1531994000543,153.15504169999622,152.1531994000543,153.15504169999622,up,1,0.7869451998267323,152.1531994000543,None,152.1531994000543,None,152.1531994000543,152.65413350006565,152.1531994000543,152.65413350006565,152.1531994000543,152.65413350006565,152.1531994000543,152.65413350006565,152.1531994000543,None,,,,,,,,,,,,,,,,,,,,,,,,,,,,,,,,,,,,,,,,,,11046,001,2024_Apr_15_1401,nback,2021.2.3,60.0326217094636,
2-back,instructions\back-2.png,conditions\2back-p.xlsx,instructions\2-BACK.png,"(25, 15)",practice,2,1,stim\yellow.png,stim\gray.png,stim\gray.png,stim\gray.png,left,0,0,0,0,0,2,2,2,0,17,17,17,,,,,,,,,,,,,,,,,,,,,,,,,,,153.65547240013257,154.6569918000605,153.65547240013257,154.6569918000605,153.65547240013257,154.6569918000605,153.65547240013257,154.6569918000605,left,1,0.7809127999935299,153.65547240013257,None,153.65547240013257,None,153.65547240013257,154.15627530007623,153.65547240013257,154.15627530007623,153.65547240013257,154.15627530007623,153.65547240013257,154.15627530007623,153.65547240013257,None,,,,,,,,,,,,,,,,,,,,,,,,,,,,,,,,,,,,,,,,,,11046,001,2024_Apr_15_1401,nback,2021.2.3,60.0326217094636,
2-back,instructions\back-2.png,conditions\2back-p.xlsx,instructions\2-BACK.png,"(25, 15)",practice,2,4,stim\gray.png,stim\gray.png,stim\gray.png,stim\yellow.png,right,0,0,0,0,0,2,2,2,0,18,18,18,,,,,,,,,,,,,,,,,,,,,,,,,,,155.15788529999554,156.1594414000865,155.15788529999554,156.1594414000865,155.15788529999554,156.1594414000865,155.15788529999554,156.1594414000865,right,1,0.7106775001157075,155.15788529999554,None,155.15788529999554,None,155.15788529999554,155.65859270002693,155.15788529999554,155.65859270002693,155.15788529999554,155.65859270002693,155.15788529999554,155.65859270002693,155.15788529999554,None,,,,,,,,,,,,,,,,,,,,,,,,,,,,,,,,,,,,,,,,,,11046,001,2024_Apr_15_1401,nback,2021.2.3,60.0326217094636,
2-back,instructions\back-2.png,conditions\2back-p.xlsx,instructions\2-BACK.png,"(25, 15)",practice,2,2,stim\gray.png,stim\yellow.png,stim\gray.png,stim\gray.png,up,0,0,0,0,0,2,2,2,0,19,19,19,,,,,,,,,,,,,,,,,,,,,,,,,,,156.6600189001765,157.6616283999756,156.6600189001765,157.6616283999756,156.6600189001765,157.6616283999756,156.6600189001765,157.6616283999756,up,1,0.5286416998133063,156.6600189001765,None,156.6600189001765,None,156.6600189001765,157.160805700114,156.6600189001765,157.160805700114,156.6600189001765,157.160805700114,156.6600189001765,157.160805700114,156.6600189001765,None,,,,,,,,,,,,,,,,,,,,,,,,,,,,,,,,,,,,,,,,,,11046,001,2024_Apr_15_1401,nback,2021.2.3,60.0326217094636,
2-back,instructions\back-2.png,conditions\2back-p.xlsx,instructions\2-BACK.png,"(25, 15)",,,,,,,,,0,0,0,0,0,2,2,2,,,,,,,,,,,,,,,,,,,,,,,,,,,,,,,,,,,,,,,,,,,,,,,,,,,,,,,,,,,,,,,,,,,,,,,,,,,,,,,,,,,,,,,,,,,,,,,,,11046,001,2024_Apr_15_1401,nback,2021.2.3,60.0326217094636,
,,,,,,,,,,,,,0,0,0,0,,,,,,,,,,,,,,,,,,,,,,,,,,,,,,,,,,,,,,,,,,,,,,,,,,,,,,,,,,,,158.16353330016136,None,space,10.20940799987875,158.16353330016136,None,,,,,,,,,,,,,,,,,,,,,,,,,,,,,,,,,,,,11046,001,2024_Apr_15_1401,nback,2021.2.3,60.0326217094636,
,,,,,,,,,,,,,,,,,,,,,,,,,,,,,,,,,,,,,,,,,,,,,,,,,,,,,,,,,,,,,,,,,,,,,,,,,,,,,,,,,,168.39446440013126,None,space,7.1628777999430895,168.39446440013126,None,,,,,,,,,,,,,,,,,,,,,,,,,,,,,,11046,001,2024_Apr_15_1401,nback,2021.2.3,60.0326217094636,
0-back,instructions\back-0.png,conditions\01back-e.xlsx,,,experiment,0,2,stim\gray.png,stim\yellow.png,stim\gray.png,stim\gray.png,left,,,,,,,,,,,,,0,0,0,4,0,0,0,0,,,,,,,,,,,,,,,175.7881619001273,180.29661489999853,180.2288789001759,None,,,,,,,,,,,,,,,,,,,,,,,,,,,,,,,,,,,,,,left,1,0.5294488000217825,180.5960532000754,None,180.5960532000754,None,180.5960532000754,181.59804650000297,180.5960532000754,181.59804650000297,180.5960532000754,181.59804650000297,180.5960532000754,181.59804650000297,180.5960532000754,181.0969114000909,180.5960532000754,181.0969114000909,180.5960532000754,181.0969114000909,180.5960532000754,181.0969114000909,180.5960532000754,None,,,,,11046,001,2024_Apr_15_1401,nback,2021.2.3,60.0326217094636,
0-back,instructions\back-0.png,conditions\01back-e.xlsx,,,experiment,0,4,stim\gray.png,stim\gray.png,stim\gray.png,stim\yellow.png,down,,,,,,,,,,,,,0,0,0,4,0,1,1,1,,,,,,,,,,,,,,,,,,,,,,,,,,,,,,,,,,,,,,,,,,,,,,,,,,,,,,,,down,1,0.5800435000564903,182.0817806001287,None,182.0817806001287,None,182.0817806001287,183.0832285999786,182.0817806001287,183.0832285999786,182.0817806001287,183.0832285999786,182.0817806001287,183.0832285999786,182.0817806001287,182.5824264001567,182.0817806001287,182.5824264001567,182.0817806001287,182.5824264001567,182.0817806001287,182.5824264001567,182.0817806001287,None,,,,,11046,001,2024_Apr_15_1401,nback,2021.2.3,60.0326217094636,
0-back,instructions\back-0.png,conditions\01back-e.xlsx,,,experiment,0,1,stim\yellow.png,stim\gray.png,stim\gray.png,stim\gray.png,up,,,,,,,,,,,,,0,0,0,4,0,2,2,2,,,,,,,,,,,,,,,,,,,,,,,,,,,,,,,,,,,,,,,,,,,,,,,,,,,,,,,,up,1,0.3816190999932587,183.58407540014014,None,183.58407540014014,None,183.58407540014014,184.58555239997804,183.58407540014014,184.58555239997804,183.58407540014014,184.58555239997804,183.58407540014014,184.58555239997804,183.58407540014014,184.084721500054,183.58407540014014,184.084721500054,183.58407540014014,184.084721500054,183.58407540014014,184.084721500054,183.58407540014014,None,,,,,11046,001,2024_Apr_15_1401,nback,2021.2.3,60.0326217094636,
0-back,instructions\back-0.png,conditions\01back-e.xlsx,,,experiment,0,2,stim\gray.png,stim\yellow.png,stim\gray.png,stim\gray.png,left,,,,,,,,,,,,,0,0,0,4,0,3,3,3,,,,,,,,,,,,,,,,,,,,,,,,,,,,,,,,,,,,,,,,,,,,,,,,,,,,,,,,left,1,0.35913380002602935,185.08633730001748,None,185.08633730001748,None,185.08633730001748,186.08776120003313,185.08633730001748,186.08776120003313,185.08633730001748,186.08776120003313,185.08633730001748,186.08776120003313,185.08633730001748,185.58706600009464,185.08633730001748,185.58706600009464,185.08633730001748,185.58706600009464,185.08633730001748,185.58706600009464,185.08633730001748,None,,,,,11046,001,2024_Apr_15_1401,nback,2021.2.3,60.0326217094636,
0-back,instructions\back-0.png,conditions\01back-e.xlsx,,,experiment,0,3,stim\gray.png,stim\gray.png,stim\yellow.png,stim\gray.png,right,,,,,,,,,,,,,0,0,0,4,0,4,4,4,,,,,,,,,,,,,,,,,,,,,,,,,,,,,,,,,,,,,,,,,,,,,,,,,,,,,,,,right,1,0.38478170009329915,186.58851020014845,None,186.58851020014845,None,186.58851020014845,187.59011690015905,186.58851020014845,187.59011690015905,186.58851020014845,187.59011690015905,186.58851020014845,187.59011690015905,186.58851020014845,187.08933560014702,186.58851020014845,187.08933560014702,186.58851020014845,187.08933560014702,186.58851020014845,187.08933560014702,186.58851020014845,None,,,,,11046,001,2024_Apr_15_1401,nback,2021.2.3,60.0326217094636,
0-back,instructions\back-0.png,conditions\01back-e.xlsx,,,experiment,0,1,stim\yellow.png,stim\gray.png,stim\gray.png,stim\gray.png,up,,,,,,,,,,,,,0,0,0,4,0,5,5,5,,,,,,,,,,,,,,,,,,,,,,,,,,,,,,,,,,,,,,,,,,,,,,,,,,,,,,,,up,1,0.5144401998259127,188.0907801000867,None,188.0907801000867,None,188.0907801000867,189.0927141001448,188.0907801000867,189.0927141001448,188.0907801000867,189.0927141001448,188.0907801000867,189.0927141001448,188.0907801000867,188.59181919996627,188.0907801000867,188.59181919996627,188.0907801000867,188.59181919996627,188.0907801000867,188.59181919996627,188.0907801000867,None,,,,,11046,001,2024_Apr_15_1401,nback,2021.2.3,60.0326217094636,
0-back,instructions\back-0.png,conditions\01back-e.xlsx,,,experiment,0,4,stim\gray.png,stim\gray.png,stim\gray.png,stim\yellow.png,down,,,,,,,,,,,,,0,0,0,4,0,6,6,6,,,,,,,,,,,,,,,,,,,,,,,,,,,,,,,,,,,,,,,,,,,,,,,,,,,,,,,,down,1,0.5325532997958362,189.5930749999825,None,189.5930749999825,None,189.5930749999825,190.59619570011273,189.5930749999825,190.59619570011273,189.5930749999825,190.59619570011273,189.5930749999825,190.59619570011273,189.5930749999825,190.09396850015037,189.5930749999825,190.09396850015037,189.5930749999825,190.09396850015037,189.5930749999825,190.09396850015037,189.5930749999825,None,,,,,11046,001,2024_Apr_15_1401,nback,2021.2.3,60.0326217094636,
0-back,instructions\back-0.png,conditions\01back-e.xlsx,,,experiment,0,3,stim\gray.png,stim\gray.png,stim\yellow.png,stim\gray.png,right,,,,,,,,,,,,,0,0,0,4,0,7,7,7,,,,,,,,,,,,,,,,,,,,,,,,,,,,,,,,,,,,,,,,,,,,,,,,,,,,,,,,right,1,0.6466512999031693,191.07868689997122,None,191.07868689997122,None,191.07868689997122,192.0801532000769,191.07868689997122,192.0801532000769,191.07868689997122,192.0801532000769,191.07868689997122,192.0801532000769,191.07868689997122,191.57952090003528,191.07868689997122,191.57952090003528,191.07868689997122,191.57952090003528,191.07868689997122,191.57952090003528,191.07868689997122,None,,,,,11046,001,2024_Apr_15_1401,nback,2021.2.3,60.0326217094636,
0-back,instructions\back-0.png,conditions\01back-e.xlsx,,,experiment,0,4,stim\gray.png,stim\gray.png,stim\gray.png,stim\yellow.png,down,,,,,,,,,,,,,0,0,0,4,0,8,8,8,,,,,,,,,,,,,,,,,,,,,,,,,,,,,,,,,,,,,,,,,,,,,,,,,,,,,,,,down,1,0.6244214000180364,192.5809705001302,None,192.5809705001302,None,192.5809705001302,193.58226190018468,192.5809705001302,193.58226190018468,192.5809705001302,193.58226190018468,192.5809705001302,193.58226190018468,192.5809705001302,193.0816890001297,192.5809705001302,193.0816890001297,192.5809705001302,193.0816890001297,192.5809705001302,193.0816890001297,192.5809705001302,None,,,,,11046,001,2024_Apr_15_1401,nback,2021.2.3,60.0326217094636,
0-back,instructions\back-0.png,conditions\01back-e.xlsx,,,experiment,0,3,stim\gray.png,stim\gray.png,stim\yellow.png,stim\gray.png,right,,,,,,,,,,,,,0,0,0,4,0,9,9,9,,,,,,,,,,,,,,,,,,,,,,,,,,,,,,,,,,,,,,,,,,,,,,,,,,,,,,,,right,1,0.586305599892512,194.08304579998367,None,194.08304579998367,None,194.08304579998367,195.08469060016796,194.08304579998367,195.08469060016796,194.08304579998367,195.08469060016796,194.08304579998367,195.08469060016796,194.08304579998367,194.58451519999653,194.08304579998367,194.58451519999653,194.08304579998367,194.58451519999653,194.08304579998367,194.58451519999653,194.08304579998367,None,,,,,11046,001,2024_Apr_15_1401,nback,2021.2.3,60.0326217094636,
0-back,instructions\back-0.png,conditions\01back-e.xlsx,,,experiment,0,3,stim\gray.png,stim\gray.png,stim\yellow.png,stim\gray.png,right,,,,,,,,,,,,,0,0,0,4,0,10,10,10,,,,,,,,,,,,,,,,,,,,,,,,,,,,,,,,,,,,,,,,,,,,,,,,,,,,,,,,right,1,0.5322385998442769,195.58534390013665,None,195.58534390013665,None,195.58534390013665,196.58695859997533,195.58534390013665,196.58695859997533,195.58534390013665,196.58695859997533,195.58534390013665,196.58695859997533,195.58534390013665,196.0863153000828,195.58534390013665,196.0863153000828,195.58534390013665,196.0863153000828,195.58534390013665,196.0863153000828,195.58534390013665,None,,,,,11046,001,2024_Apr_15_1401,nback,2021.2.3,60.0326217094636,
0-back,instructions\back-0.png,conditions\01back-e.xlsx,,,experiment,0,1,stim\yellow.png,stim\gray.png,stim\gray.png,stim\gray.png,up,,,,,,,,,,,,,0,0,0,4,0,11,11,11,,,,,,,,,,,,,,,,,,,,,,,,,,,,,,,,,,,,,,,,,,,,,,,,,,,,,,,,up,1,0.4058099000249058,197.08771300013177,None,197.08771300013177,None,197.08771300013177,198.08933120011352,197.08771300013177,198.08933120011352,197.08771300013177,198.08933120011352,197.08771300013177,198.08933120011352,197.08771300013177,197.58863570005633,197.08771300013177,197.58863570005633,197.08771300013177,197.58863570005633,197.08771300013177,197.58863570005633,197.08771300013177,None,,,,,11046,001,2024_Apr_15_1401,nback,2021.2.3,60.0326217094636,
0-back,instructions\back-0.png,conditions\01back-e.xlsx,,,experiment,0,3,stim\gray.png,stim\gray.png,stim\yellow.png,stim\gray.png,right,,,,,,,,,,,,,0,0,0,4,0,12,12,12,,,,,,,,,,,,,,,,,,,,,,,,,,,,,,,,,,,,,,,,,,,,,,,,,,,,,,,,right,1,0.44059960008598864,198.5900078001432,None,198.5900078001432,None,198.5900078001432,199.59190960018896,198.5900078001432,199.59190960018896,198.5900078001432,199.59190960018896,198.5900078001432,199.59190960018896,198.5900078001432,199.0906942000147,198.5900078001432,199.0906942000147,198.5900078001432,199.0906942000147,198.5900078001432,199.0906942000147,198.5900078001432,None,,,,,11046,001,2024_Apr_15_1401,nback,2021.2.3,60.0326217094636,
0-back,instructions\back-0.png,conditions\01back-e.xlsx,,,experiment,0,1,stim\yellow.png,stim\gray.png,stim\gray.png,stim\gray.png,up,,,,,,,,,,,,,0,0,0,4,0,13,13,13,,,,,,,,,,,,,,,,,,,,,,,,,,,,,,,,,,,,,,,,,,,,,,,,,,,,,,,,up,1,0.3455611001700163,200.09239910007454,None,200.09239910007454,None,200.09239910007454,201.09372750017792,200.09239910007454,201.09372750017792,200.09239910007454,201.09372750017792,200.09239910007454,201.09372750017792,200.09239910007454,200.59314650017768,200.09239910007454,200.59314650017768,200.09239910007454,200.59314650017768,200.09239910007454,200.59314650017768,200.09239910007454,None,,,,,11046,001,2024_Apr_15_1401,nback,2021.2.3,60.0326217094636,
0-back,instructions\back-0.png,conditions\01back-e.xlsx,,,experiment,0,4,stim\gray.png,stim\gray.png,stim\gray.png,stim\yellow.png,down,,,,,,,,,,,,,0,0,0,4,0,14,14,14,,,,,,,,,,,,,,,,,,,,,,,,,,,,,,,,,,,,,,,,,,,,,,,,,,,,,,,,down,1,0.4679210998583585,201.5779677000828,None,201.5779677000828,None,201.5779677000828,202.57965990016237,201.5779677000828,202.57965990016237,201.5779677000828,202.57965990016237,201.5779677000828,202.57965990016237,201.5779677000828,202.07911270018667,201.5779677000828,202.07911270018667,201.5779677000828,202.07911270018667,201.5779677000828,202.07911270018667,201.5779677000828,None,,,,,11046,001,2024_Apr_15_1401,nback,2021.2.3,60.0326217094636,
0-back,instructions\back-0.png,conditions\01back-e.xlsx,,,experiment,0,2,stim\gray.png,stim\yellow.png,stim\gray.png,stim\gray.png,left,,,,,,,,,,,,,0,0,0,4,0,15,15,15,,,,,,,,,,,,,,,,,,,,,,,,,,,,,,,,,,,,,,,,,,,,,,,,,,,,,,,,up,0,0.4694691998884082,203.08011870016344,None,203.08011870016344,None,203.08011870016344,204.08174240007065,203.08011870016344,204.08174240007065,203.08011870016344,204.08174240007065,203.08011870016344,204.08174240007065,203.08011870016344,203.5808178000152,203.08011870016344,203.5808178000152,203.08011870016344,203.5808178000152,203.08011870016344,203.5808178000152,203.08011870016344,None,,,,,11046,001,2024_Apr_15_1401,nback,2021.2.3,60.0326217094636,
0-back,instructions\back-0.png,conditions\01back-e.xlsx,,,experiment,0,1,stim\yellow.png,stim\gray.png,stim\gray.png,stim\gray.png,up,,,,,,,,,,,,,0,0,0,4,0,16,16,16,,,,,,,,,,,,,,,,,,,,,,,,,,,,,,,,,,,,,,,,,,,,,,,,,,,,,,,,up,1,0.3756885000038892,204.58235060004517,None,204.58235060004517,None,204.58235060004517,205.58400000003166,204.58235060004517,205.58400000003166,204.58235060004517,205.58400000003166,204.58235060004517,205.58400000003166,204.58235060004517,205.0829599001445,204.58235060004517,205.0829599001445,204.58235060004517,205.0829599001445,204.58235060004517,205.0829599001445,204.58235060004517,None,,,,,11046,001,2024_Apr_15_1401,nback,2021.2.3,60.0326217094636,
0-back,instructions\back-0.png,conditions\01back-e.xlsx,,,experiment,0,2,stim\gray.png,stim\yellow.png,stim\gray.png,stim\gray.png,left,,,,,,,,,,,,,0,0,0,4,0,17,17,17,,,,,,,,,,,,,,,,,,,,,,,,,,,,,,,,,,,,,,,,,,,,,,,,,,,,,,,,left,1,0.39328660001046956,206.08484480017796,None,206.08484480017796,None,206.08484480017796,207.08615960017778,206.08484480017796,207.08615960017778,206.08484480017796,207.08615960017778,206.08484480017796,207.08615960017778,206.08484480017796,206.5855249001179,206.08484480017796,206.5855249001179,206.08484480017796,206.5855249001179,206.08484480017796,206.5855249001179,206.08484480017796,None,,,,,11046,001,2024_Apr_15_1401,nback,2021.2.3,60.0326217094636,
0-back,instructions\back-0.png,conditions\01back-e.xlsx,,,experiment,0,4,stim\gray.png,stim\gray.png,stim\gray.png,stim\yellow.png,down,,,,,,,,,,,,,0,0,0,4,0,18,18,18,,,,,,,,,,,,,,,,,,,,,,,,,,,,,,,,,,,,,,,,,,,,,,,,,,,,,,,,down,1,0.4588937000371516,207.58716950006783,None,207.58716950006783,None,207.58716950006783,208.5882508000359,207.58716950006783,208.5882508000359,207.58716950006783,208.5882508000359,207.58716950006783,208.5882508000359,207.58716950006783,208.0876736000646,207.58716950006783,208.0876736000646,207.58716950006783,208.0876736000646,207.58716950006783,208.0876736000646,207.58716950006783,None,,,,,11046,001,2024_Apr_15_1401,nback,2021.2.3,60.0326217094636,
0-back,instructions\back-0.png,conditions\01back-e.xlsx,,,experiment,0,2,stim\gray.png,stim\yellow.png,stim\gray.png,stim\gray.png,left,,,,,,,,,,,,,0,0,0,4,0,19,19,19,,,,,,,,,,,,,,,,,,,,,,,,,,,,,,,,,,,,,,,,,,,,,,,,,,,,,,,,left,1,0.4207862999755889,209.08929570019245,None,209.08929570019245,None,209.08929570019245,210.09065810008906,209.08929570019245,210.09065810008906,209.08929570019245,210.09065810008906,209.08929570019245,210.09065810008906,209.08929570019245,209.58996810019016,209.08929570019245,209.58996810019016,209.08929570019245,209.58996810019016,209.08929570019245,209.58996810019016,209.08929570019245,None,,,,,11046,001,2024_Apr_15_1401,nback,2021.2.3,60.0326217094636,
0-back,instructions\back-0.png,conditions\01back-e.xlsx,,,,,,,,,,,,,,,,,,,,,,,0,0,0,4,,,,,,,,,,,,,,,,,,,,,,,,,,,,,,,,,,,,,,,,,,,,,,,,,,,,,,,,,,,,,,,,,,,,,,,,,,,,,,,,,,,,,210.59127730014734,None,,,11046,001,2024_Apr_15_1401,nback,2021.2.3,60.0326217094636,
1-back,instructions\back-1.png,conditions\14back-e.xlsx,,,experiment,1,3,stim\gray.png,stim\gray.png,stim\yellow.png,stim\gray.png,None,,,,,,,,,,,,,0,1,1,14,0,0,0,0,,,,,,,,,,,,,,,211.72643669997342,216.23408409999683,216.21689150016755,None,,,,,,,,,,,,,,,,,,,,,,,,,,,,,,,,,,,,,,None,1,,216.60106060002,None,216.60106060002,None,216.60106060002,217.60202990006655,216.60106060002,217.60202990006655,216.60106060002,217.60202990006655,216.60106060002,217.60202990006655,216.60106060002,217.10139760002494,216.60106060002,217.10139760002494,216.60106060002,217.10139760002494,216.60106060002,217.10139760002494,216.60106060002,None,,,,,11046,001,2024_Apr_15_1401,nback,2021.2.3,60.0326217094636,
1-back,instructions\back-1.png,conditions\14back-e.xlsx,,,experiment,1,2,stim\gray.png,stim\yellow.png,stim\gray.png,stim\gray.png,right,,,,,,,,,,,,,0,1,1,14,0,1,1,1,,,,,,,,,,,,,,,,,,,,,,,,,,,,,,,,,,,,,,,,,,,,,,,,,,,,,,,,right,1,0.37604900007136166,218.0864030001685,None,218.0864030001685,None,218.0864030001685,219.087517300155,218.0864030001685,219.087517300155,218.0864030001685,219.087517300155,218.0864030001685,219.087517300155,218.0864030001685,218.58681060001254,218.0864030001685,218.58681060001254,218.0864030001685,218.58681060001254,218.0864030001685,218.58681060001254,218.0864030001685,None,,,,,11046,001,2024_Apr_15_1401,nback,2021.2.3,60.0326217094636,
1-back,instructions\back-1.png,conditions\14back-e.xlsx,,,experiment,1,3,stim\gray.png,stim\gray.png,stim\yellow.png,stim\gray.png,left,,,,,,,,,,,,,0,1,1,14,0,2,2,2,,,,,,,,,,,,,,,,,,,,,,,,,,,,,,,,,,,,,,,,,,,,,,,,,,,,,,,,left,1,0.32216789992526174,219.58828820008785,None,219.58828820008785,None,219.58828820008785,220.59004230005667,219.58828820008785,220.59004230005667,219.58828820008785,220.59004230005667,219.58828820008785,220.59004230005667,219.58828820008785,220.08997440012172,219.58828820008785,220.08997440012172,219.58828820008785,220.08997440012172,219.58828820008785,220.08997440012172,219.58828820008785,None,,,,,11046,001,2024_Apr_15_1401,nback,2021.2.3,60.0326217094636,
1-back,instructions\back-1.png,conditions\14back-e.xlsx,,,experiment,1,1,stim\yellow.png,stim\gray.png,stim\gray.png,stim\gray.png,right,,,,,,,,,,,,,0,1,1,14,0,3,3,3,,,,,,,,,,,,,,,,,,,,,,,,,,,,,,,,,,,,,,,,,,,,,,,,,,,,,,,,right,1,0.29202069994062185,221.090469900053,None,221.090469900053,None,221.090469900053,222.0922010000795,221.090469900053,222.0922010000795,221.090469900053,222.0922010000795,221.090469900053,222.0922010000795,221.090469900053,221.5915361000225,221.090469900053,221.5915361000225,221.090469900053,221.5915361000225,221.090469900053,221.5915361000225,221.090469900053,None,,,,,11046,001,2024_Apr_15_1401,nback,2021.2.3,60.0326217094636,
1-back,instructions\back-1.png,conditions\14back-e.xlsx,,,experiment,1,2,stim\gray.png,stim\yellow.png,stim\gray.png,stim\gray.png,up,,,,,,,,,,,,,0,1,1,14,0,4,4,4,,,,,,,,,,,,,,,,,,,,,,,,,,,,,,,,,,,,,,,,,,,,,,,,,,,,,,,,up,1,0.22966539999470115,222.592856900068,None,222.592856900068,None,222.592856900068,223.5943883000873,222.592856900068,223.5943883000873,222.592856900068,223.5943883000873,222.592856900068,223.5943883000873,222.592856900068,223.09371040016413,222.592856900068,223.09371040016413,222.592856900068,223.09371040016413,222.592856900068,223.09371040016413,222.592856900068,None,,,,,11046,001,2024_Apr_15_1401,nback,2021.2.3,60.0326217094636,
1-back,instructions\back-1.png,conditions\14back-e.xlsx,,,experiment,1,4,stim\gray.png,stim\gray.png,stim\gray.png,stim\yellow.png,left,,,,,,,,,,,,,0,1,1,14,0,5,5,5,,,,,,,,,,,,,,,,,,,,,,,,,,,,,,,,,,,,,,,,,,,,,,,,,,,,,,,,left,1,0.26419549994170666,224.07843059999868,None,224.07843059999868,None,224.07843059999868,225.08000249997713,224.07843059999868,225.08000249997713,224.07843059999868,225.08000249997713,224.07843059999868,225.08000249997713,224.07843059999868,224.5793898999691,224.07843059999868,224.5793898999691,224.07843059999868,224.5793898999691,224.07843059999868,224.5793898999691,224.07843059999868,None,,,,,11046,001,2024_Apr_15_1401,nback,2021.2.3,60.0326217094636,
1-back,instructions\back-1.png,conditions\14back-e.xlsx,,,experiment,1,3,stim\gray.png,stim\gray.png,stim\yellow.png,stim\gray.png,down,,,,,,,,,,,,,0,1,1,14,0,6,6,6,,,,,,,,,,,,,,,,,,,,,,,,,,,,,,,,,,,,,,,,,,,,,,,,,,,,,,,,down,1,0.258208499988541,225.58072379999794,None,225.58072379999794,None,225.58072379999794,226.58214860013686,225.58072379999794,226.58214860013686,225.58072379999794,226.58214860013686,225.58072379999794,226.58214860013686,225.58072379999794,226.0814802001696,225.58072379999794,226.0814802001696,225.58072379999794,226.0814802001696,225.58072379999794,226.0814802001696,225.58072379999794,None,,,,,11046,001,2024_Apr_15_1401,nback,2021.2.3,60.0326217094636,
1-back,instructions\back-1.png,conditions\14back-e.xlsx,,,experiment,1,1,stim\yellow.png,stim\gray.png,stim\gray.png,stim\gray.png,right,,,,,,,,,,,,,0,1,1,14,0,7,7,7,,,,,,,,,,,,,,,,,,,,,,,,,,,,,,,,,,,,,,,,,,,,,,,,,,,,,,,,right,1,0.22767049982212484,227.08298510010354,None,227.08298510010354,None,227.08298510010354,228.08479580003768,227.08298510010354,228.08479580003768,227.08298510010354,228.08479580003768,227.08298510010354,228.08479580003768,227.08298510010354,227.58379160007462,227.08298510010354,227.58379160007462,227.08298510010354,227.58379160007462,227.08298510010354,227.58379160007462,227.08298510010354,None,,,,,11046,001,2024_Apr_15_1401,nback,2021.2.3,60.0326217094636,
1-back,instructions\back-1.png,conditions\14back-e.xlsx,,,experiment,1,3,stim\gray.png,stim\gray.png,stim\yellow.png,stim\gray.png,up,,,,,,,,,,,,,0,1,1,14,0,8,8,8,,,,,,,,,,,,,,,,,,,,,,,,,,,,,,,,,,,,,,,,,,,,,,,,,,,,,,,,up,1,0.32538109994493425,228.58544500009157,None,228.58544500009157,None,228.58544500009157,229.5867411000654,228.58544500009157,229.5867411000654,228.58544500009157,229.5867411000654,228.58544500009157,229.5867411000654,228.58544500009157,229.0863163000904,228.58544500009157,229.0863163000904,228.58544500009157,229.0863163000904,228.58544500009157,229.0863163000904,228.58544500009157,None,,,,,11046,001,2024_Apr_15_1401,nback,2021.2.3,60.0326217094636,
1-back,instructions\back-1.png,conditions\14back-e.xlsx,,,experiment,1,2,stim\gray.png,stim\yellow.png,stim\gray.png,stim\gray.png,right,,,,,,,,,,,,,0,1,1,14,0,9,9,9,,,,,,,,,,,,,,,,,,,,,,,,,,,,,,,,,,,,,,,,,,,,,,,,,,,,,,,,right,1,0.30298899998888373,230.08761070016772,None,230.08761070016772,None,230.08761070016772,231.08911130018532,230.08761070016772,231.08911130018532,230.08761070016772,231.08911130018532,230.08761070016772,231.08911130018532,230.08761070016772,230.58877260005102,230.08761070016772,230.58877260005102,230.08761070016772,230.58877260005102,230.08761070016772,230.58877260005102,230.08761070016772,None,,,,,11046,001,2024_Apr_15_1401,nback,2021.2.3,60.0326217094636,
1-back,instructions\back-1.png,conditions\14back-e.xlsx,,,experiment,1,4,stim\gray.png,stim\gray.png,stim\gray.png,stim\yellow.png,left,,,,,,,,,,,,,0,1,1,14,0,10,10,10,,,,,,,,,,,,,,,,,,,,,,,,,,,,,,,,,,,,,,,,,,,,,,,,,,,,,,,,left,1,0.3606918998993933,231.5900267001707,None,231.5900267001707,None,231.5900267001707,232.59125789999962,231.5900267001707,232.59125789999962,231.5900267001707,232.59125789999962,231.5900267001707,232.59125789999962,231.5900267001707,232.09070600010455,231.5900267001707,232.09070600010455,231.5900267001707,232.09070600010455,231.5900267001707,232.09070600010455,231.5900267001707,None,,,,,11046,001,2024_Apr_15_1401,nback,2021.2.3,60.0326217094636,
1-back,instructions\back-1.png,conditions\14back-e.xlsx,,,experiment,1,2,stim\gray.png,stim\yellow.png,stim\gray.png,stim\gray.png,down,,,,,,,,,,,,,0,1,1,14,0,11,11,11,,,,,,,,,,,,,,,,,,,,,,,,,,,,,,,,,,,,,,,,,,,,,,,,,,,,,,,,down,1,0.3299412000924349,233.09273310005665,None,233.09273310005665,None,233.09273310005665,234.09342569997534,233.09273310005665,234.09342569997534,233.09273310005665,234.09342569997534,233.09273310005665,234.09342569997534,233.09273310005665,233.59291220013984,233.09273310005665,233.59291220013984,233.09273310005665,233.59291220013984,233.09273310005665,233.59291220013984,233.09273310005665,None,,,,,11046,001,2024_Apr_15_1401,nback,2021.2.3,60.0326217094636,
1-back,instructions\back-1.png,conditions\14back-e.xlsx,,,experiment,1,4,stim\gray.png,stim\gray.png,stim\gray.png,stim\yellow.png,left,,,,,,,,,,,,,0,1,1,14,0,12,12,12,,,,,,,,,,,,,,,,,,,,,,,,,,,,,,,,,,,,,,,,,,,,,,,,,,,,,,,,left,1,0.3092265999875963,234.57764520007186,None,234.57764520007186,None,234.57764520007186,235.5790687999688,234.57764520007186,235.5790687999688,234.57764520007186,235.5790687999688,234.57764520007186,235.5790687999688,234.57764520007186,235.078546800185,234.57764520007186,235.078546800185,234.57764520007186,235.078546800185,234.57764520007186,235.078546800185,234.57764520007186,None,,,,,11046,001,2024_Apr_15_1401,nback,2021.2.3,60.0326217094636,
1-back,instructions\back-1.png,conditions\14back-e.xlsx,,,experiment,1,1,stim\yellow.png,stim\gray.png,stim\gray.png,stim\gray.png,down,,,,,,,,,,,,,0,1,1,14,0,13,13,13,,,,,,,,,,,,,,,,,,,,,,,,,,,,,,,,,,,,,,,,,,,,,,,,,,,,,,,,down,1,0.23867549980059266,236.079957799986,None,236.079957799986,None,236.079957799986,237.0815048001241,236.079957799986,237.0815048001241,236.079957799986,237.0815048001241,236.079957799986,237.0815048001241,236.079957799986,236.58069350011647,236.079957799986,236.58069350011647,236.079957799986,236.58069350011647,236.079957799986,236.58069350011647,236.079957799986,None,,,,,11046,001,2024_Apr_15_1401,nback,2021.2.3,60.0326217094636,
1-back,instructions\back-1.png,conditions\14back-e.xlsx,,,experiment,1,1,stim\yellow.png,stim\gray.png,stim\gray.png,stim\gray.png,up,,,,,,,,,,,,,0,1,1,14,0,14,14,14,,,,,,,,,,,,,,,,,,,,,,,,,,,,,,,,,,,,,,,,,,,,,,,,,,,,,,,,up,1,0.304522099904716,237.5821224001702,None,237.5821224001702,None,237.5821224001702,238.58428760012612,237.5821224001702,238.58428760012612,237.5821224001702,238.58428760012612,237.5821224001702,238.58428760012612,237.5821224001702,238.0830069000367,237.5821224001702,238.0830069000367,237.5821224001702,238.0830069000367,237.5821224001702,238.0830069000367,237.5821224001702,None,,,,,11046,001,2024_Apr_15_1401,nback,2021.2.3,60.0326217094636,
1-back,instructions\back-1.png,conditions\14back-e.xlsx,,,experiment,1,4,stim\gray.png,stim\gray.png,stim\gray.png,stim\yellow.png,up,,,,,,,,,,,,,0,1,1,14,0,15,15,15,,,,,,,,,,,,,,,,,,,,,,,,,,,,,,,,,,,,,,,,,,,,,,,,,,,,,,,,up,1,0.26711240014992654,239.0844682001043,None,239.0844682001043,None,239.0844682001043,240.0879424000159,239.0844682001043,240.0879424000159,239.0844682001043,240.0879424000159,239.0844682001043,240.0879424000159,239.0844682001043,239.58593140006997,239.0844682001043,239.58593140006997,239.0844682001043,239.58593140006997,239.0844682001043,239.58593140006997,239.0844682001043,None,,,,,11046,001,2024_Apr_15_1401,nback,2021.2.3,60.0326217094636,
1-back,instructions\back-1.png,conditions\14back-e.xlsx,,,experiment,1,1,stim\yellow.png,stim\gray.png,stim\gray.png,stim\gray.png,down,,,,,,,,,,,,,0,1,1,14,0,16,16,16,,,,,,,,,,,,,,,,,,,,,,,,,,,,,,,,,,,,,,,,,,,,,,,,,,,,,,,,down,1,0.23616280010901392,240.5868113001343,None,240.5868113001343,None,240.5868113001343,241.58824390009977,240.5868113001343,241.58824390009977,240.5868113001343,241.58824390009977,240.5868113001343,241.58824390009977,240.5868113001343,241.08748870017007,240.5868113001343,241.08748870017007,240.5868113001343,241.08748870017007,240.5868113001343,241.08748870017007,240.5868113001343,None,,,,,11046,001,2024_Apr_15_1401,nback,2021.2.3,60.0326217094636,
1-back,instructions\back-1.png,conditions\14back-e.xlsx,,,experiment,1,3,stim\gray.png,stim\gray.png,stim\yellow.png,stim\gray.png,up,,,,,,,,,,,,,0,1,1,14,0,17,17,17,,,,,,,,,,,,,,,,,,,,,,,,,,,,,,,,,,,,,,,,,,,,,,,,,,,,,,,,up,1,0.35051819984801114,242.08898760005832,None,242.08898760005832,None,242.08898760005832,243.09042290016077,242.08898760005832,243.09042290016077,242.08898760005832,243.09042290016077,242.08898760005832,243.09042290016077,242.08898760005832,242.58999520004727,242.08898760005832,242.58999520004727,242.08898760005832,242.58999520004727,242.08898760005832,242.58999520004727,242.08898760005832,None,,,,,11046,001,2024_Apr_15_1401,nback,2021.2.3,60.0326217094636,
1-back,instructions\back-1.png,conditions\14back-e.xlsx,,,experiment,1,2,stim\gray.png,stim\yellow.png,stim\gray.png,stim\gray.png,right,,,,,,,,,,,,,0,1,1,14,0,18,18,18,,,,,,,,,,,,,,,,,,,,,,,,,,,,,,,,,,,,,,,,,,,,,,,,,,,,,,,,right,1,0.3438299000263214,243.591294700047,None,243.591294700047,None,243.591294700047,244.59303530002944,243.591294700047,244.59303530002944,243.591294700047,244.59303530002944,243.591294700047,244.59303530002944,243.591294700047,244.09206330007873,243.591294700047,244.09206330007873,243.591294700047,244.09206330007873,243.591294700047,244.09206330007873,243.591294700047,None,,,,,11046,001,2024_Apr_15_1401,nback,2021.2.3,60.0326217094636,
1-back,instructions\back-1.png,conditions\14back-e.xlsx,,,experiment,1,4,stim\gray.png,stim\gray.png,stim\gray.png,stim\yellow.png,left,,,,,,,,,,,,,0,1,1,14,0,19,19,19,,,,,,,,,,,,,,,,,,,,,,,,,,,,,,,,,,,,,,,,,,,,,,,,,,,,,,,,left,1,0.44228099985048175,245.07665670011193,None,245.07665670011193,None,245.07665670011193,246.07846260000952,245.07665670011193,246.07846260000952,245.07665670011193,246.07846260000952,245.07665670011193,246.07846260000952,245.07665670011193,245.577642200049,245.07665670011193,245.577642200049,245.07665670011193,245.577642200049,245.07665670011193,245.577642200049,245.07665670011193,None,,,,,11046,001,2024_Apr_15_1401,nback,2021.2.3,60.0326217094636,
1-back,instructions\back-1.png,conditions\14back-e.xlsx,,,,,,,,,,,,,,,,,,,,,,,0,1,1,14,,,,,,,,,,,,,,,,,,,,,,,,,,,,,,,,,,,,,,,,,,,,,,,,,,,,,,,,,,,,,,,,,,,,,,,,,,,,,,,,,,,,,246.5803004000336,None,,,11046,001,2024_Apr_15_1401,nback,2021.2.3,60.0326217094636,
0-back,instructions\back-0.png,conditions\03back-e.xlsx,,,experiment,0,1,stim\yellow.png,stim\gray.png,stim\gray.png,stim\gray.png,up,,,,,,,,,,,,,0,2,2,11,0,0,0,0,,,,,,,,,,,,,,,247.697273200145,252.20526050007902,252.17094120010734,None,,,,,,,,,,,,,,,,,,,,,,,,,,,,,,,,,,,,,,up,1,0.5146820999216288,252.60513330018148,None,252.60513330018148,None,252.60513330018148,253.60681190015748,252.60513330018148,253.60681190015748,252.60513330018148,253.60681190015748,252.60513330018148,253.60681190015748,252.60513330018148,253.1062149000354,252.60513330018148,253.1062149000354,252.60513330018148,253.1062149000354,252.60513330018148,253.1062149000354,252.60513330018148,None,,,,,11046,001,2024_Apr_15_1401,nback,2021.2.3,60.0326217094636,
0-back,instructions\back-0.png,conditions\03back-e.xlsx,,,experiment,0,2,stim\gray.png,stim\yellow.png,stim\gray.png,stim\gray.png,left,,,,,,,,,,,,,0,2,2,11,0,1,1,1,,,,,,,,,,,,,,,,,,,,,,,,,,,,,,,,,,,,,,,,,,,,,,,,,,,,,,,,left,1,0.3971082998905331,254.09038199996576,None,254.09038199996576,None,254.09038199996576,255.0921277999878,254.09038199996576,255.0921277999878,254.09038199996576,255.0921277999878,254.09038199996576,255.0921277999878,254.09038199996576,254.59128349996172,254.09038199996576,254.59128349996172,254.09038199996576,254.59128349996172,254.09038199996576,254.59128349996172,254.09038199996576,None,,,,,11046,001,2024_Apr_15_1401,nback,2021.2.3,60.0326217094636,
0-back,instructions\back-0.png,conditions\03back-e.xlsx,,,experiment,0,4,stim\gray.png,stim\gray.png,stim\gray.png,stim\yellow.png,down,,,,,,,,,,,,,0,2,2,11,0,2,2,2,,,,,,,,,,,,,,,,,,,,,,,,,,,,,,,,,,,,,,,,,,,,,,,,,,,,,,,,down,1,0.374294999986887,255.5929984000977,None,255.5929984000977,None,255.5929984000977,256.5944958999753,255.5929984000977,256.5944958999753,255.5929984000977,256.5944958999753,255.5929984000977,256.5944958999753,255.5929984000977,256.09322539996356,255.5929984000977,256.09322539996356,255.5929984000977,256.09322539996356,255.5929984000977,256.09322539996356,255.5929984000977,None,,,,,11046,001,2024_Apr_15_1401,nback,2021.2.3,60.0326217094636,
0-back,instructions\back-0.png,conditions\03back-e.xlsx,,,experiment,0,3,stim\gray.png,stim\gray.png,stim\yellow.png,stim\gray.png,right,,,,,,,,,,,,,0,2,2,11,0,3,3,3,,,,,,,,,,,,,,,,,,,,,,,,,,,,,,,,,,,,,,,,,,,,,,,,,,,,,,,,right,1,0.41735220002010465,257.07881390000694,None,257.07881390000694,None,257.07881390000694,258.0798893000465,257.07881390000694,258.0798893000465,257.07881390000694,258.0798893000465,257.07881390000694,258.0798893000465,257.07881390000694,257.5790540999733,257.07881390000694,257.5790540999733,257.07881390000694,257.5790540999733,257.07881390000694,257.5790540999733,257.07881390000694,None,,,,,11046,001,2024_Apr_15_1401,nback,2021.2.3,60.0326217094636,
0-back,instructions\back-0.png,conditions\03back-e.xlsx,,,experiment,0,3,stim\gray.png,stim\gray.png,stim\yellow.png,stim\gray.png,right,,,,,,,,,,,,,0,2,2,11,0,4,4,4,,,,,,,,,,,,,,,,,,,,,,,,,,,,,,,,,,,,,,,,,,,,,,,,,,,,,,,,right,1,0.5307107002008706,258.5808457999956,None,258.5808457999956,None,258.5808457999956,259.5820251000114,258.5808457999956,259.5820251000114,258.5808457999956,259.5820251000114,258.5808457999956,259.5820251000114,258.5808457999956,259.0816466000397,258.5808457999956,259.0816466000397,258.5808457999956,259.0816466000397,258.5808457999956,259.0816466000397,258.5808457999956,None,,,,,11046,001,2024_Apr_15_1401,nback,2021.2.3,60.0326217094636,
0-back,instructions\back-0.png,conditions\03back-e.xlsx,,,experiment,0,1,stim\yellow.png,stim\gray.png,stim\gray.png,stim\gray.png,up,,,,,,,,,,,,,0,2,2,11,0,5,5,5,,,,,,,,,,,,,,,,,,,,,,,,,,,,,,,,,,,,,,,,,,,,,,,,,,,,,,,,up,1,0.5086989998817444,260.0846343000885,None,260.0846343000885,None,260.0846343000885,261.08421240001917,260.0846343000885,261.08421240001917,260.0846343000885,261.08421240001917,260.0846343000885,261.08421240001917,260.0846343000885,260.6002833000384,260.0846343000885,260.6002833000384,260.0846343000885,260.6002833000384,260.0846343000885,260.6002833000384,260.0846343000885,None,,,,,11046,001,2024_Apr_15_1401,nback,2021.2.3,60.0326217094636,
0-back,instructions\back-0.png,conditions\03back-e.xlsx,,,experiment,0,2,stim\gray.png,stim\yellow.png,stim\gray.png,stim\gray.png,left,,,,,,,,,,,,,0,2,2,11,0,6,6,6,,,,,,,,,,,,,,,,,,,,,,,,,,,,,,,,,,,,,,,,,,,,,,,,,,,,,,,,left,1,0.4383785999380052,261.584965800168,None,261.584965800168,None,261.584965800168,262.5867688001599,261.584965800168,262.5867688001599,261.584965800168,262.5867688001599,261.584965800168,262.5867688001599,261.584965800168,262.08586910017766,261.584965800168,262.08586910017766,261.584965800168,262.08586910017766,261.584965800168,262.08586910017766,261.584965800168,None,,,,,11046,001,2024_Apr_15_1401,nback,2021.2.3,60.0326217094636,
0-back,instructions\back-0.png,conditions\03back-e.xlsx,,,experiment,0,3,stim\gray.png,stim\gray.png,stim\yellow.png,stim\gray.png,right,,,,,,,,,,,,,0,2,2,11,0,7,7,7,,,,,,,,,,,,,,,,,,,,,,,,,,,,,,,,,,,,,,,,,,,,,,,,,,,,,,,,right,1,0.5363791999407113,263.08729639998637,None,263.08729639998637,None,263.08729639998637,264.0890397001058,263.08729639998637,264.0890397001058,263.08729639998637,264.0890397001058,263.08729639998637,264.0890397001058,263.08729639998637,263.5882317000069,263.08729639998637,263.5882317000069,263.08729639998637,263.5882317000069,263.08729639998637,263.5882317000069,263.08729639998637,None,,,,,11046,001,2024_Apr_15_1401,nback,2021.2.3,60.0326217094636,
0-back,instructions\back-0.png,conditions\03back-e.xlsx,,,experiment,0,4,stim\gray.png,stim\gray.png,stim\gray.png,stim\yellow.png,down,,,,,,,,,,,,,0,2,2,11,0,8,8,8,,,,,,,,,,,,,,,,,,,,,,,,,,,,,,,,,,,,,,,,,,,,,,,,,,,,,,,,down,1,0.7943609000649303,264.5894914001692,None,264.5894914001692,None,264.5894914001692,265.59103740006685,264.5894914001692,265.59103740006685,264.5894914001692,265.59103740006685,264.5894914001692,265.59103740006685,264.5894914001692,265.09035000018775,264.5894914001692,265.09035000018775,264.5894914001692,265.09035000018775,264.5894914001692,265.09035000018775,264.5894914001692,None,,,,,11046,001,2024_Apr_15_1401,nback,2021.2.3,60.0326217094636,
0-back,instructions\back-0.png,conditions\03back-e.xlsx,,,experiment,0,4,stim\gray.png,stim\gray.png,stim\gray.png,stim\yellow.png,down,,,,,,,,,,,,,0,2,2,11,0,9,9,9,,,,,,,,,,,,,,,,,,,,,,,,,,,,,,,,,,,,,,,,,,,,,,,,,,,,,,,,down,1,0.7715052999556065,266.09195570019074,None,266.09195570019074,None,266.09195570019074,267.0932049001567,266.09195570019074,267.0932049001567,266.09195570019074,267.0932049001567,266.09195570019074,267.0932049001567,266.09195570019074,266.5928725001868,266.09195570019074,266.5928725001868,266.09195570019074,266.5928725001868,266.09195570019074,266.5928725001868,266.09195570019074,None,,,,,11046,001,2024_Apr_15_1401,nback,2021.2.3,60.0326217094636,
0-back,instructions\back-0.png,conditions\03back-e.xlsx,,,experiment,0,1,stim\yellow.png,stim\gray.png,stim\gray.png,stim\gray.png,up,,,,,,,,,,,,,0,2,2,11,0,10,10,10,,,,,,,,,,,,,,,,,,,,,,,,,,,,,,,,,,,,,,,,,,,,,,,,,,,,,,,,up,1,0.4545611999928951,267.5774513001088,None,267.5774513001088,None,267.5774513001088,268.5798029000871,267.5774513001088,268.5798029000871,267.5774513001088,268.5798029000871,267.5774513001088,268.5798029000871,267.5774513001088,268.07847850001417,267.5774513001088,268.07847850001417,267.5774513001088,268.07847850001417,267.5774513001088,268.07847850001417,267.5774513001088,None,,,,,11046,001,2024_Apr_15_1401,nback,2021.2.3,60.0326217094636,
0-back,instructions\back-0.png,conditions\03back-e.xlsx,,,experiment,0,4,stim\gray.png,stim\gray.png,stim\gray.png,stim\yellow.png,down,,,,,,,,,,,,,0,2,2,11,0,11,11,11,,,,,,,,,,,,,,,,,,,,,,,,,,,,,,,,,,,,,,,,,,,,,,,,,,,,,,,,down,1,0.5844785999506712,269.0797711000778,None,269.0797711000778,None,269.0797711000778,270.08136110007763,269.0797711000778,270.08136110007763,269.0797711000778,270.08136110007763,269.0797711000778,270.08136110007763,269.0797711000778,269.58051870018244,269.0797711000778,269.58051870018244,269.0797711000778,269.58051870018244,269.0797711000778,269.58051870018244,269.0797711000778,None,,,,,11046,001,2024_Apr_15_1401,nback,2021.2.3,60.0326217094636,
0-back,instructions\back-0.png,conditions\03back-e.xlsx,,,experiment,0,3,stim\gray.png,stim\gray.png,stim\yellow.png,stim\gray.png,right,,,,,,,,,,,,,0,2,2,11,0,12,12,12,,,,,,,,,,,,,,,,,,,,,,,,,,,,,,,,,,,,,,,,,,,,,,,,,,,,,,,,right,1,0.41847610007971525,270.58193330001086,None,270.58193330001086,None,270.58193330001086,271.5840450001415,270.58193330001086,271.5840450001415,270.58193330001086,271.5840450001415,270.58193330001086,271.5840450001415,270.58193330001086,271.0828146999702,270.58193330001086,271.0828146999702,270.58193330001086,271.0828146999702,270.58193330001086,271.0828146999702,270.58193330001086,None,,,,,11046,001,2024_Apr_15_1401,nback,2021.2.3,60.0326217094636,
0-back,instructions\back-0.png,conditions\03back-e.xlsx,,,experiment,0,1,stim\yellow.png,stim\gray.png,stim\gray.png,stim\gray.png,up,,,,,,,,,,,,,0,2,2,11,0,13,13,13,,,,,,,,,,,,,,,,,,,,,,,,,,,,,,,,,,,,,,,,,,,,,,,,,,,,,,,,up,1,0.4035429998766631,272.08436740003526,None,272.08436740003526,None,272.08436740003526,273.08578840014525,272.08436740003526,273.08578840014525,272.08436740003526,273.08578840014525,272.08436740003526,273.08578840014525,272.08436740003526,272.58498480007984,272.08436740003526,272.58498480007984,272.08436740003526,272.58498480007984,272.08436740003526,272.58498480007984,272.08436740003526,None,,,,,11046,001,2024_Apr_15_1401,nback,2021.2.3,60.0326217094636,
0-back,instructions\back-0.png,conditions\03back-e.xlsx,,,experiment,0,2,stim\gray.png,stim\yellow.png,stim\gray.png,stim\gray.png,left,,,,,,,,,,,,,0,2,2,11,0,14,14,14,,,,,,,,,,,,,,,,,,,,,,,,,,,,,,,,,,,,,,,,,,,,,,,,,,,,,,,,left,1,0.3813128999900073,273.5864633000456,None,273.5864633000456,None,273.5864633000456,274.5883934001904,273.5864633000456,274.5883934001904,273.5864633000456,274.5883934001904,273.5864633000456,274.5883934001904,273.5864633000456,274.08733680006117,273.5864633000456,274.08733680006117,273.5864633000456,274.08733680006117,273.5864633000456,274.08733680006117,273.5864633000456,None,,,,,11046,001,2024_Apr_15_1401,nback,2021.2.3,60.0326217094636,
0-back,instructions\back-0.png,conditions\03back-e.xlsx,,,experiment,0,1,stim\yellow.png,stim\gray.png,stim\gray.png,stim\gray.png,up,,,,,,,,,,,,,0,2,2,11,0,15,15,15,,,,,,,,,,,,,,,,,,,,,,,,,,,,,,,,,,,,,,,,,,,,,,,,,,,,,,,,up,1,0.43896470009349287,275.0888140001334,None,275.0888140001334,None,275.0888140001334,276.09039260004647,275.0888140001334,276.09039260004647,275.0888140001334,276.09039260004647,275.0888140001334,276.09039260004647,275.0888140001334,275.5898290001787,275.0888140001334,275.5898290001787,275.0888140001334,275.5898290001787,275.0888140001334,275.5898290001787,275.0888140001334,None,,,,,11046,001,2024_Apr_15_1401,nback,2021.2.3,60.0326217094636,
0-back,instructions\back-0.png,conditions\03back-e.xlsx,,,experiment,0,3,stim\gray.png,stim\gray.png,stim\yellow.png,stim\gray.png,right,,,,,,,,,,,,,0,2,2,11,0,16,16,16,,,,,,,,,,,,,,,,,,,,,,,,,,,,,,,,,,,,,,,,,,,,,,,,,,,,,,,,right,1,0.46476890007033944,276.5917985001579,None,276.5917985001579,None,276.5917985001579,277.5927244001068,276.5917985001579,277.5927244001068,276.5917985001579,277.5927244001068,276.5917985001579,277.5927244001068,276.5917985001579,277.09186120005324,276.5917985001579,277.09186120005324,276.5917985001579,277.09186120005324,276.5917985001579,277.09186120005324,276.5917985001579,None,,,,,11046,001,2024_Apr_15_1401,nback,2021.2.3,60.0326217094636,
0-back,instructions\back-0.png,conditions\03back-e.xlsx,,,experiment,0,4,stim\gray.png,stim\gray.png,stim\gray.png,stim\yellow.png,down,,,,,,,,,,,,,0,2,2,11,0,17,17,17,,,,,,,,,,,,,,,,,,,,,,,,,,,,,,,,,,,,,,,,,,,,,,,,,,,,,,,,down,1,0.459329399978742,278.0768288001418,None,278.0768288001418,None,278.0768288001418,279.07858259999193,278.0768288001418,279.07858259999193,278.0768288001418,279.07858259999193,278.0768288001418,279.07858259999193,278.0768288001418,278.57744779996574,278.0768288001418,278.57744779996574,278.0768288001418,278.57744779996574,278.0768288001418,278.57744779996574,278.0768288001418,None,,,,,11046,001,2024_Apr_15_1401,nback,2021.2.3,60.0326217094636,
0-back,instructions\back-0.png,conditions\03back-e.xlsx,,,experiment,0,2,stim\gray.png,stim\yellow.png,stim\gray.png,stim\gray.png,left,,,,,,,,,,,,,0,2,2,11,0,18,18,18,,,,,,,,,,,,,,,,,,,,,,,,,,,,,,,,,,,,,,,,,,,,,,,,,,,,,,,,left,1,0.42935690004378557,279.5788396000862,None,279.5788396000862,None,279.5788396000862,280.5804077000357,279.5788396000862,280.5804077000357,279.5788396000862,280.5804077000357,279.5788396000862,280.5804077000357,279.5788396000862,280.0797783001326,279.5788396000862,280.0797783001326,279.5788396000862,280.0797783001326,279.5788396000862,280.0797783001326,279.5788396000862,None,,,,,11046,001,2024_Apr_15_1401,nback,2021.2.3,60.0326217094636,
0-back,instructions\back-0.png,conditions\03back-e.xlsx,,,experiment,0,2,stim\gray.png,stim\yellow.png,stim\gray.png,stim\gray.png,left,,,,,,,,,,,,,0,2,2,11,0,19,19,19,,,,,,,,,,,,,,,,,,,,,,,,,,,,,,,,,,,,,,,,,,,,,,,,,,,,,,,,left,1,0.646980999968946,281.08130490011536,None,281.08130490011536,None,281.08130490011536,282.0827927000355,281.08130490011536,282.0827927000355,281.08130490011536,282.0827927000355,281.08130490011536,282.0827927000355,281.08130490011536,281.5823664001655,281.08130490011536,281.5823664001655,281.08130490011536,281.5823664001655,281.08130490011536,281.5823664001655,281.08130490011536,None,,,,,11046,001,2024_Apr_15_1401,nback,2021.2.3,60.0326217094636,
0-back,instructions\back-0.png,conditions\03back-e.xlsx,,,,,,,,,,,,,,,,,,,,,,,0,2,2,11,,,,,,,,,,,,,,,,,,,,,,,,,,,,,,,,,,,,,,,,,,,,,,,,,,,,,,,,,,,,,,,,,,,,,,,,,,,,,,,,,,,,,282.58544729999267,None,,,11046,001,2024_Apr_15_1401,nback,2021.2.3,60.0326217094636,
2-back,instructions\back-2.png,conditions\21back-e.xlsx,,,experiment,2,3,stim\gray.png,stim\gray.png,stim\yellow.png,stim\gray.png,None,,,,,,,,,,,,,0,3,3,3,0,0,0,0,,,,,,,,,,,,,,,283.7510644001886,288.25907030003145,288.2102640999947,None,,,,,,,,,,,,,,,,,,,,,,,,,,,,,,,,,,,,,,None,1,,288.59292379999533,None,288.59292379999533,None,288.59292379999533,289.5946597000584,288.59292379999533,289.5946597000584,288.59292379999533,289.5946597000584,288.59292379999533,289.5946597000584,288.59292379999533,289.0932928000111,288.59292379999533,289.0932928000111,288.59292379999533,289.0932928000111,288.59292379999533,289.0932928000111,288.59292379999533,None,,,,,11046,001,2024_Apr_15_1401,nback,2021.2.3,60.0326217094636,
2-back,instructions\back-2.png,conditions\21back-e.xlsx,,,experiment,2,4,stim\gray.png,stim\gray.png,stim\gray.png,stim\yellow.png,None,,,,,,,,,,,,,0,3,3,3,0,1,1,1,,,,,,,,,,,,,,,,,,,,,,,,,,,,,,,,,,,,,,,,,,,,,,,,,,,,,,,,None,1,,290.0781466001645,None,290.0781466001645,None,290.0781466001645,291.07962370011955,290.0781466001645,291.07962370011955,290.0781466001645,291.07962370011955,290.0781466001645,291.07962370011955,290.0781466001645,290.5787261000369,290.0781466001645,290.5787261000369,290.0781466001645,290.5787261000369,290.0781466001645,290.5787261000369,290.0781466001645,None,,,,,11046,001,2024_Apr_15_1401,nback,2021.2.3,60.0326217094636,
2-back,instructions\back-2.png,conditions\21back-e.xlsx,,,experiment,2,1,stim\yellow.png,stim\gray.png,stim\gray.png,stim\gray.png,right,,,,,,,,,,,,,0,3,3,3,0,2,2,2,,,,,,,,,,,,,,,,,,,,,,,,,,,,,,,,,,,,,,,,,,,,,,,,,,,,,,,,right,1,0.46020119986496866,291.58040920016356,None,291.58040920016356,None,291.58040920016356,292.5814706000965,291.58040920016356,292.5814706000965,291.58040920016356,292.5814706000965,291.58040920016356,292.5814706000965,291.58040920016356,292.081123100128,291.58040920016356,292.081123100128,291.58040920016356,292.081123100128,291.58040920016356,292.081123100128,291.58040920016356,None,,,,,11046,001,2024_Apr_15_1401,nback,2021.2.3,60.0326217094636,
2-back,instructions\back-2.png,conditions\21back-e.xlsx,,,experiment,2,2,stim\gray.png,stim\yellow.png,stim\gray.png,stim\gray.png,down,,,,,,,,,,,,,0,3,3,3,0,3,3,3,,,,,,,,,,,,,,,,,,,,,,,,,,,,,,,,,,,,,,,,,,,,,,,,,,,,,,,,down,1,0.37501269998028874,293.082682200009,None,293.082682200009,None,293.082682200009,294.08420510008,293.082682200009,294.08420510008,293.082682200009,294.08420510008,293.082682200009,294.08420510008,293.082682200009,293.5834794000257,293.082682200009,293.5834794000257,293.082682200009,293.5834794000257,293.082682200009,293.5834794000257,293.082682200009,None,,,,,11046,001,2024_Apr_15_1401,nback,2021.2.3,60.0326217094636,
2-back,instructions\back-2.png,conditions\21back-e.xlsx,,,experiment,2,1,stim\yellow.png,stim\gray.png,stim\gray.png,stim\gray.png,up,,,,,,,,,,,,,0,3,3,3,0,4,4,4,,,,,,,,,,,,,,,,,,,,,,,,,,,,,,,,,,,,,,,,,,,,,,,,,,,,,,,,up,1,0.5119618999306113,294.58473950019106,None,294.58473950019106,None,294.58473950019106,295.58668659999967,294.58473950019106,295.58668659999967,294.58473950019106,295.58668659999967,294.58473950019106,295.58668659999967,294.58473950019106,295.08568730019033,294.58473950019106,295.08568730019033,294.58473950019106,295.08568730019033,294.58473950019106,295.08568730019033,294.58473950019106,None,,,,,11046,001,2024_Apr_15_1401,nback,2021.2.3,60.0326217094636,
2-back,instructions\back-2.png,conditions\21back-e.xlsx,,,experiment,2,2,stim\gray.png,stim\yellow.png,stim\gray.png,stim\gray.png,left,,,,,,,,,,,,,0,3,3,3,0,5,5,5,,,,,,,,,,,,,,,,,,,,,,,,,,,,,,,,,,,,,,,,,,,,,,,,,,,,,,,,left,1,0.49031749996356666,296.08703160006553,None,296.08703160006553,None,296.08703160006553,297.0886295000091,296.08703160006553,297.0886295000091,296.08703160006553,297.0886295000091,296.08703160006553,297.0886295000091,296.08703160006553,296.58802090003155,296.08703160006553,296.58802090003155,296.08703160006553,296.58802090003155,296.08703160006553,296.58802090003155,296.08703160006553,None,,,,,11046,001,2024_Apr_15_1401,nback,2021.2.3,60.0326217094636,
2-back,instructions\back-2.png,conditions\21back-e.xlsx,,,experiment,2,3,stim\gray.png,stim\gray.png,stim\yellow.png,stim\gray.png,up,,,,,,,,,,,,,0,3,3,3,0,6,6,6,,,,,,,,,,,,,,,,,,,,,,,,,,,,,,,,,,,,,,,,,,,,,,,,,,,,,,,,up,1,0.43582890019752085,297.58877040003426,None,297.58877040003426,None,297.58877040003426,298.5910215000622,297.58877040003426,298.5910215000622,297.58877040003426,298.5910215000622,297.58877040003426,298.5910215000622,297.58877040003426,298.0901121001225,297.58877040003426,298.0901121001225,297.58877040003426,298.0901121001225,297.58877040003426,298.0901121001225,297.58877040003426,None,,,,,11046,001,2024_Apr_15_1401,nback,2021.2.3,60.0326217094636,
2-back,instructions\back-2.png,conditions\21back-e.xlsx,,,experiment,2,4,stim\gray.png,stim\gray.png,stim\gray.png,stim\yellow.png,left,,,,,,,,,,,,,0,3,3,3,0,7,7,7,,,,,,,,,,,,,,,,,,,,,,,,,,,,,,,,,,,,,,,,,,,,,,,,,,,,,,,,left,1,0.29331129998899996,299.09169850009494,None,299.09169850009494,None,299.09169850009494,300.093229399994,299.09169850009494,300.093229399994,299.09169850009494,300.093229399994,299.09169850009494,300.093229399994,299.09169850009494,299.59247769997455,299.09169850009494,299.59247769997455,299.09169850009494,299.59247769997455,299.09169850009494,299.59247769997455,299.09169850009494,None,,,,,11046,001,2024_Apr_15_1401,nback,2021.2.3,60.0326217094636,
2-back,instructions\back-2.png,conditions\21back-e.xlsx,,,experiment,2,3,stim\gray.png,stim\gray.png,stim\yellow.png,stim\gray.png,right,,,,,,,,,,,,,0,3,3,3,0,8,8,8,,,,,,,,,,,,,,,,,,,,,,,,,,,,,,,,,,,,,,,,,,,,,,,,,,,,,,,,right,1,0.3115548000205308,300.57723100017756,None,300.57723100017756,None,300.57723100017756,301.5786725000944,300.57723100017756,301.5786725000944,300.57723100017756,301.5786725000944,300.57723100017756,301.5786725000944,300.57723100017756,301.07801329996437,300.57723100017756,301.07801329996437,300.57723100017756,301.07801329996437,300.57723100017756,301.07801329996437,300.57723100017756,None,,,,,11046,001,2024_Apr_15_1401,nback,2021.2.3,60.0326217094636,
2-back,instructions\back-2.png,conditions\21back-e.xlsx,,,experiment,2,1,stim\yellow.png,stim\gray.png,stim\gray.png,stim\gray.png,down,,,,,,,,,,,,,0,3,3,3,0,9,9,9,,,,,,,,,,,,,,,,,,,,,,,,,,,,,,,,,,,,,,,,,,,,,,,,,,,,,,,,down,1,0.04960260004736483,302.0795595999807,None,302.0795595999807,None,302.0795595999807,303.0811962999869,302.0795595999807,303.0811962999869,302.0795595999807,303.0811962999869,302.0795595999807,303.0811962999869,302.0795595999807,302.58019320014864,302.0795595999807,302.58019320014864,302.0795595999807,302.58019320014864,302.0795595999807,302.58019320014864,302.0795595999807,None,,,,,11046,001,2024_Apr_15_1401,nback,2021.2.3,60.0326217094636,
2-back,instructions\back-2.png,conditions\21back-e.xlsx,,,experiment,2,4,stim\gray.png,stim\gray.png,stim\gray.png,stim\yellow.png,right,,,,,,,,,,,,,0,3,3,3,0,10,10,10,,,,,,,,,,,,,,,,,,,,,,,,,,,,,,,,,,,,,,,,,,,,,,,,,,,,,,,,right,1,0.21896620001643896,303.5818323001731,None,303.5818323001731,None,303.5818323001731,304.5834075000603,303.5818323001731,304.5834075000603,303.5818323001731,304.5834075000603,303.5818323001731,304.5834075000603,303.5818323001731,304.08251000009477,303.5818323001731,304.08251000009477,303.5818323001731,304.08251000009477,303.5818323001731,304.08251000009477,303.5818323001731,None,,,,,11046,001,2024_Apr_15_1401,nback,2021.2.3,60.0326217094636,
2-back,instructions\back-2.png,conditions\21back-e.xlsx,,,experiment,2,2,stim\gray.png,stim\yellow.png,stim\gray.png,stim\gray.png,up,,,,,,,,,,,,,0,3,3,3,0,11,11,11,,,,,,,,,,,,,,,,,,,,,,,,,,,,,,,,,,,,,,,,,,,,,,,,,,,,,,,,down,0,0.24494789983145893,305.0839138000738,None,305.0839138000738,None,305.0839138000738,306.0856055000331,305.0839138000738,306.0856055000331,305.0839138000738,306.0856055000331,305.0839138000738,306.0856055000331,305.0839138000738,305.5852143999655,305.0839138000738,305.5852143999655,305.0839138000738,305.5852143999655,305.0839138000738,305.5852143999655,305.0839138000738,None,,,,,11046,001,2024_Apr_15_1401,nback,2021.2.3,60.0326217094636,
2-back,instructions\back-2.png,conditions\21back-e.xlsx,,,experiment,2,4,stim\gray.png,stim\gray.png,stim\gray.png,stim\yellow.png,down,,,,,,,,,,,,,0,3,3,3,0,12,12,12,,,,,,,,,,,,,,,,,,,,,,,,,,,,,,,,,,,,,,,,,,,,,,,,,,,,,,,,up,0,0.26267960015684366,306.58632260002196,None,306.58632260002196,None,306.58632260002196,307.5877434001304,306.58632260002196,307.5877434001304,306.58632260002196,307.5877434001304,306.58632260002196,307.5877434001304,306.58632260002196,307.08686030004174,306.58632260002196,307.08686030004174,306.58632260002196,307.08686030004174,306.58632260002196,307.08686030004174,306.58632260002196,None,,,,,11046,001,2024_Apr_15_1401,nback,2021.2.3,60.0326217094636,
2-back,instructions\back-2.png,conditions\21back-e.xlsx,,,experiment,2,3,stim\gray.png,stim\gray.png,stim\yellow.png,stim\gray.png,left,,,,,,,,,,,,,0,3,3,3,0,13,13,13,,,,,,,,,,,,,,,,,,,,,,,,,,,,,,,,,,,,,,,,,,,,,,,,,,,,,,,,left,1,0.11959600006230175,308.08920709998347,None,308.08920709998347,None,308.08920709998347,309.09027960011736,308.08920709998347,309.09027960011736,308.08920709998347,309.09027960011736,308.08920709998347,309.09027960011736,308.08920709998347,308.58927680016495,308.08920709998347,308.58927680016495,308.08920709998347,308.58927680016495,308.08920709998347,308.58927680016495,308.08920709998347,None,,,,,11046,001,2024_Apr_15_1401,nback,2021.2.3,60.0326217094636,
2-back,instructions\back-2.png,conditions\21back-e.xlsx,,,experiment,2,1,stim\yellow.png,stim\gray.png,stim\gray.png,stim\gray.png,down,,,,,,,,,,,,,0,3,3,3,0,14,14,14,,,,,,,,,,,,,,,,,,,,,,,,,,,,,,,,,,,,,,,,,,,,,,,,,,,,,,,,down,1,0.19417190016247332,309.5909818999935,None,309.5909818999935,None,309.5909818999935,310.59221919998527,309.5909818999935,310.59221919998527,309.5909818999935,310.59221919998527,309.5909818999935,310.59221919998527,309.5909818999935,310.0915098001715,309.5909818999935,310.0915098001715,309.5909818999935,310.0915098001715,309.5909818999935,310.0915098001715,309.5909818999935,None,,,,,11046,001,2024_Apr_15_1401,nback,2021.2.3,60.0326217094636,
2-back,instructions\back-2.png,conditions\21back-e.xlsx,,,experiment,2,2,stim\gray.png,stim\yellow.png,stim\gray.png,stim\gray.png,right,,,,,,,,,,,,,0,3,3,3,0,15,15,15,,,,,,,,,,,,,,,,,,,,,,,,,,,,,,,,,,,,,,,,,,,,,,,,,,,,,,,,right,1,0.21982969995588064,311.0768991999794,None,311.0768991999794,None,311.0768991999794,312.07817090000026,311.0768991999794,312.07817090000026,311.0768991999794,312.07817090000026,311.0768991999794,312.07817090000026,311.0768991999794,311.5774461000692,311.0768991999794,311.5774461000692,311.0768991999794,311.5774461000692,311.0768991999794,311.5774461000692,311.0768991999794,None,,,,,11046,001,2024_Apr_15_1401,nback,2021.2.3,60.0326217094636,
2-back,instructions\back-2.png,conditions\21back-e.xlsx,,,experiment,2,2,stim\gray.png,stim\yellow.png,stim\gray.png,stim\gray.png,up,,,,,,,,,,,,,0,3,3,3,0,16,16,16,,,,,,,,,,,,,,,,,,,,,,,,,,,,,,,,,,,,,,,,,,,,,,,,,,,,,,,,up,1,0.286608399823308,312.5785342999734,None,312.5785342999734,None,312.5785342999734,313.58047160017304,312.5785342999734,313.58047160017304,312.5785342999734,313.58047160017304,312.5785342999734,313.58047160017304,312.5785342999734,313.07954449998215,312.5785342999734,313.07954449998215,312.5785342999734,313.07954449998215,312.5785342999734,313.07954449998215,312.5785342999734,None,,,,,11046,001,2024_Apr_15_1401,nback,2021.2.3,60.0326217094636,
2-back,instructions\back-2.png,conditions\21back-e.xlsx,,,experiment,2,1,stim\yellow.png,stim\gray.png,stim\gray.png,stim\gray.png,left,,,,,,,,,,,,,0,3,3,3,0,17,17,17,,,,,,,,,,,,,,,,,,,,,,,,,,,,,,,,,,,,,,,,,,,,,,,,,,,,,,,,left,1,0.27209169999696314,314.0811356001068,None,314.0811356001068,None,314.0811356001068,315.08298250008374,314.0811356001068,315.08298250008374,314.0811356001068,315.08298250008374,314.0811356001068,315.08298250008374,314.0811356001068,314.58169890008867,314.0811356001068,314.58169890008867,314.0811356001068,314.58169890008867,314.0811356001068,314.58169890008867,314.0811356001068,None,,,,,11046,001,2024_Apr_15_1401,nback,2021.2.3,60.0326217094636,
