backseq,backinstr,backfile,instruction,size_in,Trialtype,back,number,P1,P2,P3,P4,corrAns,trials_practice.thisRepN,trials_practice.thisTrialN,trials_practice.thisN,trials_practice.thisIndex,trials.thisRepN,trials.thisTrialN,trials.thisN,trials.thisIndex,trials_3.thisRepN,trials_3.thisTrialN,trials_3.thisN,trials_3.thisIndex,trials_2.thisRepN,trials_2.thisTrialN,trials_2.thisN,trials_2.thisIndex,trials_4.thisRepN,trials_4.thisTrialN,trials_4.thisN,trials_4.thisIndex,image.started,image.stopped,image_2.started,image_2.stopped,key_resp.keys,key_resp.rt,key_resp.started,key_resp.stopped,image_3.started,image_3.stopped,key_resp_2.keys,key_resp_2.rt,key_resp_2.started,key_resp_2.stopped,image_4.started,image_4.stopped,text.started,text.stopped,H1.started,H1.stopped,H2.started,H2.stopped,H3.started,H3.stopped,H4.started,H4.stopped,key_resp_3.keys,key_resp_3.corr,key_resp_3.rt,key_resp_3.started,key_resp_3.stopped,text_4.started,text_4.stopped,F1.started,F1.stopped,F2.started,F2.stopped,F3.started,F3.stopped,F4.started,F4.stopped,image_7.started,image_7.stopped,text_5.started,text_5.stopped,key_resp_6.keys,key_resp_6.rt,key_resp_6.started,key_resp_6.stopped,image_5.started,image_5.stopped,key_resp_4.keys,key_resp_4.rt,key_resp_4.started,key_resp_4.stopped,key_resp_5.keys,key_resp_5.corr,key_resp_5.started,key_resp_5.stopped,text_3.started,text_3.stopped,H1_2.started,H1_2.stopped,H2_2.started,H2_2.stopped,H3_2.started,H3_2.stopped,H4_2.started,H4_2.stopped,F1_2.started,F1_2.stopped,F2_2.started,F2_2.stopped,F3_2.started,F3_2.stopped,F4_2.started,F4_2.stopped,image_8.started,image_8.stopped,key_resp_5.rt,text_2.started,text_2.stopped,image_6.started,image_6.stopped,participant,session,date,expName,psychopyVersion,frameRate,
,,,,,,,,,,,,,,,,,,,,,,,,,,,,,,,,,10.282288800008246,None,11.217098799999803,None,space,9.882463200003258,11.217098799999803,None,,,,,,,,,,,,,,,,,,,,,,,,,,,,,,,,,,,,,,,,,,,,,,,,,,,,,,,,,,,,,,,,,,,,,,,,,,,,,11044,001,2024_Mar_24_1030,nback,2021.2.3,59.595252880709005,
0-back,instructions\back-0.png,conditions\0back-p.xlsx,instructions\0-BACK.png,"(15, 8)",practice,0,1,stim\yellow.png,stim\gray.png,stim\gray.png,stim\gray.png,up,0,0,0,0,0,0,0,0,0,0,0,0,,,,,,,,,,,,,,,,,21.166236900011427,None,space,2.7177166000037687,21.166236900011427,None,24.019285400005174,28.526334300011513,28.492804400011664,None,28.97700710000936,29.978411400006735,28.97700710000936,29.978411400006735,28.97700710000936,29.978411400006735,28.97700710000936,29.978411400006735,up,1,0.8108800000045449,28.97700710000936,None,28.97700710000936,None,28.97700710000936,29.47769140001037,28.97700710000936,29.47769140001037,28.97700710000936,29.47769140001037,28.97700710000936,29.47769140001037,28.97700710000936,None,,,,,,,,,,,,,,,,,,,,,,,,,,,,,,,,,,,,,,,,,,11044,001,2024_Mar_24_1030,nback,2021.2.3,59.595252880709005,
0-back,instructions\back-0.png,conditions\0back-p.xlsx,instructions\0-BACK.png,"(15, 8)",practice,0,2,stim\gray.png,stim\yellow.png,stim\gray.png,stim\gray.png,left,0,0,0,0,0,0,0,0,0,1,1,1,,,,,,,,,,,,,,,,,,,,,,,,,,,30.41300179999962,31.414818800010835,30.41300179999962,31.414818800010835,30.41300179999962,31.414818800010835,30.41300179999962,31.414818800010835,left,1,0.526891000001342,30.41300179999962,None,30.41300179999962,None,30.41300179999962,30.913151000000653,30.41300179999962,30.913151000000653,30.41300179999962,30.913151000000653,30.41300179999962,30.913151000000653,30.41300179999962,None,,,,,,,,,,,,,,,,,,,,,,,,,,,,,,,,,,,,,,,,,,11044,001,2024_Mar_24_1030,nback,2021.2.3,59.595252880709005,
0-back,instructions\back-0.png,conditions\0back-p.xlsx,instructions\0-BACK.png,"(15, 8)",practice,0,3,stim\gray.png,stim\gray.png,stim\yellow.png,stim\gray.png,right,0,0,0,0,0,0,0,0,0,2,2,2,,,,,,,,,,,,,,,,,,,,,,,,,,,31.914722000001348,32.91620250001142,31.914722000001348,32.91620250001142,31.914722000001348,32.91620250001142,31.914722000001348,32.91620250001142,right,1,0.43370649999997113,31.914722000001348,None,31.914722000001348,None,31.914722000001348,32.415328200004296,31.914722000001348,32.415328200004296,31.914722000001348,32.415328200004296,31.914722000001348,32.415328200004296,31.914722000001348,None,,,,,,,,,,,,,,,,,,,,,,,,,,,,,,,,,,,,,,,,,,11044,001,2024_Mar_24_1030,nback,2021.2.3,59.595252880709005,
0-back,instructions\back-0.png,conditions\0back-p.xlsx,instructions\0-BACK.png,"(15, 8)",practice,0,4,stim\gray.png,stim\gray.png,stim\gray.png,stim\yellow.png,down,0,0,0,0,0,0,0,0,0,3,3,3,,,,,,,,,,,,,,,,,,,,,,,,,,,33.41672990001098,34.41847620000772,33.41672990001098,34.41847620000772,33.41672990001098,34.41847620000772,33.41672990001098,34.41847620000772,down,1,0.4354996000038227,33.41672990001098,None,33.41672990001098,None,33.41672990001098,33.918424800009234,33.41672990001098,33.918424800009234,33.41672990001098,33.918424800009234,33.41672990001098,33.918424800009234,33.41672990001098,None,,,,,,,,,,,,,,,,,,,,,,,,,,,,,,,,,,,,,,,,,,11044,001,2024_Mar_24_1030,nback,2021.2.3,59.595252880709005,
0-back,instructions\back-0.png,conditions\0back-p.xlsx,instructions\0-BACK.png,"(15, 8)",practice,0,2,stim\gray.png,stim\yellow.png,stim\gray.png,stim\gray.png,left,0,0,0,0,0,0,0,0,0,4,4,4,,,,,,,,,,,,,,,,,,,,,,,,,,,34.919163300000946,35.92071730000316,34.919163300000946,35.92071730000316,34.919163300000946,35.92071730000316,34.919163300000946,35.92071730000316,left,1,0.6369178000022657,34.919163300000946,None,34.919163300000946,None,34.919163300000946,35.41971480000939,34.919163300000946,35.41971480000939,34.919163300000946,35.41971480000939,34.919163300000946,35.41971480000939,34.919163300000946,None,,,,,,,,,,,,,,,,,,,,,,,,,,,,,,,,,,,,,,,,,,11044,001,2024_Mar_24_1030,nback,2021.2.3,59.595252880709005,
0-back,instructions\back-0.png,conditions\0back-p.xlsx,instructions\0-BACK.png,"(15, 8)",practice,0,1,stim\yellow.png,stim\gray.png,stim\gray.png,stim\gray.png,up,0,0,0,0,0,0,0,0,0,5,5,5,,,,,,,,,,,,,,,,,,,,,,,,,,,36.4214146000013,37.42297030000191,36.4214146000013,37.42297030000191,36.4214146000013,37.42297030000191,36.4214146000013,37.42297030000191,up,1,0.4146848000091268,36.4214146000013,None,36.4214146000013,None,36.4214146000013,36.92206460000307,36.4214146000013,36.92206460000307,36.4214146000013,36.92206460000307,36.4214146000013,36.92206460000307,36.4214146000013,None,,,,,,,,,,,,,,,,,,,,,,,,,,,,,,,,,,,,,,,,,,11044,001,2024_Mar_24_1030,nback,2021.2.3,59.595252880709005,
0-back,instructions\back-0.png,conditions\0back-p.xlsx,instructions\0-BACK.png,"(15, 8)",practice,0,4,stim\gray.png,stim\gray.png,stim\gray.png,stim\yellow.png,down,0,0,0,0,0,0,0,0,0,6,6,6,,,,,,,,,,,,,,,,,,,,,,,,,,,37.90684690000489,38.90840980000212,37.90684690000489,38.90840980000212,37.90684690000489,38.90840980000212,37.90684690000489,38.90840980000212,down,1,0.5135579999914626,37.90684690000489,None,37.90684690000489,None,37.90684690000489,38.40790190000553,37.90684690000489,38.40790190000553,37.90684690000489,38.40790190000553,37.90684690000489,38.40790190000553,37.90684690000489,None,,,,,,,,,,,,,,,,,,,,,,,,,,,,,,,,,,,,,,,,,,11044,001,2024_Mar_24_1030,nback,2021.2.3,59.595252880709005,
0-back,instructions\back-0.png,conditions\0back-p.xlsx,instructions\0-BACK.png,"(15, 8)",practice,0,3,stim\gray.png,stim\gray.png,stim\yellow.png,stim\gray.png,right,0,0,0,0,0,0,0,0,0,7,7,7,,,,,,,,,,,,,,,,,,,,,,,,,,,39.40923830000975,40.41082640000968,39.40923830000975,40.41082640000968,39.40923830000975,40.41082640000968,39.40923830000975,40.41082640000968,right,1,0.39519160000781994,39.40923830000975,None,39.40923830000975,None,39.40923830000975,39.90999320000992,39.40923830000975,39.90999320000992,39.40923830000975,39.90999320000992,39.40923830000975,39.90999320000992,39.40923830000975,None,,,,,,,,,,,,,,,,,,,,,,,,,,,,,,,,,,,,,,,,,,11044,001,2024_Mar_24_1030,nback,2021.2.3,59.595252880709005,
0-back,instructions\back-0.png,conditions\0back-p.xlsx,instructions\0-BACK.png,"(15, 8)",practice,0,3,stim\gray.png,stim\gray.png,stim\yellow.png,stim\gray.png,right,0,0,0,0,0,0,0,0,0,8,8,8,,,,,,,,,,,,,,,,,,,,,,,,,,,40.91153280000435,41.912924900010694,40.91153280000435,41.912924900010694,40.91153280000435,41.912924900010694,40.91153280000435,41.912924900010694,right,1,0.38896789999853354,40.91153280000435,None,40.91153280000435,None,40.91153280000435,41.41224630000943,40.91153280000435,41.41224630000943,40.91153280000435,41.41224630000943,40.91153280000435,41.41224630000943,40.91153280000435,None,,,,,,,,,,,,,,,,,,,,,,,,,,,,,,,,,,,,,,,,,,11044,001,2024_Mar_24_1030,nback,2021.2.3,59.595252880709005,
0-back,instructions\back-0.png,conditions\0back-p.xlsx,instructions\0-BACK.png,"(15, 8)",practice,0,4,stim\gray.png,stim\gray.png,stim\gray.png,stim\yellow.png,down,0,0,0,0,0,0,0,0,0,9,9,9,,,,,,,,,,,,,,,,,,,,,,,,,,,42.41402390001167,43.415241900002,42.41402390001167,43.415241900002,42.41402390001167,43.415241900002,42.41402390001167,43.415241900002,down,1,0.40713220000907313,42.41402390001167,None,42.41402390001167,None,42.41402390001167,42.915033800003584,42.41402390001167,42.915033800003584,42.41402390001167,42.915033800003584,42.41402390001167,42.915033800003584,42.41402390001167,None,,,,,,,,,,,,,,,,,,,,,,,,,,,,,,,,,,,,,,,,,,11044,001,2024_Mar_24_1030,nback,2021.2.3,59.595252880709005,
0-back,instructions\back-0.png,conditions\0back-p.xlsx,instructions\0-BACK.png,"(15, 8)",practice,0,1,stim\yellow.png,stim\gray.png,stim\gray.png,stim\gray.png,up,0,0,0,0,0,0,0,0,0,10,10,10,,,,,,,,,,,,,,,,,,,,,,,,,,,43.915919500010205,44.917685200009146,43.915919500010205,44.917685200009146,43.915919500010205,44.917685200009146,43.915919500010205,44.917685200009146,up,1,0.40860359999351203,43.915919500010205,None,43.915919500010205,None,43.915919500010205,44.41678700000921,43.915919500010205,44.41678700000921,43.915919500010205,44.41678700000921,43.915919500010205,44.41678700000921,43.915919500010205,None,,,,,,,,,,,,,,,,,,,,,,,,,,,,,,,,,,,,,,,,,,11044,001,2024_Mar_24_1030,nback,2021.2.3,59.595252880709005,
0-back,instructions\back-0.png,conditions\0back-p.xlsx,instructions\0-BACK.png,"(15, 8)",practice,0,2,stim\gray.png,stim\yellow.png,stim\gray.png,stim\gray.png,left,0,0,0,0,0,0,0,0,0,11,11,11,,,,,,,,,,,,,,,,,,,,,,,,,,,45.418355200003134,46.42056300000695,45.418355200003134,46.42056300000695,45.418355200003134,46.42056300000695,45.418355200003134,46.42056300000695,left,1,0.3220255000051111,45.418355200003134,None,45.418355200003134,None,45.418355200003134,45.91925900000206,45.418355200003134,45.91925900000206,45.418355200003134,45.91925900000206,45.418355200003134,45.91925900000206,45.418355200003134,None,,,,,,,,,,,,,,,,,,,,,,,,,,,,,,,,,,,,,,,,,,11044,001,2024_Mar_24_1030,nback,2021.2.3,59.595252880709005,
0-back,instructions\back-0.png,conditions\0back-p.xlsx,instructions\0-BACK.png,"(15, 8)",practice,0,4,stim\gray.png,stim\gray.png,stim\gray.png,stim\yellow.png,down,0,0,0,0,0,0,0,0,0,12,12,12,,,,,,,,,,,,,,,,,,,,,,,,,,,46.92094920000818,47.922175500003505,46.92094920000818,47.922175500003505,46.92094920000818,47.922175500003505,46.92094920000818,47.922175500003505,down,1,0.5474470000044676,46.92094920000818,None,46.92094920000818,None,46.92094920000818,47.42148060000909,46.92094920000818,47.42148060000909,46.92094920000818,47.42148060000909,46.92094920000818,47.42148060000909,46.92094920000818,None,,,,,,,,,,,,,,,,,,,,,,,,,,,,,,,,,,,,,,,,,,11044,001,2024_Mar_24_1030,nback,2021.2.3,59.595252880709005,
0-back,instructions\back-0.png,conditions\0back-p.xlsx,instructions\0-BACK.png,"(15, 8)",practice,0,3,stim\gray.png,stim\gray.png,stim\yellow.png,stim\gray.png,right,0,0,0,0,0,0,0,0,0,13,13,13,,,,,,,,,,,,,,,,,,,,,,,,,,,48.40624850000313,49.40775480000593,48.40624850000313,49.40775480000593,48.40624850000313,49.40775480000593,48.40624850000313,49.40775480000593,right,1,0.5984699999971781,48.40624850000313,None,48.40624850000313,None,48.40624850000313,48.906872999999905,48.40624850000313,48.906872999999905,48.40624850000313,48.906872999999905,48.40624850000313,48.906872999999905,48.40624850000313,None,,,,,,,,,,,,,,,,,,,,,,,,,,,,,,,,,,,,,,,,,,11044,001,2024_Mar_24_1030,nback,2021.2.3,59.595252880709005,
0-back,instructions\back-0.png,conditions\0back-p.xlsx,instructions\0-BACK.png,"(15, 8)",practice,0,1,stim\yellow.png,stim\gray.png,stim\gray.png,stim\gray.png,up,0,0,0,0,0,0,0,0,0,14,14,14,,,,,,,,,,,,,,,,,,,,,,,,,,,49.90850910000154,50.909840899999836,49.90850910000154,50.909840899999836,49.90850910000154,50.909840899999836,49.90850910000154,50.909840899999836,up,1,0.3841616999998223,49.90850910000154,None,49.90850910000154,None,49.90850910000154,50.40926510001009,49.90850910000154,50.40926510001009,49.90850910000154,50.40926510001009,49.90850910000154,50.40926510001009,49.90850910000154,None,,,,,,,,,,,,,,,,,,,,,,,,,,,,,,,,,,,,,,,,,,11044,001,2024_Mar_24_1030,nback,2021.2.3,59.595252880709005,
0-back,instructions\back-0.png,conditions\0back-p.xlsx,instructions\0-BACK.png,"(15, 8)",practice,0,2,stim\gray.png,stim\yellow.png,stim\gray.png,stim\gray.png,left,0,0,0,0,0,0,0,0,0,15,15,15,,,,,,,,,,,,,,,,,,,,,,,,,,,51.41066960000899,52.41213070000231,51.41066960000899,52.41213070000231,51.41066960000899,52.41213070000231,51.41066960000899,52.41213070000231,left,1,0.5142111999884946,51.41066960000899,None,51.41066960000899,None,51.41066960000899,51.911594500008505,51.41066960000899,51.911594500008505,51.41066960000899,51.911594500008505,51.41066960000899,51.911594500008505,51.41066960000899,None,,,,,,,,,,,,,,,,,,,,,,,,,,,,,,,,,,,,,,,,,,11044,001,2024_Mar_24_1030,nback,2021.2.3,59.595252880709005,
0-back,instructions\back-0.png,conditions\0back-p.xlsx,instructions\0-BACK.png,"(15, 8)",practice,0,3,stim\gray.png,stim\gray.png,stim\yellow.png,stim\gray.png,right,0,0,0,0,0,0,0,0,0,16,16,16,,,,,,,,,,,,,,,,,,,,,,,,,,,52.913080800004536,53.91506440000376,52.913080800004536,53.91506440000376,52.913080800004536,53.91506440000376,52.913080800004536,53.91506440000376,right,1,0.5235989999928279,52.913080800004536,None,52.913080800004536,None,52.913080800004536,53.41361830000824,52.913080800004536,53.41361830000824,52.913080800004536,53.41361830000824,52.913080800004536,53.41361830000824,52.913080800004536,None,,,,,,,,,,,,,,,,,,,,,,,,,,,,,,,,,,,,,,,,,,11044,001,2024_Mar_24_1030,nback,2021.2.3,59.595252880709005,
0-back,instructions\back-0.png,conditions\0back-p.xlsx,instructions\0-BACK.png,"(15, 8)",practice,0,1,stim\yellow.png,stim\gray.png,stim\gray.png,stim\gray.png,up,0,0,0,0,0,0,0,0,0,17,17,17,,,,,,,,,,,,,,,,,,,,,,,,,,,54.41519280000648,55.41736180000589,54.41519280000648,55.41736180000589,54.41519280000648,55.41736180000589,54.41519280000648,55.41736180000589,up,1,0.5095879000000423,54.41519280000648,None,54.41519280000648,None,54.41519280000648,54.916188700008206,54.41519280000648,54.916188700008206,54.41519280000648,54.916188700008206,54.41519280000648,54.916188700008206,54.41519280000648,None,,,,,,,,,,,,,,,,,,,,,,,,,,,,,,,,,,,,,,,,,,11044,001,2024_Mar_24_1030,nback,2021.2.3,59.595252880709005,
0-back,instructions\back-0.png,conditions\0back-p.xlsx,instructions\0-BACK.png,"(15, 8)",practice,0,4,stim\gray.png,stim\gray.png,stim\gray.png,stim\yellow.png,down,0,0,0,0,0,0,0,0,0,18,18,18,,,,,,,,,,,,,,,,,,,,,,,,,,,55.917618500010576,56.918989800004056,55.917618500010576,56.918989800004056,55.917618500010576,56.918989800004056,55.917618500010576,56.918989800004056,down,1,0.39209959999425337,55.917618500010576,None,55.917618500010576,None,55.917618500010576,56.418218100006925,55.917618500010576,56.418218100006925,55.917618500010576,56.418218100006925,55.917618500010576,56.418218100006925,55.917618500010576,None,,,,,,,,,,,,,,,,,,,,,,,,,,,,,,,,,,,,,,,,,,11044,001,2024_Mar_24_1030,nback,2021.2.3,59.595252880709005,
0-back,instructions\back-0.png,conditions\0back-p.xlsx,instructions\0-BACK.png,"(15, 8)",practice,0,2,stim\gray.png,stim\yellow.png,stim\gray.png,stim\gray.png,left,0,0,0,0,0,0,0,0,0,19,19,19,,,,,,,,,,,,,,,,,,,,,,,,,,,57.41987820000213,58.42136860000028,57.41987820000213,58.42136860000028,57.41987820000213,58.42136860000028,57.41987820000213,58.42136860000028,left,1,0.47286829999939073,57.41987820000213,None,57.41987820000213,None,57.41987820000213,57.9205304000061,57.41987820000213,57.9205304000061,57.41987820000213,57.9205304000061,57.41987820000213,57.9205304000061,57.41987820000213,None,,,,,,,,,,,,,,,,,,,,,,,,,,,,,,,,,,,,,,,,,,11044,001,2024_Mar_24_1030,nback,2021.2.3,59.595252880709005,
0-back,instructions\back-0.png,conditions\0back-p.xlsx,instructions\0-BACK.png,"(15, 8)",,,,,,,,,0,0,0,0,0,0,0,0,,,,,,,,,,,,,,,,,,,,,,,,,,,,,,,,,,,,,,,,,,,,,,,,,,,,,,,,,,,,,,,,,,,,,,,,,,,,,,,,,,,,,,,,,,,,,,,,,11044,001,2024_Mar_24_1030,nback,2021.2.3,59.595252880709005,
1-back,instructions\back-1.png,conditions\1back-p.xlsx,instructions\1-BACK.png,"(25, 15)",practice,1,1,stim\yellow.png,stim\gray.png,stim\gray.png,stim\gray.png,None,0,0,0,0,0,1,1,1,0,0,0,0,,,,,,,,,,,,,,,,,59.05550950000179,None,space,3.829770099997404,59.05550950000179,None,63.012626299998374,67.51821259999997,67.50345770000422,None,67.93608280000626,68.93769640001119,67.93608280000626,68.93769640001119,67.93608280000626,68.93769640001119,67.93608280000626,68.93769640001119,None,1,,67.93608280000626,None,67.93608280000626,None,67.93608280000626,68.43612230000144,67.93608280000626,68.43612230000144,67.93608280000626,68.43612230000144,67.93608280000626,68.43612230000144,67.93608280000626,None,,,,,,,,,,,,,,,,,,,,,,,,,,,,,,,,,,,,,,,,,,11044,001,2024_Mar_24_1030,nback,2021.2.3,59.595252880709005,
1-back,instructions\back-1.png,conditions\1back-p.xlsx,instructions\1-BACK.png,"(25, 15)",practice,1,2,stim\gray.png,stim\yellow.png,stim\gray.png,stim\gray.png,up,0,0,0,0,0,1,1,1,0,1,1,1,,,,,,,,,,,,,,,,,,,,,,,,,,,69.4214467999991,70.42298370000208,69.4214467999991,70.42298370000208,69.4214467999991,70.42298370000208,69.4214467999991,70.42298370000208,up,1,0.9518581000011181,69.4214467999991,None,69.4214467999991,None,69.4214467999991,69.92196420000982,69.4214467999991,69.92196420000982,69.4214467999991,69.92196420000982,69.4214467999991,69.92196420000982,69.4214467999991,None,,,,,,,,,,,,,,,,,,,,,,,,,,,,,,,,,,,,,,,,,,11044,001,2024_Mar_24_1030,nback,2021.2.3,59.595252880709005,
1-back,instructions\back-1.png,conditions\1back-p.xlsx,instructions\1-BACK.png,"(25, 15)",practice,1,3,stim\gray.png,stim\gray.png,stim\yellow.png,stim\gray.png,left,0,0,0,0,0,1,1,1,0,2,2,2,,,,,,,,,,,,,,,,,,,,,,,,,,,70.92343059999985,71.92606720000913,70.92343059999985,71.92606720000913,70.92343059999985,71.92606720000913,70.92343059999985,71.92606720000913,left,1,0.4660658000066178,70.92343059999985,None,70.92343059999985,None,70.92343059999985,71.42421769999783,70.92343059999985,71.42421769999783,70.92343059999985,71.42421769999783,70.92343059999985,71.42421769999783,70.92343059999985,None,,,,,,,,,,,,,,,,,,,,,,,,,,,,,,,,,,,,,,,,,,11044,001,2024_Mar_24_1030,nback,2021.2.3,59.595252880709005,
1-back,instructions\back-1.png,conditions\1back-p.xlsx,instructions\1-BACK.png,"(25, 15)",practice,1,4,stim\gray.png,stim\gray.png,stim\gray.png,stim\yellow.png,right,0,0,0,0,0,1,1,1,0,3,3,3,,,,,,,,,,,,,,,,,,,,,,,,,,,72.42695000000822,73.42720590000681,72.42695000000822,73.42720590000681,72.42695000000822,73.42720590000681,72.42695000000822,73.42720590000681,right,1,0.47448450000956655,72.42695000000822,None,72.42695000000822,None,72.42695000000822,72.92642220000562,72.42695000000822,72.92642220000562,72.42695000000822,72.92642220000562,72.42695000000822,72.92642220000562,72.42695000000822,None,,,,,,,,,,,,,,,,,,,,,,,,,,,,,,,,,,,,,,,,,,11044,001,2024_Mar_24_1030,nback,2021.2.3,59.595252880709005,
1-back,instructions\back-1.png,conditions\1back-p.xlsx,instructions\1-BACK.png,"(25, 15)",practice,1,2,stim\gray.png,stim\yellow.png,stim\gray.png,stim\gray.png,down,0,0,0,0,0,1,1,1,0,4,4,4,,,,,,,,,,,,,,,,,,,,,,,,,,,73.92807419999735,74.92956420000701,73.92807419999735,74.92956420000701,73.92807419999735,74.92956420000701,73.92807419999735,74.92956420000701,down,1,0.4769257000007201,73.92807419999735,None,73.92807419999735,None,73.92807419999735,74.42885120000574,73.92807419999735,74.42885120000574,73.92807419999735,74.42885120000574,73.92807419999735,74.42885120000574,73.92807419999735,None,,,,,,,,,,,,,,,,,,,,,,,,,,,,,,,,,,,,,,,,,,11044,001,2024_Mar_24_1030,nback,2021.2.3,59.595252880709005,
1-back,instructions\back-1.png,conditions\1back-p.xlsx,instructions\1-BACK.png,"(25, 15)",practice,1,1,stim\yellow.png,stim\gray.png,stim\gray.png,stim\gray.png,left,0,0,0,0,0,1,1,1,0,5,5,5,,,,,,,,,,,,,,,,,,,,,,,,,,,75.43014080000285,76.43183729999873,75.43014080000285,76.43183729999873,75.43014080000285,76.43183729999873,75.43014080000285,76.43183729999873,left,1,0.28701810000347905,75.43014080000285,None,75.43014080000285,None,75.43014080000285,75.93113700000686,75.43014080000285,75.93113700000686,75.43014080000285,75.93113700000686,75.43014080000285,75.93113700000686,75.43014080000285,None,,,,,,,,,,,,,,,,,,,,,,,,,,,,,,,,,,,,,,,,,,11044,001,2024_Mar_24_1030,nback,2021.2.3,59.595252880709005,
1-back,instructions\back-1.png,conditions\1back-p.xlsx,instructions\1-BACK.png,"(25, 15)",practice,1,4,stim\gray.png,stim\gray.png,stim\gray.png,stim\yellow.png,up,0,0,0,0,0,1,1,1,0,6,6,6,,,,,,,,,,,,,,,,,,,,,,,,,,,76.93244509999931,77.93422080000164,76.93244509999931,77.93422080000164,76.93244509999931,77.93422080000164,76.93244509999931,77.93422080000164,up,1,0.2417898999992758,76.93244509999931,None,76.93244509999931,None,76.93244509999931,77.43479769999976,76.93244509999931,77.43479769999976,76.93244509999931,77.43479769999976,76.93244509999931,77.43479769999976,76.93244509999931,None,,,,,,,,,,,,,,,,,,,,,,,,,,,,,,,,,,,,,,,,,,11044,001,2024_Mar_24_1030,nback,2021.2.3,59.595252880709005,
1-back,instructions\back-1.png,conditions\1back-p.xlsx,instructions\1-BACK.png,"(25, 15)",practice,1,3,stim\gray.png,stim\gray.png,stim\yellow.png,stim\gray.png,down,0,0,0,0,0,1,1,1,0,7,7,7,,,,,,,,,,,,,,,,,,,,,,,,,,,78.41836080000212,79.41979189999984,78.41836080000212,79.41979189999984,78.41836080000212,79.41979189999984,78.41836080000212,79.41979189999984,down,1,0.32343910000054166,78.41836080000212,None,78.41836080000212,None,78.41836080000212,78.91897749999771,78.41836080000212,78.91897749999771,78.41836080000212,78.91897749999771,78.41836080000212,78.91897749999771,78.41836080000212,None,,,,,,,,,,,,,,,,,,,,,,,,,,,,,,,,,,,,,,,,,,11044,001,2024_Mar_24_1030,nback,2021.2.3,59.595252880709005,
1-back,instructions\back-1.png,conditions\1back-p.xlsx,instructions\1-BACK.png,"(25, 15)",practice,1,3,stim\gray.png,stim\gray.png,stim\yellow.png,stim\gray.png,right,0,0,0,0,0,1,1,1,0,8,8,8,,,,,,,,,,,,,,,,,,,,,,,,,,,79.92041600000812,80.92184789999737,79.92041600000812,80.92184789999737,79.92041600000812,80.92184789999737,79.92041600000812,80.92184789999737,right,1,0.3011867000022903,79.92041600000812,None,79.92041600000812,None,79.92041600000812,80.42114940000465,79.92041600000812,80.42114940000465,79.92041600000812,80.42114940000465,79.92041600000812,80.42114940000465,79.92041600000812,None,,,,,,,,,,,,,,,,,,,,,,,,,,,,,,,,,,,,,,,,,,11044,001,2024_Mar_24_1030,nback,2021.2.3,59.595252880709005,
1-back,instructions\back-1.png,conditions\1back-p.xlsx,instructions\1-BACK.png,"(25, 15)",practice,1,4,stim\gray.png,stim\gray.png,stim\gray.png,stim\yellow.png,right,0,0,0,0,0,1,1,1,0,9,9,9,,,,,,,,,,,,,,,,,,,,,,,,,,,81.42275060000247,82.42425170000934,81.42275060000247,82.42425170000934,81.42275060000247,82.42425170000934,81.42275060000247,82.42425170000934,right,1,0.2395132000092417,81.42275060000247,None,81.42275060000247,None,81.42275060000247,81.923575599998,81.42275060000247,81.923575599998,81.42275060000247,81.923575599998,81.42275060000247,81.923575599998,81.42275060000247,None,,,,,,,,,,,,,,,,,,,,,,,,,,,,,,,,,,,,,,,,,,11044,001,2024_Mar_24_1030,nback,2021.2.3,59.595252880709005,
1-back,instructions\back-1.png,conditions\1back-p.xlsx,instructions\1-BACK.png,"(25, 15)",practice,1,1,stim\yellow.png,stim\gray.png,stim\gray.png,stim\gray.png,down,0,0,0,0,0,1,1,1,0,10,10,10,,,,,,,,,,,,,,,,,,,,,,,,,,,82.92498330000672,83.92656950000674,82.92498330000672,83.92656950000674,82.92498330000672,83.92656950000674,82.92498330000672,83.92656950000674,down,1,0.2413345999957528,82.92498330000672,None,82.92498330000672,None,82.92498330000672,83.4257448999997,82.92498330000672,83.4257448999997,82.92498330000672,83.4257448999997,82.92498330000672,83.4257448999997,82.92498330000672,None,,,,,,,,,,,,,,,,,,,,,,,,,,,,,,,,,,,,,,,,,,11044,001,2024_Mar_24_1030,nback,2021.2.3,59.595252880709005,
1-back,instructions\back-1.png,conditions\1back-p.xlsx,instructions\1-BACK.png,"(25, 15)",practice,1,2,stim\gray.png,stim\yellow.png,stim\gray.png,stim\gray.png,up,0,0,0,0,0,1,1,1,0,11,11,11,,,,,,,,,,,,,,,,,,,,,,,,,,,84.42716320000181,85.4286812000064,84.42716320000181,85.4286812000064,84.42716320000181,85.4286812000064,84.42716320000181,85.4286812000064,up,1,0.21046020000358112,84.42716320000181,None,84.42716320000181,None,84.42716320000181,84.92943370000285,84.42716320000181,84.92943370000285,84.42716320000181,84.92943370000285,84.42716320000181,84.92943370000285,84.42716320000181,None,,,,,,,,,,,,,,,,,,,,,,,,,,,,,,,,,,,,,,,,,,11044,001,2024_Mar_24_1030,nback,2021.2.3,59.595252880709005,
1-back,instructions\back-1.png,conditions\1back-p.xlsx,instructions\1-BACK.png,"(25, 15)",practice,1,4,stim\gray.png,stim\gray.png,stim\gray.png,stim\yellow.png,left,0,0,0,0,0,1,1,1,0,12,12,12,,,,,,,,,,,,,,,,,,,,,,,,,,,85.92942149999726,86.93105830000422,85.92942149999726,86.93105830000422,85.92942149999726,86.93105830000422,85.92942149999726,86.93105830000422,left,1,0.028303700004471466,85.92942149999726,None,85.92942149999726,None,85.92942149999726,86.43016090001038,85.92942149999726,86.43016090001038,85.92942149999726,86.43016090001038,85.92942149999726,86.43016090001038,85.92942149999726,None,,,,,,,,,,,,,,,,,,,,,,,,,,,,,,,,,,,,,,,,,,11044,001,2024_Mar_24_1030,nback,2021.2.3,59.595252880709005,
1-back,instructions\back-1.png,conditions\1back-p.xlsx,instructions\1-BACK.png,"(25, 15)",practice,1,3,stim\gray.png,stim\gray.png,stim\yellow.png,stim\gray.png,down,0,0,0,0,0,1,1,1,0,13,13,13,,,,,,,,,,,,,,,,,,,,,,,,,,,87.41490820000763,88.41674880000937,87.41490820000763,88.41674880000937,87.41490820000763,88.41674880000937,87.41490820000763,88.41674880000937,down,1,0.30283410000265576,87.41490820000763,None,87.41490820000763,None,87.41490820000763,87.91579210000054,87.41490820000763,87.91579210000054,87.41490820000763,87.91579210000054,87.41490820000763,87.91579210000054,87.41490820000763,None,,,,,,,,,,,,,,,,,,,,,,,,,,,,,,,,,,,,,,,,,,11044,001,2024_Mar_24_1030,nback,2021.2.3,59.595252880709005,
1-back,instructions\back-1.png,conditions\1back-p.xlsx,instructions\1-BACK.png,"(25, 15)",practice,1,1,stim\yellow.png,stim\gray.png,stim\gray.png,stim\gray.png,right,0,0,0,0,0,1,1,1,0,14,14,14,,,,,,,,,,,,,,,,,,,,,,,,,,,88.91736790000868,89.91878500000166,88.91736790000868,89.91878500000166,88.91736790000868,89.91878500000166,88.91736790000868,89.91878500000166,right,1,0.2643420999957016,88.91736790000868,None,88.91736790000868,None,88.91736790000868,89.41882489999989,88.91736790000868,89.41882489999989,88.91736790000868,89.41882489999989,88.91736790000868,89.41882489999989,88.91736790000868,None,,,,,,,,,,,,,,,,,,,,,,,,,,,,,,,,,,,,,,,,,,11044,001,2024_Mar_24_1030,nback,2021.2.3,59.595252880709005,
1-back,instructions\back-1.png,conditions\1back-p.xlsx,instructions\1-BACK.png,"(25, 15)",practice,1,2,stim\gray.png,stim\yellow.png,stim\gray.png,stim\gray.png,up,0,0,0,0,0,1,1,1,0,15,15,15,,,,,,,,,,,,,,,,,,,,,,,,,,,90.41967709999881,91.42117169999983,90.41967709999881,91.42117169999983,90.41967709999881,91.42117169999983,90.41967709999881,91.42117169999983,up,1,0.27462710000691004,90.41967709999881,None,90.41967709999881,None,90.41967709999881,90.92040810000617,90.41967709999881,90.92040810000617,90.41967709999881,90.92040810000617,90.41967709999881,90.92040810000617,90.41967709999881,None,,,,,,,,,,,,,,,,,,,,,,,,,,,,,,,,,,,,,,,,,,11044,001,2024_Mar_24_1030,nback,2021.2.3,59.595252880709005,
1-back,instructions\back-1.png,conditions\1back-p.xlsx,instructions\1-BACK.png,"(25, 15)",practice,1,3,stim\gray.png,stim\gray.png,stim\yellow.png,stim\gray.png,left,0,0,0,0,0,1,1,1,0,16,16,16,,,,,,,,,,,,,,,,,,,,,,,,,,,91.92178370000329,92.92474319999747,91.92178370000329,92.92474319999747,91.92178370000329,92.92474319999747,91.92178370000329,92.92474319999747,left,1,0.16418359999079257,91.92178370000329,None,91.92178370000329,None,91.92178370000329,92.42271820000315,91.92178370000329,92.42271820000315,91.92178370000329,92.42271820000315,91.92178370000329,92.42271820000315,91.92178370000329,None,,,,,,,,,,,,,,,,,,,,,,,,,,,,,,,,,,,,,,,,,,11044,001,2024_Mar_24_1030,nback,2021.2.3,59.595252880709005,
1-back,instructions\back-1.png,conditions\1back-p.xlsx,instructions\1-BACK.png,"(25, 15)",practice,1,1,stim\yellow.png,stim\gray.png,stim\gray.png,stim\gray.png,right,0,0,0,0,0,1,1,1,0,17,17,17,,,,,,,,,,,,,,,,,,,,,,,,,,,93.42399120000482,94.42626760000712,93.42399120000482,94.42626760000712,93.42399120000482,94.42626760000712,93.42399120000482,94.42626760000712,right,1,0.27789189999748487,93.42399120000482,None,93.42399120000482,None,93.42399120000482,93.92484960000729,93.42399120000482,93.92484960000729,93.42399120000482,93.92484960000729,93.42399120000482,93.92484960000729,93.42399120000482,None,,,,,,,,,,,,,,,,,,,,,,,,,,,,,,,,,,,,,,,,,,11044,001,2024_Mar_24_1030,nback,2021.2.3,59.595252880709005,
1-back,instructions\back-1.png,conditions\1back-p.xlsx,instructions\1-BACK.png,"(25, 15)",practice,1,4,stim\gray.png,stim\gray.png,stim\gray.png,stim\yellow.png,up,0,0,0,0,0,1,1,1,0,18,18,18,,,,,,,,,,,,,,,,,,,,,,,,,,,94.92628349999723,95.92795310000656,94.92628349999723,95.92795310000656,94.92628349999723,95.92795310000656,94.92628349999723,95.92795310000656,up,1,0.2638423000025796,94.92628349999723,None,94.92628349999723,None,94.92628349999723,95.42704570000933,94.92628349999723,95.42704570000933,94.92628349999723,95.42704570000933,94.92628349999723,95.42704570000933,94.92628349999723,None,,,,,,,,,,,,,,,,,,,,,,,,,,,,,,,,,,,,,,,,,,11044,001,2024_Mar_24_1030,nback,2021.2.3,59.595252880709005,
1-back,instructions\back-1.png,conditions\1back-p.xlsx,instructions\1-BACK.png,"(25, 15)",practice,1,2,stim\gray.png,stim\yellow.png,stim\gray.png,stim\gray.png,down,0,0,0,0,0,1,1,1,0,19,19,19,,,,,,,,,,,,,,,,,,,,,,,,,,,96.42858259999775,97.43029440000828,96.42858259999775,97.43029440000828,96.42858259999775,97.43029440000828,96.42858259999775,97.43029440000828,down,1,0.44208230001095217,96.42858259999775,None,96.42858259999775,None,96.42858259999775,96.92947149999964,96.42858259999775,96.92947149999964,96.42858259999775,96.92947149999964,96.42858259999775,96.92947149999964,96.42858259999775,None,,,,,,,,,,,,,,,,,,,,,,,,,,,,,,,,,,,,,,,,,,11044,001,2024_Mar_24_1030,nback,2021.2.3,59.595252880709005,
1-back,instructions\back-1.png,conditions\1back-p.xlsx,instructions\1-BACK.png,"(25, 15)",,,,,,,,,0,0,0,0,0,1,1,1,,,,,,,,,,,,,,,,,,,,,,,,,,,,,,,,,,,,,,,,,,,,,,,,,,,,,,,,,,,,,,,,,,,,,,,,,,,,,,,,,,,,,,,,,,,,,,,,,11044,001,2024_Mar_24_1030,nback,2021.2.3,59.595252880709005,
2-back,instructions\back-2.png,conditions\2back-p.xlsx,instructions\2-BACK.png,"(25, 15)",practice,2,1,stim\yellow.png,stim\gray.png,stim\gray.png,stim\gray.png,None,0,0,0,0,0,2,2,2,0,0,0,0,,,,,,,,,,,,,,,,,98.09785659999761,None,space,3.316504700007499,98.09785659999761,None,101.57122370001161,106.07781620000605,106.02661280000757,None,106.46040470000298,107.46208280000428,106.46040470000298,107.46208280000428,106.46040470000298,107.46208280000428,106.46040470000298,107.46208280000428,None,1,,106.46040470000298,None,106.46040470000298,None,106.46040470000298,106.96108170000662,106.46040470000298,106.96108170000662,106.46040470000298,106.96108170000662,106.46040470000298,106.96108170000662,106.46040470000298,None,,,,,,,,,,,,,,,,,,,,,,,,,,,,,,,,,,,,,,,,,,11044,001,2024_Mar_24_1030,nback,2021.2.3,59.595252880709005,
2-back,instructions\back-2.png,conditions\2back-p.xlsx,instructions\2-BACK.png,"(25, 15)",practice,2,2,stim\gray.png,stim\yellow.png,stim\gray.png,stim\gray.png,None,0,0,0,0,0,2,2,2,0,1,1,1,,,,,,,,,,,,,,,,,,,,,,,,,,,107.94592559999728,108.94759409999824,107.94592559999728,108.94759409999824,107.94592559999728,108.94759409999824,107.94592559999728,108.94759409999824,None,1,,107.94592559999728,None,107.94592559999728,None,107.94592559999728,108.44746010001109,107.94592559999728,108.44746010001109,107.94592559999728,108.44746010001109,107.94592559999728,108.44746010001109,107.94592559999728,None,,,,,,,,,,,,,,,,,,,,,,,,,,,,,,,,,,,,,,,,,,11044,001,2024_Mar_24_1030,nback,2021.2.3,59.595252880709005,
2-back,instructions\back-2.png,conditions\2back-p.xlsx,instructions\2-BACK.png,"(25, 15)",practice,2,3,stim\gray.png,stim\gray.png,stim\yellow.png,stim\gray.png,up,0,0,0,0,0,2,2,2,0,2,2,2,,,,,,,,,,,,,,,,,,,,,,,,,,,109.44838329999766,110.44992440000351,109.44838329999766,110.44992440000351,109.44838329999766,110.44992440000351,109.44838329999766,110.44992440000351,up,1,0.5501086000003852,109.44838329999766,None,109.44838329999766,None,109.44838329999766,109.94897830000264,109.44838329999766,109.94897830000264,109.44838329999766,109.94897830000264,109.44838329999766,109.94897830000264,109.44838329999766,None,,,,,,,,,,,,,,,,,,,,,,,,,,,,,,,,,,,,,,,,,,11044,001,2024_Mar_24_1030,nback,2021.2.3,59.595252880709005,
2-back,instructions\back-2.png,conditions\2back-p.xlsx,instructions\2-BACK.png,"(25, 15)",practice,2,4,stim\gray.png,stim\gray.png,stim\gray.png,stim\yellow.png,left,0,0,0,0,0,2,2,2,0,3,3,3,,,,,,,,,,,,,,,,,,,,,,,,,,,110.95122420000553,111.95221070000844,110.95122420000553,111.95221070000844,110.95122420000553,111.95221070000844,110.95122420000553,111.95221070000844,left,1,0.599264000004041,110.95122420000553,None,110.95122420000553,None,110.95122420000553,111.45156480000878,110.95122420000553,111.45156480000878,110.95122420000553,111.45156480000878,110.95122420000553,111.45156480000878,110.95122420000553,None,,,,,,,,,,,,,,,,,,,,,,,,,,,,,,,,,,,,,,,,,,11044,001,2024_Mar_24_1030,nback,2021.2.3,59.595252880709005,
2-back,instructions\back-2.png,conditions\2back-p.xlsx,instructions\2-BACK.png,"(25, 15)",practice,2,2,stim\gray.png,stim\yellow.png,stim\gray.png,stim\gray.png,right,0,0,0,0,0,2,2,2,0,4,4,4,,,,,,,,,,,,,,,,,,,,,,,,,,,112.45244980001007,113.45431610000378,112.45244980001007,113.45431610000378,112.45244980001007,113.45431610000378,112.45244980001007,113.45431610000378,right,1,0.802210699999705,112.45244980001007,None,112.45244980001007,None,112.45244980001007,112.95442449999973,112.45244980001007,112.95442449999973,112.45244980001007,112.95442449999973,112.45244980001007,112.95442449999973,112.45244980001007,None,,,,,,,,,,,,,,,,,,,,,,,,,,,,,,,,,,,,,,,,,,11044,001,2024_Mar_24_1030,nback,2021.2.3,59.595252880709005,
2-back,instructions\back-2.png,conditions\2back-p.xlsx,instructions\2-BACK.png,"(25, 15)",practice,2,1,stim\yellow.png,stim\gray.png,stim\gray.png,stim\gray.png,down,0,0,0,0,0,2,2,2,0,5,5,5,,,,,,,,,,,,,,,,,,,,,,,,,,,113.95502829999896,114.95717210001021,113.95502829999896,114.95717210001021,113.95502829999896,114.95717210001021,113.95502829999896,114.95717210001021,down,1,0.5871832999982871,113.95502829999896,None,113.95502829999896,None,113.95502829999896,114.45590190000075,113.95502829999896,114.45590190000075,113.95502829999896,114.45590190000075,113.95502829999896,114.45590190000075,113.95502829999896,None,,,,,,,,,,,,,,,,,,,,,,,,,,,,,,,,,,,,,,,,,,11044,001,2024_Mar_24_1030,nback,2021.2.3,59.595252880709005,
2-back,instructions\back-2.png,conditions\2back-p.xlsx,instructions\2-BACK.png,"(25, 15)",practice,2,4,stim\gray.png,stim\gray.png,stim\gray.png,stim\yellow.png,left,0,0,0,0,0,2,2,2,0,6,6,6,,,,,,,,,,,,,,,,,,,,,,,,,,,115.4409633000032,116.44230740000785,115.4409633000032,116.44230740000785,115.4409633000032,116.44230740000785,115.4409633000032,116.44230740000785,right,0,0.5576569999975618,115.4409633000032,None,115.4409633000032,None,115.4409633000032,115.94292280000809,115.4409633000032,115.94292280000809,115.4409633000032,115.94292280000809,115.4409633000032,115.94292280000809,115.4409633000032,None,,,,,,,,,,,,,,,,,,,,,,,,,,,,,,,,,,,,,,,,,,11044,001,2024_Mar_24_1030,nback,2021.2.3,59.595252880709005,
2-back,instructions\back-2.png,conditions\2back-p.xlsx,instructions\2-BACK.png,"(25, 15)",practice,2,3,stim\gray.png,stim\gray.png,stim\yellow.png,stim\gray.png,up,0,0,0,0,0,2,2,2,0,7,7,7,,,,,,,,,,,,,,,,,,,,,,,,,,,116.94292670000868,117.94459830000415,116.94292670000868,117.94459830000415,116.94292670000868,117.94459830000415,116.94292670000868,117.94459830000415,left,0,1.11141260000295,116.94292670000868,None,116.94292670000868,None,116.94292670000868,117.44365349999862,116.94292670000868,117.44365349999862,116.94292670000868,117.44365349999862,116.94292670000868,117.44365349999862,116.94292670000868,None,,,,,,,,,,,,,,,,,,,,,,,,,,,,,,,,,,,,,,,,,,11044,001,2024_Mar_24_1030,nback,2021.2.3,59.595252880709005,
2-back,instructions\back-2.png,conditions\2back-p.xlsx,instructions\2-BACK.png,"(25, 15)",practice,2,3,stim\gray.png,stim\gray.png,stim\yellow.png,stim\gray.png,down,0,0,0,0,0,2,2,2,0,8,8,8,,,,,,,,,,,,,,,,,,,,,,,,,,,118.44564580000588,119.44673049999983,118.44564580000588,119.44673049999983,118.44564580000588,119.44673049999983,118.44564580000588,119.44673049999983,down,1,1.264956600003643,118.44564580000588,None,118.44564580000588,None,118.44564580000588,118.94700870000815,118.44564580000588,118.94700870000815,118.44564580000588,118.94700870000815,118.44564580000588,118.94700870000815,118.44564580000588,None,,,,,,,,,,,,,,,,,,,,,,,,,,,,,,,,,,,,,,,,,,11044,001,2024_Mar_24_1030,nback,2021.2.3,59.595252880709005,
2-back,instructions\back-2.png,conditions\2back-p.xlsx,instructions\2-BACK.png,"(25, 15)",practice,2,4,stim\gray.png,stim\gray.png,stim\gray.png,stim\yellow.png,right,0,0,0,0,0,2,2,2,0,9,9,9,,,,,,,,,,,,,,,,,,,,,,,,,,,119.9476188000117,120.94913950000773,119.9476188000117,120.94913950000773,119.9476188000117,120.94913950000773,119.9476188000117,120.94913950000773,None,0,,119.9476188000117,None,119.9476188000117,None,119.9476188000117,120.44814849999966,119.9476188000117,120.44814849999966,119.9476188000117,120.44814849999966,119.9476188000117,120.44814849999966,119.9476188000117,None,,,,,,,,,,,,,,,,,,,,,,,,,,,,,,,,,,,,,,,,,,11044,001,2024_Mar_24_1030,nback,2021.2.3,59.595252880709005,
2-back,instructions\back-2.png,conditions\2back-p.xlsx,instructions\2-BACK.png,"(25, 15)",practice,2,1,stim\yellow.png,stim\gray.png,stim\gray.png,stim\gray.png,right,0,0,0,0,0,2,2,2,0,10,10,10,,,,,,,,,,,,,,,,,,,,,,,,,,,121.45040050000534,122.4513036999997,121.45040050000534,122.4513036999997,121.45040050000534,122.4513036999997,121.45040050000534,122.4513036999997,None,0,,121.45040050000534,None,121.45040050000534,None,121.45040050000534,121.95063420000952,121.45040050000534,121.95063420000952,121.45040050000534,121.95063420000952,121.45040050000534,121.95063420000952,121.45040050000534,None,,,,,,,,,,,,,,,,,,,,,,,,,,,,,,,,,,,,,,,,,,11044,001,2024_Mar_24_1030,nback,2021.2.3,59.595252880709005,
2-back,instructions\back-2.png,conditions\2back-p.xlsx,instructions\2-BACK.png,"(25, 15)",practice,2,2,stim\gray.png,stim\yellow.png,stim\gray.png,stim\gray.png,down,0,0,0,0,0,2,2,2,0,11,11,11,,,,,,,,,,,,,,,,,,,,,,,,,,,122.95189850000315,123.95400490000611,122.95189850000315,123.95400490000611,122.95189850000315,123.95400490000611,122.95189850000315,123.95400490000611,down,1,0.2388541999971494,122.95189850000315,None,122.95189850000315,None,122.95189850000315,123.45280610000191,122.95189850000315,123.45280610000191,122.95189850000315,123.45280610000191,122.95189850000315,123.45280610000191,122.95189850000315,None,,,,,,,,,,,,,,,,,,,,,,,,,,,,,,,,,,,,,,,,,,11044,001,2024_Mar_24_1030,nback,2021.2.3,59.595252880709005,
2-back,instructions\back-2.png,conditions\2back-p.xlsx,instructions\2-BACK.png,"(25, 15)",practice,2,4,stim\gray.png,stim\gray.png,stim\gray.png,stim\yellow.png,up,0,0,0,0,0,2,2,2,0,12,12,12,,,,,,,,,,,,,,,,,,,,,,,,,,,124.45442840000032,125.45616240000527,124.45442840000032,125.45616240000527,124.45442840000032,125.45616240000527,124.45442840000032,125.45616240000527,up,1,0.24854729999788105,124.45442840000032,None,124.45442840000032,None,124.45442840000032,124.95488590000605,124.45442840000032,124.95488590000605,124.45442840000032,124.95488590000605,124.45442840000032,124.95488590000605,124.45442840000032,None,,,,,,,,,,,,,,,,,,,,,,,,,,,,,,,,,,,,,,,,,,11044,001,2024_Mar_24_1030,nback,2021.2.3,59.595252880709005,
2-back,instructions\back-2.png,conditions\2back-p.xlsx,instructions\2-BACK.png,"(25, 15)",practice,2,3,stim\gray.png,stim\gray.png,stim\yellow.png,stim\gray.png,left,0,0,0,0,0,2,2,2,0,13,13,13,,,,,,,,,,,,,,,,,,,,,,,,,,,125.93979840000975,126.94140380001045,125.93979840000975,126.94140380001045,125.93979840000975,126.94140380001045,125.93979840000975,126.94140380001045,left,1,0.5390245000016876,125.93979840000975,None,125.93979840000975,None,125.93979840000975,126.44069119999767,125.93979840000975,126.44069119999767,125.93979840000975,126.44069119999767,125.93979840000975,126.44069119999767,125.93979840000975,None,,,,,,,,,,,,,,,,,,,,,,,,,,,,,,,,,,,,,,,,,,11044,001,2024_Mar_24_1030,nback,2021.2.3,59.595252880709005,
2-back,instructions\back-2.png,conditions\2back-p.xlsx,instructions\2-BACK.png,"(25, 15)",practice,2,1,stim\yellow.png,stim\gray.png,stim\gray.png,stim\gray.png,down,0,0,0,0,0,2,2,2,0,14,14,14,,,,,,,,,,,,,,,,,,,,,,,,,,,127.44252630000119,128.4435955000081,127.44252630000119,128.4435955000081,127.44252630000119,128.4435955000081,127.44252630000119,128.4435955000081,down,1,0.5884771000128239,127.44252630000119,None,127.44252630000119,None,127.44252630000119,127.94292800000403,127.44252630000119,127.94292800000403,127.44252630000119,127.94292800000403,127.44252630000119,127.94292800000403,127.44252630000119,None,,,,,,,,,,,,,,,,,,,,,,,,,,,,,,,,,,,,,,,,,,11044,001,2024_Mar_24_1030,nback,2021.2.3,59.595252880709005,
2-back,instructions\back-2.png,conditions\2back-p.xlsx,instructions\2-BACK.png,"(25, 15)",practice,2,2,stim\gray.png,stim\yellow.png,stim\gray.png,stim\gray.png,right,0,0,0,0,0,2,2,2,0,15,15,15,,,,,,,,,,,,,,,,,,,,,,,,,,,128.94454810000025,129.94585200000438,128.94454810000025,129.94585200000438,128.94454810000025,129.94585200000438,128.94454810000025,129.94585200000438,right,1,0.46204559999750927,128.94454810000025,None,128.94454810000025,None,128.94454810000025,129.44517279999855,128.94454810000025,129.44517279999855,128.94454810000025,129.44517279999855,128.94454810000025,129.44517279999855,128.94454810000025,None,,,,,,,,,,,,,,,,,,,,,,,,,,,,,,,,,,,,,,,,,,11044,001,2024_Mar_24_1030,nback,2021.2.3,59.595252880709005,
2-back,instructions\back-2.png,conditions\2back-p.xlsx,instructions\2-BACK.png,"(25, 15)",practice,2,3,stim\gray.png,stim\gray.png,stim\yellow.png,stim\gray.png,up,0,0,0,0,0,2,2,2,0,16,16,16,,,,,,,,,,,,,,,,,,,,,,,,,,,130.446903700009,131.44884779999848,130.446903700009,131.44884779999848,130.446903700009,131.44884779999848,130.446903700009,131.44884779999848,up,1,0.43330589999095537,130.446903700009,None,130.446903700009,None,130.446903700009,130.94750660000136,130.446903700009,130.94750660000136,130.446903700009,130.94750660000136,130.446903700009,130.94750660000136,130.446903700009,None,,,,,,,,,,,,,,,,,,,,,,,,,,,,,,,,,,,,,,,,,,11044,001,2024_Mar_24_1030,nback,2021.2.3,59.595252880709005,
2-back,instructions\back-2.png,conditions\2back-p.xlsx,instructions\2-BACK.png,"(25, 15)",practice,2,1,stim\yellow.png,stim\gray.png,stim\gray.png,stim\gray.png,left,0,0,0,0,0,2,2,2,0,17,17,17,,,,,,,,,,,,,,,,,,,,,,,,,,,131.95010770000226,132.95043300000543,131.95010770000226,132.95043300000543,131.95010770000226,132.95043300000543,131.95010770000226,132.95043300000543,left,1,0.3451530000020284,131.95010770000226,None,131.95010770000226,None,131.95010770000226,132.44970640000247,131.95010770000226,132.44970640000247,131.95010770000226,132.44970640000247,131.95010770000226,132.44970640000247,131.95010770000226,None,,,,,,,,,,,,,,,,,,,,,,,,,,,,,,,,,,,,,,,,,,11044,001,2024_Mar_24_1030,nback,2021.2.3,59.595252880709005,
2-back,instructions\back-2.png,conditions\2back-p.xlsx,instructions\2-BACK.png,"(25, 15)",practice,2,4,stim\gray.png,stim\gray.png,stim\gray.png,stim\yellow.png,right,0,0,0,0,0,2,2,2,0,18,18,18,,,,,,,,,,,,,,,,,,,,,,,,,,,133.45118340000045,134.4527906000003,133.45118340000045,134.4527906000003,133.45118340000045,134.4527906000003,133.45118340000045,134.4527906000003,None,0,,133.45118340000045,None,133.45118340000045,None,133.45118340000045,133.95184180000797,133.45118340000045,133.95184180000797,133.45118340000045,133.95184180000797,133.45118340000045,133.95184180000797,133.45118340000045,None,,,,,,,,,,,,,,,,,,,,,,,,,,,,,,,,,,,,,,,,,,11044,001,2024_Mar_24_1030,nback,2021.2.3,59.595252880709005,
2-back,instructions\back-2.png,conditions\2back-p.xlsx,instructions\2-BACK.png,"(25, 15)",practice,2,2,stim\gray.png,stim\yellow.png,stim\gray.png,stim\gray.png,up,0,0,0,0,0,2,2,2,0,19,19,19,,,,,,,,,,,,,,,,,,,,,,,,,,,134.95376250000845,135.95484250001027,134.95376250000845,135.95484250001027,134.95376250000845,135.95484250001027,134.95376250000845,135.95484250001027,None,0,,134.95376250000845,None,134.95376250000845,None,134.95376250000845,135.45420459999877,134.95376250000845,135.45420459999877,134.95376250000845,135.45420459999877,134.95376250000845,135.45420459999877,134.95376250000845,None,,,,,,,,,,,,,,,,,,,,,,,,,,,,,,,,,,,,,,,,,,11044,001,2024_Mar_24_1030,nback,2021.2.3,59.595252880709005,
2-back,instructions\back-2.png,conditions\2back-p.xlsx,instructions\2-BACK.png,"(25, 15)",,,,,,,,,0,0,0,0,0,2,2,2,,,,,,,,,,,,,,,,,,,,,,,,,,,,,,,,,,,,,,,,,,,,,,,,,,,,,,,,,,,,,,,,,,,,,,,,,,,,,,,,,,,,,,,,,,,,,,,,,11044,001,2024_Mar_24_1030,nback,2021.2.3,59.595252880709005,
,,,,,,,,,,,,,0,0,0,0,,,,,,,,,,,,,,,,,,,,,,,,,,,,,,,,,,,,,,,,,,,,,,,,,,,,,,,,,,,,136.4558848000015,None,space,13.303602100000717,136.4558848000015,None,,,,,,,,,,,,,,,,,,,,,,,,,,,,,,,,,,,,11044,001,2024_Mar_24_1030,nback,2021.2.3,59.595252880709005,
,,,,,,,,,,,,,,,,,,,,,,,,,,,,,,,,,,,,,,,,,,,,,,,,,,,,,,,,,,,,,,,,,,,,,,,,,,,,,,,,,,149.77576760000375,None,space,13.008228799997596,149.77576760000375,None,,,,,,,,,,,,,,,,,,,,,,,,,,,,,,11044,001,2024_Mar_24_1030,nback,2021.2.3,59.595252880709005,
2-back,instructions\back-2.png,conditions\23back-e.xlsx,,,experiment,2,2,stim\gray.png,stim\yellow.png,stim\gray.png,stim\gray.png,None,,,,,,,,,,,,,0,0,0,9,0,0,0,0,,,,,,,,,,,,,,,162.94582829999854,167.45271290000528,167.41909670000314,None,,,,,,,,,,,,,,,,,,,,,,,,,,,,,,,,,,,,,,None,1,167.8363975000102,None,167.8363975000102,None,167.8363975000102,168.83787180000218,167.8363975000102,168.83787180000218,167.8363975000102,168.83787180000218,167.8363975000102,168.83787180000218,167.8363975000102,168.33727360000194,167.8363975000102,168.33727360000194,167.8363975000102,168.33727360000194,167.8363975000102,168.33727360000194,167.8363975000102,None,,,,,,11044,001,2024_Mar_24_1030,nback,2021.2.3,59.595252880709005,
2-back,instructions\back-2.png,conditions\23back-e.xlsx,,,experiment,2,4,stim\gray.png,stim\gray.png,stim\gray.png,stim\yellow.png,None,,,,,,,,,,,,,0,0,0,9,0,1,1,1,,,,,,,,,,,,,,,,,,,,,,,,,,,,,,,,,,,,,,,,,,,,,,,,,,,,,,,,None,1,169.32204100000672,None,169.32204100000672,None,169.32204100000672,170.32367860000522,169.32204100000672,170.32367860000522,169.32204100000672,170.32367860000522,169.32204100000672,170.32367860000522,169.32204100000672,169.82282710001164,169.32204100000672,169.82282710001164,169.32204100000672,169.82282710001164,169.32204100000672,169.82282710001164,169.32204100000672,None,,,,,,11044,001,2024_Mar_24_1030,nback,2021.2.3,59.595252880709005,
2-back,instructions\back-2.png,conditions\23back-e.xlsx,,,experiment,2,3,stim\gray.png,stim\gray.png,stim\yellow.png,stim\gray.png,left,,,,,,,,,,,,,0,0,0,9,0,2,2,2,,,,,,,,,,,,,,,,,,,,,,,,,,,,,,,,,,,,,,,,,,,,,,,,,,,,,,,,left,1,170.82426100000157,None,170.82426100000157,None,170.82426100000157,171.8259751000005,170.82426100000157,171.8259751000005,170.82426100000157,171.8259751000005,170.82426100000157,171.8259751000005,170.82426100000157,171.32568410001113,170.82426100000157,171.32568410001113,170.82426100000157,171.32568410001113,170.82426100000157,171.32568410001113,170.82426100000157,None,0.3523443000012776,,,,,11044,001,2024_Mar_24_1030,nback,2021.2.3,59.595252880709005,
2-back,instructions\back-2.png,conditions\23back-e.xlsx,,,experiment,2,2,stim\gray.png,stim\yellow.png,stim\gray.png,stim\gray.png,down,,,,,,,,,,,,,0,0,0,9,0,3,3,3,,,,,,,,,,,,,,,,,,,,,,,,,,,,,,,,,,,,,,,,,,,,,,,,,,,,,,,,down,1,172.32653340000252,None,172.32653340000252,None,172.32653340000252,173.32815929999924,172.32653340000252,173.32815929999924,172.32653340000252,173.32815929999924,172.32653340000252,173.32815929999924,172.32653340000252,172.8273113000032,172.32653340000252,172.8273113000032,172.32653340000252,172.8273113000032,172.32653340000252,172.8273113000032,172.32653340000252,None,0.35390729999926407,,,,,11044,001,2024_Mar_24_1030,nback,2021.2.3,59.595252880709005,
2-back,instructions\back-2.png,conditions\23back-e.xlsx,,,experiment,2,1,stim\yellow.png,stim\gray.png,stim\gray.png,stim\gray.png,right,,,,,,,,,,,,,0,0,0,9,0,4,4,4,,,,,,,,,,,,,,,,,,,,,,,,,,,,,,,,,,,,,,,,,,,,,,,,,,,,,,,,right,1,173.82900680000603,None,173.82900680000603,None,173.82900680000603,174.83024550000846,173.82900680000603,174.83024550000846,173.82900680000603,174.83024550000846,173.82900680000603,174.83024550000846,173.82900680000603,174.32967120000103,173.82900680000603,174.32967120000103,173.82900680000603,174.32967120000103,173.82900680000603,174.32967120000103,173.82900680000603,None,0.29950649999955203,,,,,11044,001,2024_Mar_24_1030,nback,2021.2.3,59.595252880709005,
2-back,instructions\back-2.png,conditions\23back-e.xlsx,,,experiment,2,2,stim\gray.png,stim\yellow.png,stim\gray.png,stim\gray.png,left,,,,,,,,,,,,,0,0,0,9,0,5,5,5,,,,,,,,,,,,,,,,,,,,,,,,,,,,,,,,,,,,,,,,,,,,,,,,,,,,,,,,left,1,175.33119799999986,None,175.33119799999986,None,175.33119799999986,176.33266070000536,175.33119799999986,176.33266070000536,175.33119799999986,176.33266070000536,175.33119799999986,176.33266070000536,175.33119799999986,175.83212500000081,175.33119799999986,175.83212500000081,175.33119799999986,175.83212500000081,175.33119799999986,175.83212500000081,175.33119799999986,None,0.28514520000317134,,,,,11044,001,2024_Mar_24_1030,nback,2021.2.3,59.595252880709005,
2-back,instructions\back-2.png,conditions\23back-e.xlsx,,,experiment,2,4,stim\gray.png,stim\gray.png,stim\gray.png,stim\yellow.png,up,,,,,,,,,,,,,0,0,0,9,0,6,6,6,,,,,,,,,,,,,,,,,,,,,,,,,,,,,,,,,,,,,,,,,,,,,,,,,,,,,,,,up,1,176.81688389999908,None,176.81688389999908,None,176.81688389999908,177.81837819999782,176.81688389999908,177.81837819999782,176.81688389999908,177.81837819999782,176.81688389999908,177.81837819999782,176.81688389999908,177.31756010001118,176.81688389999908,177.31756010001118,176.81688389999908,177.31756010001118,176.81688389999908,177.31756010001118,176.81688389999908,None,0.3921093000099063,,,,,11044,001,2024_Mar_24_1030,nback,2021.2.3,59.595252880709005,
2-back,instructions\back-2.png,conditions\23back-e.xlsx,,,experiment,2,3,stim\gray.png,stim\gray.png,stim\yellow.png,stim\gray.png,left,,,,,,,,,,,,,0,0,0,9,0,7,7,7,,,,,,,,,,,,,,,,,,,,,,,,,,,,,,,,,,,,,,,,,,,,,,,,,,,,,,,,left,1,178.31872280000243,None,178.31872280000243,None,178.31872280000243,179.32045710000966,178.31872280000243,179.32045710000966,178.31872280000243,179.32045710000966,178.31872280000243,179.32045710000966,178.31872280000243,178.819894500004,178.31872280000243,178.819894500004,178.31872280000243,178.819894500004,178.31872280000243,178.819894500004,178.31872280000243,None,0.4416495000041323,,,,,11044,001,2024_Mar_24_1030,nback,2021.2.3,59.595252880709005,
2-back,instructions\back-2.png,conditions\23back-e.xlsx,,,experiment,2,4,stim\gray.png,stim\gray.png,stim\gray.png,stim\yellow.png,down,,,,,,,,,,,,,0,0,0,9,0,8,8,8,,,,,,,,,,,,,,,,,,,,,,,,,,,,,,,,,,,,,,,,,,,,,,,,,,,,,,,,down,1,179.82122589999926,None,179.82122589999926,None,179.82122589999926,180.82277009999962,179.82122589999926,180.82277009999962,179.82122589999926,180.82277009999962,179.82122589999926,180.82277009999962,179.82122589999926,180.32182599999942,179.82122589999926,180.32182599999942,179.82122589999926,180.32182599999942,179.82122589999926,180.32182599999942,179.82122589999926,None,0.43558439999469556,,,,,11044,001,2024_Mar_24_1030,nback,2021.2.3,59.595252880709005,
2-back,instructions\back-2.png,conditions\23back-e.xlsx,,,experiment,2,1,stim\yellow.png,stim\gray.png,stim\gray.png,stim\gray.png,right,,,,,,,,,,,,,0,0,0,9,0,9,9,9,,,,,,,,,,,,,,,,,,,,,,,,,,,,,,,,,,,,,,,,,,,,,,,,,,,,,,,,right,1,181.32345820000046,None,181.32345820000046,None,181.32345820000046,182.32517490000464,181.32345820000046,182.32517490000464,181.32345820000046,182.32517490000464,181.32345820000046,182.32517490000464,181.32345820000046,181.82408260001102,181.32345820000046,181.82408260001102,181.32345820000046,181.82408260001102,181.32345820000046,181.82408260001102,181.32345820000046,None,0.4610112000082154,,,,,11044,001,2024_Mar_24_1030,nback,2021.2.3,59.595252880709005,
2-back,instructions\back-2.png,conditions\23back-e.xlsx,,,experiment,2,4,stim\gray.png,stim\gray.png,stim\gray.png,stim\yellow.png,down,,,,,,,,,,,,,0,0,0,9,0,10,10,10,,,,,,,,,,,,,,,,,,,,,,,,,,,,,,,,,,,,,,,,,,,,,,,,,,,,,,,,None,0,182.8258169000037,None,182.8258169000037,None,182.8258169000037,183.82711589999963,182.8258169000037,183.82711589999963,182.8258169000037,183.82711589999963,182.8258169000037,183.82711589999963,182.8258169000037,183.3267433000001,182.8258169000037,183.3267433000001,182.8258169000037,183.3267433000001,182.8258169000037,183.3267433000001,182.8258169000037,None,,,,,,11044,001,2024_Mar_24_1030,nback,2021.2.3,59.595252880709005,
2-back,instructions\back-2.png,conditions\23back-e.xlsx,,,experiment,2,1,stim\yellow.png,stim\gray.png,stim\gray.png,stim\gray.png,up,,,,,,,,,,,,,0,0,0,9,0,11,11,11,,,,,,,,,,,,,,,,,,,,,,,,,,,,,,,,,,,,,,,,,,,,,,,,,,,,,,,,None,0,184.32807980000507,None,184.32807980000507,None,184.32807980000507,185.32972890000383,184.32807980000507,185.32972890000383,184.32807980000507,185.32972890000383,184.32807980000507,185.32972890000383,184.32807980000507,184.82882880000398,184.32807980000507,184.82882880000398,184.32807980000507,184.82882880000398,184.32807980000507,184.82882880000398,184.32807980000507,None,,,,,,11044,001,2024_Mar_24_1030,nback,2021.2.3,59.595252880709005,
2-back,instructions\back-2.png,conditions\23back-e.xlsx,,,experiment,2,2,stim\gray.png,stim\yellow.png,stim\gray.png,stim\gray.png,down,,,,,,,,,,,,,0,0,0,9,0,12,12,12,,,,,,,,,,,,,,,,,,,,,,,,,,,,,,,,,,,,,,,,,,,,,,,,,,,,,,,,down,1,185.8302807,None,185.8302807,None,185.8302807,186.83240090000618,185.8302807,186.83240090000618,185.8302807,186.83240090000618,185.8302807,186.83240090000618,185.8302807,186.33119720000832,185.8302807,186.33119720000832,185.8302807,186.33119720000832,185.8302807,186.33119720000832,185.8302807,None,0.5145511000009719,,,,,11044,001,2024_Mar_24_1030,nback,2021.2.3,59.595252880709005,
2-back,instructions\back-2.png,conditions\23back-e.xlsx,,,experiment,2,3,stim\gray.png,stim\gray.png,stim\yellow.png,stim\gray.png,up,,,,,,,,,,,,,0,0,0,9,0,13,13,13,,,,,,,,,,,,,,,,,,,,,,,,,,,,,,,,,,,,,,,,,,,,,,,,,,,,,,,,up,1,187.3158429000032,None,187.3158429000032,None,187.3158429000032,188.31733060000988,187.3158429000032,188.31733060000988,187.3158429000032,188.31733060000988,187.3158429000032,188.31733060000988,187.3158429000032,187.8166876000032,187.3158429000032,187.8166876000032,187.3158429000032,187.8166876000032,187.3158429000032,187.8166876000032,187.3158429000032,None,0.46850719999929424,,,,,11044,001,2024_Mar_24_1030,nback,2021.2.3,59.595252880709005,
2-back,instructions\back-2.png,conditions\23back-e.xlsx,,,experiment,2,4,stim\gray.png,stim\gray.png,stim\gray.png,stim\yellow.png,left,,,,,,,,,,,,,0,0,0,9,0,14,14,14,,,,,,,,,,,,,,,,,,,,,,,,,,,,,,,,,,,,,,,,,,,,,,,,,,,,,,,,left,1,188.81809860000794,None,188.81809860000794,None,188.81809860000794,189.81959850000567,188.81809860000794,189.81959850000567,188.81809860000794,189.81959850000567,188.81809860000794,189.81959850000567,188.81809860000794,189.31884210000862,188.81809860000794,189.31884210000862,188.81809860000794,189.31884210000862,188.81809860000794,189.31884210000862,188.81809860000794,None,0.47075629999744706,,,,,11044,001,2024_Mar_24_1030,nback,2021.2.3,59.595252880709005,
2-back,instructions\back-2.png,conditions\23back-e.xlsx,,,experiment,2,3,stim\gray.png,stim\gray.png,stim\yellow.png,stim\gray.png,right,,,,,,,,,,,,,0,0,0,9,0,15,15,15,,,,,,,,,,,,,,,,,,,,,,,,,,,,,,,,,,,,,,,,,,,,,,,,,,,,,,,,right,1,190.3202963000076,None,190.3202963000076,None,190.3202963000076,191.3220325000002,190.3202963000076,191.3220325000002,190.3202963000076,191.3220325000002,190.3202963000076,191.3220325000002,190.3202963000076,190.8211444000044,190.3202963000076,190.8211444000044,190.3202963000076,190.8211444000044,190.3202963000076,190.8211444000044,190.3202963000076,None,0.3287814000068465,,,,,11044,001,2024_Mar_24_1030,nback,2021.2.3,59.595252880709005,
2-back,instructions\back-2.png,conditions\23back-e.xlsx,,,experiment,2,2,stim\gray.png,stim\yellow.png,stim\gray.png,stim\gray.png,down,,,,,,,,,,,,,0,0,0,9,0,16,16,16,,,,,,,,,,,,,,,,,,,,,,,,,,,,,,,,,,,,,,,,,,,,,,,,,,,,,,,,down,1,191.8227356999996,None,191.8227356999996,None,191.8227356999996,192.82399520000035,191.8227356999996,192.82399520000035,191.8227356999996,192.82399520000035,191.8227356999996,192.82399520000035,191.8227356999996,192.32338940000045,191.8227356999996,192.32338940000045,191.8227356999996,192.32338940000045,191.8227356999996,192.32338940000045,191.8227356999996,None,0.4258150999958161,,,,,11044,001,2024_Mar_24_1030,nback,2021.2.3,59.595252880709005,
2-back,instructions\back-2.png,conditions\23back-e.xlsx,,,experiment,2,1,stim\yellow.png,stim\gray.png,stim\gray.png,stim\gray.png,right,,,,,,,,,,,,,0,0,0,9,0,17,17,17,,,,,,,,,,,,,,,,,,,,,,,,,,,,,,,,,,,,,,,,,,,,,,,,,,,,,,,,right,1,193.32500070000242,None,193.32500070000242,None,193.32500070000242,194.32669929999975,193.32500070000242,194.32669929999975,193.32500070000242,194.32669929999975,193.32500070000242,194.32669929999975,193.32500070000242,193.82570250000572,193.32500070000242,193.82570250000572,193.32500070000242,193.82570250000572,193.32500070000242,193.82570250000572,193.32500070000242,None,0.3475712000072235,,,,,11044,001,2024_Mar_24_1030,nback,2021.2.3,59.595252880709005,
2-back,instructions\back-2.png,conditions\23back-e.xlsx,,,experiment,2,3,stim\gray.png,stim\gray.png,stim\yellow.png,stim\gray.png,left,,,,,,,,,,,,,0,0,0,9,0,18,18,18,,,,,,,,,,,,,,,,,,,,,,,,,,,,,,,,,,,,,,,,,,,,,,,,,,,,,,,,left,1,194.8270649000042,None,194.8270649000042,None,194.8270649000042,195.82891660000314,194.8270649000042,195.82891660000314,194.8270649000042,195.82891660000314,194.8270649000042,195.82891660000314,194.8270649000042,195.32815370000026,194.8270649000042,195.32815370000026,194.8270649000042,195.32815370000026,194.8270649000042,195.32815370000026,194.8270649000042,None,0.309628300004988,,,,,11044,001,2024_Mar_24_1030,nback,2021.2.3,59.595252880709005,
2-back,instructions\back-2.png,conditions\23back-e.xlsx,,,experiment,2,1,stim\yellow.png,stim\gray.png,stim\gray.png,stim\gray.png,up,,,,,,,,,,,,,0,0,0,9,0,19,19,19,,,,,,,,,,,,,,,,,,,,,,,,,,,,,,,,,,,,,,,,,,,,,,,,,,,,,,,,up,1,196.32945750000363,None,196.32945750000363,None,196.32945750000363,197.3311212000117,196.32945750000363,197.3311212000117,196.32945750000363,197.3311212000117,196.32945750000363,197.3311212000117,196.32945750000363,196.83007770001132,196.32945750000363,196.83007770001132,196.32945750000363,196.83007770001132,196.32945750000363,196.83007770001132,196.32945750000363,None,0.3676995999994688,,,,,11044,001,2024_Mar_24_1030,nback,2021.2.3,59.595252880709005,
2-back,instructions\back-2.png,conditions\23back-e.xlsx,,,,,,,,,,,,,,,,,,,,,,,0,0,0,9,,,,,,,,,,,,,,,,,,,,,,,,,,,,,,,,,,,,,,,,,,,,,,,,,,,,,,,,,,,,,,,,,,,,,,,,,,,,,,,,,,,,,197.8318389000051,None,,,11044,001,2024_Mar_24_1030,nback,2021.2.3,59.595252880709005,
1-back,instructions\back-1.png,conditions\14back-e.xlsx,,,experiment,1,3,stim\gray.png,stim\gray.png,stim\yellow.png,stim\gray.png,None,,,,,,,,,,,,,0,1,1,14,0,0,0,0,,,,,,,,,,,,,,,198.9332621000067,203.44057970000722,203.40677960000176,None,,,,,,,,,,,,,,,,,,,,,,,,,,,,,,,,,,,,,,right,0,203.84093859999848,None,203.84093859999848,None,203.84093859999848,204.84227230001125,203.84093859999848,204.84227230001125,203.84093859999848,204.84227230001125,203.84093859999848,204.84227230001125,203.84093859999848,204.3415559999994,203.84093859999848,204.3415559999994,203.84093859999848,204.3415559999994,203.84093859999848,204.3415559999994,203.84093859999848,None,0.8960995999950683,,,,,11044,001,2024_Mar_24_1030,nback,2021.2.3,59.595252880709005,
1-back,instructions\back-1.png,conditions\14back-e.xlsx,,,experiment,1,2,stim\gray.png,stim\yellow.png,stim\gray.png,stim\gray.png,right,,,,,,,,,,,,,0,1,1,14,0,1,1,1,,,,,,,,,,,,,,,,,,,,,,,,,,,,,,,,,,,,,,,,,,,,,,,,,,,,,,,,left,0,205.32652550000057,None,205.32652550000057,None,205.32652550000057,206.32806210000126,205.32652550000057,206.32806210000126,205.32652550000057,206.32806210000126,205.32652550000057,206.32806210000126,205.32652550000057,205.8272208999988,205.32652550000057,205.8272208999988,205.32652550000057,205.8272208999988,205.32652550000057,205.8272208999988,205.32652550000057,None,1.2664832000009483,,,,,11044,001,2024_Mar_24_1030,nback,2021.2.3,59.595252880709005,
1-back,instructions\back-1.png,conditions\14back-e.xlsx,,,experiment,1,3,stim\gray.png,stim\gray.png,stim\yellow.png,stim\gray.png,left,,,,,,,,,,,,,0,1,1,14,0,2,2,2,,,,,,,,,,,,,,,,,,,,,,,,,,,,,,,,,,,,,,,,,,,,,,,,,,,,,,,,None,0,206.82861860000412,None,206.82861860000412,None,206.82861860000412,207.8303414000111,206.82861860000412,207.8303414000111,206.82861860000412,207.8303414000111,206.82861860000412,207.8303414000111,206.82861860000412,207.3294670000032,206.82861860000412,207.3294670000032,206.82861860000412,207.3294670000032,206.82861860000412,207.3294670000032,206.82861860000412,None,,,,,,11044,001,2024_Mar_24_1030,nback,2021.2.3,59.595252880709005,
1-back,instructions\back-1.png,conditions\14back-e.xlsx,,,experiment,1,1,stim\yellow.png,stim\gray.png,stim\gray.png,stim\gray.png,right,,,,,,,,,,,,,0,1,1,14,0,3,3,3,,,,,,,,,,,,,,,,,,,,,,,,,,,,,,,,,,,,,,,,,,,,,,,,,,,,,,,,right,1,208.33086810000532,None,208.33086810000532,None,208.33086810000532,209.33248409999942,208.33086810000532,209.33248409999942,208.33086810000532,209.33248409999942,208.33086810000532,209.33248409999942,208.33086810000532,208.83166860000347,208.33086810000532,208.83166860000347,208.33086810000532,208.83166860000347,208.33086810000532,208.83166860000347,208.33086810000532,None,0.6863085000077263,,,,,11044,001,2024_Mar_24_1030,nback,2021.2.3,59.595252880709005,
1-back,instructions\back-1.png,conditions\14back-e.xlsx,,,experiment,1,2,stim\gray.png,stim\yellow.png,stim\gray.png,stim\gray.png,up,,,,,,,,,,,,,0,1,1,14,0,4,4,4,,,,,,,,,,,,,,,,,,,,,,,,,,,,,,,,,,,,,,,,,,,,,,,,,,,,,,,,up,1,209.81656079999811,None,209.81656079999811,None,209.81656079999811,210.8178165999998,209.81656079999811,210.8178165999998,209.81656079999811,210.8178165999998,209.81656079999811,210.8178165999998,209.81656079999811,210.31735270000354,209.81656079999811,210.31735270000354,209.81656079999811,210.31735270000354,209.81656079999811,210.31735270000354,209.81656079999811,None,0.5767542999965372,,,,,11044,001,2024_Mar_24_1030,nback,2021.2.3,59.595252880709005,
1-back,instructions\back-1.png,conditions\14back-e.xlsx,,,experiment,1,4,stim\gray.png,stim\gray.png,stim\gray.png,stim\yellow.png,left,,,,,,,,,,,,,0,1,1,14,0,5,5,5,,,,,,,,,,,,,,,,,,,,,,,,,,,,,,,,,,,,,,,,,,,,,,,,,,,,,,,,left,1,211.31884980000905,None,211.31884980000905,None,211.31884980000905,212.32024900001124,211.31884980000905,212.32024900001124,211.31884980000905,212.32024900001124,211.31884980000905,212.32024900001124,211.31884980000905,211.81959030000144,211.31884980000905,211.81959030000144,211.31884980000905,211.81959030000144,211.31884980000905,211.81959030000144,211.31884980000905,None,0.45843759999843314,,,,,11044,001,2024_Mar_24_1030,nback,2021.2.3,59.595252880709005,
1-back,instructions\back-1.png,conditions\14back-e.xlsx,,,experiment,1,3,stim\gray.png,stim\gray.png,stim\yellow.png,stim\gray.png,down,,,,,,,,,,,,,0,1,1,14,0,6,6,6,,,,,,,,,,,,,,,,,,,,,,,,,,,,,,,,,,,,,,,,,,,,,,,,,,,,,,,,down,1,212.82101189999958,None,212.82101189999958,None,212.82101189999958,213.82259399999748,212.82101189999958,213.82259399999748,212.82101189999958,213.82259399999748,212.82101189999958,213.82259399999748,212.82101189999958,213.3219620000018,212.82101189999958,213.3219620000018,212.82101189999958,213.3219620000018,212.82101189999958,213.3219620000018,212.82101189999958,None,0.43634790000214707,,,,,11044,001,2024_Mar_24_1030,nback,2021.2.3,59.595252880709005,
1-back,instructions\back-1.png,conditions\14back-e.xlsx,,,experiment,1,1,stim\yellow.png,stim\gray.png,stim\gray.png,stim\gray.png,right,,,,,,,,,,,,,0,1,1,14,0,7,7,7,,,,,,,,,,,,,,,,,,,,,,,,,,,,,,,,,,,,,,,,,,,,,,,,,,,,,,,,right,1,214.32329860000755,None,214.32329860000755,None,214.32329860000755,215.32495629999903,214.32329860000755,215.32495629999903,214.32329860000755,215.32495629999903,214.32329860000755,215.32495629999903,214.32329860000755,214.82406579999952,214.32329860000755,214.82406579999952,214.32329860000755,214.82406579999952,214.32329860000755,214.82406579999952,214.32329860000755,None,0.34228019999864046,,,,,11044,001,2024_Mar_24_1030,nback,2021.2.3,59.595252880709005,
1-back,instructions\back-1.png,conditions\14back-e.xlsx,,,experiment,1,3,stim\gray.png,stim\gray.png,stim\yellow.png,stim\gray.png,up,,,,,,,,,,,,,0,1,1,14,0,8,8,8,,,,,,,,,,,,,,,,,,,,,,,,,,,,,,,,,,,,,,,,,,,,,,,,,,,,,,,,up,1,215.82561539999733,None,215.82561539999733,None,215.82561539999733,216.8272517000005,215.82561539999733,216.8272517000005,215.82561539999733,216.8272517000005,215.82561539999733,216.8272517000005,215.82561539999733,216.32649120000133,215.82561539999733,216.32649120000133,215.82561539999733,216.32649120000133,215.82561539999733,216.32649120000133,215.82561539999733,None,0.3679151999967871,,,,,11044,001,2024_Mar_24_1030,nback,2021.2.3,59.595252880709005,
1-back,instructions\back-1.png,conditions\14back-e.xlsx,,,experiment,1,2,stim\gray.png,stim\yellow.png,stim\gray.png,stim\gray.png,right,,,,,,,,,,,,,0,1,1,14,0,9,9,9,,,,,,,,,,,,,,,,,,,,,,,,,,,,,,,,,,,,,,,,,,,,,,,,,,,,,,,,None,0,217.3282412999979,None,217.3282412999979,None,217.3282412999979,218.32925560000876,217.3282412999979,218.32925560000876,217.3282412999979,218.32925560000876,217.3282412999979,218.32925560000876,217.3282412999979,217.82877360000566,217.3282412999979,217.82877360000566,217.3282412999979,217.82877360000566,217.3282412999979,217.82877360000566,217.3282412999979,None,,,,,,11044,001,2024_Mar_24_1030,nback,2021.2.3,59.595252880709005,
1-back,instructions\back-1.png,conditions\14back-e.xlsx,,,experiment,1,4,stim\gray.png,stim\gray.png,stim\gray.png,stim\yellow.png,left,,,,,,,,,,,,,0,1,1,14,0,10,10,10,,,,,,,,,,,,,,,,,,,,,,,,,,,,,,,,,,,,,,,,,,,,,,,,,,,,,,,,left,1,218.83027830001083,None,218.83027830001083,None,218.83027830001083,219.83186400000704,218.83027830001083,219.83186400000704,218.83027830001083,219.83186400000704,218.83027830001083,219.83186400000704,218.83027830001083,219.33096849999856,218.83027830001083,219.33096849999856,218.83027830001083,219.33096849999856,218.83027830001083,219.33096849999856,218.83027830001083,None,0.37139830000523943,,,,,11044,001,2024_Mar_24_1030,nback,2021.2.3,59.595252880709005,
1-back,instructions\back-1.png,conditions\14back-e.xlsx,,,experiment,1,2,stim\gray.png,stim\yellow.png,stim\gray.png,stim\gray.png,down,,,,,,,,,,,,,0,1,1,14,0,11,11,11,,,,,,,,,,,,,,,,,,,,,,,,,,,,,,,,,,,,,,,,,,,,,,,,,,,,,,,,down,1,220.31574630000978,None,220.31574630000978,None,220.31574630000978,221.3173242000048,220.31574630000978,221.3173242000048,220.31574630000978,221.3173242000048,220.31574630000978,221.3173242000048,220.31574630000978,220.81650220000301,220.31574630000978,220.81650220000301,220.31574630000978,220.81650220000301,220.31574630000978,220.81650220000301,220.31574630000978,None,0.4376038999907905,,,,,11044,001,2024_Mar_24_1030,nback,2021.2.3,59.595252880709005,
1-back,instructions\back-1.png,conditions\14back-e.xlsx,,,experiment,1,4,stim\gray.png,stim\gray.png,stim\gray.png,stim\yellow.png,left,,,,,,,,,,,,,0,1,1,14,0,12,12,12,,,,,,,,,,,,,,,,,,,,,,,,,,,,,,,,,,,,,,,,,,,,,,,,,,,,,,,,left,1,221.81779500000994,None,221.81779500000994,None,221.81779500000994,222.81988000001002,221.81779500000994,222.81988000001002,221.81779500000994,222.81988000001002,221.81779500000994,222.81988000001002,221.81779500000994,222.31869250000454,221.81779500000994,222.31869250000454,221.81779500000994,222.31869250000454,221.81779500000994,222.31869250000454,221.81779500000994,None,0.44014760000573006,,,,,11044,001,2024_Mar_24_1030,nback,2021.2.3,59.595252880709005,
1-back,instructions\back-1.png,conditions\14back-e.xlsx,,,experiment,1,1,stim\yellow.png,stim\gray.png,stim\gray.png,stim\gray.png,down,,,,,,,,,,,,,0,1,1,14,0,13,13,13,,,,,,,,,,,,,,,,,,,,,,,,,,,,,,,,,,,,,,,,,,,,,,,,,,,,,,,,down,1,223.32012590000522,None,223.32012590000522,None,223.32012590000522,224.32178890000796,223.32012590000522,224.32178890000796,223.32012590000522,224.32178890000796,223.32012590000522,224.32178890000796,223.32012590000522,223.82093970000278,223.32012590000522,223.82093970000278,223.32012590000522,223.82093970000278,223.32012590000522,223.82093970000278,223.32012590000522,None,0.4179543000063859,,,,,11044,001,2024_Mar_24_1030,nback,2021.2.3,59.595252880709005,
1-back,instructions\back-1.png,conditions\14back-e.xlsx,,,experiment,1,1,stim\yellow.png,stim\gray.png,stim\gray.png,stim\gray.png,up,,,,,,,,,,,,,0,1,1,14,0,14,14,14,,,,,,,,,,,,,,,,,,,,,,,,,,,,,,,,,,,,,,,,,,,,,,,,,,,,,,,,up,1,224.8224002000061,None,224.8224002000061,None,224.8224002000061,225.82405609999842,224.8224002000061,225.82405609999842,224.8224002000061,225.82405609999842,224.8224002000061,225.82405609999842,224.8224002000061,225.32336190000933,224.8224002000061,225.32336190000933,224.8224002000061,225.32336190000933,224.8224002000061,225.32336190000933,224.8224002000061,None,0.37937460000102874,,,,,11044,001,2024_Mar_24_1030,nback,2021.2.3,59.595252880709005,
1-back,instructions\back-1.png,conditions\14back-e.xlsx,,,experiment,1,4,stim\gray.png,stim\gray.png,stim\gray.png,stim\yellow.png,up,,,,,,,,,,,,,0,1,1,14,0,15,15,15,,,,,,,,,,,,,,,,,,,,,,,,,,,,,,,,,,,,,,,,,,,,,,,,,,,,,,,,up,1,226.3247146000067,None,226.3247146000067,None,226.3247146000067,227.32611229999748,226.3247146000067,227.32611229999748,226.3247146000067,227.32611229999748,226.3247146000067,227.32611229999748,226.3247146000067,226.82566940000106,226.3247146000067,226.82566940000106,226.3247146000067,226.82566940000106,226.3247146000067,226.82566940000106,226.3247146000067,None,0.37323619998642243,,,,,11044,001,2024_Mar_24_1030,nback,2021.2.3,59.595252880709005,
1-back,instructions\back-1.png,conditions\14back-e.xlsx,,,experiment,1,1,stim\yellow.png,stim\gray.png,stim\gray.png,stim\gray.png,down,,,,,,,,,,,,,0,1,1,14,0,16,16,16,,,,,,,,,,,,,,,,,,,,,,,,,,,,,,,,,,,,,,,,,,,,,,,,,,,,,,,,down,1,227.8270288000058,None,227.8270288000058,None,227.8270288000058,228.82846350000182,227.8270288000058,228.82846350000182,227.8270288000058,228.82846350000182,227.8270288000058,228.82846350000182,227.8270288000058,228.32779510000546,227.8270288000058,228.32779510000546,227.8270288000058,228.32779510000546,227.8270288000058,228.32779510000546,227.8270288000058,None,0.3985241999907885,,,,,11044,001,2024_Mar_24_1030,nback,2021.2.3,59.595252880709005,
1-back,instructions\back-1.png,conditions\14back-e.xlsx,,,experiment,1,3,stim\gray.png,stim\gray.png,stim\yellow.png,stim\gray.png,up,,,,,,,,,,,,,0,1,1,14,0,17,17,17,,,,,,,,,,,,,,,,,,,,,,,,,,,,,,,,,,,,,,,,,,,,,,,,,,,,,,,,up,1,229.32910450000782,None,229.32910450000782,None,229.32910450000782,230.33074470001156,229.32910450000782,230.33074470001156,229.32910450000782,230.33074470001156,229.32910450000782,230.33074470001156,229.32910450000782,229.8301380000048,229.32910450000782,229.8301380000048,229.32910450000782,229.8301380000048,229.32910450000782,229.8301380000048,229.32910450000782,None,0.416711400001077,,,,,11044,001,2024_Mar_24_1030,nback,2021.2.3,59.595252880709005,
1-back,instructions\back-1.png,conditions\14back-e.xlsx,,,experiment,1,2,stim\gray.png,stim\yellow.png,stim\gray.png,stim\gray.png,right,,,,,,,,,,,,,0,1,1,14,0,18,18,18,,,,,,,,,,,,,,,,,,,,,,,,,,,,,,,,,,,,,,,,,,,,,,,,,,,,,,,,right,1,230.83150739999837,None,230.83150739999837,None,230.83150739999837,231.83312999999907,230.83150739999837,231.83312999999907,230.83150739999837,231.83312999999907,230.83150739999837,231.83312999999907,230.83150739999837,231.33209050000005,230.83150739999837,231.33209050000005,230.83150739999837,231.33209050000005,230.83150739999837,231.33209050000005,230.83150739999837,None,0.3787414999969769,,,,,11044,001,2024_Mar_24_1030,nback,2021.2.3,59.595252880709005,
1-back,instructions\back-1.png,conditions\14back-e.xlsx,,,experiment,1,4,stim\gray.png,stim\gray.png,stim\gray.png,stim\yellow.png,left,,,,,,,,,,,,,0,1,1,14,0,19,19,19,,,,,,,,,,,,,,,,,,,,,,,,,,,,,,,,,,,,,,,,,,,,,,,,,,,,,,,,left,1,232.31703689999995,None,232.31703689999995,None,232.31703689999995,233.32021750000422,232.31703689999995,233.32021750000422,232.31703689999995,233.32021750000422,232.31703689999995,233.32021750000422,232.31703689999995,232.81784380000317,232.31703689999995,232.81784380000317,232.31703689999995,232.81784380000317,232.31703689999995,232.81784380000317,232.31703689999995,None,0.28462199999194127,,,,,11044,001,2024_Mar_24_1030,nback,2021.2.3,59.595252880709005,
1-back,instructions\back-1.png,conditions\14back-e.xlsx,,,,,,,,,,,,,,,,,,,,,,,0,1,1,14,,,,,,,,,,,,,,,,,,,,,,,,,,,,,,,,,,,,,,,,,,,,,,,,,,,,,,,,,,,,,,,,,,,,,,,,,,,,,,,,,,,,,233.81947180000134,None,,,11044,001,2024_Mar_24_1030,nback,2021.2.3,59.595252880709005,
1-back,instructions\back-1.png,conditions\13back-e.xlsx,,,experiment,1,1,stim\yellow.png,stim\gray.png,stim\gray.png,stim\gray.png,None,,,,,,,,,,,,,0,2,2,10,0,0,0,0,,,,,,,,,,,,,,,234.92034240000066,239.42849950000527,239.41107180000108,None,,,,,,,,,,,,,,,,,,,,,,,,,,,,,,,,,,,,,,None,1,239.84528420001152,None,239.84528420001152,None,239.84528420001152,240.84672100000898,239.84528420001152,240.84672100000898,239.84528420001152,240.84672100000898,239.84528420001152,240.84672100000898,239.84528420001152,240.34616359999927,239.84528420001152,240.34616359999927,239.84528420001152,240.34616359999927,239.84528420001152,240.34616359999927,239.84528420001152,None,,,,,,11044,001,2024_Mar_24_1030,nback,2021.2.3,59.595252880709005,
1-back,instructions\back-1.png,conditions\13back-e.xlsx,,,experiment,1,2,stim\gray.png,stim\yellow.png,stim\gray.png,stim\gray.png,up,,,,,,,,,,,,,0,2,2,10,0,1,1,1,,,,,,,,,,,,,,,,,,,,,,,,,,,,,,,,,,,,,,,,,,,,,,,,,,,,,,,,up,1,241.33098150001024,None,241.33098150001024,None,241.33098150001024,242.33217340000556,241.33098150001024,242.33217340000556,241.33098150001024,242.33217340000556,241.33098150001024,242.33217340000556,241.33098150001024,241.831585500011,241.33098150001024,241.831585500011,241.33098150001024,241.831585500011,241.33098150001024,241.831585500011,241.33098150001024,None,0.7999072000093292,,,,,11044,001,2024_Mar_24_1030,nback,2021.2.3,59.595252880709005,
1-back,instructions\back-1.png,conditions\13back-e.xlsx,,,experiment,1,4,stim\gray.png,stim\gray.png,stim\gray.png,stim\yellow.png,left,,,,,,,,,,,,,0,2,2,10,0,2,2,2,,,,,,,,,,,,,,,,,,,,,,,,,,,,,,,,,,,,,,,,,,,,,,,,,,,,,,,,left,1,242.81630030000815,None,242.81630030000815,None,242.81630030000815,243.81778350000968,242.81630030000815,243.81778350000968,242.81630030000815,243.81778350000968,242.81630030000815,243.81778350000968,242.81630030000815,243.31719359999988,242.81630030000815,243.31719359999988,242.81630030000815,243.31719359999988,242.81630030000815,243.31719359999988,242.81630030000815,None,0.5384756000130437,,,,,11044,001,2024_Mar_24_1030,nback,2021.2.3,59.595252880709005,
1-back,instructions\back-1.png,conditions\13back-e.xlsx,,,experiment,1,3,stim\gray.png,stim\gray.png,stim\yellow.png,stim\gray.png,down,,,,,,,,,,,,,0,2,2,10,0,3,3,3,,,,,,,,,,,,,,,,,,,,,,,,,,,,,,,,,,,,,,,,,,,,,,,,,,,,,,,,down,1,244.31865110000945,None,244.31865110000945,None,244.31865110000945,245.3200147000025,244.31865110000945,245.3200147000025,244.31865110000945,245.3200147000025,244.31865110000945,245.3200147000025,244.31865110000945,244.81938680000894,244.31865110000945,244.81938680000894,244.31865110000945,244.81938680000894,244.31865110000945,244.81938680000894,244.31865110000945,None,0.499439600011101,,,,,11044,001,2024_Mar_24_1030,nback,2021.2.3,59.595252880709005,
1-back,instructions\back-1.png,conditions\13back-e.xlsx,,,experiment,1,1,stim\yellow.png,stim\gray.png,stim\gray.png,stim\gray.png,right,,,,,,,,,,,,,0,2,2,10,0,4,4,4,,,,,,,,,,,,,,,,,,,,,,,,,,,,,,,,,,,,,,,,,,,,,,,,,,,,,,,,right,1,245.82068780000554,None,245.82068780000554,None,245.82068780000554,246.82255370001076,245.82068780000554,246.82255370001076,245.82068780000554,246.82255370001076,245.82068780000554,246.82255370001076,245.82068780000554,246.32175640000787,245.82068780000554,246.32175640000787,245.82068780000554,246.32175640000787,245.82068780000554,246.32175640000787,245.82068780000554,None,0.24565959999745246,,,,,11044,001,2024_Mar_24_1030,nback,2021.2.3,59.595252880709005,
1-back,instructions\back-1.png,conditions\13back-e.xlsx,,,experiment,1,3,stim\gray.png,stim\gray.png,stim\yellow.png,stim\gray.png,up,,,,,,,,,,,,,0,2,2,10,0,5,5,5,,,,,,,,,,,,,,,,,,,,,,,,,,,,,,,,,,,,,,,,,,,,,,,,,,,,,,,,up,1,247.3229713000037,None,247.3229713000037,None,247.3229713000037,248.32496790000005,247.3229713000037,248.32496790000005,247.3229713000037,248.32496790000005,247.3229713000037,248.32496790000005,247.3229713000037,247.82402000000002,247.3229713000037,247.82402000000002,247.3229713000037,247.82402000000002,247.3229713000037,247.82402000000002,247.3229713000037,None,0.2552809999906458,,,,,11044,001,2024_Mar_24_1030,nback,2021.2.3,59.595252880709005,
1-back,instructions\back-1.png,conditions\13back-e.xlsx,,,experiment,1,2,stim\gray.png,stim\yellow.png,stim\gray.png,stim\gray.png,right,,,,,,,,,,,,,0,2,2,10,0,6,6,6,,,,,,,,,,,,,,,,,,,,,,,,,,,,,,,,,,,,,,,,,,,,,,,,,,,,,,,,right,1,248.82530280000356,None,248.82530280000356,None,248.82530280000356,249.82701120000274,248.82530280000356,249.82701120000274,248.82530280000356,249.82701120000274,248.82530280000356,249.82701120000274,248.82530280000356,249.32600040000398,248.82530280000356,249.32600040000398,248.82530280000356,249.32600040000398,248.82530280000356,249.32600040000398,248.82530280000356,None,0.19293049999396317,,,,,11044,001,2024_Mar_24_1030,nback,2021.2.3,59.595252880709005,
1-back,instructions\back-1.png,conditions\13back-e.xlsx,,,experiment,1,4,stim\gray.png,stim\gray.png,stim\gray.png,stim\yellow.png,left,,,,,,,,,,,,,0,2,2,10,0,7,7,7,,,,,,,,,,,,,,,,,,,,,,,,,,,,,,,,,,,,,,,,,,,,,,,,,,,,,,,,left,1,250.327663700009,None,250.327663700009,None,250.327663700009,251.32905929999833,250.327663700009,251.32905929999833,250.327663700009,251.32905929999833,250.327663700009,251.32905929999833,250.327663700009,250.82953310001176,250.327663700009,250.82953310001176,250.327663700009,250.82953310001176,250.327663700009,250.82953310001176,250.327663700009,None,0.14682779999566264,,,,,11044,001,2024_Mar_24_1030,nback,2021.2.3,59.595252880709005,
1-back,instructions\back-1.png,conditions\13back-e.xlsx,,,experiment,1,1,stim\yellow.png,stim\gray.png,stim\gray.png,stim\gray.png,down,,,,,,,,,,,,,0,2,2,10,0,8,8,8,,,,,,,,,,,,,,,,,,,,,,,,,,,,,,,,,,,,,,,,,,,,,,,,,,,,,,,,down,1,251.82989900000393,None,251.82989900000393,None,251.82989900000393,252.8315350000048,251.82989900000393,252.8315350000048,251.82989900000393,252.8315350000048,251.82989900000393,252.8315350000048,251.82989900000393,252.3306956000015,251.82989900000393,252.3306956000015,251.82989900000393,252.3306956000015,251.82989900000393,252.3306956000015,251.82989900000393,None,0.1408720000035828,,,,,11044,001,2024_Mar_24_1030,nback,2021.2.3,59.595252880709005,
1-back,instructions\back-1.png,conditions\13back-e.xlsx,,,experiment,1,2,stim\gray.png,stim\yellow.png,stim\gray.png,stim\gray.png,up,,,,,,,,,,,,,0,2,2,10,0,9,9,9,,,,,,,,,,,,,,,,,,,,,,,,,,,,,,,,,,,,,,,,,,,,,,,,,,,,,,,,up,1,253.3155745999975,None,253.3155745999975,None,253.3155745999975,254.31710320001002,253.3155745999975,254.31710320001002,253.3155745999975,254.31710320001002,253.3155745999975,254.31710320001002,253.3155745999975,253.81623830000171,253.3155745999975,253.81623830000171,253.3155745999975,253.81623830000171,253.3155745999975,253.81623830000171,253.3155745999975,None,0.14293550000002142,,,,,11044,001,2024_Mar_24_1030,nback,2021.2.3,59.595252880709005,
1-back,instructions\back-1.png,conditions\13back-e.xlsx,,,experiment,1,4,stim\gray.png,stim\gray.png,stim\gray.png,stim\yellow.png,left,,,,,,,,,,,,,0,2,2,10,0,10,10,10,,,,,,,,,,,,,,,,,,,,,,,,,,,,,,,,,,,,,,,,,,,,,,,,,,,,,,,,left,1,254.8175573000044,None,254.8175573000044,None,254.8175573000044,255.81967920000898,254.8175573000044,255.81967920000898,254.8175573000044,255.81967920000898,254.8175573000044,255.81967920000898,254.8175573000044,255.3185181000008,254.8175573000044,255.3185181000008,254.8175573000044,255.3185181000008,254.8175573000044,255.3185181000008,254.8175573000044,None,0.25768009999592323,,,,,11044,001,2024_Mar_24_1030,nback,2021.2.3,59.595252880709005,
1-back,instructions\back-1.png,conditions\13back-e.xlsx,,,experiment,1,3,stim\gray.png,stim\gray.png,stim\yellow.png,stim\gray.png,down,,,,,,,,,,,,,0,2,2,10,0,11,11,11,,,,,,,,,,,,,,,,,,,,,,,,,,,,,,,,,,,,,,,,,,,,,,,,,,,,,,,,down,1,256.32000710000284,None,256.32000710000284,None,256.32000710000284,257.32162240000616,256.32000710000284,257.32162240000616,256.32000710000284,257.32162240000616,256.32000710000284,257.32162240000616,256.32000710000284,256.8207568000071,256.32000710000284,256.8207568000071,256.32000710000284,256.8207568000071,256.32000710000284,256.8207568000071,256.32000710000284,None,0.22666000000026543,,,,,11044,001,2024_Mar_24_1030,nback,2021.2.3,59.595252880709005,
1-back,instructions\back-1.png,conditions\13back-e.xlsx,,,experiment,1,2,stim\gray.png,stim\yellow.png,stim\gray.png,stim\gray.png,right,,,,,,,,,,,,,0,2,2,10,0,12,12,12,,,,,,,,,,,,,,,,,,,,,,,,,,,,,,,,,,,,,,,,,,,,,,,,,,,,,,,,right,1,257.82231260000844,None,257.82231260000844,None,257.82231260000844,258.82386699999915,257.82231260000844,258.82386699999915,257.82231260000844,258.82386699999915,257.82231260000844,258.82386699999915,257.82231260000844,258.32298260000243,257.82231260000844,258.32298260000243,257.82231260000844,258.32298260000243,257.82231260000844,258.32298260000243,257.82231260000844,None,0.3164336999907391,,,,,11044,001,2024_Mar_24_1030,nback,2021.2.3,59.595252880709005,
1-back,instructions\back-1.png,conditions\13back-e.xlsx,,,experiment,1,4,stim\gray.png,stim\gray.png,stim\gray.png,stim\yellow.png,left,,,,,,,,,,,,,0,2,2,10,0,13,13,13,,,,,,,,,,,,,,,,,,,,,,,,,,,,,,,,,,,,,,,,,,,,,,,,,,,,,,,,left,1,259.32461100000364,None,259.32461100000364,None,259.32461100000364,260.325983200004,259.32461100000364,260.325983200004,259.32461100000364,260.325983200004,259.32461100000364,260.325983200004,259.32461100000364,259.8253752000019,259.32461100000364,259.8253752000019,259.32461100000364,259.8253752000019,259.32461100000364,259.8253752000019,259.32461100000364,None,0.422396399997524,,,,,11044,001,2024_Mar_24_1030,nback,2021.2.3,59.595252880709005,
1-back,instructions\back-1.png,conditions\13back-e.xlsx,,,experiment,1,1,stim\yellow.png,stim\gray.png,stim\gray.png,stim\gray.png,down,,,,,,,,,,,,,0,2,2,10,0,14,14,14,,,,,,,,,,,,,,,,,,,,,,,,,,,,,,,,,,,,,,,,,,,,,,,,,,,,,,,,down,1,260.82742830000643,None,260.82742830000643,None,260.82742830000643,261.82820080000965,260.82742830000643,261.82820080000965,260.82742830000643,261.82820080000965,260.82742830000643,261.82820080000965,260.82742830000643,261.32863940000243,260.82742830000643,261.32863940000243,260.82742830000643,261.32863940000243,260.82742830000643,261.32863940000243,260.82742830000643,None,0.3674727999896277,,,,,11044,001,2024_Mar_24_1030,nback,2021.2.3,59.595252880709005,
1-back,instructions\back-1.png,conditions\13back-e.xlsx,,,experiment,1,4,stim\gray.png,stim\gray.png,stim\gray.png,stim\yellow.png,up,,,,,,,,,,,,,0,2,2,10,0,15,15,15,,,,,,,,,,,,,,,,,,,,,,,,,,,,,,,,,,,,,,,,,,,,,,,,,,,,,,,,up,1,262.32907500000147,None,262.32907500000147,None,262.32907500000147,263.3306070000108,262.32907500000147,263.3306070000108,262.32907500000147,263.3306070000108,262.32907500000147,263.3306070000108,262.32907500000147,262.830609800003,262.32907500000147,262.830609800003,262.32907500000147,262.830609800003,262.32907500000147,262.830609800003,262.32907500000147,None,0.3855958000058308,,,,,11044,001,2024_Mar_24_1030,nback,2021.2.3,59.595252880709005,
1-back,instructions\back-1.png,conditions\13back-e.xlsx,,,experiment,1,1,stim\yellow.png,stim\gray.png,stim\gray.png,stim\gray.png,down,,,,,,,,,,,,,0,2,2,10,0,16,16,16,,,,,,,,,,,,,,,,,,,,,,,,,,,,,,,,,,,,,,,,,,,,,,,,,,,,,,,,down,1,263.83144470000116,None,263.83144470000116,None,263.83144470000116,264.833011900002,263.83144470000116,264.833011900002,263.83144470000116,264.833011900002,263.83144470000116,264.833011900002,263.83144470000116,264.33349360000284,263.83144470000116,264.33349360000284,263.83144470000116,264.33349360000284,263.83144470000116,264.33349360000284,263.83144470000116,None,0.4434622999979183,,,,,11044,001,2024_Mar_24_1030,nback,2021.2.3,59.595252880709005,
1-back,instructions\back-1.png,conditions\13back-e.xlsx,,,experiment,1,3,stim\gray.png,stim\gray.png,stim\yellow.png,stim\gray.png,up,,,,,,,,,,,,,0,2,2,10,0,17,17,17,,,,,,,,,,,,,,,,,,,,,,,,,,,,,,,,,,,,,,,,,,,,,,,,,,,,,,,,up,1,265.31683260000136,None,265.31683260000136,None,265.31683260000136,266.3186762000114,265.31683260000136,266.3186762000114,265.31683260000136,266.3186762000114,265.31683260000136,266.3186762000114,265.31683260000136,265.8176836000057,265.31683260000136,265.8176836000057,265.31683260000136,265.8176836000057,265.31683260000136,265.8176836000057,265.31683260000136,None,0.4143900000053691,,,,,11044,001,2024_Mar_24_1030,nback,2021.2.3,59.595252880709005,
1-back,instructions\back-1.png,conditions\13back-e.xlsx,,,experiment,1,2,stim\gray.png,stim\yellow.png,stim\gray.png,stim\gray.png,right,,,,,,,,,,,,,0,2,2,10,0,18,18,18,,,,,,,,,,,,,,,,,,,,,,,,,,,,,,,,,,,,,,,,,,,,,,,,,,,,,,,,right,1,266.8192296000052,None,266.8192296000052,None,266.8192296000052,267.82083019999845,266.8192296000052,267.82083019999845,266.8192296000052,267.82083019999845,266.8192296000052,267.82083019999845,266.8192296000052,267.3203431000002,266.8192296000052,267.3203431000002,266.8192296000052,267.3203431000002,266.8192296000052,267.3203431000002,266.8192296000052,None,0.27972089999821037,,,,,11044,001,2024_Mar_24_1030,nback,2021.2.3,59.595252880709005,
1-back,instructions\back-1.png,conditions\13back-e.xlsx,,,experiment,1,3,stim\gray.png,stim\gray.png,stim\yellow.png,stim\gray.png,left,,,,,,,,,,,,,0,2,2,10,0,19,19,19,,,,,,,,,,,,,,,,,,,,,,,,,,,,,,,,,,,,,,,,,,,,,,,,,,,,,,,,left,1,268.3215055000037,None,268.3215055000037,None,268.3215055000037,269.3233118000062,268.3215055000037,269.3233118000062,268.3215055000037,269.3233118000062,268.3215055000037,269.3233118000062,268.3215055000037,268.822490400009,268.3215055000037,268.822490400009,268.3215055000037,268.822490400009,268.3215055000037,268.822490400009,268.3215055000037,None,0.25749079999513924,,,,,11044,001,2024_Mar_24_1030,nback,2021.2.3,59.595252880709005,
1-back,instructions\back-1.png,conditions\13back-e.xlsx,,,,,,,,,,,,,,,,,,,,,,,0,2,2,10,,,,,,,,,,,,,,,,,,,,,,,,,,,,,,,,,,,,,,,,,,,,,,,,,,,,,,,,,,,,,,,,,,,,,,,,,,,,,,,,,,,,,269.8243508000014,None,,,11044,001,2024_Mar_24_1030,nback,2021.2.3,59.595252880709005,
1-back,instructions\back-1.png,conditions\11back-e.xlsx,,,experiment,1,3,stim\gray.png,stim\gray.png,stim\yellow.png,stim\gray.png,None,,,,,,,,,,,,,0,3,3,5,0,0,0,0,,,,,,,,,,,,,,,270.94255630001135,275.4499940000096,275.4170097000024,None,,,,,,,,,,,,,,,,,,,,,,,,,,,,,,,,,,,,,,None,1,275.8339784999989,None,275.8339784999989,None,275.8339784999989,276.83435600000666,275.8339784999989,276.83435600000666,275.8339784999989,276.83435600000666,275.8339784999989,276.83435600000666,275.8339784999989,276.333541400003,275.8339784999989,276.333541400003,275.8339784999989,276.333541400003,275.8339784999989,276.333541400003,275.8339784999989,None,,,,,,11044,001,2024_Mar_24_1030,nback,2021.2.3,59.595252880709005,
1-back,instructions\back-1.png,conditions\11back-e.xlsx,,,experiment,1,1,stim\yellow.png,stim\gray.png,stim\gray.png,stim\gray.png,right,,,,,,,,,,,,,0,3,3,5,0,1,1,1,,,,,,,,,,,,,,,,,,,,,,,,,,,,,,,,,,,,,,,,,,,,,,,,,,,,,,,,right,1,277.31856510000944,None,277.31856510000944,None,277.31856510000944,278.32020159999956,277.31856510000944,278.32020159999956,277.31856510000944,278.32020159999956,277.31856510000944,278.32020159999956,277.31856510000944,277.8192151000112,277.31856510000944,277.8192151000112,277.31856510000944,277.8192151000112,277.31856510000944,277.8192151000112,277.31856510000944,None,0.26066939999873284,,,,,11044,001,2024_Mar_24_1030,nback,2021.2.3,59.595252880709005,
1-back,instructions\back-1.png,conditions\11back-e.xlsx,,,experiment,1,4,stim\gray.png,stim\gray.png,stim\gray.png,stim\yellow.png,up,,,,,,,,,,,,,0,3,3,5,0,2,2,2,,,,,,,,,,,,,,,,,,,,,,,,,,,,,,,,,,,,,,,,,,,,,,,,,,,,,,,,up,1,278.82076490001054,None,278.82076490001054,None,278.82076490001054,279.8220979000034,278.82076490001054,279.8220979000034,278.82076490001054,279.8220979000034,278.82076490001054,279.8220979000034,278.82076490001054,279.3214277000079,278.82076490001054,279.3214277000079,278.82076490001054,279.3214277000079,278.82076490001054,279.3214277000079,278.82076490001054,None,0.25473309999506455,,,,,11044,001,2024_Mar_24_1030,nback,2021.2.3,59.595252880709005,
1-back,instructions\back-1.png,conditions\11back-e.xlsx,,,experiment,1,2,stim\gray.png,stim\yellow.png,stim\gray.png,stim\gray.png,down,,,,,,,,,,,,,0,3,3,5,0,3,3,3,,,,,,,,,,,,,,,,,,,,,,,,,,,,,,,,,,,,,,,,,,,,,,,,,,,,,,,,down,1,280.3227787000069,None,280.3227787000069,None,280.3227787000069,281.3245289000042,280.3227787000069,281.3245289000042,280.3227787000069,281.3245289000042,280.3227787000069,281.3245289000042,280.3227787000069,280.82348260001163,280.3227787000069,280.82348260001163,280.3227787000069,280.82348260001163,280.3227787000069,280.82348260001163,280.3227787000069,None,0.28051400001277216,,,,,11044,001,2024_Mar_24_1030,nback,2021.2.3,59.595252880709005,
1-back,instructions\back-1.png,conditions\11back-e.xlsx,,,experiment,1,1,stim\yellow.png,stim\gray.png,stim\gray.png,stim\gray.png,left,,,,,,,,,,,,,0,3,3,5,0,4,4,4,,,,,,,,,,,,,,,,,,,,,,,,,,,,,,,,,,,,,,,,,,,,,,,,,,,,,,,,left,1,281.8252000000066,None,281.8252000000066,None,281.8252000000066,282.82681490000687,281.8252000000066,282.82681490000687,281.8252000000066,282.82681490000687,281.8252000000066,282.82681490000687,281.8252000000066,282.3258300000016,281.8252000000066,282.3258300000016,281.8252000000066,282.3258300000016,281.8252000000066,282.3258300000016,281.8252000000066,None,0.29014709999319166,,,,,11044,001,2024_Mar_24_1030,nback,2021.2.3,59.595252880709005,
1-back,instructions\back-1.png,conditions\11back-e.xlsx,,,experiment,1,2,stim\gray.png,stim\yellow.png,stim\gray.png,stim\gray.png,up,,,,,,,,,,,,,0,3,3,5,0,5,5,5,,,,,,,,,,,,,,,,,,,,,,,,,,,,,,,,,,,,,,,,,,,,,,,,,,,,,,,,up,1,283.32748160000483,None,283.32748160000483,None,283.32748160000483,284.32890300000145,283.32748160000483,284.32890300000145,283.32748160000483,284.32890300000145,283.32748160000483,284.32890300000145,283.32748160000483,283.82805520000693,283.32748160000483,283.82805520000693,283.32748160000483,283.82805520000693,283.32748160000483,283.82805520000693,283.32748160000483,None,0.40381420000630897,,,,,11044,001,2024_Mar_24_1030,nback,2021.2.3,59.595252880709005,
1-back,instructions\back-1.png,conditions\11back-e.xlsx,,,experiment,1,3,stim\gray.png,stim\gray.png,stim\yellow.png,stim\gray.png,left,,,,,,,,,,,,,0,3,3,5,0,6,6,6,,,,,,,,,,,,,,,,,,,,,,,,,,,,,,,,,,,,,,,,,,,,,,,,,,,,,,,,left,1,284.82988730000216,None,284.82988730000216,None,284.82988730000216,285.832218800002,284.82988730000216,285.832218800002,284.82988730000216,285.832218800002,284.82988730000216,285.832218800002,284.82988730000216,285.33055559999775,284.82988730000216,285.33055559999775,284.82988730000216,285.33055559999775,284.82988730000216,285.33055559999775,284.82988730000216,None,0.2856610000017099,,,,,11044,001,2024_Mar_24_1030,nback,2021.2.3,59.595252880709005,
1-back,instructions\back-1.png,conditions\11back-e.xlsx,,,experiment,1,4,stim\gray.png,stim\gray.png,stim\gray.png,stim\yellow.png,right,,,,,,,,,,,,,0,3,3,5,0,7,7,7,,,,,,,,,,,,,,,,,,,,,,,,,,,,,,,,,,,,,,,,,,,,,,,,,,,,,,,,right,1,286.3322257000109,None,286.3322257000109,None,286.3322257000109,287.33347830000275,286.3322257000109,287.33347830000275,286.3322257000109,287.33347830000275,286.3322257000109,287.33347830000275,286.3322257000109,286.8327728000004,286.3322257000109,286.8327728000004,286.3322257000109,286.8327728000004,286.3322257000109,286.8327728000004,286.3322257000109,None,0.29533449999871664,,,,,11044,001,2024_Mar_24_1030,nback,2021.2.3,59.595252880709005,
1-back,instructions\back-1.png,conditions\11back-e.xlsx,,,experiment,1,4,stim\gray.png,stim\gray.png,stim\gray.png,stim\yellow.png,down,,,,,,,,,,,,,0,3,3,5,0,8,8,8,,,,,,,,,,,,,,,,,,,,,,,,,,,,,,,,,,,,,,,,,,,,,,,,,,,,,,,,down,1,287.8173856000067,None,287.8173856000067,None,287.8173856000067,288.81903850000526,287.8173856000067,288.81903850000526,287.8173856000067,288.81903850000526,287.8173856000067,288.81903850000526,287.8173856000067,288.3183713000035,287.8173856000067,288.3183713000035,287.8173856000067,288.3183713000035,287.8173856000067,288.3183713000035,287.8173856000067,None,0.31423510001332033,,,,,11044,001,2024_Mar_24_1030,nback,2021.2.3,59.595252880709005,
1-back,instructions\back-1.png,conditions\11back-e.xlsx,,,experiment,1,3,stim\gray.png,stim\gray.png,stim\yellow.png,stim\gray.png,down,,,,,,,,,,,,,0,3,3,5,0,9,9,9,,,,,,,,,,,,,,,,,,,,,,,,,,,,,,,,,,,,,,,,,,,,,,,,,,,,,,,,down,1,289.3197949000023,None,289.3197949000023,None,289.3197949000023,290.3213925000018,289.3197949000023,290.3213925000018,289.3197949000023,290.3213925000018,289.3197949000023,290.3213925000018,289.3197949000023,289.82062790000055,289.3197949000023,289.82062790000055,289.3197949000023,289.82062790000055,289.3197949000023,289.82062790000055,289.3197949000023,None,0.24377370000001974,,,,,11044,001,2024_Mar_24_1030,nback,2021.2.3,59.595252880709005,
1-back,instructions\back-1.png,conditions\11back-e.xlsx,,,experiment,1,1,stim\yellow.png,stim\gray.png,stim\gray.png,stim\gray.png,right,,,,,,,,,,,,,0,3,3,5,0,10,10,10,,,,,,,,,,,,,,,,,,,,,,,,,,,,,,,,,,,,,,,,,,,,,,,,,,,,,,,,right,1,290.82363830000395,None,290.82363830000395,None,290.82363830000395,291.82361479999963,290.82363830000395,291.82361479999963,290.82363830000395,291.82361479999963,290.82363830000395,291.82361479999963,290.82363830000395,291.3228218000004,290.82363830000395,291.3228218000004,290.82363830000395,291.3228218000004,290.82363830000395,291.3228218000004,290.82363830000395,None,0.20495040000241715,,,,,11044,001,2024_Mar_24_1030,nback,2021.2.3,59.595252880709005,
1-back,instructions\back-1.png,conditions\11back-e.xlsx,,,experiment,1,2,stim\gray.png,stim\yellow.png,stim\gray.png,stim\gray.png,up,,,,,,,,,,,,,0,3,3,5,0,11,11,11,,,,,,,,,,,,,,,,,,,,,,,,,,,,,,,,,,,,,,,,,,,,,,,,,,,,,,,,up,1,292.3243589000049,None,292.3243589000049,None,292.3243589000049,293.32590580001124,292.3243589000049,293.32590580001124,292.3243589000049,293.32590580001124,292.3243589000049,293.32590580001124,292.3243589000049,292.8252977000084,292.3243589000049,292.8252977000084,292.3243589000049,292.8252977000084,292.3243589000049,292.8252977000084,292.3243589000049,None,0.08751029999984894,,,,,11044,001,2024_Mar_24_1030,nback,2021.2.3,59.595252880709005,
1-back,instructions\back-1.png,conditions\11back-e.xlsx,,,experiment,1,3,stim\gray.png,stim\gray.png,stim\yellow.png,stim\gray.png,left,,,,,,,,,,,,,0,3,3,5,0,12,12,12,,,,,,,,,,,,,,,,,,,,,,,,,,,,,,,,,,,,,,,,,,,,,,,,,,,,,,,,left,1,293.82675360000576,None,293.82675360000576,None,293.82675360000576,294.8283366000105,293.82675360000576,294.8283366000105,293.82675360000576,294.8283366000105,293.82675360000576,294.8283366000105,293.82675360000576,294.3275011000078,293.82675360000576,294.3275011000078,293.82675360000576,294.3275011000078,293.82675360000576,294.3275011000078,293.82675360000576,None,0.09679899999173358,,,,,11044,001,2024_Mar_24_1030,nback,2021.2.3,59.595252880709005,
1-back,instructions\back-1.png,conditions\11back-e.xlsx,,,experiment,1,4,stim\gray.png,stim\gray.png,stim\gray.png,stim\yellow.png,right,,,,,,,,,,,,,0,3,3,5,0,13,13,13,,,,,,,,,,,,,,,,,,,,,,,,,,,,,,,,,,,,,,,,,,,,,,,,,,,,,,,,right,1,295.32902980000654,None,295.32902980000654,None,295.32902980000654,296.3304264000035,295.32902980000654,296.3304264000035,295.32902980000654,296.3304264000035,295.32902980000654,296.3304264000035,295.32902980000654,295.8298152000061,295.32902980000654,295.8298152000061,295.32902980000654,295.8298152000061,295.32902980000654,295.8298152000061,295.32902980000654,None,0.17889749999449123,,,,,11044,001,2024_Mar_24_1030,nback,2021.2.3,59.595252880709005,
1-back,instructions\back-1.png,conditions\11back-e.xlsx,,,experiment,1,1,stim\yellow.png,stim\gray.png,stim\gray.png,stim\gray.png,down,,,,,,,,,,,,,0,3,3,5,0,14,14,14,,,,,,,,,,,,,,,,,,,,,,,,,,,,,,,,,,,,,,,,,,,,,,,,,,,,,,,,down,1,296.831248100003,None,296.831248100003,None,296.831248100003,297.8327210999996,296.831248100003,297.8327210999996,296.831248100003,297.8327210999996,296.831248100003,297.8327210999996,296.831248100003,297.3320970000059,296.831248100003,297.3320970000059,296.831248100003,297.3320970000059,296.831248100003,297.3320970000059,296.831248100003,None,0.14054019999457523,,,,,11044,001,2024_Mar_24_1030,nback,2021.2.3,59.595252880709005,
1-back,instructions\back-1.png,conditions\11back-e.xlsx,,,experiment,1,2,stim\gray.png,stim\yellow.png,stim\gray.png,stim\gray.png,up,,,,,,,,,,,,,0,3,3,5,0,15,15,15,,,,,,,,,,,,,,,,,,,,,,,,,,,,,,,,,,,,,,,,,,,,,,,,,,,,,,,,up,1,298.3166918000061,None,298.3166918000061,None,298.3166918000061,299.3181945000106,298.3166918000061,299.3181945000106,298.3166918000061,299.3181945000106,298.3166918000061,299.3181945000106,298.3166918000061,298.81737790000625,298.3166918000061,298.81737790000625,298.3166918000061,298.81737790000625,298.3166918000061,298.81737790000625,298.3166918000061,None,0.2549985999939963,,,,,11044,001,2024_Mar_24_1030,nback,2021.2.3,59.595252880709005,
1-back,instructions\back-1.png,conditions\11back-e.xlsx,,,experiment,1,2,stim\gray.png,stim\yellow.png,stim\gray.png,stim\gray.png,left,,,,,,,,,,,,,0,3,3,5,0,16,16,16,,,,,,,,,,,,,,,,,,,,,,,,,,,,,,,,,,,,,,,,,,,,,,,,,,,,,,,,left,1,299.81930490001105,None,299.81930490001105,None,299.81930490001105,300.8206246000045,299.81930490001105,300.8206246000045,299.81930490001105,300.8206246000045,299.81930490001105,300.8206246000045,299.81930490001105,300.31979920000595,299.81930490001105,300.31979920000595,299.81930490001105,300.31979920000595,299.81930490001105,300.31979920000595,299.81930490001105,None,0.21703159999742638,,,,,11044,001,2024_Mar_24_1030,nback,2021.2.3,59.595252880709005,
