arrwidth1,arrwidth2,arrwidth3,arrwidth4,arrwidth5,keyb,type,orientation,instruction_image,block_filename,block_type,arrow11,arrow22,arrow33,arrow44,arrow55,keyb_3,orientation3,trials.thisRepN,trials.thisTrialN,trials.thisN,trials.thisIndex,trials_3.thisRepN,trials_3.thisTrialN,trials_3.thisN,trials_3.thisIndex,trials_2.thisRepN,trials_2.thisTrialN,trials_2.thisN,trials_2.thisIndex,welcome.started,welcome.stopped,key_resp.keys,key_resp.rt,key_resp.started,key_resp.stopped,instruction_example.started,instruction_example.stopped,key_resp_3.keys,key_resp_3.rt,key_resp_3.started,key_resp_3.stopped,instruction_task.started,instruction_task.stopped,key_resp_2.keys,key_resp_2.rt,key_resp_2.started,key_resp_2.stopped,text_2.started,text_2.stopped,A1.started,A1.stopped,A2.started,A2.stopped,A3.started,A3.stopped,A4.started,A4.stopped,A5.started,A5.stopped,key_resp_4.keys,key_resp_4.corr,key_resp_4.rt,key_resp_4.started,key_resp_4.stopped,fb.started,fb.stopped,instruction_block.started,instruction_block.stopped,key_resp_8.keys,key_resp_8.rt,key_resp_8.started,key_resp_8.stopped,text_8.started,text_8.stopped,key_resp_9.keys,key_resp_9.corr,key_resp_9.rt,text_5.started,text_5.stopped,A11_3.started,A11_3.stopped,A22_2.started,A22_2.stopped,A33_2.started,A33_2.stopped,A44_2.started,A44_2.stopped,A55_2.started,A55_2.stopped,M1_3.started,M1_3.stopped,M2_2.started,M2_2.stopped,M3_2.started,M3_2.stopped,M4_2.started,M4_2.stopped,M5_2.started,M5_2.stopped,M6_2.started,M6_2.stopped,M7_2.started,M7_2.stopped,M8_2.started,M8_2.stopped,key_resp_9.started,key_resp_9.stopped,fixation.started,fixation.stopped,ET,fb_3.started,fb_3.stopped,text_9.started,text_9.stopped,fb_4.started,fb_4.stopped,text_7.started,text_7.stopped,endtext.started,endtext.stopped,fixation_ITI,CCC,Acc,participant,session,date,expName,psychopyVersion,frameRate,
,,,,,,,,,,,,,,,,,,,,,,,,,,,,,,12.836761899998237,None,space,3.861268200002087,12.836761899998237,None,,,,,,,,,,,,,,,,,,,,,,,,,,,,,,,,,,,,,,,,,,,,,,,,,,,,,,,,,,,,,,,,,,,,,,,,,,,,,,,,,,,,,,,,,11001,002,2023_Dec_29_1637,MFTM_A_new1021,2021.2.3,60.00445232933789,
,,,,,,,,,,,,,,,,,,,,,,,,,,,,,,,,,,,,16.725842899999407,None,space,16.628288200001407,16.725842899999407,None,,,,,,,,,,,,,,,,,,,,,,,,,,,,,,,,,,,,,,,,,,,,,,,,,,,,,,,,,,,,,,,,,,,,,,,,,,,,,,,,,,,11001,002,2023_Dec_29_1637,MFTM_A_new1021,2021.2.3,60.00445232933789,
,,,,,,,,,,,,,,,,,,,,,,,,,,,,,,,,,,,,,,,,,,33.36750120000215,None,space,3.6026539999948,33.36750120000215,None,,,,,,,,,,,,,,,,,,,,,,,,,,,,,,,,,,,,,,,,,,,,,,,,,,,,,,,,,,,,,,,,,,,,,,,,,,,,,11001,002,2023_Dec_29_1637,MFTM_A_new1021,2021.2.3,60.00445232933789,
-0.6,-0.6,-0.6,0.6,0.6,left,3:2,L,,,,,,,,,,,0,0,0,1,,,,,,,,,,,,,,,,,,,,,,,,,,,37.00634989999526,None,37.00634989999526,None,37.00634989999526,None,37.00634989999526,None,37.00634989999526,None,37.00634989999526,None,left,1,2.211807500003488,37.00634989999526,None,39.260813799999596,None,,,,,,,,,,,,,,,,,,,,,,,,,,,,,,,,,,,,,,,,,,,,,,,,,,,,,,,,,,11001,002,2023_Dec_29_1637,MFTM_A_new1021,2021.2.3,60.00445232933789,
0.6,0.6,0.6,-0.6,-0.6,right,3:2,R,,,,,,,,,,,0,1,1,0,,,,,,,,,,,,,,,,,,,,,,,,,,,40.01059759999771,None,40.01059759999771,None,40.01059759999771,None,40.01059759999771,None,40.01059759999771,None,40.01059759999771,None,right,1,3.43156689999887,40.01059759999771,None,43.46544410000206,None,,,,,,,,,,,,,,,,,,,,,,,,,,,,,,,,,,,,,,,,,,,,,,,,,,,,,,,,,,11001,002,2023_Dec_29_1637,MFTM_A_new1021,2021.2.3,60.00445232933789,
-0.6,-0.6,-0.6,0.6,0.6,left,3:2,L,,,,,,,,,,,1,0,2,1,,,,,,,,,,,,,,,,,,,,,,,,,,,44.2168285000007,None,44.2168285000007,None,44.2168285000007,None,44.2168285000007,None,44.2168285000007,None,44.2168285000007,None,left,1,1.961535599999479,44.2168285000007,None,46.20342150000215,None,,,,,,,,,,,,,,,,,,,,,,,,,,,,,,,,,,,,,,,,,,,,,,,,,,,,,,,,,,11001,002,2023_Dec_29_1637,MFTM_A_new1021,2021.2.3,60.00445232933789,
0.6,0.6,0.6,-0.6,-0.6,right,3:2,R,,,,,,,,,,,1,1,3,0,,,,,,,,,,,,,,,,,,,,,,,,,,,46.95391170000221,None,46.95391170000221,None,46.95391170000221,None,46.95391170000221,None,46.95391170000221,None,46.95391170000221,None,left,0,1.2084775999974227,46.95391170000221,None,48.188903199996275,None,,,,,,,,,,,,,,,,,,,,,,,,,,,,,,,,,,,,,,,,,,,,,,,,,,,,,,,,,,11001,002,2023_Dec_29_1637,MFTM_A_new1021,2021.2.3,60.00445232933789,
,,,,,,,,stim/Instruction_mask.png,conditions/adaptive.xlsx,practice,-0.6,-0.6,-0.6,0.6,0.6,left,L,,,,,0,0,0,0,0,0,0,73,,,,,,,,,,,,,,,,,,,,,,,,,,,,,,,,,,,,,,49.14069179999933,None,space,3.573392900005274,49.14069179999933,None,52.81289989999641,None,left,1,1.43609949999518,53.24682889999531,None,53.24682889999531,56.252767400001176,53.24682889999531,56.252767400001176,53.24682889999531,56.252767400001176,53.24682889999531,56.252767400001176,53.24682889999531,56.252767400001176,56.235317899998336,56.73713459999999,56.235317899998336,56.73713459999999,56.235317899998336,56.73713459999999,56.235317899998336,56.73713459999999,56.235317899998336,56.73713459999999,56.235317899998336,56.73713459999999,56.235317899998336,56.73713459999999,56.235317899998336,56.73713459999999,53.24682889999531,None,56.73713459999999,56.73713459999999,3,56.75192699999752,None,57.50365729999612,None,,,,,,,,,,11001,002,2023_Dec_29_1637,MFTM_A_new1021,2021.2.3,60.00445232933789,
,,,,,,,,stim/Instruction_mask.png,conditions/adaptive.xlsx,practice,0.6,0.6,0.6,-0.6,-0.6,right,R,,,,,0,0,0,0,0,1,1,88,,,,,,,,,,,,,,,,,,,,,,,,,,,,,,,,,,,,,,,,,,,,58.005138599997736,None,right,1,0.9620869999998831,58.5043336000017,60.50886380000156,58.5043336000017,60.00701619999745,58.5043336000017,60.00701619999745,58.5043336000017,60.00701619999745,58.5043336000017,60.00701619999745,58.5043336000017,60.00701619999745,59.99107269999513,60.4916435999985,59.99107269999513,60.4916435999985,59.99107269999513,60.4916435999985,59.99107269999513,60.4916435999985,59.99107269999513,60.4916435999985,59.99107269999513,60.4916435999985,59.99107269999513,60.4916435999985,59.99107269999513,60.4916435999985,58.5043336000017,None,60.4916435999985,61.993383499997435,1.5,62.01001790000009,None,62.7622418999963,None,,,,,,,,,,11001,002,2023_Dec_29_1637,MFTM_A_new1021,2021.2.3,60.00445232933789,
,,,,,,,,stim/Instruction_mask.png,conditions/adaptive.xlsx,practice,0.6,0.6,0.6,-0.6,-0.6,right,R,,,,,0,0,0,0,0,2,2,64,,,,,,,,,,,,,,,,,,,,,,,,,,,,,,,,,,,,,,,,,,,,63.26231700000062,None,right,1,1.5350985000040964,63.763307199995324,65.06475969999883,63.763307199995324,64.56361330000072,63.763307199995324,64.56361330000072,63.763307199995324,64.56361330000072,63.763307199995324,64.56361330000072,63.763307199995324,64.56361330000072,64.54793049999716,65.0479387000014,64.54793049999716,65.0479387000014,64.54793049999716,65.0479387000014,64.54793049999716,65.0479387000014,64.54793049999716,65.0479387000014,64.54793049999716,65.0479387000014,64.54793049999716,65.0479387000014,64.54793049999716,65.0479387000014,63.763307199995324,None,65.0479387000014,67.25154459999612,0.8,67.2682719000004,None,68.018705399998,None,,,,,,,,,,11001,002,2023_Dec_29_1637,MFTM_A_new1021,2021.2.3,60.00445232933789,
,,,,,,,,stim/Instruction_mask.png,conditions/adaptive.xlsx,practice,0.6,0.6,0.6,-0.6,-0.6,right,R,,,,,0,0,0,0,0,3,3,40,,,,,,,,,,,,,,,,,,,,,,,,,,,,,,,,,,,,,,,,,,,,68.52006679999613,None,left,0,1.32615000000078,69.02010909999808,69.77125929999602,69.02010909999808,69.27061949999916,69.02010909999808,69.27061949999916,69.02010909999808,69.27061949999916,69.02010909999808,69.27061949999916,69.02010909999808,69.27061949999916,69.25385719999758,69.75484319999669,69.25385719999758,69.75484319999669,69.25385719999758,69.75484319999669,69.25385719999758,69.75484319999669,69.25385719999758,69.75484319999669,69.25385719999758,69.75484319999669,69.25385719999758,69.75484319999669,69.25385719999758,69.75484319999669,69.02010909999808,None,69.75484319999669,72.50886750000063,3,72.52529929999582,None,73.27684210000007,None,,,,,,,,,,11001,002,2023_Dec_29_1637,MFTM_A_new1021,2021.2.3,60.00445232933789,
,,,,,,,,stim/Instruction_mask.png,conditions/adaptive.xlsx,practice,,,,,,,,,,,,0,0,0,0,,,,,,,,,,,,,,,,,,,,,,,,,,,,,,,,,,,,,,,,,,,,,,,,,,,,,,,,,,,,,,,,,,,,,,,,,,,,,,,,,,,,,,,,,,73.8107439000014,74.81420319999597,74.79609709999932,74.79609709999932,74.79609709999932,None,,,,11001,002,2023_Dec_29_1637,MFTM_A_new1021,2021.2.3,60.00445232933789,
,,,,,,,,stim/Instruction_adaptive.png,conditions/adaptive.xlsx,test,-0.6,-0.6,-0.6,0.6,0.6,left,L,,,,,0,1,1,1,0,0,0,13,,,,,,,,,,,,,,,,,,,,,,,,,,,,,,,,,,,,,,77.91658710000047,None,space,16.277658099999826,77.91658710000047,None,94.2579620999968,None,left,1,1.989348000002792,94.74223619999975,None,94.74223619999975,97.74583790000179,94.74223619999975,97.74583790000179,94.74223619999975,97.74583790000179,94.74223619999975,97.74583790000179,94.74223619999975,97.74583790000179,97.72921959999803,98.23097070000222,97.72921959999803,98.23097070000222,97.72921959999803,98.23097070000222,97.72921959999803,98.23097070000222,97.72921959999803,98.23097070000222,97.72921959999803,98.23097070000222,97.72921959999803,98.23097070000222,97.72921959999803,98.23097070000222,94.74223619999975,None,98.21437380000134,98.21437380000134,3,98.2468011000019,None,98.99874409999757,None,,,,,,,0,6.000000000000005,1.0,11001,002,2023_Dec_29_1637,MFTM_A_new1021,2021.2.3,60.00445232933789,
,,,,,,,,stim/Instruction_adaptive.png,conditions/adaptive.xlsx,test,-0.6,-0.6,-0.6,0.6,0.6,left,L,,,,,0,1,1,1,0,1,1,3,,,,,,,,,,,,,,,,,,,,,,,,,,,,,,,,,,,,,,,,,,,,99.49931439999636,None,right,0,1.2108134000009159,99.9996977999981,100.75064919999568,99.9996977999981,100.24970580000081,99.9996977999981,100.24970580000081,99.9996977999981,100.24970580000081,99.9996977999981,100.24970580000081,99.9996977999981,100.24970580000081,100.23337850000098,100.73365579999518,100.23337850000098,100.73365579999518,100.23337850000098,100.73365579999518,100.23337850000098,100.73365579999518,100.23337850000098,100.73365579999518,100.23337850000098,100.73365579999518,100.23337850000098,100.73365579999518,100.23337850000098,100.73365579999518,99.9996977999981,None,100.73365579999518,101.61849909999728,0.25,101.63507939999545,None,102.38625260000117,None,,,,,,,[0.875],2.570000000000002,0.5,11001,002,2023_Dec_29_1637,MFTM_A_new1021,2021.2.3,60.00445232933789,
,,,,,,,,stim/Instruction_adaptive.png,conditions/adaptive.xlsx,test,0.6,0.6,0.6,-0.6,-0.6,right,R,,,,,0,1,1,1,0,2,2,96,,,,,,,,,,,,,,,,,,,,,,,,,,,,,,,,,,,,,,,,,,,,102.88693419999618,None,right,1,1.4460249999974621,103.38845549999678,105.00765899999533,103.38845549999678,104.50657910000155,103.38845549999678,104.50657910000155,103.38845549999678,104.50657910000155,103.38845549999678,104.50657910000155,103.38845549999678,104.50657910000155,104.4894381999984,104.99042879999615,104.4894381999984,104.99042879999615,104.4894381999984,104.99042879999615,104.4894381999984,104.99042879999615,104.4894381999984,104.99042879999615,104.4894381999984,104.99042879999615,104.4894381999984,104.99042879999615,104.4894381999984,104.99042879999615,103.38845549999678,None,104.97344180000073,106.02541439999914,1.1100000000000008,106.05776540000079,None,106.80955820000236,None,,,,,,,[1.04666667],3.3800000000000026,0.6666666666666666,11001,002,2023_Dec_29_1637,MFTM_A_new1021,2021.2.3,60.00445232933789,
,,,,,,,,stim/Instruction_adaptive.png,conditions/adaptive.xlsx,test,-0.6,-0.6,-0.6,0.6,0.6,left,L,,,,,0,1,1,1,0,3,3,19,,,,,,,,,,,,,,,,,,,,,,,,,,,,,,,,,,,,,,,,,,,,107.30995709999843,None,left,1,1.5272141000023112,107.8113269999958,108.94725540000218,107.8113269999958,108.44653590000235,107.8113269999958,108.44653590000235,107.8113269999958,108.44653590000235,107.8113269999958,108.44653590000235,107.8113269999958,108.44653590000235,108.42962719999923,108.92970390000119,108.42962719999923,108.92970390000119,108.42962719999923,108.92970390000119,108.42962719999923,108.92970390000119,108.42962719999923,108.92970390000119,108.42962719999923,108.92970390000119,108.42962719999923,108.92970390000119,108.42962719999923,108.92970390000119,107.8113269999958,None,108.92970390000119,110.18183969999518,0.6300000000000003,110.19785179999599,None,110.9497263000012,None,,,,,,,[1.2525],3.940000000000003,0.75,11001,002,2023_Dec_29_1637,MFTM_A_new1021,2021.2.3,60.00445232933789,
,,,,,,,,stim/Instruction_adaptive.png,conditions/adaptive.xlsx,test,-0.6,-0.6,-0.6,0.6,0.6,left,L,,,,,0,1,1,1,0,4,4,9,,,,,,,,,,,,,,,,,,,,,,,,,,,,,,,,,,,,,,,,,,,,111.45053789999656,None,left,1,0.8364664999971865,111.9504237000001,112.8858304000023,111.9504237000001,112.3844539999991,111.9504237000001,112.3844539999991,111.9504237000001,112.3844539999991,111.9504237000001,112.3844539999991,111.9504237000001,112.3844539999991,112.36865170000237,112.8688198000018,112.36865170000237,112.8688198000018,112.36865170000237,112.8688198000018,112.36865170000237,112.8688198000018,112.36865170000237,112.8688198000018,112.36865170000237,112.8688198000018,112.36865170000237,112.8688198000018,112.36865170000237,112.8688198000018,111.9504237000001,None,112.8688198000018,114.28818899999897,0.43000000000000016,114.3039856999967,None,115.05566120000003,None,,,,,,,[1.416],4.370000000000004,0.8,11001,002,2023_Dec_29_1637,MFTM_A_new1021,2021.2.3,60.00445232933789,
,,,,,,,,stim/Instruction_adaptive.png,conditions/adaptive.xlsx,test,0.6,0.6,0.6,-0.6,-0.6,right,R,,,,,0,1,1,1,0,5,5,86,,,,,,,,,,,,,,,,,,,,,,,,,,,,,,,,,,,,,,,,,,,,115.55678610000177,None,left,0,1.609263499994995,116.05711419999716,116.89108529999794,116.05711419999716,116.39108480000141,116.05711419999716,116.39108480000141,116.05711419999716,116.39108480000141,116.05711419999716,116.39108480000141,116.05711419999716,116.39108480000141,116.35712619999686,116.85840599999938,116.35712619999686,116.85840599999938,116.35712619999686,116.85840599999938,116.35712619999686,116.85840599999938,116.35712619999686,116.85840599999938,116.35712619999686,116.85840599999938,116.35712619999686,116.85840599999938,116.35712619999686,116.85840599999938,116.05711419999716,None,116.85840599999938,118.41038349999872,0.32000000000000006,118.42680499999551,None,119.17781799999648,None,,,,,,,[1.54333333],3.5400000000000027,0.6666666666666666,11001,002,2023_Dec_29_1637,MFTM_A_new1021,2021.2.3,60.00445232933789,
,,,,,,,,stim/Instruction_adaptive.png,conditions/adaptive.xlsx,test,0.6,0.6,0.6,-0.6,-0.6,right,R,,,,,0,1,1,1,0,6,6,80,,,,,,,,,,,,,,,,,,,,,,,,,,,,,,,,,,,,,,,,,,,,119.67858229999547,None,left,0,0.9422338000003947,120.18001899999945,121.26462969999557,120.18001899999945,120.76349579999805,120.18001899999945,120.76349579999805,120.18001899999945,120.76349579999805,120.18001899999945,120.76349579999805,120.18001899999945,120.76349579999805,120.73038850000012,121.23076050000236,120.73038850000012,121.23076050000236,120.73038850000012,121.23076050000236,120.73038850000012,121.23076050000236,120.73038850000012,121.23076050000236,120.73038850000012,121.23076050000236,120.73038850000012,121.23076050000236,120.73038850000012,121.23076050000236,120.18001899999945,None,121.23076050000236,122.83330399999977,0.5700000000000003,122.8506333999976,None,123.60151029999543,None,,,,,,,[1.59857143],2.650000000000002,0.5714285714285714,11001,002,2023_Dec_29_1637,MFTM_A_new1021,2021.2.3,60.00445232933789,
,,,,,,,,stim/Instruction_adaptive.png,conditions/adaptive.xlsx,test,-0.6,-0.6,-0.6,0.6,0.6,left,L,,,,,0,1,1,1,0,7,7,85,,,,,,,,,,,,,,,,,,,,,,,,,,,,,,,,,,,,,,,,,,,,124.10192069999903,None,left,1,1.9276104999953532,124.60285979999753,126.15515430000232,124.60285979999753,125.65501190000214,124.60285979999753,125.65501190000214,124.60285979999753,125.65501190000214,124.60285979999753,125.65501190000214,124.60285979999753,125.65501190000214,125.63733259999572,126.1389205000014,125.63733259999572,126.1389205000014,125.63733259999572,126.1389205000014,125.63733259999572,126.1389205000014,125.63733259999572,126.1389205000014,125.63733259999572,126.1389205000014,125.63733259999572,126.1389205000014,125.63733259999572,126.1389205000014,124.60285979999753,None,126.1389205000014,127.5904800999997,1.0500000000000007,127.60695280000073,None,128.35812359999545,None,,,,,,,[[1.45]],3.0200000000000022,0.625,11001,002,2023_Dec_29_1637,MFTM_A_new1021,2021.2.3,60.00445232933789,
,,,,,,,,stim/Instruction_adaptive.png,conditions/adaptive.xlsx,test,0.6,0.6,0.6,-0.6,-0.6,right,R,,,,,0,1,1,1,0,8,8,68,,,,,,,,,,,,,,,,,,,,,,,,,,,,,,,,,,,,,,,,,,,,128.85945709999942,None,left,0,1.347176399998716,129.35957989999588,130.67888780000067,129.35957989999588,130.17726820000098,129.35957989999588,130.17726820000098,129.35957989999588,130.17726820000098,129.35957989999588,130.17726820000098,129.35957989999588,130.17726820000098,130.16087400000106,130.66207439999562,130.16087400000106,130.66207439999562,130.16087400000106,130.66207439999562,130.16087400000106,130.66207439999562,130.16087400000106,130.66207439999562,130.16087400000106,130.66207439999562,130.16087400000106,130.66207439999562,130.16087400000106,130.66207439999562,129.35957989999588,None,130.66207439999562,None,0.8100000000000005,132.26377130000037,None,133.01651200000197,None,,,,,,,[1.59222222],2.2200000000000015,0.5555555555555556,11001,002,2023_Dec_29_1637,MFTM_A_new1021,2021.2.3,60.00445232933789,
,,,,,,,,stim/Instruction_adaptive.png,conditions/adaptive.xlsx,test,-0.6,-0.6,-0.6,0.6,0.6,left,L,,,,,0,1,1,1,0,9,9,37,,,,,,,,,,,,,,,,,,,,,,,,,,,,,,,,,,,,,,,,,,,,133.5162565999999,None,right,0,2.2660246000014013,134.0164741999979,135.93614059999527,134.0164741999979,135.43585429999803,134.0164741999979,135.43585429999803,134.0164741999979,135.43585429999803,134.0164741999979,135.43585429999803,134.0164741999979,135.43585429999803,135.40281909999612,135.90350279999984,135.40281909999612,135.90350279999984,135.40281909999612,135.90350279999984,135.40281909999612,135.90350279999984,135.40281909999612,135.90350279999984,135.40281909999612,135.90350279999984,135.40281909999612,135.90350279999984,135.40281909999612,135.90350279999984,134.0164741999979,None,135.90350279999984,137.00413169999956,1.410000000000001,137.02241559999675,None,137.77307379999547,None,,,,,,,[[1.09]],1.0100000000000005,0.5,11001,002,2023_Dec_29_1637,MFTM_A_new1021,2021.2.3,60.00445232933789,
,,,,,,,,stim/Instruction_adaptive.png,conditions/adaptive.xlsx,test,0.6,0.6,0.6,-0.6,-0.6,right,R,,,,,0,1,1,1,0,10,10,82,,,,,,,,,,,,,,,,,,,,,,,,,,,,,,,,,,,,,,,,,,,,138.27363089999562,None,right,1,1.1730836999995518,138.77363129999867,None,138.77363129999867,141.77775019999535,138.77363129999867,141.77775019999535,138.77363129999867,141.77775019999535,138.77363129999867,141.77775019999535,138.77363129999867,141.77775019999535,141.76151440000103,142.26201269999729,141.76151440000103,142.26201269999729,141.76151440000103,142.26201269999729,141.76151440000103,142.26201269999729,141.76151440000103,142.26201269999729,141.76151440000103,142.26201269999729,141.76151440000103,142.26201269999729,141.76151440000103,142.26201269999729,138.77363129999867,None,142.26201269999729,142.26201269999729,3.0000000000000027,142.27869490000012,None,143.0305636999983,None,,,,,,,0,1.610000000000001,0.5454545454545454,11001,002,2023_Dec_29_1637,MFTM_A_new1021,2021.2.3,60.00445232933789,
,,,,,,,,stim/Instruction_adaptive.png,conditions/adaptive.xlsx,test,0.6,0.6,0.6,-0.6,-0.6,right,R,,,,,0,1,1,1,0,11,11,32,,,,,,,,,,,,,,,,,,,,,,,,,,,,,,,,,,,,,,,,,,,,143.531141499996,None,right,1,1.3791020999997272,144.031487799999,146.7020674000014,144.031487799999,146.20108249999612,144.031487799999,146.20108249999612,144.031487799999,146.20108249999612,144.031487799999,146.20108249999612,144.031487799999,146.20108249999612,146.16879369999515,146.66855170000053,146.16879369999515,146.66855170000053,146.16879369999515,146.66855170000053,146.16879369999515,146.66855170000053,146.16879369999515,146.66855170000053,146.16879369999515,146.66855170000053,146.16879369999515,146.66855170000053,146.16879369999515,146.66855170000053,144.031487799999,None,146.66855170000053,147.01980360000016,2.160000000000002,147.03624860000127,None,147.78726409999945,None,,,,,,,[[0.34]],1.9400000000000013,0.5833333333333334,11001,002,2023_Dec_29_1637,MFTM_A_new1021,2021.2.3,60.00445232933789,
,,,,,,,,stim/Instruction_adaptive.png,conditions/adaptive.xlsx,test,-0.6,-0.6,-0.6,0.6,0.6,left,L,,,,,0,1,1,1,0,12,12,95,,,,,,,,,,,,,,,,,,,,,,,,,,,,,,,,,,,,,,,,,,,,148.2876627000005,None,left,1,1.2859861000033561,148.78840430000128,151.0087444000019,148.78840430000128,150.50821890000225,148.78840430000128,150.50821890000225,148.78840430000128,150.50821890000225,148.78840430000128,150.50821890000225,148.78840430000128,150.50821890000225,150.47428679999575,150.97561409999616,150.47428679999575,150.97561409999616,150.47428679999575,150.97561409999616,150.47428679999575,150.97561409999616,150.47428679999575,150.97561409999616,150.47428679999575,150.97561409999616,150.47428679999575,150.97561409999616,150.47428679999575,150.97561409999616,148.78840430000128,None,150.97561409999616,151.7766208999965,1.7100000000000013,151.79286899999715,None,152.54398319999746,None,,,,,,,[[0.79]],2.1800000000000015,0.6153846153846154,11001,002,2023_Dec_29_1637,MFTM_A_new1021,2021.2.3,60.00445232933789,
,,,,,,,,stim/Instruction_adaptive.png,conditions/adaptive.xlsx,test,0.6,0.6,0.6,-0.6,-0.6,right,R,,,,,0,1,1,1,0,13,13,18,,,,,,,,,,,,,,,,,,,,,,,,,,,,,,,,,,,,,,,,,,,,153.04529699999694,None,right,1,1.410048600002483,153.5452456999992,155.49933939999755,153.5452456999992,154.9977854999961,153.5452456999992,154.9977854999961,153.5452456999992,154.9977854999961,153.5452456999992,154.9977854999961,153.5452456999992,154.9977854999961,154.98075660000177,155.4822944999978,154.98075660000177,155.4822944999978,154.98075660000177,155.4822944999978,154.98075660000177,155.4822944999978,154.98075660000177,155.4822944999978,154.98075660000177,155.4822944999978,154.98075660000177,155.4822944999978,154.98075660000177,155.4822944999978,153.5452456999992,None,155.4822944999978,156.5339210999955,1.450000000000001,156.5505262000006,None,157.30113249999704,None,,,,,,,[[1.05]],2.3600000000000017,0.6428571428571429,11001,002,2023_Dec_29_1637,MFTM_A_new1021,2021.2.3,60.00445232933789,
,,,,,,,,stim/Instruction_adaptive.png,conditions/adaptive.xlsx,test,-0.6,-0.6,-0.6,0.6,0.6,left,L,,,,,0,1,1,1,0,14,14,55,,,,,,,,,,,,,,,,,,,,,,,,,,,,,,,,,,,,,,,,,,,,157.80229439999675,None,left,1,1.1726482000012766,158.30233569999837,160.08866809999745,158.30233569999837,159.58822710000095,158.30233569999837,159.58822710000095,158.30233569999837,159.58822710000095,158.30233569999837,159.58822710000095,158.30233569999837,159.58822710000095,159.5719897999952,160.0725123000011,159.5719897999952,160.0725123000011,159.5719897999952,160.0725123000011,159.5719897999952,160.0725123000011,159.5719897999952,160.0725123000011,159.5719897999952,160.0725123000011,159.5719897999952,160.0725123000011,159.5719897999952,160.0725123000011,158.30233569999837,None,160.0725123000011,161.2909165000019,1.280000000000001,161.3072497999965,None,162.05801950000023,None,,,,,,,[[1.22]],2.520000000000002,0.6666666666666666,11001,002,2023_Dec_29_1637,MFTM_A_new1021,2021.2.3,60.00445232933789,
,,,,,,,,stim/Instruction_adaptive.png,conditions/adaptive.xlsx,test,-0.6,-0.6,-0.6,0.6,0.6,left,L,,,,,0,1,1,1,0,15,15,31,,,,,,,,,,,,,,,,,,,,,,,,,,,,,,,,,,,,,,,,,,,,162.5589065000022,None,right,0,1.9499857999981032,163.06051419999858,164.71175930000027,163.06051419999858,164.21156640000117,163.06051419999858,164.21156640000117,163.06051419999858,164.21156640000117,163.06051419999858,164.21156640000117,163.06051419999858,164.21156640000117,164.19463330000144,164.69507819999853,164.19463330000144,164.69507819999853,164.19463330000144,164.69507819999853,164.19463330000144,164.69507819999853,164.19463330000144,164.69507819999853,164.19463330000144,164.69507819999853,164.19463330000144,164.69507819999853,164.19463330000144,164.69507819999853,163.06051419999858,None,164.69507819999853,165.93055479999748,1.1500000000000008,165.9478111999997,None,166.69909570000164,None,,,,,,,[1.229375],2.110000000000001,0.625,11001,002,2023_Dec_29_1637,MFTM_A_new1021,2021.2.3,60.00445232933789,
,,,,,,,,stim/Instruction_adaptive.png,conditions/adaptive.xlsx,test,-0.6,-0.6,-0.6,0.6,0.6,left,L,,,,,0,1,1,1,0,16,16,15,,,,,,,,,,,,,,,,,,,,,,,,,,,,,,,,,,,,,,,,,,,,167.19927520000056,None,left,1,1.7993433000010555,167.6996999999974,169.7197978999975,167.6996999999974,169.23538810000173,167.6996999999974,169.23538810000173,167.6996999999974,169.23538810000173,167.6996999999974,169.23538810000173,167.6996999999974,169.23538810000173,169.2019508000012,169.7039358999973,169.2019508000012,169.7039358999973,169.2019508000012,169.7039358999973,169.2019508000012,169.7039358999973,169.2019508000012,169.7039358999973,169.2019508000012,169.7039358999973,169.2019508000012,169.7039358999973,169.2019508000012,169.7039358999973,167.6996999999974,None,169.7039358999973,170.6876224000007,1.5200000000000011,170.70413779999944,None,171.45602599999984,None,,,,,,,[[0.98]],2.2700000000000014,0.6470588235294118,11001,002,2023_Dec_29_1637,MFTM_A_new1021,2021.2.3,60.00445232933789,
,,,,,,,,stim/Instruction_adaptive.png,conditions/adaptive.xlsx,test,0.6,0.6,0.6,-0.6,-0.6,right,R,,,,,0,1,1,1,0,17,17,46,,,,,,,,,,,,,,,,,,,,,,,,,,,,,,,,,,,,,,,,,,,,171.95675669999764,None,right,1,1.9924354999966454,172.45817410000018,174.3262859999959,172.45817410000018,173.8254975999953,172.45817410000018,173.8254975999953,172.45817410000018,173.8254975999953,172.45817410000018,173.8254975999953,172.45817410000018,173.8254975999953,173.79208809999545,174.29329049999797,173.79208809999545,174.29329049999797,173.79208809999545,174.29329049999797,173.79208809999545,174.29329049999797,173.79208809999545,174.29329049999797,173.79208809999545,174.29329049999797,173.79208809999545,174.29329049999797,173.79208809999545,174.29329049999797,172.45817410000018,None,174.29329049999797,175.4453446999978,1.360000000000001,175.4614711999966,None,176.21304750000127,None,,,,,,,[[1.14]],2.4000000000000017,0.6666666666666666,11001,002,2023_Dec_29_1637,MFTM_A_new1021,2021.2.3,60.00445232933789,
,,,,,,,,stim/Instruction_adaptive.png,conditions/adaptive.xlsx,test,0.6,0.6,0.6,-0.6,-0.6,right,R,,,,,0,1,1,1,0,18,18,10,,,,,,,,,,,,,,,,,,,,,,,,,,,,,,,,,,,,,,,,,,,,176.71305739999661,None,right,1,1.4446174999975483,177.2138827999952,178.96726019999915,177.2138827999952,178.46642820000125,177.2138827999952,178.46642820000125,177.2138827999952,178.46642820000125,177.2138827999952,178.46642820000125,177.2138827999952,178.46642820000125,178.44957109999814,178.95048990000214,178.44957109999814,178.95048990000214,178.44957109999814,178.95048990000214,178.44957109999814,178.95048990000214,178.44957109999814,178.95048990000214,178.44957109999814,178.95048990000214,178.44957109999814,178.95048990000214,178.44957109999814,178.95048990000214,177.2138827999952,None,178.95048990000214,180.16897299999982,1.2500000000000009,180.1848675000001,None,180.93622560000222,None,,,,,,,[1.21263158],2.520000000000002,0.6842105263157895,11001,002,2023_Dec_29_1637,MFTM_A_new1021,2021.2.3,60.00445232933789,
,,,,,,,,stim/Instruction_adaptive.png,conditions/adaptive.xlsx,test,-0.6,-0.6,-0.6,0.6,0.6,left,L,,,,,0,1,1,1,0,19,19,23,,,,,,,,,,,,,,,,,,,,,,,,,,,,,,,,,,,,,,,,,,,,181.4381110999966,None,left,1,2.3763708000042243,181.9381676999983,183.58978589999606,181.9381676999983,183.09014670000033,181.9381676999983,183.09014670000033,181.9381676999983,183.09014670000033,181.9381676999983,183.09014670000033,181.9381676999983,183.09014670000033,183.0725689999963,183.57321109999612,183.0725689999963,183.57321109999612,183.0725689999963,183.57321109999612,183.0725689999963,183.57321109999612,183.0725689999963,183.57321109999612,183.0725689999963,183.57321109999612,183.0725689999963,183.57321109999612,183.0725689999963,183.57321109999612,181.9381676999983,None,183.57321109999612,184.79172010000184,1.1500000000000008,184.808374799999,None,185.56024790000083,None,,,,,,,[1.2195],2.620000000000002,0.7,11001,002,2023_Dec_29_1637,MFTM_A_new1021,2021.2.3,60.00445232933789,
,,,,,,,,stim/Instruction_adaptive.png,conditions/adaptive.xlsx,test,-0.6,-0.6,-0.6,0.6,0.6,left,L,,,,,0,1,1,1,0,20,20,69,,,,,,,,,,,,,,,,,,,,,,,,,,,,,,,,,,,,,,,,,,,,186.06087860000116,None,left,1,1.561591400000907,186.56096239999897,188.13008439999976,186.56096239999897,187.629211200001,186.56096239999897,187.629211200001,186.56096239999897,187.629211200001,186.56096239999897,187.629211200001,186.56096239999897,187.629211200001,187.61346169999888,188.11407099999633,187.61346169999888,188.11407099999633,187.61346169999888,188.11407099999633,187.61346169999888,188.11407099999633,187.61346169999888,188.11407099999633,187.61346169999888,188.11407099999633,187.61346169999888,188.11407099999633,187.61346169999888,188.11407099999633,186.56096239999897,None,188.11407099999633,189.35007000000041,1.0700000000000007,189.3651530999996,None,190.11628969999583,None,,,,,,,[1.22952381],2.720000000000002,0.7142857142857143,11001,002,2023_Dec_29_1637,MFTM_A_new1021,2021.2.3,60.00445232933789,
,,,,,,,,stim/Instruction_adaptive.png,conditions/adaptive.xlsx,test,0.6,0.6,0.6,-0.6,-0.6,right,R,,,,,0,1,1,1,0,21,21,22,,,,,,,,,,,,,,,,,,,,,,,,,,,,,,,,,,,,,,,,,,,,190.6170628999971,None,right,1,2.6928305000037653,191.118029199999,192.62004819999856,191.118029199999,192.1193729000006,191.118029199999,192.1193729000006,191.118029199999,192.1193729000006,191.118029199999,192.1193729000006,191.118029199999,192.1193729000006,192.10250039999664,192.60323409999546,192.10250039999664,192.60323409999546,192.10250039999664,192.60323409999546,192.10250039999664,192.60323409999546,192.10250039999664,192.60323409999546,192.10250039999664,192.60323409999546,192.10250039999664,192.60323409999546,192.10250039999664,192.60323409999546,191.118029199999,None,192.60323409999546,193.85581290000118,1.0000000000000007,193.8731071000002,None,194.62282089999644,None,,,,,,,[1.24181818],2.800000000000002,0.7272727272727273,11001,002,2023_Dec_29_1637,MFTM_A_new1021,2021.2.3,60.00445232933789,
,,,,,,,,stim/Instruction_adaptive.png,conditions/adaptive.xlsx,test,-0.6,-0.6,-0.6,0.6,0.6,left,L,,,,,0,1,1,1,0,22,22,81,,,,,,,,,,,,,,,,,,,,,,,,,,,,,,,,,,,,,,,,,,,,195.12370360000205,None,left,1,1.0577059000061126,195.62472669999988,197.07660239999677,195.62472669999988,196.57653779999964,195.62472669999988,196.57653779999964,195.62472669999988,196.57653779999964,195.62472669999988,196.57653779999964,195.62472669999988,196.57653779999964,196.54323039999872,197.04378639999777,196.54323039999872,197.04378639999777,196.54323039999872,197.04378639999777,196.54323039999872,197.04378639999777,196.54323039999872,197.04378639999777,196.54323039999872,197.04378639999777,196.54323039999872,197.04378639999777,196.54323039999872,197.04378639999777,195.62472669999988,None,197.04378639999777,198.3133483999991,0.9400000000000006,198.3284954999981,None,199.07982600000105,None,,,,,,,[1.25565217],2.880000000000002,0.7391304347826086,11001,002,2023_Dec_29_1637,MFTM_A_new1021,2021.2.3,60.00445232933789,
,,,,,,,,stim/Instruction_adaptive.png,conditions/adaptive.xlsx,test,0.6,0.6,0.6,-0.6,-0.6,right,R,,,,,0,1,1,1,0,23,23,42,,,,,,,,,,,,,,,,,,,,,,,,,,,,,,,,,,,,,,,,,,,,199.5804261000012,None,right,1,1.1366914000027464,200.08171520000178,201.4834755999982,200.08171520000178,200.9823888999963,200.08171520000178,200.9823888999963,200.08171520000178,200.9823888999963,200.08171520000178,200.9823888999963,200.08171520000178,200.9823888999963,200.94898529999773,201.44966739999654,200.94898529999773,201.44966739999654,200.94898529999773,201.44966739999654,200.94898529999773,201.44966739999654,200.94898529999773,201.44966739999654,200.94898529999773,201.44966739999654,200.94898529999773,201.44966739999654,200.94898529999773,201.44966739999654,200.08171520000178,None,201.44966739999654,202.7357400999972,0.8900000000000006,202.75165910000214,None,203.5027865000011,None,,,,,,,[1.27041667],2.960000000000002,0.75,11001,002,2023_Dec_29_1637,MFTM_A_new1021,2021.2.3,60.00445232933789,
,,,,,,,,stim/Instruction_adaptive.png,conditions/adaptive.xlsx,test,0.6,0.6,0.6,-0.6,-0.6,right,R,,,,,0,1,1,1,0,24,24,92,,,,,,,,,,,,,,,,,,,,,,,,,,,,,,,,,,,,,,,,,,,,204.00373209999816,None,left,0,1.0339467999947374,204.50496620000195,205.8568540999986,204.50496620000195,205.35614029999851,204.50496620000195,205.35614029999851,204.50496620000195,205.35614029999851,204.50496620000195,205.35614029999851,204.50496620000195,205.35614029999851,205.33934059999592,205.83966739999596,205.33934059999592,205.83966739999596,205.33934059999592,205.83966739999596,205.33934059999592,205.83966739999596,205.33934059999592,205.83966739999596,205.33934059999592,205.83966739999596,205.33934059999592,205.83966739999596,205.33934059999592,205.83966739999596,204.50496620000195,None,205.83966739999596,207.12486109999736,0.8500000000000005,207.14143270000204,None,207.89276669999526,None,,,,,,,[1.2856],2.7500000000000018,0.72,11001,002,2023_Dec_29_1637,MFTM_A_new1021,2021.2.3,60.00445232933789,
,,,,,,,,stim/Instruction_adaptive.png,conditions/adaptive.xlsx,test,-0.6,-0.6,-0.6,0.6,0.6,left,L,,,,,0,1,1,1,0,25,25,33,,,,,,,,,,,,,,,,,,,,,,,,,,,,,,,,,,,,,,,,,,,,208.394607299997,None,left,1,1.188344899994263,208.89421980000043,210.37958349999826,208.89421980000043,209.8790244999982,208.89421980000043,209.8790244999982,208.89421980000043,209.8790244999982,208.89421980000043,209.8790244999982,208.89421980000043,209.8790244999982,209.86222799999814,210.36285289999796,209.86222799999814,210.36285289999796,209.86222799999814,210.36285289999796,209.86222799999814,210.36285289999796,209.86222799999814,210.36285289999796,209.86222799999814,210.36285289999796,209.86222799999814,210.36285289999796,209.86222799999814,210.36285289999796,208.89421980000043,None,210.36285289999796,211.66601570000057,0.9800000000000006,211.68099490000168,None,212.43374020000192,None,,,,,,,[1.29461538],2.830000000000002,0.7307692307692307,11001,002,2023_Dec_29_1637,MFTM_A_new1021,2021.2.3,60.00445232933789,
,,,,,,,,stim/Instruction_adaptive.png,conditions/adaptive.xlsx,test,0.6,0.6,0.6,-0.6,-0.6,right,R,,,,,0,1,1,1,0,26,26,52,,,,,,,,,,,,,,,,,,,,,,,,,,,,,,,,,,,,,,,,,,,,212.933600999997,None,right,1,1.5364207000020542,213.43487050000113,214.87037099999725,213.43487050000113,214.3695766000019,213.43487050000113,214.3695766000019,213.43487050000113,214.3695766000019,213.43487050000113,214.3695766000019,213.43487050000113,214.3695766000019,214.35231889999704,214.85364870000194,214.35231889999704,214.85364870000194,214.35231889999704,214.85364870000194,214.35231889999704,214.85364870000194,214.35231889999704,214.85364870000194,214.35231889999704,214.85364870000194,214.35231889999704,214.85364870000194,214.35231889999704,214.85364870000194,213.43487050000113,None,214.85364870000194,None,0.9300000000000006,216.17190509999637,None,216.92316189999838,None,,,,,,,[1.30481481],2.8900000000000023,0.7407407407407407,11001,002,2023_Dec_29_1637,MFTM_A_new1021,2021.2.3,60.00445232933789,
,,,,,,,,stim/Instruction_adaptive.png,conditions/adaptive.xlsx,test,0.6,0.6,0.6,-0.6,-0.6,right,R,,,,,0,1,1,1,0,27,27,28,,,,,,,,,,,,,,,,,,,,,,,,,,,,,,,,,,,,,,,,,,,,217.42340970000078,None,right,1,1.2548819000003277,217.92428680000012,219.3267296999984,217.92428680000012,218.82587979999516,217.92428680000012,218.82587979999516,217.92428680000012,218.82587979999516,217.92428680000012,218.82587979999516,217.92428680000012,218.82587979999516,218.79202239999722,219.29288010000164,218.79202239999722,219.29288010000164,218.79202239999722,219.29288010000164,218.79202239999722,219.29288010000164,218.79202239999722,219.29288010000164,218.79202239999722,219.29288010000164,218.79202239999722,219.29288010000164,218.79202239999722,219.29288010000164,217.92428680000012,None,219.29288010000164,220.6122572000022,0.8900000000000006,220.64559529999678,None,221.3967707999982,None,,,,,,,[1.31571429],2.960000000000002,0.75,11001,002,2023_Dec_29_1637,MFTM_A_new1021,2021.2.3,60.00445232933789,
,,,,,,,,stim/Instruction_adaptive.png,conditions/adaptive.xlsx,test,0.6,0.6,0.6,-0.6,-0.6,right,R,,,,,0,1,1,1,0,28,28,44,,,,,,,,,,,,,,,,,,,,,,,,,,,,,,,,,,,,,,,,,,,,221.89750110000023,None,right,1,1.5807017000042833,222.39805659999547,223.7493136999983,222.39805659999547,223.24865709999722,222.39805659999547,223.24865709999722,222.39805659999547,223.24865709999722,222.39805659999547,223.24865709999722,222.39805659999547,223.24865709999722,223.23206099999516,223.73285809999652,223.23206099999516,223.73285809999652,223.23206099999516,223.73285809999652,223.23206099999516,223.73285809999652,223.23206099999516,223.73285809999652,223.23206099999516,223.73285809999652,223.23206099999516,223.73285809999652,223.23206099999516,223.73285809999652,222.39805659999547,None,223.73285809999652,225.07049199999892,0.8500000000000005,225.08495330000005,None,225.8367328999957,None,,,,,,,[1.32724138],3.0200000000000022,0.7586206896551724,11001,002,2023_Dec_29_1637,MFTM_A_new1021,2021.2.3,60.00445232933789,
,,,,,,,,stim/Instruction_adaptive.png,conditions/adaptive.xlsx,test,-0.6,-0.6,-0.6,0.6,0.6,left,L,,,,,0,1,1,1,0,29,29,25,,,,,,,,,,,,,,,,,,,,,,,,,,,,,,,,,,,,,,,,,,,,226.3364786999955,None,left,1,1.429851900000358,226.83740150000085,228.15670419999515,226.83740150000085,227.65642189999926,226.83740150000085,227.65642189999926,226.83740150000085,227.65642189999926,226.83740150000085,227.65642189999926,226.83740150000085,227.65642189999926,227.6229233999984,228.12294149999798,227.6229233999984,228.12294149999798,227.6229233999984,228.12294149999798,227.6229233999984,228.12294149999798,227.6229233999984,228.12294149999798,227.6229233999984,228.12294149999798,227.6229233999984,228.12294149999798,227.6229233999984,228.12294149999798,226.83740150000085,None,228.12294149999798,229.47613640000054,0.8100000000000005,229.49131829999533,None,230.24272499999643,None,,,,,,,[1.33933333],3.0800000000000023,0.7666666666666667,11001,002,2023_Dec_29_1637,MFTM_A_new1021,2021.2.3,60.00445232933789,
,,,,,,,,stim/Instruction_adaptive.png,conditions/adaptive.xlsx,test,-0.6,-0.6,-0.6,0.6,0.6,left,L,,,,,0,1,1,1,0,30,30,79,,,,,,,,,,,,,,,,,,,,,,,,,,,,,,,,,,,,,,,,,,,,230.7441811999961,None,right,0,1.2304453999968246,231.24460669999826,232.5291625999962,231.24460669999826,232.02849169999536,231.24460669999826,232.02849169999536,231.24460669999826,232.02849169999536,231.24460669999826,232.02849169999536,231.24460669999826,232.02849169999536,232.01240629999666,232.51282669999637,232.01240629999666,232.51282669999637,232.01240629999666,232.51282669999637,232.01240629999666,232.51282669999637,232.01240629999666,232.51282669999637,232.01240629999666,232.51282669999637,232.01240629999666,232.51282669999637,232.01240629999666,232.51282669999637,231.24460669999826,None,232.51282669999637,233.86464819999674,0.7800000000000005,233.88213669999823,None,234.63247050000064,None,,,,,,,[1.3516129],2.910000000000002,0.7419354838709677,11001,002,2023_Dec_29_1637,MFTM_A_new1021,2021.2.3,60.00445232933789,
,,,,,,,,stim/Instruction_adaptive.png,conditions/adaptive.xlsx,test,0.6,0.6,0.6,-0.6,-0.6,right,R,,,,,0,1,1,1,0,31,31,6,,,,,,,,,,,,,,,,,,,,,,,,,,,,,,,,,,,,,,,,,,,,235.13317619999725,None,right,1,1.2171438000004855,235.6338642999981,237.019260699999,235.6338642999981,236.51844880000135,235.6338642999981,236.51844880000135,235.6338642999981,236.51844880000135,235.6338642999981,236.51844880000135,235.6338642999981,236.51844880000135,236.50184810000064,237.00255620000098,236.50184810000064,237.00255620000098,236.50184810000064,237.00255620000098,236.50184810000064,237.00255620000098,236.50184810000064,237.00255620000098,236.50184810000064,237.00255620000098,236.50184810000064,237.00255620000098,236.50184810000064,237.00255620000098,235.6338642999981,None,237.00255620000098,238.37110759999632,0.8800000000000006,238.38858249999612,None,239.1399459999957,None,,,,,,,[1.36],2.9700000000000024,0.75,11001,002,2023_Dec_29_1637,MFTM_A_new1021,2021.2.3,60.00445232933789,
,,,,,,,,stim/Instruction_adaptive.png,conditions/adaptive.xlsx,test,0.6,0.6,0.6,-0.6,-0.6,right,R,,,,,0,1,1,1,0,32,32,50,,,,,,,,,,,,,,,,,,,,,,,,,,,,,,,,,,,,,,,,,,,,239.64041120000184,None,right,1,1.0223791000025813,240.14039629999752,241.4930693999995,240.14039629999752,240.99260030000005,240.14039629999752,240.99260030000005,240.14039629999752,240.99260030000005,240.14039629999752,240.99260030000005,240.14039629999752,240.99260030000005,240.95848449999903,241.45963259999553,240.95848449999903,241.45963259999553,240.95848449999903,241.45963259999553,240.95848449999903,241.45963259999553,240.95848449999903,241.45963259999553,240.95848449999903,241.45963259999553,240.95848449999903,241.45963259999553,240.95848449999903,241.45963259999553,240.14039629999752,None,241.45963259999553,242.82845590000215,0.8400000000000005,242.8620460999955,None,243.61205530000007,None,,,,,,,[1.36909091],3.030000000000002,0.7575757575757576,11001,002,2023_Dec_29_1637,MFTM_A_new1021,2021.2.3,60.00445232933789,
,,,,,,,,stim/Instruction_adaptive.png,conditions/adaptive.xlsx,test,0.6,0.6,0.6,-0.6,-0.6,right,R,,,,,0,1,1,1,0,33,33,64,,,,,,,,,,,,,,,,,,,,,,,,,,,,,,,,,,,,,,,,,,,,244.1136673000001,None,right,1,1.116581700000097,244.61382949999825,245.93289099999674,244.61382949999825,245.4322250999976,244.61382949999825,245.4322250999976,244.61382949999825,245.4322250999976,244.61382949999825,245.4322250999976,244.61382949999825,245.4322250999976,245.41474749999907,245.91633349999756,245.41474749999907,245.91633349999756,245.41474749999907,245.91633349999756,245.41474749999907,245.91633349999756,245.41474749999907,245.91633349999756,245.41474749999907,245.91633349999756,245.41474749999907,245.91633349999756,245.41474749999907,245.91633349999756,244.61382949999825,None,245.91633349999756,247.3023480999982,0.8100000000000005,247.31830339999578,None,248.06907849999698,None,,,,,,,[1.37852941],3.0800000000000023,0.7647058823529411,11001,002,2023_Dec_29_1637,MFTM_A_new1021,2021.2.3,60.00445232933789,
,,,,,,,,stim/Instruction_adaptive.png,conditions/adaptive.xlsx,test,-0.6,-0.6,-0.6,0.6,0.6,left,L,,,,,0,1,1,1,0,34,34,27,,,,,,,,,,,,,,,,,,,,,,,,,,,,,,,,,,,,,,,,,,,,248.5709089000011,None,right,0,1.2518804999999702,249.07075330000225,250.3564561000021,249.07075330000225,249.8549853000004,249.07075330000225,249.8549853000004,249.07075330000225,249.8549853000004,249.07075330000225,249.8549853000004,249.07075330000225,249.8549853000004,249.83801619999576,250.33954020000238,249.83801619999576,250.33954020000238,249.83801619999576,250.33954020000238,249.83801619999576,250.33954020000238,249.83801619999576,250.33954020000238,249.83801619999576,250.33954020000238,249.83801619999576,250.33954020000238,249.83801619999576,250.33954020000238,249.07075330000225,None,250.33954020000238,None,0.7800000000000005,251.7409830999968,None,252.49249879999843,None,,,,,,,[1.38828571],2.9300000000000024,0.7428571428571429,11001,002,2023_Dec_29_1637,MFTM_A_new1021,2021.2.3,60.00445232933789,
,,,,,,,,stim/Instruction_adaptive.png,conditions/adaptive.xlsx,test,-0.6,-0.6,-0.6,0.6,0.6,left,L,,,,,0,1,1,1,0,35,35,7,,,,,,,,,,,,,,,,,,,,,,,,,,,,,,,,,,,,,,,,,,,,252.99351229999593,None,right,0,1.6612269999968703,253.49334839999938,254.86279459999787,253.49334839999938,254.36154890000034,253.49334839999938,254.36154890000034,253.49334839999938,254.36154890000034,253.49334839999938,254.36154890000034,253.49334839999938,254.36154890000034,254.32810600000084,254.82879819999653,254.32810600000084,254.82879819999653,254.32810600000084,254.82879819999653,254.32810600000084,254.82879819999653,254.32810600000084,254.82879819999653,254.32810600000084,254.82879819999653,254.32810600000084,254.82879819999653,254.32810600000084,254.82879819999653,253.49334839999938,None,254.82879819999653,256.23074420000194,0.8600000000000005,256.2641627999983,None,257.016008300001,None,,,,,,,[1.39527778],2.780000000000002,0.7222222222222222,11001,002,2023_Dec_29_1637,MFTM_A_new1021,2021.2.3,60.00445232933789,
,,,,,,,,stim/Instruction_adaptive.png,conditions/adaptive.xlsx,test,0.6,0.6,0.6,-0.6,-0.6,right,R,,,,,0,1,1,1,0,36,36,36,,,,,,,,,,,,,,,,,,,,,,,,,,,,,,,,,,,,,,,,,,,,257.5173577999958,None,right,1,1.168686599994544,258.0178852999961,259.485568899996,258.0178852999961,258.98570939999627,258.0178852999961,258.98570939999627,258.0178852999961,258.98570939999627,258.0178852999961,258.98570939999627,258.0178852999961,258.98570939999627,258.9681608999963,259.46941309999966,258.9681608999963,259.46941309999966,258.9681608999963,259.46941309999966,258.9681608999963,259.46941309999966,258.9681608999963,259.46941309999966,258.9681608999963,259.46941309999966,258.9681608999963,259.46941309999966,258.9681608999963,259.46941309999966,258.0178852999961,None,259.4528625000021,260.85464299999876,0.9600000000000006,260.8877281000023,None,261.6394727000006,None,,,,,,,[1.39918919],2.830000000000002,0.7297297297297297,11001,002,2023_Dec_29_1637,MFTM_A_new1021,2021.2.3,60.00445232933789,
,,,,,,,,stim/Instruction_adaptive.png,conditions/adaptive.xlsx,test,0.6,0.6,0.6,-0.6,-0.6,right,R,,,,,0,1,1,1,0,37,37,24,,,,,,,,,,,,,,,,,,,,,,,,,,,,,,,,,,,,,,,,,,,,262.1407992999957,None,right,1,1.210616200005461,262.6402209000007,264.07652640000015,262.6402209000007,263.5765393999973,262.6402209000007,263.5765393999973,262.6402209000007,263.5765393999973,262.6402209000007,263.5765393999973,262.6402209000007,263.5765393999973,263.5583259999985,264.0599562999996,263.5583259999985,264.0599562999996,263.5583259999985,264.0599562999996,263.5583259999985,264.0599562999996,263.5583259999985,264.0599562999996,263.5583259999985,264.0599562999996,263.5583259999985,264.0599562999996,263.5583259999985,264.0599562999996,262.6402209000007,None,264.0599562999996,None,0.9300000000000006,265.4783416999999,None,266.2298699000021,None,,,,,,,[1.40368421],2.880000000000002,0.7368421052631579,11001,002,2023_Dec_29_1637,MFTM_A_new1021,2021.2.3,60.00445232933789,
,,,,,,,,stim/Instruction_adaptive.png,conditions/adaptive.xlsx,test,0.6,0.6,0.6,-0.6,-0.6,right,R,,,,,0,1,1,1,0,38,38,2,,,,,,,,,,,,,,,,,,,,,,,,,,,,,,,,,,,,,,,,,,,,266.7302606000012,None,right,1,1.74829740000132,267.23037040000054,268.6329407000012,267.23037040000054,268.13183079999726,267.23037040000054,268.13183079999726,267.23037040000054,268.13183079999726,267.23037040000054,268.13183079999726,267.23037040000054,268.13183079999726,268.0989150999958,268.5998638000019,268.0989150999958,268.5998638000019,268.0989150999958,268.5998638000019,268.0989150999958,268.5998638000019,268.0989150999958,268.5998638000019,268.0989150999958,268.5998638000019,268.0989150999958,268.5998638000019,268.0989150999958,268.5998638000019,267.23037040000054,None,268.5998638000019,270.01903740000125,0.8900000000000006,270.0341513999956,None,270.7864319,None,,,,,,,[1.40897436],2.9300000000000024,0.7435897435897436,11001,002,2023_Dec_29_1637,MFTM_A_new1021,2021.2.3,60.00445232933789,
,,,,,,,,stim/Instruction_adaptive.png,conditions/adaptive.xlsx,test,-0.6,-0.6,-0.6,0.6,0.6,left,L,,,,,0,1,1,1,0,39,39,5,,,,,,,,,,,,,,,,,,,,,,,,,,,,,,,,,,,,,,,,,,,,271.2867729999998,None,left,1,1.2318563000007998,271.7872456999976,273.15655479999987,271.7872456999976,272.65535429999727,271.7872456999976,272.65535429999727,271.7872456999976,272.65535429999727,271.7872456999976,272.65535429999727,271.7872456999976,272.65535429999727,272.6389500000005,273.1404659999971,272.6389500000005,273.1404659999971,272.6389500000005,273.1404659999971,272.6389500000005,273.1404659999971,272.6389500000005,273.1404659999971,272.6389500000005,273.1404659999971,272.6389500000005,273.1404659999971,272.6389500000005,273.1404659999971,271.7872456999976,None,273.1404659999971,274.5583234000005,0.8600000000000005,274.574509500002,None,275.32642320000014,None,,,,,,,[1.41475],2.980000000000002,0.75,11001,002,2023_Dec_29_1637,MFTM_A_new1021,2021.2.3,60.00445232933789,
,,,,,,,,stim/Instruction_adaptive.png,conditions/adaptive.xlsx,test,-0.6,-0.6,-0.6,0.6,0.6,left,L,,,,,0,1,1,1,0,40,40,83,,,,,,,,,,,,,,,,,,,,,,,,,,,,,,,,,,,,,,,,,,,,275.8267111000023,None,right,0,1.4829916000016965,276.32766809999885,277.6627520999973,276.32766809999885,277.1630301999976,276.32766809999885,277.1630301999976,276.32766809999885,277.1630301999976,276.32766809999885,277.1630301999976,276.32766809999885,277.1630301999976,277.1462223999988,277.6469244999971,277.1462223999988,277.6469244999971,277.1462223999988,277.6469244999971,277.1462223999988,277.6469244999971,277.1462223999988,277.6469244999971,277.1462223999988,277.6469244999971,277.1462223999988,277.6469244999971,277.1462223999988,277.6469244999971,276.32766809999885,None,277.6469244999971,None,0.8300000000000005,279.08148020000226,None,279.8332803000012,None,,,,,,,[1.42097561],2.8500000000000023,0.7317073170731707,11001,002,2023_Dec_29_1637,MFTM_A_new1021,2021.2.3,60.00445232933789,
,,,,,,,,stim/Instruction_adaptive.png,conditions/adaptive.xlsx,test,-0.6,-0.6,-0.6,0.6,0.6,left,L,,,,,0,1,1,1,0,41,41,89,,,,,,,,,,,,,,,,,,,,,,,,,,,,,,,,,,,,,,,,,,,,280.33328549999715,None,left,1,1.7445059000019683,280.83414359999733,282.2527549000006,280.83414359999733,281.7521657999969,280.83414359999733,281.7521657999969,280.83414359999733,281.7521657999969,280.83414359999733,281.7521657999969,280.83414359999733,281.7521657999969,281.7184372999982,282.21940860000177,281.7184372999982,282.21940860000177,281.7184372999982,282.21940860000177,281.7184372999982,282.21940860000177,281.7184372999982,282.21940860000177,281.7184372999982,282.21940860000177,281.7184372999982,282.21940860000177,281.7184372999982,282.21940860000177,280.83414359999733,None,282.21940860000177,283.65508319999935,0.9100000000000006,283.6719301999983,None,284.42360760000156,None,,,,,,,[1.425],2.8900000000000023,0.7380952380952381,11001,002,2023_Dec_29_1637,MFTM_A_new1021,2021.2.3,60.00445232933789,
,,,,,,,,stim/Instruction_adaptive.png,conditions/adaptive.xlsx,test,0.6,0.6,0.6,-0.6,-0.6,right,R,,,,,0,1,1,1,0,42,42,12,,,,,,,,,,,,,,,,,,,,,,,,,,,,,,,,,,,,,,,,,,,,284.92384489999677,None,left,0,1.2895681000009063,285.4251906999998,286.82664719999593,285.4251906999998,286.32541130000027,285.4251906999998,286.32541130000027,285.4251906999998,286.32541130000027,285.4251906999998,286.32541130000027,285.4251906999998,286.32541130000027,286.2927383999995,286.79362989999936,286.2927383999995,286.79362989999936,286.2927383999995,286.79362989999936,286.2927383999995,286.79362989999936,286.2927383999995,286.79362989999936,286.2927383999995,286.79362989999936,286.2927383999995,286.79362989999936,286.2927383999995,286.79362989999936,285.4251906999998,None,286.79362989999936,288.2286391000016,0.8900000000000006,288.2450162000023,None,288.9961880999981,None,,,,,,,[1.42930233],2.760000000000002,0.7209302325581395,11001,002,2023_Dec_29_1637,MFTM_A_new1021,2021.2.3,60.00445232933789,
,,,,,,,,stim/Instruction_adaptive.png,conditions/adaptive.xlsx,test,-0.6,-0.6,-0.6,0.6,0.6,left,L,,,,,0,1,1,1,0,43,43,39,,,,,,,,,,,,,,,,,,,,,,,,,,,,,,,,,,,,,,,,,,,,289.49712539999746,None,left,1,1.3799703000040608,289.9985128999979,291.48320760000206,289.9985128999979,290.98251190000155,289.9985128999979,290.98251190000155,289.9985128999979,290.98251190000155,289.9985128999979,290.98251190000155,289.9985128999979,290.98251190000155,290.9489676000012,291.45000789999904,290.9489676000012,291.45000789999904,290.9489676000012,291.45000789999904,290.9489676000012,291.45000789999904,290.9489676000012,291.45000789999904,290.9489676000012,291.45000789999904,290.9489676000012,291.45000789999904,290.9489676000012,291.45000789999904,289.9985128999979,None,291.45000789999904,292.88607229999616,0.9700000000000006,292.9014443999986,None,293.6541158999971,None,,,,,,,[1.43159091],2.8100000000000023,0.7272727272727273,11001,002,2023_Dec_29_1637,MFTM_A_new1021,2021.2.3,60.00445232933789,
,,,,,,,,stim/Instruction_adaptive.png,conditions/adaptive.xlsx,test,-0.6,-0.6,-0.6,0.6,0.6,left,L,,,,,0,1,1,1,0,44,44,73,,,,,,,,,,,,,,,,,,,,,,,,,,,,,,,,,,,,,,,,,,,,294.15475380000134,None,left,1,1.836326700002246,294.65450730000157,296.1065765000021,294.65450730000157,295.6064385999998,294.65450730000157,295.6064385999998,294.65450730000157,295.6064385999998,294.65450730000157,295.6064385999998,294.65450730000157,295.6064385999998,295.5725949999978,296.07339109999884,295.5725949999978,296.07339109999884,295.5725949999978,296.07339109999884,295.5725949999978,296.07339109999884,295.5725949999978,296.07339109999884,295.5725949999978,296.07339109999884,295.5725949999978,296.07339109999884,295.5725949999978,296.07339109999884,294.65450730000157,None,296.07339109999884,297.509326899999,0.9400000000000006,297.54337269999814,None,298.2934929999974,None,,,,,,,[1.43444444],2.8500000000000023,0.7333333333333333,11001,002,2023_Dec_29_1637,MFTM_A_new1021,2021.2.3,60.00445232933789,
,,,,,,,,stim/Instruction_adaptive.png,conditions/adaptive.xlsx,test,0.6,0.6,0.6,-0.6,-0.6,right,R,,,,,0,1,1,1,0,45,45,4,,,,,,,,,,,,,,,,,,,,,,,,,,,,,,,,,,,,,,,,,,,,298.7937818999999,None,right,1,1.331900899996981,299.29549199999747,300.7139489999972,299.29549199999747,300.21259160000045,299.29549199999747,300.21259160000045,299.29549199999747,300.21259160000045,299.29549199999747,300.21259160000045,299.29549199999747,300.21259160000045,300.1794527999955,300.68051769999875,300.1794527999955,300.68051769999875,300.1794527999955,300.68051769999875,300.1794527999955,300.68051769999875,300.1794527999955,300.68051769999875,300.1794527999955,300.68051769999875,300.1794527999955,300.68051769999875,300.1794527999955,300.68051769999875,299.29549199999747,None,300.68051769999875,302.13235279999935,0.9100000000000006,302.14971109999897,None,302.90302689999953,None,,,,,,,[1.43782609],2.8900000000000023,0.7391304347826086,11001,002,2023_Dec_29_1637,MFTM_A_new1021,2021.2.3,60.00445232933789,
,,,,,,,,stim/Instruction_adaptive.png,conditions/adaptive.xlsx,test,-0.6,-0.6,-0.6,0.6,0.6,left,L,,,,,0,1,1,1,0,46,46,51,,,,,,,,,,,,,,,,,,,,,,,,,,,,,,,,,,,,,,,,,,,,303.4187860999955,None,left,1,1.0925100000022212,303.91802549999557,305.3218745999984,303.91802549999557,304.81989140000223,303.91802549999557,304.81989140000223,303.91802549999557,304.81989140000223,303.91802549999557,304.81989140000223,303.91802549999557,304.81989140000223,304.7868997999976,305.2870755999975,304.7868997999976,305.2870755999975,304.7868997999976,305.2870755999975,304.7868997999976,305.2870755999975,304.7868997999976,305.2870755999975,304.7868997999976,305.2870755999975,304.7868997999976,305.2870755999975,304.7868997999976,305.2870755999975,303.91802549999557,None,305.2870755999975,306.7393662999966,0.8900000000000006,306.75645539999823,None,307.50775939999585,None,,,,,,,[1.44148936],2.9300000000000024,0.7446808510638298,11001,002,2023_Dec_29_1637,MFTM_A_new1021,2021.2.3,60.00445232933789,
,,,,,,,,stim/Instruction_adaptive.png,conditions/adaptive.xlsx,test,-0.6,-0.6,-0.6,0.6,0.6,left,L,,,,,0,1,1,1,0,47,47,1,,,,,,,,,,,,,,,,,,,,,,,,,,,,,,,,,,,,,,,,,,,,308.00908139999956,None,left,1,1.3347330999968108,308.508262299998,309.87710230000084,308.508262299998,309.37640660000034,308.508262299998,309.37640660000034,308.508262299998,309.37640660000034,308.508262299998,309.37640660000034,308.508262299998,309.37640660000034,309.3430604999958,309.84354650000023,309.3430604999958,309.84354650000023,309.3430604999958,309.84354650000023,309.3430604999958,309.84354650000023,309.3430604999958,309.84354650000023,309.3430604999958,309.84354650000023,309.3430604999958,309.84354650000023,309.3430604999958,309.84354650000023,308.508262299998,None,309.84354650000023,311.29674779999914,0.8600000000000005,311.3130336999966,None,312.0636599999998,None,,,,,,,[1.445625],2.9700000000000024,0.75,11001,002,2023_Dec_29_1637,MFTM_A_new1021,2021.2.3,60.00445232933789,
,,,,,,,,stim/Instruction_adaptive.png,conditions/adaptive.xlsx,test,0.6,0.6,0.6,-0.6,-0.6,right,R,,,,,0,1,1,1,0,48,48,14,,,,,,,,,,,,,,,,,,,,,,,,,,,,,,,,,,,,,,,,,,,,312.56441130000167,None,left,0,1.729636299998674,313.0651329999964,314.4177536999996,313.0651329999964,313.91634150000027,313.0651329999964,313.91634150000027,313.0651329999964,313.91634150000027,313.0651329999964,313.91634150000027,313.0651329999964,313.91634150000027,313.88291860000027,314.3843080000006,313.88291860000027,314.3843080000006,313.88291860000027,314.3843080000006,313.88291860000027,314.3843080000006,313.88291860000027,314.3843080000006,313.88291860000027,314.3843080000006,313.88291860000027,314.3843080000006,313.88291860000027,314.3843080000006,313.0651329999964,None,314.3843080000006,315.8372642999966,0.8400000000000005,315.8692960999979,None,316.62047399999574,None,,,,,,,[1.45],2.860000000000002,0.7346938775510204,11001,002,2023_Dec_29_1637,MFTM_A_new1021,2021.2.3,60.00445232933789,
,,,,,,,,stim/Instruction_adaptive.png,conditions/adaptive.xlsx,test,0.6,0.6,0.6,-0.6,-0.6,right,R,,,,,0,1,1,1,0,49,49,98,,,,,,,,,,,,,,,,,,,,,,,,,,,,,,,,,,,,,,,,,,,,317.1212486000004,None,left,0,1.9724809000035748,317.62209299999813,319.041186800001,317.62209299999813,318.5408795999974,317.62209299999813,318.5408795999974,317.62209299999813,318.5408795999974,317.62209299999813,318.5408795999974,317.62209299999813,318.5408795999974,318.5065379000007,319.0090588999956,318.5065379000007,319.0090588999956,318.5065379000007,319.0090588999956,318.5065379000007,319.0090588999956,318.5065379000007,319.0090588999956,318.5065379000007,319.0090588999956,318.5065379000007,319.0090588999956,318.5065379000007,319.0090588999956,317.62209299999813,None,319.0090588999956,320.4775131999995,0.9100000000000006,320.49334490000183,None,321.24459869999555,None,,,,,,,[1.4528],2.740000000000002,0.72,11001,002,2023_Dec_29_1637,MFTM_A_new1021,2021.2.3,60.00445232933789,
,,,,,,,,stim/Instruction_adaptive.png,conditions/adaptive.xlsx,test,0.6,0.6,0.6,-0.6,-0.6,right,R,,,,,0,1,1,1,0,50,50,74,,,,,,,,,,,,,,,,,,,,,,,,,,,,,,,,,,,,,,,,,,,,321.74478010000166,None,left,0,1.9728366999988793,322.245759999998,323.7323840999961,322.245759999998,323.23015229999874,322.245759999998,323.23015229999874,322.245759999998,323.23015229999874,322.245759999998,323.23015229999874,322.245759999998,323.23015229999874,323.21449810000195,323.71409519999725,323.21449810000195,323.71409519999725,323.21449810000195,323.71409519999725,323.21449810000195,323.71409519999725,323.21449810000195,323.71409519999725,323.21449810000195,323.71409519999725,323.21449810000195,323.71409519999725,323.21449810000195,323.71409519999725,322.245759999998,None,323.71409519999725,325.16694789999747,0.9800000000000006,325.18315260000236,None,325.9359175999998,None,,,,,,,[1.45411765],2.620000000000002,0.7058823529411765,11001,002,2023_Dec_29_1637,MFTM_A_new1021,2021.2.3,60.00445232933789,
,,,,,,,,stim/Instruction_adaptive.png,conditions/adaptive.xlsx,test,-0.6,-0.6,-0.6,0.6,0.6,left,L,,,,,0,1,1,1,0,51,51,41,,,,,,,,,,,,,,,,,,,,,,,,,,,,,,,,,,,,,,,,,,,,326.4356732000015,None,right,0,2.579104800002824,326.93568409999716,328.50581879999663,326.93568409999716,328.0213337999958,326.93568409999716,328.0213337999958,326.93568409999716,328.0213337999958,326.93568409999716,328.0213337999958,326.93568409999716,328.0213337999958,327.98723179999797,328.4888269000003,327.98723179999797,328.4888269000003,327.98723179999797,328.4888269000003,327.98723179999797,328.4888269000003,327.98723179999797,328.4888269000003,327.98723179999797,328.4888269000003,327.98723179999797,328.4888269000003,327.98723179999797,328.4888269000003,326.93568409999716,None,328.4888269000003,329.9236416999993,1.0700000000000007,329.9401113999993,None,330.6919349999953,None,,,,,,,[[1.43]],2.4800000000000018,0.6923076923076923,11001,002,2023_Dec_29_1637,MFTM_A_new1021,2021.2.3,60.00445232933789,
,,,,,,,,stim/Instruction_adaptive.png,conditions/adaptive.xlsx,test,0.6,0.6,0.6,-0.6,-0.6,right,R,,,,,0,1,1,1,0,52,52,72,,,,,,,,,,,,,,,,,,,,,,,,,,,,,,,,,,,,,,,,,,,,331.19258779999655,None,right,1,2.406496600000537,331.69266849999985,333.3787167999981,331.69266849999985,332.8778127999976,331.69266849999985,332.8778127999976,331.69266849999985,332.8778127999976,331.69266849999985,332.8778127999976,331.69266849999985,332.8778127999976,332.8622260999982,333.3625706000021,332.8622260999982,333.3625706000021,332.8622260999982,333.3625706000021,332.8622260999982,333.3625706000021,332.8622260999982,333.3625706000021,332.8622260999982,333.3625706000021,332.8622260999982,333.3625706000021,332.8622260999982,333.3625706000021,331.69266849999985,None,333.3625706000021,None,1.1800000000000008,334.6965569000022,None,335.44826069999544,None,,,,,,,[[1.32]],2.530000000000002,0.6981132075471698,11001,002,2023_Dec_29_1637,MFTM_A_new1021,2021.2.3,60.00445232933789,
,,,,,,,,stim/Instruction_adaptive.png,conditions/adaptive.xlsx,test,0.6,0.6,0.6,-0.6,-0.6,right,R,,,,,0,1,1,1,0,53,53,60,,,,,,,,,,,,,,,,,,,,,,,,,,,,,,,,,,,,,,,,,,,,335.9495114999954,None,right,1,2.2567973999975948,336.4498614999975,338.1028043999977,336.4498614999975,337.60158370000136,336.4498614999975,337.60158370000136,336.4498614999975,337.60158370000136,336.4498614999975,337.60158370000136,336.4498614999975,337.60158370000136,337.5686501999953,338.06889399999636,337.5686501999953,338.06889399999636,337.5686501999953,338.06889399999636,337.5686501999953,338.06889399999636,337.5686501999953,338.06889399999636,337.5686501999953,338.06889399999636,337.5686501999953,338.06889399999636,337.5686501999953,338.06889399999636,336.4498614999975,None,338.06889399999636,339.43837289999647,1.1400000000000008,339.4550420000014,None,340.2054050000006,None,,,,,,,[[1.36]],2.570000000000002,0.7037037037037037,11001,002,2023_Dec_29_1637,MFTM_A_new1021,2021.2.3,60.00445232933789,
,,,,,,,,stim/Instruction_adaptive.png,conditions/adaptive.xlsx,test,0.6,0.6,0.6,-0.6,-0.6,right,R,,,,,0,1,1,1,0,54,54,34,,,,,,,,,,,,,,,,,,,,,,,,,,,,,,,,,,,,,,,,,,,,340.70611339999596,None,left,0,1.6666592999972636,341.20809179999924,342.8268567999985,341.20809179999924,342.325794700002,341.20809179999924,342.325794700002,341.20809179999924,342.325794700002,341.20809179999924,342.325794700002,341.20809179999924,342.325794700002,342.3084174999967,342.8102405999962,342.3084174999967,342.8102405999962,342.3084174999967,342.8102405999962,342.3084174999967,342.8102405999962,342.3084174999967,342.8102405999962,342.3084174999967,342.8102405999962,342.3084174999967,342.8102405999962,342.3084174999967,342.8102405999962,341.20809179999924,None,342.7924755999993,344.1953297,1.1100000000000008,344.2119781000001,None,344.9629137000011,None,,,,,,,[[1.39]],2.4400000000000017,0.6909090909090909,11001,002,2023_Dec_29_1637,MFTM_A_new1021,2021.2.3,60.00445232933789,
,,,,,,,,stim/Instruction_adaptive.png,conditions/adaptive.xlsx,test,-0.6,-0.6,-0.6,0.6,0.6,left,L,,,,,0,1,1,1,0,55,55,61,,,,,,,,,,,,,,,,,,,,,,,,,,,,,,,,,,,,,,,,,,,,345.46395029999985,None,left,1,1.643743100001302,345.9667881999994,347.68387999999686,345.9667881999994,347.1825969999991,345.9667881999994,347.1825969999991,345.9667881999994,347.1825969999991,345.9667881999994,347.1825969999991,345.9667881999994,347.1825969999991,347.1491804999969,347.64970139999787,347.1491804999969,347.64970139999787,347.1491804999969,347.64970139999787,347.1491804999969,347.64970139999787,347.1491804999969,347.64970139999787,347.1491804999969,347.64970139999787,347.1491804999969,347.64970139999787,347.1491804999969,347.64970139999787,345.9667881999994,None,347.64970139999787,348.9522053999972,1.2100000000000009,348.9683250999951,None,349.71953380000195,None,,,,,,,[[1.29]],2.490000000000002,0.6964285714285714,11001,002,2023_Dec_29_1637,MFTM_A_new1021,2021.2.3,60.00445232933789,
,,,,,,,,stim/Instruction_adaptive.png,conditions/adaptive.xlsx,test,0.6,0.6,0.6,-0.6,-0.6,right,R,,,,,0,1,1,1,0,56,56,66,,,,,,,,,,,,,,,,,,,,,,,,,,,,,,,,,,,,,,,,,,,,350.22018039999966,None,right,1,1.2813586999982363,350.7212770999977,352.3916164999973,350.7212770999977,351.90599120000115,350.7212770999977,351.90599120000115,350.7212770999977,351.90599120000115,350.7212770999977,351.90599120000115,350.7212770999977,351.90599120000115,351.8729658000011,352.3735699999961,351.8729658000011,352.3735699999961,351.8729658000011,352.3735699999961,351.8729658000011,352.3735699999961,351.8729658000011,352.3735699999961,351.8729658000011,352.3735699999961,351.8729658000011,352.3735699999961,351.8729658000011,352.3735699999961,350.7212770999977,None,352.3735699999961,353.70874950000143,1.1700000000000008,353.72535049999715,None,354.47727969999687,None,,,,,,,[[1.33]],2.530000000000002,0.7017543859649122,11001,002,2023_Dec_29_1637,MFTM_A_new1021,2021.2.3,60.00445232933789,
,,,,,,,,stim/Instruction_adaptive.png,conditions/adaptive.xlsx,test,-0.6,-0.6,-0.6,0.6,0.6,left,L,,,,,0,1,1,1,0,57,57,71,,,,,,,,,,,,,,,,,,,,,,,,,,,,,,,,,,,,,,,,,,,,354.97776670000167,None,left,1,1.620676899998216,355.47802570000204,357.1317925999974,355.47802570000204,356.6298166999986,355.47802570000204,356.6298166999986,355.47802570000204,356.6298166999986,355.47802570000204,356.6298166999986,355.47802570000204,356.6298166999986,356.59629019999556,357.09704369999963,356.59629019999556,357.09704369999963,356.59629019999556,357.09704369999963,356.59629019999556,357.09704369999963,356.59629019999556,357.09704369999963,356.59629019999556,357.09704369999963,356.59629019999556,357.09704369999963,356.59629019999556,357.09704369999963,355.47802570000204,None,357.09704369999963,358.4664954999971,1.1400000000000008,358.48260819999996,None,359.23405239999556,None,,,,,,,[[1.36]],2.570000000000002,0.7068965517241379,11001,002,2023_Dec_29_1637,MFTM_A_new1021,2021.2.3,60.00445232933789,
,,,,,,,,stim/Instruction_adaptive.png,conditions/adaptive.xlsx,test,0.6,0.6,0.6,-0.6,-0.6,right,R,,,,,0,1,1,1,0,58,58,84,,,,,,,,,,,,,,,,,,,,,,,,,,,,,,,,,,,,,,,,,,,,359.73464239999885,None,left,0,1.440333799997461,360.2348739000008,361.8551284999994,360.2348739000008,361.35436169999593,360.2348739000008,361.35436169999593,360.2348739000008,361.35436169999593,360.2348739000008,361.35436169999593,360.2348739000008,361.35436169999593,361.32095839999965,361.82155200000125,361.32095839999965,361.82155200000125,361.32095839999965,361.82155200000125,361.32095839999965,361.82155200000125,361.32095839999965,361.82155200000125,361.32095839999965,361.82155200000125,361.32095839999965,361.82155200000125,361.32095839999965,361.82155200000125,360.2348739000008,None,361.82155200000125,363.2256572999977,1.1100000000000008,363.2388909000001,None,363.9908138999963,None,,,,,,,[[1.39]],2.450000000000002,0.6949152542372882,11001,002,2023_Dec_29_1637,MFTM_A_new1021,2021.2.3,60.00445232933789,
,,,,,,,,stim/Instruction_adaptive.png,conditions/adaptive.xlsx,test,-0.6,-0.6,-0.6,0.6,0.6,left,L,,,,,0,1,1,1,0,59,59,63,,,,,,,,,,,,,,,,,,,,,,,,,,,,,,,,,,,,,,,,,,,,364.49127040000167,None,left,1,1.8267478000052506,364.99188850000064,366.69580779999524,364.99188850000064,366.1938422999956,364.99188850000064,366.1938422999956,364.99188850000064,366.1938422999956,364.99188850000064,366.1938422999956,364.99188850000064,366.1938422999956,366.17708069999935,366.6778678999981,366.17708069999935,366.6778678999981,366.17708069999935,366.6778678999981,366.17708069999935,366.6778678999981,366.17708069999935,366.6778678999981,366.17708069999935,366.6778678999981,366.17708069999935,366.6778678999981,366.17708069999935,366.6778678999981,364.99188850000064,None,366.6778678999981,367.9803686000014,1.2000000000000008,367.9965404999966,None,368.7483362999992,None,,,,,,,[[1.3]],2.5000000000000018,0.7,11001,002,2023_Dec_29_1637,MFTM_A_new1021,2021.2.3,60.00445232933789,
,,,,,,,,stim/Instruction_adaptive.png,conditions/adaptive.xlsx,test,0.6,0.6,0.6,-0.6,-0.6,right,R,,,,,0,1,1,1,0,60,60,54,,,,,,,,,,,,,,,,,,,,,,,,,,,,,,,,,,,,,,,,,,,,369.2493076999963,None,right,1,2.62861829999747,369.75015780000103,371.41912729999603,369.75015780000103,370.9175295000023,369.75015780000103,370.9175295000023,369.75015780000103,370.9175295000023,369.75015780000103,370.9175295000023,369.75015780000103,370.9175295000023,370.90089910000097,371.4015311999974,370.90089910000097,371.4015311999974,370.90089910000097,371.4015311999974,370.90089910000097,371.4015311999974,370.90089910000097,371.4015311999974,370.90089910000097,371.4015311999974,370.90089910000097,371.4015311999974,370.90089910000097,371.4015311999974,369.75015780000103,None,371.38497579999967,372.73696599999676,1.1600000000000008,372.75349379999534,None,373.50468649999675,None,,,,,,,[[1.34]],2.540000000000002,0.7049180327868853,11001,002,2023_Dec_29_1637,MFTM_A_new1021,2021.2.3,60.00445232933789,
,,,,,,,,stim/Instruction_adaptive.png,conditions/adaptive.xlsx,test,0.6,0.6,0.6,-0.6,-0.6,right,R,,,,,0,1,1,1,0,61,61,8,,,,,,,,,,,,,,,,,,,,,,,,,,,,,,,,,,,,,,,,,,,,374.0052766000008,None,right,1,1.8727787000025273,374.5062428999954,376.14269429999695,374.5062428999954,375.6411303999994,374.5062428999954,375.6411303999994,374.5062428999954,375.6411303999994,374.5062428999954,375.6411303999994,374.5062428999954,375.6411303999994,375.6244571999996,376.1257448999968,375.6244571999996,376.1257448999968,375.6244571999996,376.1257448999968,375.6244571999996,376.1257448999968,375.6244571999996,376.1257448999968,375.6244571999996,376.1257448999968,375.6244571999996,376.1257448999968,375.6244571999996,376.1257448999968,374.5062428999954,None,376.10878689999663,377.4779114999983,1.1300000000000008,377.5112852999955,None,378.26190759999736,None,,,,,,,[[1.37]],2.570000000000002,0.7096774193548387,11001,002,2023_Dec_29_1637,MFTM_A_new1021,2021.2.3,60.00445232933789,
,,,,,,,,stim/Instruction_adaptive.png,conditions/adaptive.xlsx,test,0.6,0.6,0.6,-0.6,-0.6,right,R,,,,,0,1,1,1,0,62,62,26,,,,,,,,,,,,,,,,,,,,,,,,,,,,,,,,,,,,,,,,,,,,378.7623875999998,None,right,1,1.5636045999999624,379.2632761999994,380.88288920000196,379.2632761999994,380.38160349999816,379.2632761999994,380.38160349999816,379.2632761999994,380.38160349999816,379.2632761999994,380.38160349999816,379.2632761999994,380.38160349999816,380.3491460000005,380.8496417999995,380.3491460000005,380.8496417999995,380.3491460000005,380.8496417999995,380.3491460000005,380.8496417999995,380.3491460000005,380.8496417999995,380.3491460000005,380.8496417999995,380.3491460000005,380.8496417999995,380.3491460000005,380.8496417999995,379.2632761999994,None,380.8496417999995,382.2513865000001,1.1100000000000008,382.26826540000184,None,383.01877599999716,None,,,,,,,[[1.39]],2.610000000000002,0.7142857142857143,11001,002,2023_Dec_29_1637,MFTM_A_new1021,2021.2.3,60.00445232933789,
,,,,,,,,stim/Instruction_adaptive.png,conditions/adaptive.xlsx,test,0.6,0.6,0.6,-0.6,-0.6,right,R,,,,,0,1,1,1,0,63,63,38,,,,,,,,,,,,,,,,,,,,,,,,,,,,,,,,,,,,,,,,,,,,383.5194076999978,None,left,0,2.262320899993938,384.0204072999986,385.6062837999998,384.0204072999986,385.10583439999755,384.0204072999986,385.10583439999755,384.0204072999986,385.10583439999755,384.0204072999986,385.10583439999755,384.0204072999986,385.10583439999755,385.0885500000004,385.58935019999626,385.0885500000004,385.58935019999626,385.0885500000004,385.58935019999626,385.0885500000004,385.58935019999626,385.0885500000004,385.58935019999626,385.0885500000004,385.58935019999626,385.0885500000004,385.58935019999626,385.0885500000004,385.58935019999626,384.0204072999986,None,385.58935019999626,387.007958299997,1.0800000000000007,387.024519599996,None,387.7769167000006,None,,,,,,,[[1.42]],2.5000000000000018,0.703125,11001,002,2023_Dec_29_1637,MFTM_A_new1021,2021.2.3,60.00445232933789,
,,,,,,,,stim/Instruction_adaptive.png,conditions/adaptive.xlsx,test,0.6,0.6,0.6,-0.6,-0.6,right,R,,,,,0,1,1,1,0,64,64,62,,,,,,,,,,,,,,,,,,,,,,,,,,,,,,,,,,,,,,,,,,,,388.2773268000019,None,right,1,2.5773986999993213,388.7773684999993,390.4470683999971,388.7773684999993,389.94639189999725,388.7773684999993,389.94639189999725,388.7773684999993,389.94639189999725,388.7773684999993,389.94639189999725,388.7773684999993,389.94639189999725,389.9297806999966,390.4298259999996,389.9297806999966,390.4298259999996,389.9297806999966,390.4298259999996,389.9297806999966,390.4298259999996,389.9297806999966,390.4298259999996,389.9297806999966,390.4298259999996,389.9297806999966,390.4298259999996,389.9297806999966,390.4298259999996,388.7773684999993,None,390.4130499000021,391.7659665999963,1.1600000000000008,391.7816087999963,None,392.53316890000133,None,,,,,,,[[1.34]],2.540000000000002,0.7076923076923077,11001,002,2023_Dec_29_1637,MFTM_A_new1021,2021.2.3,60.00445232933789,
,,,,,,,,stim/Instruction_adaptive.png,conditions/adaptive.xlsx,test,0.6,0.6,0.6,-0.6,-0.6,right,R,,,,,0,1,1,1,0,65,65,48,,,,,,,,,,,,,,,,,,,,,,,,,,,,,,,,,,,,,,,,,,,,393.03449790000013,None,right,1,1.996036999997159,393.5347404999993,395.17081089999556,393.5347404999993,394.6694482000021,393.5347404999993,394.6694482000021,393.5347404999993,394.6694482000021,393.5347404999993,394.6694482000021,393.5347404999993,394.6694482000021,394.6526909000022,395.1541040000011,394.6526909000022,395.1541040000011,394.6526909000022,395.1541040000011,394.6526909000022,395.1541040000011,394.6526909000022,395.1541040000011,394.6526909000022,395.1541040000011,394.6526909000022,395.1541040000011,394.6526909000022,395.1541040000011,393.5347404999993,None,395.1541040000011,None,1.1300000000000008,396.5399533999953,None,397.29017439999734,None,,,,,,,[[1.37]],2.580000000000002,0.7121212121212122,11001,002,2023_Dec_29_1637,MFTM_A_new1021,2021.2.3,60.00445232933789,
,,,,,,,,stim/Instruction_adaptive.png,conditions/adaptive.xlsx,test,-0.6,-0.6,-0.6,0.6,0.6,left,L,,,,,0,1,1,1,0,66,66,91,,,,,,,,,,,,,,,,,,,,,,,,,,,,,,,,,,,,,,,,,,,,397.7907861999993,None,left,1,1.1106098000018392,398.29207339999994,399.89505429999554,398.29207339999994,399.3930104999963,398.29207339999994,399.3930104999963,398.29207339999994,399.3930104999963,398.29207339999994,399.3930104999963,398.29207339999994,399.3930104999963,399.3765215000021,399.8781269999963,399.3765215000021,399.8781269999963,399.3765215000021,399.8781269999963,399.3765215000021,399.8781269999963,399.3765215000021,399.8781269999963,399.3765215000021,399.8781269999963,399.3765215000021,399.8781269999963,399.3765215000021,399.8781269999963,398.29207339999994,None,399.8781269999963,401.27918820000195,1.1000000000000008,401.2968103000021,None,402.0484929000013,None,,,,,,,[[1.4]],2.610000000000002,0.7164179104477612,11001,002,2023_Dec_29_1637,MFTM_A_new1021,2021.2.3,60.00445232933789,
,,,,,,,,stim/Instruction_adaptive.png,conditions/adaptive.xlsx,test,-0.6,-0.6,-0.6,0.6,0.6,left,L,,,,,0,1,1,1,0,67,67,35,,,,,,,,,,,,,,,,,,,,,,,,,,,,,,,,,,,,,,,,,,,,402.54834319999645,None,left,1,1.033785200001148,403.0489432999966,404.6348638999989,403.0489432999966,404.1333195999978,403.0489432999966,404.1333195999978,403.0489432999966,404.1333195999978,403.0489432999966,404.1333195999978,403.0489432999966,404.1333195999978,404.1166169999997,404.61813309999707,404.1166169999997,404.61813309999707,404.1166169999997,404.61813309999707,404.1166169999997,404.61813309999707,404.1166169999997,404.61813309999707,404.1166169999997,404.61813309999707,404.1166169999997,404.61813309999707,404.1166169999997,404.61813309999707,403.0489432999966,None,404.61813309999707,None,1.0800000000000007,406.05296369999996,None,406.80473429999984,None,,,,,,,[[1.42]],2.640000000000002,0.7205882352941176,11001,002,2023_Dec_29_1637,MFTM_A_new1021,2021.2.3,60.00445232933789,
,,,,,,,,stim/Instruction_adaptive.png,conditions/adaptive.xlsx,test,-0.6,-0.6,-0.6,0.6,0.6,left,L,,,,,0,1,1,1,0,68,68,75,,,,,,,,,,,,,,,,,,,,,,,,,,,,,,,,,,,,,,,,,,,,407.30554689999553,None,left,1,1.4604758999994374,407.8062371999986,409.3750605999958,407.8062371999986,408.8743566999983,407.8062371999986,408.8743566999983,407.8062371999986,408.8743566999983,407.8062371999986,408.8743566999983,407.8062371999986,408.8743566999983,408.8403408000013,409.3419608999975,408.8403408000013,409.3419608999975,408.8403408000013,409.3419608999975,408.8403408000013,409.3419608999975,408.8403408000013,409.3419608999975,408.8403408000013,409.3419608999975,408.8403408000013,409.3419608999975,408.8403408000013,409.3419608999975,407.8062371999986,None,409.3419608999975,410.776675000001,1.0600000000000007,410.8100670999993,None,411.56177110000135,None,,,,,,,[1.43217391],2.6700000000000017,0.7246376811594203,11001,002,2023_Dec_29_1637,MFTM_A_new1021,2021.2.3,60.00445232933789,
,,,,,,,,stim/Instruction_adaptive.png,conditions/adaptive.xlsx,test,0.6,0.6,0.6,-0.6,-0.6,right,R,,,,,0,1,1,1,0,69,69,76,,,,,,,,,,,,,,,,,,,,,,,,,,,,,,,,,,,,,,,,,,,,412.0618677999955,None,right,1,1.5363104999996722,412.56250870000076,414.0983367000008,412.56250870000076,413.5972899999979,412.56250870000076,413.5972899999979,412.56250870000076,413.5972899999979,412.56250870000076,413.5972899999979,412.56250870000076,413.5972899999979,413.5807319000014,414.0817535000024,413.5807319000014,414.0817535000024,413.5807319000014,414.0817535000024,413.5807319000014,414.0817535000024,413.5807319000014,414.0817535000024,413.5807319000014,414.0817535000024,413.5807319000014,414.0817535000024,413.5807319000014,414.0817535000024,412.56250870000076,None,414.0817535000024,415.5185896999974,1.0300000000000007,415.5336621999959,None,416.2848223999972,None,,,,,,,[1.43271429],2.700000000000002,0.7285714285714285,11001,002,2023_Dec_29_1637,MFTM_A_new1021,2021.2.3,60.00445232933789,
,,,,,,,,stim/Instruction_adaptive.png,conditions/adaptive.xlsx,test,0.6,0.6,0.6,-0.6,-0.6,right,R,,,,,0,1,1,1,0,70,70,58,,,,,,,,,,,,,,,,,,,,,,,,,,,,,,,,,,,,,,,,,,,,416.7861743999965,None,right,1,1.4766299000038998,417.28622789999645,418.8051161999974,417.28622789999645,418.30502949999936,417.28622789999645,418.30502949999936,417.28622789999645,418.30502949999936,417.28622789999645,418.30502949999936,417.28622789999645,418.30502949999936,418.28771309999865,418.7890389999957,418.28771309999865,418.7890389999957,418.28771309999865,418.7890389999957,418.28771309999865,418.7890389999957,418.28771309999865,418.7890389999957,418.28771309999865,418.7890389999957,418.28771309999865,418.7890389999957,418.28771309999865,418.7890389999957,417.28622789999645,None,418.77199689999543,420.20772459999716,1.0100000000000007,420.24065359999804,None,420.9922548999966,None,,,,,,,[1.43352113],2.730000000000002,0.7323943661971831,11001,002,2023_Dec_29_1637,MFTM_A_new1021,2021.2.3,60.00445232933789,
,,,,,,,,stim/Instruction_adaptive.png,conditions/adaptive.xlsx,test,-0.6,-0.6,-0.6,0.6,0.6,left,L,,,,,0,1,1,1,0,71,71,29,,,,,,,,,,,,,,,,,,,,,,,,,,,,,,,,,,,,,,,,,,,,421.4929398999957,None,right,0,2.3928427999999258,421.9938153999974,423.4957097000006,421.9938153999974,422.99504660000093,421.9938153999974,422.99504660000093,421.9938153999974,422.99504660000093,421.9938153999974,422.99504660000093,421.9938153999974,422.99504660000093,422.96125649999885,423.4624019999974,422.96125649999885,423.4624019999974,422.96125649999885,423.4624019999974,422.96125649999885,423.4624019999974,422.96125649999885,423.4624019999974,422.96125649999885,423.4624019999974,422.96125649999885,423.4624019999974,422.96125649999885,423.4624019999974,421.9938153999974,None,423.4624019999974,424.8976485000021,0.9900000000000007,424.93067809999775,None,425.68237950000184,None,,,,,,,[1.43458333],2.650000000000002,0.7222222222222222,11001,002,2023_Dec_29_1637,MFTM_A_new1021,2021.2.3,60.00445232933789,
,,,,,,,,stim/Instruction_adaptive.png,conditions/adaptive.xlsx,test,-0.6,-0.6,-0.6,0.6,0.6,left,L,,,,,0,1,1,1,0,72,72,67,,,,,,,,,,,,,,,,,,,,,,,,,,,,,,,,,,,,,,,,,,,,426.1833813999983,None,left,1,1.2074011000004248,426.6836786999993,428.2364830000006,426.6836786999993,427.73494579999533,426.6836786999993,427.73494579999533,426.6836786999993,427.73494579999533,426.6836786999993,427.73494579999533,426.6836786999993,427.73494579999533,427.718205899997,428.2191873999982,427.718205899997,428.2191873999982,427.718205899997,428.2191873999982,427.718205899997,428.2191873999982,427.718205899997,428.2191873999982,427.718205899997,428.2191873999982,427.718205899997,428.2191873999982,427.718205899997,428.2191873999982,426.6836786999993,None,428.2191873999982,429.6545843999993,1.0500000000000007,429.6713015999994,None,430.4233181000018,None,,,,,,,[1.43479452],2.680000000000002,0.726027397260274,11001,002,2023_Dec_29_1637,MFTM_A_new1021,2021.2.3,60.00445232933789,
,,,,,,,,stim/Instruction_adaptive.png,conditions/adaptive.xlsx,test,0.6,0.6,0.6,-0.6,-0.6,right,R,,,,,0,1,1,1,0,73,73,56,,,,,,,,,,,,,,,,,,,,,,,,,,,,,,,,,,,,,,,,,,,,430.9238671999992,None,right,1,1.7783006000026944,431.42453649999516,432.9598263000007,431.42453649999516,432.4586235999959,431.42453649999516,432.4586235999959,431.42453649999516,432.4586235999959,431.42453649999516,432.4586235999959,431.42453649999516,432.4586235999959,432.44202609999775,432.9432319999978,432.44202609999775,432.9432319999978,432.44202609999775,432.9432319999978,432.44202609999775,432.9432319999978,432.44202609999775,432.9432319999978,432.44202609999775,432.9432319999978,432.44202609999775,432.9432319999978,432.44202609999775,432.9432319999978,431.42453649999516,None,432.9432319999978,434.380361800002,1.0300000000000007,434.3950621999975,None,435.146479199997,None,,,,,,,[1.43527027],2.7100000000000017,0.7297297297297297,11001,002,2023_Dec_29_1637,MFTM_A_new1021,2021.2.3,60.00445232933789,
,,,,,,,,stim/Instruction_adaptive.png,conditions/adaptive.xlsx,test,-0.6,-0.6,-0.6,0.6,0.6,left,L,,,,,0,1,1,1,0,74,74,17,,,,,,,,,,,,,,,,,,,,,,,,,,,,,,,,,,,,,,,,,,,,435.6483464999983,None,left,1,1.8616952000011224,436.1653170999998,437.68442009999853,436.1653170999998,437.1831327999971,436.1653170999998,437.1831327999971,436.1653170999998,437.1831327999971,436.1653170999998,437.1831327999971,436.1653170999998,437.1831327999971,437.14915949999704,437.6496941000005,437.14915949999704,437.6496941000005,437.14915949999704,437.6496941000005,437.14915949999704,437.6496941000005,437.14915949999704,437.6496941000005,437.14915949999704,437.6496941000005,437.14915949999704,437.6496941000005,437.14915949999704,437.6496941000005,436.1653170999998,None,437.6496941000005,439.08606999999756,1.0100000000000007,439.1194562000019,None,439.87056279999524,None,,,,,,,[1.436],2.730000000000002,0.7333333333333333,11001,002,2023_Dec_29_1637,MFTM_A_new1021,2021.2.3,60.00445232933789,
,,,,,,,,stim/Instruction_adaptive.png,conditions/adaptive.xlsx,test,0.6,0.6,0.6,-0.6,-0.6,right,R,,,,,0,1,1,1,0,75,75,70,,,,,,,,,,,,,,,,,,,,,,,,,,,,,,,,,,,,,,,,,,,,440.37081059999764,None,right,1,1.4995960000014747,440.87193560000014,442.373617199999,440.87193560000014,441.873565599999,440.87193560000014,441.873565599999,440.87193560000014,441.873565599999,440.87193560000014,441.873565599999,440.87193560000014,441.873565599999,441.8400238999966,442.3401307999957,441.8400238999966,442.3401307999957,441.8400238999966,442.3401307999957,441.8400238999966,442.3401307999957,441.8400238999966,442.3401307999957,441.8400238999966,442.3401307999957,441.8400238999966,442.3401307999957,441.8400238999966,442.3401307999957,440.87193560000014,None,442.3401307999957,443.77636150000035,0.9900000000000007,443.8093191000007,None,444.5603761999955,None,,,,,,,[1.43697368],2.760000000000002,0.7368421052631579,11001,002,2023_Dec_29_1637,MFTM_A_new1021,2021.2.3,60.00445232933789,
,,,,,,,,stim/Instruction_adaptive.png,conditions/adaptive.xlsx,test,-0.6,-0.6,-0.6,0.6,0.6,left,L,,,,,0,1,1,1,0,76,76,57,,,,,,,,,,,,,,,,,,,,,,,,,,,,,,,,,,,,,,,,,,,,445.0614560999966,None,left,1,1.2171457000004011,445.5616011999955,447.03185259999736,445.5616011999955,446.5298352999962,445.5616011999955,446.5298352999962,445.5616011999955,446.5298352999962,445.5616011999955,446.5298352999962,445.5616011999955,446.5298352999962,446.5141186999972,447.0146611999953,446.5141186999972,447.0146611999953,446.5141186999972,447.0146611999953,446.5141186999972,447.0146611999953,446.5141186999972,447.0146611999953,446.5141186999972,447.0146611999953,446.5141186999972,447.0146611999953,446.5141186999972,447.0146611999953,445.5616011999955,None,447.0146611999953,448.4657850000003,0.9700000000000006,448.4824088000023,None,449.2334626000011,None,,,,,,,[1.43818182],2.790000000000002,0.7402597402597403,11001,002,2023_Dec_29_1637,MFTM_A_new1021,2021.2.3,60.00445232933789,
,,,,,,,,stim/Instruction_adaptive.png,conditions/adaptive.xlsx,test,0.6,0.6,0.6,-0.6,-0.6,right,R,,,,,0,1,1,1,0,77,77,40,,,,,,,,,,,,,,,,,,,,,,,,,,,,,,,,,,,,,,,,,,,,449.7342878999989,None,right,1,1.5682740000047488,450.2357608999955,451.68769130000146,450.2357608999955,451.18672389999847,450.2357608999955,451.18672389999847,450.2357608999955,451.18672389999847,450.2357608999955,451.18672389999847,450.2357608999955,451.18672389999847,451.17076509999606,451.670947300001,451.17076509999606,451.670947300001,451.17076509999606,451.670947300001,451.17076509999606,451.670947300001,451.17076509999606,451.670947300001,451.17076509999606,451.670947300001,451.17076509999606,451.670947300001,451.17076509999606,451.670947300001,450.2357608999955,None,451.670947300001,453.12301429999934,0.9500000000000006,453.1399681999974,None,453.8914366999961,None,,,,,,,[1.43961538],2.8100000000000023,0.7435897435897436,11001,002,2023_Dec_29_1637,MFTM_A_new1021,2021.2.3,60.00445232933789,
,,,,,,,,stim/Instruction_adaptive.png,conditions/adaptive.xlsx,test,-0.6,-0.6,-0.6,0.6,0.6,left,L,,,,,0,1,1,1,0,78,78,65,,,,,,,,,,,,,,,,,,,,,,,,,,,,,,,,,,,,,,,,,,,,454.3919550999999,None,right,0,1.9110073999981978,454.8918588000015,456.34409649999725,454.8918588000015,455.8434664000015,454.8918588000015,455.8434664000015,454.8918588000015,455.8434664000015,454.8918588000015,455.8434664000015,454.8918588000015,455.8434664000015,455.81053149999934,456.3107827999993,455.81053149999934,456.3107827999993,455.81053149999934,456.3107827999993,455.81053149999934,456.3107827999993,455.81053149999934,456.3107827999993,455.81053149999934,456.3107827999993,455.81053149999934,456.3107827999993,455.81053149999934,456.3107827999993,454.8918588000015,None,456.3107827999993,457.76365729999816,0.9400000000000006,457.77962919999845,None,458.5316720999981,None,,,,,,,[1.44113924],2.740000000000002,0.7341772151898734,11001,002,2023_Dec_29_1637,MFTM_A_new1021,2021.2.3,60.00445232933789,
,,,,,,,,stim/Instruction_adaptive.png,conditions/adaptive.xlsx,test,0.6,0.6,0.6,-0.6,-0.6,right,R,,,,,0,1,1,1,0,79,79,90,,,,,,,,,,,,,,,,,,,,,,,,,,,,,,,,,,,,,,,,,,,,459.0323397999964,None,right,1,1.4701910000003409,459.5327219999963,461.01772399999754,459.5327219999963,460.5179233999952,459.5327219999963,460.5179233999952,459.5327219999963,460.5179233999952,459.5327219999963,460.5179233999952,459.5327219999963,460.5179233999952,460.5008843999967,461.0017569999982,460.5008843999967,461.0017569999982,460.5008843999967,461.0017569999982,460.5008843999967,461.0017569999982,460.5008843999967,461.0017569999982,460.5008843999967,461.0017569999982,460.5008843999967,461.0017569999982,460.5008843999967,461.0017569999982,459.5327219999963,None,461.0017569999982,462.45373129999643,0.9800000000000006,462.4698778999955,None,463.2212709000014,None,,,,,,,[1.442125],2.760000000000002,0.7375,11001,002,2023_Dec_29_1637,MFTM_A_new1021,2021.2.3,60.00445232933789,
,,,,,,,,stim/Instruction_adaptive.png,conditions/adaptive.xlsx,test,0.6,0.6,0.6,-0.6,-0.6,right,R,,,,,0,1,1,1,0,80,80,20,,,,,,,,,,,,,,,,,,,,,,,,,,,,,,,,,,,,,,,,,,,,463.72168229999806,None,right,1,1.724953099997947,464.2223692999978,465.69158349999634,464.2223692999978,465.20716040000116,464.2223692999978,465.20716040000116,464.2223692999978,465.20716040000116,464.2223692999978,465.20716040000116,464.2223692999978,465.20716040000116,465.17386489999626,465.6754624000023,465.17386489999626,465.6754624000023,465.17386489999626,465.6754624000023,465.17386489999626,465.6754624000023,465.17386489999626,465.6754624000023,465.17386489999626,465.6754624000023,465.17386489999626,465.6754624000023,465.17386489999626,465.6754624000023,464.2223692999978,None,465.6754624000023,467.127316099999,0.9700000000000006,467.14354820000153,None,467.8944293999957,None,,,,,,,[1.44320988],2.790000000000002,0.7407407407407407,11001,002,2023_Dec_29_1637,MFTM_A_new1021,2021.2.3,60.00445232933789,
,,,,,,,,stim/Instruction_adaptive.png,conditions/adaptive.xlsx,test,-0.6,-0.6,-0.6,0.6,0.6,left,L,,,,,0,1,1,1,0,81,81,53,,,,,,,,,,,,,,,,,,,,,,,,,,,,,,,,,,,,,,,,,,,,468.39543330000015,None,left,1,1.1066987000012887,468.89651230000163,470.3483092999959,468.89651230000163,469.84827309999673,468.89651230000163,469.84827309999673,468.89651230000163,469.84827309999673,468.89651230000163,469.84827309999673,468.89651230000163,469.84827309999673,469.8308627000006,470.33247539999866,469.8308627000006,470.33247539999866,469.8308627000006,470.33247539999866,469.8308627000006,470.33247539999866,469.8308627000006,470.33247539999866,469.8308627000006,470.33247539999866,469.8308627000006,470.33247539999866,469.8308627000006,470.33247539999866,468.89651230000163,None,470.33247539999866,471.78360229999817,0.9500000000000006,471.800974699996,None,472.55208879999554,None,,,,,,,[1.4445122],2.8100000000000023,0.7439024390243902,11001,002,2023_Dec_29_1637,MFTM_A_new1021,2021.2.3,60.00445232933789,
,,,,,,,,stim/Instruction_adaptive.png,conditions/adaptive.xlsx,test,-0.6,-0.6,-0.6,0.6,0.6,left,L,,,,,0,1,1,1,0,82,82,93,,,,,,,,,,,,,,,,,,,,,,,,,,,,,,,,,,,,,,,,,,,,473.0533199999991,None,right,0,1.6181895000045188,473.5530163000003,475.0053665000014,473.5530163000003,474.50529780000215,473.5530163000003,474.50529780000215,473.5530163000003,474.50529780000215,473.5530163000003,474.50529780000215,473.5530163000003,474.50529780000215,474.4709675999984,474.97184969999944,474.4709675999984,474.97184969999944,474.4709675999984,474.97184969999944,474.4709675999984,474.97184969999944,474.4709675999984,474.97184969999944,474.4709675999984,474.97184969999944,474.4709675999984,474.97184969999944,474.4709675999984,474.97184969999944,473.5530163000003,None,474.97184969999944,476.42452339999727,0.9400000000000006,476.4400486000013,None,477.1917401999963,None,,,,,,,[1.44590361],2.740000000000002,0.7349397590361446,11001,002,2023_Dec_29_1637,MFTM_A_new1021,2021.2.3,60.00445232933789,
,,,,,,,,stim/Instruction_adaptive.png,conditions/adaptive.xlsx,test,-0.6,-0.6,-0.6,0.6,0.6,left,L,,,,,0,1,1,1,0,83,83,87,,,,,,,,,,,,,,,,,,,,,,,,,,,,,,,,,,,,,,,,,,,,477.69317500000034,None,left,1,1.1617363000041223,478.1931648999962,479.6800105000002,478.1931648999962,479.17884899999626,478.1931648999962,479.17884899999626,478.1931648999962,479.17884899999626,478.1931648999962,479.17884899999626,478.1931648999962,479.17884899999626,479.16137380000146,479.66227269999945,479.16137380000146,479.66227269999945,479.16137380000146,479.66227269999945,479.16137380000146,479.66227269999945,479.16137380000146,479.66227269999945,479.16137380000146,479.66227269999945,479.16137380000146,479.66227269999945,479.16137380000146,479.66227269999945,478.1931648999962,None,479.66227269999945,481.1151540999999,0.9800000000000006,481.1307865999988,None,481.88215910000145,None,,,,,,,[1.44678571],2.760000000000002,0.7380952380952381,11001,002,2023_Dec_29_1637,MFTM_A_new1021,2021.2.3,60.00445232933789,
,,,,,,,,stim/Instruction_adaptive.png,conditions/adaptive.xlsx,test,0.6,0.6,0.6,-0.6,-0.6,right,R,,,,,0,1,1,1,0,84,84,16,,,,,,,,,,,,,,,,,,,,,,,,,,,,,,,,,,,,,,,,,,,,482.383207699997,None,right,1,2.727401000003738,482.8836213999966,484.35276560000057,482.8836213999966,483.8692827999985,482.8836213999966,483.8692827999985,482.8836213999966,483.8692827999985,482.8836213999966,483.8692827999985,482.8836213999966,483.8692827999985,483.83552999999665,484.33593539999856,483.83552999999665,484.33593539999856,483.83552999999665,484.33593539999856,483.83552999999665,484.33593539999856,483.83552999999665,484.33593539999856,483.83552999999665,484.33593539999856,483.83552999999665,484.33593539999856,483.83552999999665,484.33593539999856,482.8836213999966,None,484.33593539999856,485.7886486999996,0.9700000000000006,485.80448619999515,None,486.55638909999834,None,,,,,,,[1.44776471],2.790000000000002,0.7411764705882353,11001,002,2023_Dec_29_1637,MFTM_A_new1021,2021.2.3,60.00445232933789,
,,,,,,,,stim/Instruction_adaptive.png,conditions/adaptive.xlsx,test,-0.6,-0.6,-0.6,0.6,0.6,left,L,,,,,0,1,1,1,0,85,85,43,,,,,,,,,,,,,,,,,,,,,,,,,,,,,,,,,,,,,,,,,,,,487.0568265999973,None,left,1,1.7979769000012311,487.55702709999605,489.0110552999977,487.55702709999605,488.50909690000117,487.55702709999605,488.50909690000117,487.55702709999605,488.50909690000117,487.55702709999605,488.50909690000117,487.55702709999605,488.50909690000117,488.491803799996,488.99247399999877,488.491803799996,488.99247399999877,488.491803799996,488.99247399999877,488.491803799996,488.99247399999877,488.491803799996,488.99247399999877,488.491803799996,488.99247399999877,488.491803799996,488.99247399999877,488.491803799996,488.99247399999877,487.55702709999605,None,488.99247399999877,490.44455169999856,0.9500000000000006,490.46192390000215,None,491.2129913999961,None,,,,,,,[1.44895349],2.8100000000000023,0.7441860465116279,11001,002,2023_Dec_29_1637,MFTM_A_new1021,2021.2.3,60.00445232933789,
,,,,,,,,stim/Instruction_adaptive.png,conditions/adaptive.xlsx,test,-0.6,-0.6,-0.6,0.6,0.6,left,L,,,,,0,1,1,1,0,86,86,97,,,,,,,,,,,,,,,,,,,,,,,,,,,,,,,,,,,,,,,,,,,,491.71380489999865,None,right,0,2.0687825999993947,492.2144971000016,493.66613589999906,492.2144971000016,493.1655189000012,492.2144971000016,493.1655189000012,492.2144971000016,493.1655189000012,492.2144971000016,493.1655189000012,492.2144971000016,493.1655189000012,493.1326840999973,493.63298499999655,493.1326840999973,493.63298499999655,493.1326840999973,493.63298499999655,493.1326840999973,493.63298499999655,493.1326840999973,493.63298499999655,493.1326840999973,493.63298499999655,493.1326840999973,493.63298499999655,493.1326840999973,493.63298499999655,492.2144971000016,None,493.63298499999655,495.08546779999597,0.9400000000000006,495.11817809999775,None,495.8700064000004,None,,,,,,,[1.45022989],2.740000000000002,0.735632183908046,11001,002,2023_Dec_29_1637,MFTM_A_new1021,2021.2.3,60.00445232933789,
,,,,,,,,stim/Instruction_adaptive.png,conditions/adaptive.xlsx,test,-0.6,-0.6,-0.6,0.6,0.6,left,L,,,,,0,1,1,1,0,87,87,77,,,,,,,,,,,,,,,,,,,,,,,,,,,,,,,,,,,,,,,,,,,,496.3702940000003,None,left,1,1.1715241999991122,496.871501900001,498.35737349999545,496.871501900001,497.8556926999954,496.871501900001,497.8556926999954,496.871501900001,497.8556926999954,496.871501900001,497.8556926999954,496.871501900001,497.8556926999954,497.8393141999986,498.3409968999986,497.8393141999986,498.3409968999986,497.8393141999986,498.3409968999986,497.8393141999986,498.3409968999986,497.8393141999986,498.3409968999986,497.8393141999986,498.3409968999986,497.8393141999986,498.3409968999986,497.8393141999986,498.3409968999986,496.871501900001,None,498.3409968999986,499.7944520999954,0.9800000000000006,499.8255998999957,None,500.57730150000134,None,,,,,,,[1.45102273],2.7700000000000022,0.7386363636363636,11001,002,2023_Dec_29_1637,MFTM_A_new1021,2021.2.3,60.00445232933789,
,,,,,,,,stim/Instruction_adaptive.png,conditions/adaptive.xlsx,test,-0.6,-0.6,-0.6,0.6,0.6,left,L,,,,,0,1,1,1,0,88,88,11,,,,,,,,,,,,,,,,,,,,,,,,,,,,,,,,,,,,,,,,,,,,501.0783777999968,None,left,1,1.0017232999962289,501.5778022000013,503.04725789999793,501.5778022000013,502.5465408000018,501.5778022000013,502.5465408000018,501.5778022000013,502.5465408000018,501.5778022000013,502.5465408000018,501.5778022000013,502.5465408000018,502.5131074000019,503.01409879999846,502.5131074000019,503.01409879999846,502.5131074000019,503.01409879999846,502.5131074000019,503.01409879999846,502.5131074000019,503.01409879999846,502.5131074000019,503.01409879999846,502.5131074000019,503.01409879999846,502.5131074000019,503.01409879999846,501.5778022000013,None,503.01409879999846,504.4653040999983,0.9600000000000006,504.4992502000023,None,505.25018889999774,None,,,,,,,[1.45202247],2.790000000000002,0.7415730337078652,11001,002,2023_Dec_29_1637,MFTM_A_new1021,2021.2.3,60.00445232933789,
,,,,,,,,stim/Instruction_adaptive.png,conditions/adaptive.xlsx,test,-0.6,-0.6,-0.6,0.6,0.6,left,L,,,,,0,1,1,1,0,89,89,99,,,,,,,,,,,,,,,,,,,,,,,,,,,,,,,,,,,,,,,,,,,,505.7506665999972,None,left,1,1.3275216999973054,506.25136349999957,507.7046285999968,506.25136349999957,507.2028597999961,506.25136349999957,507.2028597999961,506.25136349999957,507.2028597999961,506.25136349999957,507.2028597999961,506.25136349999957,507.2028597999961,507.1867788000018,507.68677949999983,507.1867788000018,507.68677949999983,507.1867788000018,507.68677949999983,507.1867788000018,507.68677949999983,507.1867788000018,507.68677949999983,507.1867788000018,507.68677949999983,507.1867788000018,507.68677949999983,507.1867788000018,507.68677949999983,506.25136349999957,None,507.68677949999983,509.13962999999785,0.9500000000000006,509.15580919999775,None,509.9076089000009,None,,,,,,,[1.45311111],2.8100000000000023,0.7444444444444445,11001,002,2023_Dec_29_1637,MFTM_A_new1021,2021.2.3,60.00445232933789,
,,,,,,,,stim/Instruction_adaptive.png,conditions/adaptive.xlsx,test,0.6,0.6,0.6,-0.6,-0.6,right,R,,,,,0,1,1,1,0,90,90,0,,,,,,,,,,,,,,,,,,,,,,,,,,,,,,,,,,,,,,,,,,,,510.4079461000001,None,right,1,1.551035000004049,510.9083962000004,512.3615330999964,510.9083962000004,511.8600127999962,510.9083962000004,511.8600127999962,510.9083962000004,511.8600127999962,510.9083962000004,511.8600127999962,510.9083962000004,511.8600127999962,511.82696679999935,512.3281526999999,511.82696679999935,512.3281526999999,511.82696679999935,512.3281526999999,511.82696679999935,512.3281526999999,511.82696679999935,512.3281526999999,511.82696679999935,512.3281526999999,511.82696679999935,512.3281526999999,511.82696679999935,512.3281526999999,510.9083962000004,None,512.3281526999999,513.7970494999972,0.9400000000000006,513.8125532999984,None,514.5636593999952,None,,,,,,,[1.45428571],2.830000000000002,0.7472527472527473,11001,002,2023_Dec_29_1637,MFTM_A_new1021,2021.2.3,60.00445232933789,
,,,,,,,,stim/Instruction_adaptive.png,conditions/adaptive.xlsx,test,-0.6,-0.6,-0.6,0.6,0.6,left,L,,,,,0,1,1,1,0,91,91,45,,,,,,,,,,,,,,,,,,,,,,,,,,,,,,,,,,,,,,,,,,,,515.0651109999963,None,right,0,1.4866060999993351,515.5653080999982,517.0015339999954,515.5653080999982,516.5006776000009,515.5653080999982,516.5006776000009,515.5653080999982,516.5006776000009,515.5653080999982,516.5006776000009,515.5653080999982,516.5006776000009,516.4841870000018,516.9840991000019,516.4841870000018,516.9840991000019,516.4841870000018,516.9840991000019,516.4841870000018,516.9840991000019,516.4841870000018,516.9840991000019,516.4841870000018,516.9840991000019,516.4841870000018,516.9840991000019,516.4841870000018,516.9840991000019,515.5653080999982,None,516.9840991000019,None,0.9300000000000006,518.4528881000006,None,519.2050103000001,None,,,,,,,[1.45554348],2.7700000000000022,0.7391304347826086,11001,002,2023_Dec_29_1637,MFTM_A_new1021,2021.2.3,60.00445232933789,
,,,,,,,,stim/Instruction_adaptive.png,conditions/adaptive.xlsx,test,-0.6,-0.6,-0.6,0.6,0.6,left,L,,,,,0,1,1,1,0,92,92,47,,,,,,,,,,,,,,,,,,,,,,,,,,,,,,,,,,,,,,,,,,,,519.704639800002,None,right,0,1.8690228999985266,520.2064614999981,521.674586000001,520.2064614999981,521.1748900999955,520.2064614999981,521.1748900999955,520.2064614999981,521.1748900999955,520.2064614999981,521.1748900999955,520.2064614999981,521.1748900999955,521.1570662000013,521.6577057999966,521.1570662000013,521.6577057999966,521.1570662000013,521.6577057999966,521.1570662000013,521.6577057999966,521.1570662000013,521.6577057999966,521.1570662000013,521.6577057999966,521.1570662000013,521.6577057999966,521.1570662000013,521.6577057999966,520.2064614999981,None,521.6409627999965,523.1104067999986,0.9600000000000006,523.1264675999992,None,523.8782329999958,None,,,,,,,[1.45645161],2.700000000000002,0.7311827956989247,11001,002,2023_Dec_29_1637,MFTM_A_new1021,2021.2.3,60.00445232933789,
