arrwidth1,arrwidth2,arrwidth3,arrwidth4,arrwidth5,keyb,type,orientation,instruction_image,block_filename,block_type,arrow11,arrow22,arrow33,arrow44,arrow55,keyb_3,orientation3,trials.thisRepN,trials.thisTrialN,trials.thisN,trials.thisIndex,trials_3.thisRepN,trials_3.thisTrialN,trials_3.thisN,trials_3.thisIndex,trials_2.thisRepN,trials_2.thisTrialN,trials_2.thisN,trials_2.thisIndex,welcome.started,welcome.stopped,key_resp.keys,key_resp.rt,key_resp.started,key_resp.stopped,instruction_example.started,instruction_example.stopped,key_resp_3.keys,key_resp_3.rt,key_resp_3.started,key_resp_3.stopped,instruction_task.started,instruction_task.stopped,key_resp_2.keys,key_resp_2.rt,key_resp_2.started,key_resp_2.stopped,text_2.started,text_2.stopped,A1.started,A1.stopped,A2.started,A2.stopped,A3.started,A3.stopped,A4.started,A4.stopped,A5.started,A5.stopped,key_resp_4.keys,key_resp_4.corr,key_resp_4.rt,key_resp_4.started,key_resp_4.stopped,fb.started,fb.stopped,instruction_block.started,instruction_block.stopped,key_resp_8.keys,key_resp_8.rt,key_resp_8.started,key_resp_8.stopped,text_8.started,text_8.stopped,key_resp_9.keys,key_resp_9.corr,key_resp_9.rt,text_5.started,text_5.stopped,A11_3.started,A11_3.stopped,A22_2.started,A22_2.stopped,A33_2.started,A33_2.stopped,A44_2.started,A44_2.stopped,A55_2.started,A55_2.stopped,M1_3.started,M1_3.stopped,M2_2.started,M2_2.stopped,M3_2.started,M3_2.stopped,M4_2.started,M4_2.stopped,M5_2.started,M5_2.stopped,M6_2.started,M6_2.stopped,M7_2.started,M7_2.stopped,M8_2.started,M8_2.stopped,key_resp_9.started,key_resp_9.stopped,fixation.started,fixation.stopped,ET,fb_3.started,fb_3.stopped,text_9.started,text_9.stopped,fb_4.started,fb_4.stopped,text_7.started,text_7.stopped,endtext.started,endtext.stopped,fixation_ITI,CCC,Acc,participant,session,date,expName,psychopyVersion,frameRate,
,,,,,,,,,,,,,,,,,,,,,,,,,,,,,,9.666526799999701,None,space,2.648245099997439,9.666526799999701,None,,,,,,,,,,,,,,,,,,,,,,,,,,,,,,,,,,,,,,,,,,,,,,,,,,,,,,,,,,,,,,,,,,,,,,,,,,,,,,,,,,,,,,,,,11004,001,2023_Dec_29_1334,MFTM_A_new1021,2021.2.3,59.74657891047895,
,,,,,,,,,,,,,,,,,,,,,,,,,,,,,,,,,,,,12.337665099999867,None,space,48.793438299995614,12.337665099999867,None,,,,,,,,,,,,,,,,,,,,,,,,,,,,,,,,,,,,,,,,,,,,,,,,,,,,,,,,,,,,,,,,,,,,,,,,,,,,,,,,,,,11004,001,2023_Dec_29_1334,MFTM_A_new1021,2021.2.3,59.74657891047895,
,,,,,,,,,,,,,,,,,,,,,,,,,,,,,,,,,,,,,,,,,,61.16004110000358,None,space,11.890871700001298,61.16004110000358,None,,,,,,,,,,,,,,,,,,,,,,,,,,,,,,,,,,,,,,,,,,,,,,,,,,,,,,,,,,,,,,,,,,,,,,,,,,,,,11004,001,2023_Dec_29_1334,MFTM_A_new1021,2021.2.3,59.74657891047895,
0.6,0.6,0.6,-0.6,-0.6,right,3:2,R,,,,,,,,,,,0,0,0,0,,,,,,,,,,,,,,,,,,,,,,,,,,,73.09517369999958,None,73.09517369999958,None,73.09517369999958,None,73.09517369999958,None,73.09517369999958,None,73.09517369999958,None,right,1,2.5000966000006883,73.09517369999958,None,75.63139790000423,None,,,,,,,,,,,,,,,,,,,,,,,,,,,,,,,,,,,,,,,,,,,,,,,,,,,,,,,,,,11004,001,2023_Dec_29_1334,MFTM_A_new1021,2021.2.3,59.74657891047895,
-0.6,-0.6,-0.6,0.6,0.6,left,3:2,L,,,,,,,,,,,0,1,1,1,,,,,,,,,,,,,,,,,,,,,,,,,,,76.3826842999988,None,76.3826842999988,None,76.3826842999988,None,76.3826842999988,None,76.3826842999988,None,76.3826842999988,None,left,1,2.4211150000046473,76.3826842999988,None,78.81956660000287,None,,,,,,,,,,,,,,,,,,,,,,,,,,,,,,,,,,,,,,,,,,,,,,,,,,,,,,,,,,11004,001,2023_Dec_29_1334,MFTM_A_new1021,2021.2.3,59.74657891047895,
-0.6,-0.6,-0.6,0.6,0.6,left,3:2,L,,,,,,,,,,,1,0,2,1,,,,,,,,,,,,,,,,,,,,,,,,,,,79.5706216000035,None,79.5706216000035,None,79.5706216000035,None,79.5706216000035,None,79.5706216000035,None,79.5706216000035,None,left,1,1.4327398000023095,79.5706216000035,None,81.02264129999821,None,,,,,,,,,,,,,,,,,,,,,,,,,,,,,,,,,,,,,,,,,,,,,,,,,,,,,,,,,,11004,001,2023_Dec_29_1334,MFTM_A_new1021,2021.2.3,59.74657891047895,
0.6,0.6,0.6,-0.6,-0.6,right,3:2,R,,,,,,,,,,,1,1,3,0,,,,,,,,,,,,,,,,,,,,,,,,,,,81.77375629999733,None,81.77375629999733,None,81.77375629999733,None,81.77375629999733,None,81.77375629999733,None,81.77375629999733,None,right,1,1.693221800000174,81.77375629999733,None,83.49310880000121,None,,,,,,,,,,,,,,,,,,,,,,,,,,,,,,,,,,,,,,,,,,,,,,,,,,,,,,,,,,11004,001,2023_Dec_29_1334,MFTM_A_new1021,2021.2.3,59.74657891047895,
,,,,,,,,stim/Instruction_mask.png,conditions/adaptive.xlsx,practice,0.6,0.6,0.6,-0.6,-0.6,right,R,,,,,0,0,0,0,0,0,0,50,,,,,,,,,,,,,,,,,,,,,,,,,,,,,,,,,,,,,,84.47749950000434,None,space,41.35778759999812,84.47749950000434,None,125.93952810000337,None,right,1,2.453996999996889,126.37333670000226,None,126.37333670000226,129.37786739999865,126.37333670000226,129.37786739999865,126.37333670000226,129.37786739999865,126.37333670000226,129.37786739999865,126.37333670000226,129.37786739999865,129.361722499998,129.86191440000403,129.361722499998,129.86191440000403,129.361722499998,129.86191440000403,129.361722499998,129.86191440000403,129.361722499998,129.86191440000403,129.361722499998,129.86191440000403,129.361722499998,129.86191440000403,129.361722499998,129.86191440000403,126.37333670000226,None,129.86191440000403,129.86191440000403,3,129.87905070000124,None,130.6295895000003,None,,,,,,,,,,11004,001,2023_Dec_29_1334,MFTM_A_new1021,2021.2.3,59.74657891047895,
,,,,,,,,stim/Instruction_mask.png,conditions/adaptive.xlsx,practice,-0.6,-0.6,-0.6,0.6,0.6,left,L,,,,,0,0,0,0,0,1,1,25,,,,,,,,,,,,,,,,,,,,,,,,,,,,,,,,,,,,,,,,,,,,131.1304930000042,None,left,1,2.0272791999959736,131.63180960000318,133.6342622000011,131.63180960000318,133.13339180000185,131.63180960000318,133.13339180000185,131.63180960000318,133.13339180000185,131.63180960000318,133.13339180000185,131.63180960000318,133.13339180000185,133.11743939999724,133.61740309999732,133.11743939999724,133.61740309999732,133.11743939999724,133.61740309999732,133.11743939999724,133.61740309999732,133.11743939999724,133.61740309999732,133.11743939999724,133.61740309999732,133.11743939999724,133.61740309999732,133.11743939999724,133.61740309999732,131.63180960000318,None,133.61740309999732,135.12027790000138,1.5,135.13633809999737,None,135.8883696999983,None,,,,,,,,,,11004,001,2023_Dec_29_1334,MFTM_A_new1021,2021.2.3,59.74657891047895,
,,,,,,,,stim/Instruction_mask.png,conditions/adaptive.xlsx,practice,0.6,0.6,0.6,-0.6,-0.6,right,R,,,,,0,0,0,0,0,2,2,8,,,,,,,,,,,,,,,,,,,,,,,,,,,,,,,,,,,,,,,,,,,,136.38806679999834,None,right,1,1.825650400001905,136.88953339999716,138.19098150000355,136.88953339999716,137.69011699999828,136.88953339999716,137.69011699999828,136.88953339999716,137.69011699999828,136.88953339999716,137.69011699999828,136.88953339999716,137.69011699999828,137.6734873000023,138.17421530000138,137.6734873000023,138.17421530000138,137.6734873000023,138.17421530000138,137.6734873000023,138.17421530000138,137.6734873000023,138.17421530000138,137.6734873000023,138.17421530000138,137.6734873000023,138.17421530000138,137.6734873000023,138.17421530000138,136.88953339999716,None,138.17421530000138,140.37761619999947,0.8,140.3944868000035,None,141.14620940000168,None,,,,,,,,,,11004,001,2023_Dec_29_1334,MFTM_A_new1021,2021.2.3,59.74657891047895,
,,,,,,,,stim/Instruction_mask.png,conditions/adaptive.xlsx,practice,-0.6,-0.6,-0.6,0.6,0.6,left,L,,,,,0,0,0,0,0,3,3,55,,,,,,,,,,,,,,,,,,,,,,,,,,,,,,,,,,,,,,,,,,,,141.6474648000003,None,right,0,2.327233800002432,142.1478707999995,142.89923999999883,142.1478707999995,142.39772729999822,142.1478707999995,142.39772729999822,142.1478707999995,142.39772729999822,142.1478707999995,142.39772729999822,142.1478707999995,142.39772729999822,142.3804381000009,142.88118499999837,142.3804381000009,142.88118499999837,142.3804381000009,142.88118499999837,142.3804381000009,142.88118499999837,142.3804381000009,142.88118499999837,142.3804381000009,142.88118499999837,142.3804381000009,142.88118499999837,142.3804381000009,142.88118499999837,142.1478707999995,None,142.88118499999837,145.63515819999884,3,145.65186130000075,None,146.40377689999877,None,,,,,,,,,,11004,001,2023_Dec_29_1334,MFTM_A_new1021,2021.2.3,59.74657891047895,
,,,,,,,,stim/Instruction_mask.png,conditions/adaptive.xlsx,practice,,,,,,,,,,,,0,0,0,0,,,,,,,,,,,,,,,,,,,,,,,,,,,,,,,,,,,,,,,,,,,,,,,,,,,,,,,,,,,,,,,,,,,,,,,,,,,,,,,,,,,,,,,,,,146.9205617999978,147.9219699000023,147.88933050000196,147.88933050000196,147.88933050000196,None,,,,11004,001,2023_Dec_29_1334,MFTM_A_new1021,2021.2.3,59.74657891047895,
,,,,,,,,stim/Instruction_adaptive.png,conditions/adaptive.xlsx,test,0.6,0.6,0.6,-0.6,-0.6,right,R,,,,,0,1,1,1,0,0,0,12,,,,,,,,,,,,,,,,,,,,,,,,,,,,,,,,,,,,,,151.04340780000348,None,space,20.97580900000321,151.04340780000348,None,172.0752799000038,None,right,1,1.4040271999983815,172.55920309999783,None,172.55920309999783,175.56337930000154,172.55920309999783,175.56337930000154,172.55920309999783,175.56337930000154,172.55920309999783,175.56337930000154,172.55920309999783,175.56337930000154,175.5469802000007,176.0470015000028,175.5469802000007,176.0470015000028,175.5469802000007,176.0470015000028,175.5469802000007,176.0470015000028,175.5469802000007,176.0470015000028,175.5469802000007,176.0470015000028,175.5469802000007,176.0470015000028,175.5469802000007,176.0470015000028,172.55920309999783,None,176.03071400000044,176.03071400000044,3,176.06350799999927,None,176.81592700000328,None,,,,,,,0,6.000000000000005,1.0,11004,001,2023_Dec_29_1334,MFTM_A_new1021,2021.2.3,59.74657891047895,
,,,,,,,,stim/Instruction_adaptive.png,conditions/adaptive.xlsx,test,-0.6,-0.6,-0.6,0.6,0.6,left,L,,,,,0,1,1,1,0,1,1,73,,,,,,,,,,,,,,,,,,,,,,,,,,,,,,,,,,,,,,,,,,,,177.31553050000366,None,right,0,1.610186000005342,177.81700680000358,178.56796739999845,177.81700680000358,178.0664570000008,177.81700680000358,178.0664570000008,177.81700680000358,178.0664570000008,177.81700680000358,178.0664570000008,177.81700680000358,178.0664570000008,178.05082489999768,178.55150270000013,178.05082489999768,178.55150270000013,178.05082489999768,178.55150270000013,178.05082489999768,178.55150270000013,178.05082489999768,178.55150270000013,178.05082489999768,178.55150270000013,178.05082489999768,178.55150270000013,178.05082489999768,178.55150270000013,177.81700680000358,None,178.55150270000013,179.4519419999997,0.25,179.4686040000015,None,180.22036379999918,None,,,,,,,[0.875],2.570000000000002,0.5,11004,001,2023_Dec_29_1334,MFTM_A_new1021,2021.2.3,59.74657891047895,
,,,,,,,,stim/Instruction_adaptive.png,conditions/adaptive.xlsx,test,0.6,0.6,0.6,-0.6,-0.6,right,R,,,,,0,1,1,1,0,2,2,32,,,,,,,,,,,,,,,,,,,,,,,,,,,,,,,,,,,,,,,,,,,,180.72058470000047,None,right,1,2.15798519999953,181.22122269999818,182.84031259999756,181.22122269999818,182.33975649999775,181.22122269999818,182.33975649999775,181.22122269999818,182.33975649999775,181.22122269999818,182.33975649999775,181.22122269999818,182.33975649999775,182.3064119999981,182.80689990000246,182.3064119999981,182.80689990000246,182.3064119999981,182.80689990000246,182.3064119999981,182.80689990000246,182.3064119999981,182.80689990000246,182.3064119999981,182.80689990000246,182.3064119999981,182.80689990000246,182.3064119999981,182.80689990000246,181.22122269999818,None,182.80689990000246,183.85891059999994,1.1100000000000008,183.89178869999887,None,184.6431076000008,None,,,,,,,[1.04666667],3.3800000000000026,0.6666666666666666,11004,001,2023_Dec_29_1334,MFTM_A_new1021,2021.2.3,59.74657891047895,
,,,,,,,,stim/Instruction_adaptive.png,conditions/adaptive.xlsx,test,-0.6,-0.6,-0.6,0.6,0.6,left,L,,,,,0,1,1,1,0,3,3,87,,,,,,,,,,,,,,,,,,,,,,,,,,,,,,,,,,,,,,,,,,,,185.14422970000305,None,left,1,1.430762699994375,185.64472620000015,186.7813798999996,185.64472620000015,186.27950219999911,185.64472620000015,186.27950219999911,185.64472620000015,186.27950219999911,185.64472620000015,186.27950219999911,185.64472620000015,186.27950219999911,186.26223620000383,186.76296690000163,186.26223620000383,186.76296690000163,186.26223620000383,186.76296690000163,186.26223620000383,186.76296690000163,186.26223620000383,186.76296690000163,186.26223620000383,186.76296690000163,186.26223620000383,186.76296690000163,186.26223620000383,186.76296690000163,185.64472620000015,None,186.76296690000163,188.01541220000217,0.6300000000000003,188.03134719999798,None,188.78278059999866,None,,,,,,,[1.2525],3.940000000000003,0.75,11004,001,2023_Dec_29_1334,MFTM_A_new1021,2021.2.3,59.74657891047895,
,,,,,,,,stim/Instruction_adaptive.png,conditions/adaptive.xlsx,test,-0.6,-0.6,-0.6,0.6,0.6,left,L,,,,,0,1,1,1,0,4,4,51,,,,,,,,,,,,,,,,,,,,,,,,,,,,,,,,,,,,,,,,,,,,189.28452560000005,None,left,1,2.0744210999982897,189.78466959999787,190.71954749999713,189.78466959999787,190.21862359999795,189.78466959999787,190.21862359999795,189.78466959999787,190.21862359999795,189.78466959999787,190.21862359999795,189.78466959999787,190.21862359999795,190.20135950000258,190.7019411000001,190.20135950000258,190.7019411000001,190.20135950000258,190.7019411000001,190.20135950000258,190.7019411000001,190.20135950000258,190.7019411000001,190.20135950000258,190.7019411000001,190.20135950000258,190.7019411000001,190.20135950000258,190.7019411000001,189.78466959999787,None,190.7019411000001,192.1215697000007,0.43000000000000016,192.1374907999998,None,192.889350999998,None,,,,,,,[1.416],4.370000000000004,0.8,11004,001,2023_Dec_29_1334,MFTM_A_new1021,2021.2.3,59.74657891047895,
,,,,,,,,stim/Instruction_adaptive.png,conditions/adaptive.xlsx,test,-0.6,-0.6,-0.6,0.6,0.6,left,L,,,,,0,1,1,1,0,5,5,95,,,,,,,,,,,,,,,,,,,,,,,,,,,,,,,,,,,,,,,,,,,,193.3894911000025,None,left,1,1.6972987000044668,193.89016880000418,194.7250761000032,193.89016880000418,194.22453700000187,193.89016880000418,194.22453700000187,193.89016880000418,194.22453700000187,193.89016880000418,194.22453700000187,193.89016880000418,194.22453700000187,194.19042510000145,194.69191370000044,194.19042510000145,194.69191370000044,194.19042510000145,194.69191370000044,194.19042510000145,194.69191370000044,194.19042510000145,194.69191370000044,194.19042510000145,194.69191370000044,194.19042510000145,194.69191370000044,194.19042510000145,194.69191370000044,193.89016880000418,None,194.69191370000044,196.24397019999742,0.32000000000000006,196.2603902999981,None,197.0114171000023,None,,,,,,,[1.54333333],4.7100000000000035,0.8333333333333334,11004,001,2023_Dec_29_1334,MFTM_A_new1021,2021.2.3,59.74657891047895,
,,,,,,,,stim/Instruction_adaptive.png,conditions/adaptive.xlsx,test,0.6,0.6,0.6,-0.6,-0.6,right,R,,,,,0,1,1,1,0,6,6,2,,,,,,,,,,,,,,,,,,,,,,,,,,,,,,,,,,,,,,,,,,,,197.51209889999882,None,right,1,2.038354700001946,198.01285749999806,198.76475400000345,198.01285749999806,198.26409209999838,198.01285749999806,198.26409209999838,198.01285749999806,198.26409209999838,198.01285749999806,198.26409209999838,198.01285749999806,198.26409209999838,198.24724050000077,198.74810740000248,198.24724050000077,198.74810740000248,198.24724050000077,198.74810740000248,198.24724050000077,198.74810740000248,198.24724050000077,198.74810740000248,198.24724050000077,198.74810740000248,198.24724050000077,198.74810740000248,198.24724050000077,198.74810740000248,198.01285749999806,None,198.74810740000248,200.40005740000197,0.25,200.41644780000206,None,201.16819029999897,None,,,,,,,[1.64428571],4.980000000000004,0.8571428571428571,11004,001,2023_Dec_29_1334,MFTM_A_new1021,2021.2.3,59.74657891047895,
,,,,,,,,stim/Instruction_adaptive.png,conditions/adaptive.xlsx,test,-0.6,-0.6,-0.6,0.6,0.6,left,L,,,,,0,1,1,1,0,7,7,5,,,,,,,,,,,,,,,,,,,,,,,,,,,,,,,,,,,,,,,,,,,,201.66866070000106,None,right,0,1.745479900004284,202.16962169999897,202.9206673000008,202.16962169999897,202.42079779999767,202.16962169999897,202.42079779999767,202.16962169999897,202.42079779999767,202.16962169999897,202.42079779999767,202.16962169999897,202.42079779999767,202.40330730000278,202.90398899999855,202.40330730000278,202.90398899999855,202.40330730000278,202.90398899999855,202.40330730000278,202.90398899999855,202.40330730000278,202.90398899999855,202.40330730000278,202.90398899999855,202.40330730000278,202.90398899999855,202.40330730000278,202.90398899999855,202.16962169999897,None,202.90398899999855,204.62350049999804,0.25,204.63930080000137,None,205.39132799999788,None,,,,,,,[1.72],4.270000000000003,0.75,11004,001,2023_Dec_29_1334,MFTM_A_new1021,2021.2.3,59.74657891047895,
,,,,,,,,stim/Instruction_adaptive.png,conditions/adaptive.xlsx,test,-0.6,-0.6,-0.6,0.6,0.6,left,L,,,,,0,1,1,1,0,8,8,61,,,,,,,,,,,,,,,,,,,,,,,,,,,,,,,,,,,,,,,,,,,,205.89182399999845,None,left,1,1.604307899993728,206.39184430000023,207.2440820999982,206.39184430000023,206.74339150000014,206.39184430000023,206.74339150000014,206.39184430000023,206.74339150000014,206.39184430000023,206.74339150000014,206.39184430000023,206.74339150000014,206.70912459999818,207.2096692999985,206.70912459999818,207.2096692999985,206.70912459999818,207.2096692999985,206.70912459999818,207.2096692999985,206.70912459999818,207.2096692999985,206.70912459999818,207.2096692999985,206.70912459999818,207.2096692999985,206.70912459999818,207.2096692999985,206.39184430000023,None,207.2096692999985,208.97906890000013,0.3400000000000001,209.01249210000242,None,209.76358060000348,None,,,,,,,[1.76888889],4.510000000000003,0.7777777777777778,11004,001,2023_Dec_29_1334,MFTM_A_new1021,2021.2.3,59.74657891047895,
,,,,,,,,stim/Instruction_adaptive.png,conditions/adaptive.xlsx,test,-0.6,-0.6,-0.6,0.6,0.6,left,L,,,,,0,1,1,1,0,9,9,99,,,,,,,,,,,,,,,,,,,,,,,,,,,,,,,,,,,,,,,,,,,,210.26469910000014,None,left,1,1.2619781000030343,210.7652156999975,211.5668891000023,210.7652156999975,211.06533279999712,210.7652156999975,211.06533279999712,210.7652156999975,211.06533279999712,210.7652156999975,211.06533279999712,210.7652156999975,211.06533279999712,211.03223000000435,211.53284159999748,211.03223000000435,211.53284159999748,211.03223000000435,211.53284159999748,211.03223000000435,211.53284159999748,211.03223000000435,211.53284159999748,211.03223000000435,211.53284159999748,211.03223000000435,211.53284159999748,211.03223000000435,211.53284159999748,210.7652156999975,None,211.53284159999748,213.35270840000157,0.29000000000000004,213.36910740000167,None,214.1206278000027,None,,,,,,,[1.813],4.7100000000000035,0.8,11004,001,2023_Dec_29_1334,MFTM_A_new1021,2021.2.3,59.74657891047895,
,,,,,,,,stim/Instruction_adaptive.png,conditions/adaptive.xlsx,test,0.6,0.6,0.6,-0.6,-0.6,right,R,,,,,0,1,1,1,0,10,10,98,,,,,,,,,,,,,,,,,,,,,,,,,,,,,,,,,,,,,,,,,,,,214.62146750000102,None,left,0,1.3056988999960595,215.12140550000186,215.87287469999865,215.12140550000186,215.37190160000318,215.12140550000186,215.37190160000318,215.12140550000186,215.37190160000318,215.12140550000186,215.37190160000318,215.12140550000186,215.37190160000318,215.35507869999856,215.85586460000195,215.35507869999856,215.85586460000195,215.35507869999856,215.85586460000195,215.35507869999856,215.85586460000195,215.35507869999856,215.85586460000195,215.35507869999856,215.85586460000195,215.35507869999856,215.85586460000195,215.35507869999856,215.85586460000195,215.12140550000186,None,215.85586460000195,217.709758099998,0.25,217.72476989999996,None,218.47676109999884,None,,,,,,,[1.85272727],4.230000000000003,0.7272727272727273,11004,001,2023_Dec_29_1334,MFTM_A_new1021,2021.2.3,59.74657891047895,
,,,,,,,,stim/Instruction_adaptive.png,conditions/adaptive.xlsx,test,-0.6,-0.6,-0.6,0.6,0.6,left,L,,,,,0,1,1,1,0,11,11,7,,,,,,,,,,,,,,,,,,,,,,,,,,,,,,,,,,,,,,,,,,,,218.97708579999744,None,left,1,1.3575414000006276,219.47801320000144,220.33027800000127,219.47801320000144,219.8285665000003,219.47801320000144,219.8285665000003,219.47801320000144,219.8285665000003,219.47801320000144,219.8285665000003,219.47801320000144,219.8285665000003,219.81360069999937,220.31289310000284,219.81360069999937,220.31289310000284,219.81360069999937,220.31289310000284,219.81360069999937,220.31289310000284,219.81360069999937,220.31289310000284,219.81360069999937,220.31289310000284,219.81360069999937,220.31289310000284,219.81360069999937,220.31289310000284,219.47801320000144,None,220.31289310000284,222.19883960000152,0.3500000000000001,222.21540169999935,None,222.96719819999998,None,,,,,,,[1.8775],4.410000000000004,0.75,11004,001,2023_Dec_29_1334,MFTM_A_new1021,2021.2.3,59.74657891047895,
,,,,,,,,stim/Instruction_adaptive.png,conditions/adaptive.xlsx,test,0.6,0.6,0.6,-0.6,-0.6,right,R,,,,,0,1,1,1,0,12,12,22,,,,,,,,,,,,,,,,,,,,,,,,,,,,,,,,,,,,,,,,,,,,223.4678963000042,None,right,1,1.6595548000041163,223.96803940000245,224.78592110000318,223.96803940000245,224.28577780000342,223.96803940000245,224.28577780000342,223.96803940000245,224.28577780000342,223.96803940000245,224.28577780000342,223.96803940000245,224.28577780000342,224.26906990000134,224.769870600001,224.26906990000134,224.769870600001,224.26906990000134,224.769870600001,224.26906990000134,224.769870600001,224.26906990000134,224.769870600001,224.26906990000134,224.769870600001,224.26906990000134,224.769870600001,224.26906990000134,224.769870600001,223.96803940000245,None,224.769870600001,226.6719204999972,0.31000000000000005,226.68860000000132,None,227.4398352999997,None,,,,,,,[1.90153846],4.570000000000004,0.7692307692307693,11004,001,2023_Dec_29_1334,MFTM_A_new1021,2021.2.3,59.74657891047895,
,,,,,,,,stim/Instruction_adaptive.png,conditions/adaptive.xlsx,test,0.6,0.6,0.6,-0.6,-0.6,right,R,,,,,0,1,1,1,0,13,13,48,,,,,,,,,,,,,,,,,,,,,,,,,,,,,,,,,,,,,,,,,,,,227.9411121000012,None,left,0,1.5058891000007861,228.44133919999877,229.2256946999987,228.44133919999877,228.72521430000052,228.44133919999877,228.72521430000052,228.44133919999877,228.72521430000052,228.44133919999877,228.72521430000052,228.44133919999877,228.72521430000052,228.70838640000147,229.210021400002,228.70838640000147,229.210021400002,228.70838640000147,229.210021400002,228.70838640000147,229.210021400002,228.70838640000147,229.210021400002,228.70838640000147,229.210021400002,228.70838640000147,229.210021400002,228.70838640000147,229.210021400002,228.44133919999877,None,229.210021400002,None,0.28,231.14471980000235,None,231.89649359999748,None,,,,,,,[1.92428571],4.160000000000004,0.7142857142857143,11004,001,2023_Dec_29_1334,MFTM_A_new1021,2021.2.3,59.74657891047895,
,,,,,,,,stim/Instruction_adaptive.png,conditions/adaptive.xlsx,test,-0.6,-0.6,-0.6,0.6,0.6,left,L,,,,,0,1,1,1,0,14,14,97,,,,,,,,,,,,,,,,,,,,,,,,,,,,,,,,,,,,,,,,,,,,232.3974318000037,None,left,1,1.5533915999985766,232.89778150000348,233.78357730000425,232.89778150000348,233.28250800000387,232.89778150000348,233.28250800000387,232.89778150000348,233.28250800000387,232.89778150000348,233.28250800000387,232.89778150000348,233.28250800000387,233.24845169999753,233.7498540000015,233.24845169999753,233.7498540000015,233.24845169999753,233.7498540000015,233.24845169999753,233.7498540000015,233.24845169999753,233.7498540000015,233.24845169999753,233.7498540000015,233.24845169999753,233.7498540000015,233.24845169999753,233.7498540000015,232.89778150000348,None,233.7498540000015,235.7021193000037,0.3700000000000001,235.71878370000195,None,236.47022870000364,None,,,,,,,[1.938],4.320000000000004,0.7333333333333333,11004,001,2023_Dec_29_1334,MFTM_A_new1021,2021.2.3,59.74657891047895,
,,,,,,,,stim/Instruction_adaptive.png,conditions/adaptive.xlsx,test,0.6,0.6,0.6,-0.6,-0.6,right,R,,,,,0,1,1,1,0,15,15,60,,,,,,,,,,,,,,,,,,,,,,,,,,,,,,,,,,,,,,,,,,,,236.970839900001,None,right,1,1.3797209999975166,237.4718525999997,238.30659279999963,237.4718525999997,237.80585920000158,237.4718525999997,237.80585920000158,237.4718525999997,237.80585920000158,237.4718525999997,237.80585920000158,237.4718525999997,237.80585920000158,237.78907759999856,238.28970860000118,237.78907759999856,238.28970860000118,237.78907759999856,238.28970860000118,237.78907759999856,238.28970860000118,237.78907759999856,238.28970860000118,237.78907759999856,238.28970860000118,237.78907759999856,238.28970860000118,237.78907759999856,238.28970860000118,237.4718525999997,None,238.28970860000118,240.2427497000026,0.33000000000000007,240.25865219999832,None,241.01106640000216,None,,,,,,,[1.9525],4.450000000000004,0.75,11004,001,2023_Dec_29_1334,MFTM_A_new1021,2021.2.3,59.74657891047895,
,,,,,,,,stim/Instruction_adaptive.png,conditions/adaptive.xlsx,test,-0.6,-0.6,-0.6,0.6,0.6,left,L,,,,,0,1,1,1,0,16,16,49,,,,,,,,,,,,,,,,,,,,,,,,,,,,,,,,,,,,,,,,,,,,241.51136330000008,None,right,0,1.7845286000010674,242.01141220000136,242.81331579999824,242.01141220000136,242.31176779999805,242.01141220000136,242.31176779999805,242.01141220000136,242.31176779999805,242.01141220000136,242.31176779999805,242.01141220000136,242.31176779999805,242.29500769999868,242.79578320000292,242.29500769999868,242.79578320000292,242.29500769999868,242.79578320000292,242.29500769999868,242.79578320000292,242.29500769999868,242.79578320000292,242.29500769999868,242.79578320000292,242.29500769999868,242.79578320000292,242.29500769999868,242.79578320000292,242.01141220000136,None,242.79578320000292,244.7654842999982,0.30000000000000004,244.7821483000007,None,245.53379680000216,None,,,,,,,[1.96705882],4.100000000000003,0.7058823529411765,11004,001,2023_Dec_29_1334,MFTM_A_new1021,2021.2.3,59.74657891047895,
,,,,,,,,stim/Instruction_adaptive.png,conditions/adaptive.xlsx,test,-0.6,-0.6,-0.6,0.6,0.6,left,L,,,,,0,1,1,1,0,17,17,31,,,,,,,,,,,,,,,,,,,,,,,,,,,,,,,,,,,,,,,,,,,,246.0348159999994,None,left,1,1.595154199996614,246.5359626999998,247.41922720000002,246.5359626999998,246.9188798000032,246.5359626999998,246.9188798000032,246.5359626999998,246.9188798000032,246.5359626999998,246.9188798000032,246.5359626999998,246.9188798000032,246.902224700003,247.40265519999957,246.902224700003,247.40265519999957,246.902224700003,247.40265519999957,246.902224700003,247.40265519999957,246.902224700003,247.40265519999957,246.902224700003,247.40265519999957,246.902224700003,247.40265519999957,246.902224700003,247.40265519999957,246.5359626999998,None,247.40265519999957,249.3909416000024,0.3800000000000001,249.42342440000357,None,250.1751551999987,None,,,,,,,[1.97555556],4.230000000000003,0.7222222222222222,11004,001,2023_Dec_29_1334,MFTM_A_new1021,2021.2.3,59.74657891047895,
,,,,,,,,stim/Instruction_adaptive.png,conditions/adaptive.xlsx,test,0.6,0.6,0.6,-0.6,-0.6,right,R,,,,,0,1,1,1,0,18,18,26,,,,,,,,,,,,,,,,,,,,,,,,,,,,,,,,,,,,,,,,,,,,250.67523030000302,None,right,1,1.467566799998167,251.17572279999877,252.02744220000022,251.17572279999877,251.5257672000007,251.17572279999877,251.5257672000007,251.17572279999877,251.5257672000007,251.17572279999877,251.5257672000007,251.17572279999877,251.5257672000007,251.50880529999995,252.0103012000036,251.50880529999995,252.0103012000036,251.50880529999995,252.0103012000036,251.50880529999995,252.0103012000036,251.50880529999995,252.0103012000036,251.50880529999995,252.0103012000036,251.50880529999995,252.0103012000036,251.50880529999995,252.0103012000036,251.17572279999877,None,252.0103012000036,253.99575719999848,0.3500000000000001,254.01232080000045,None,254.7646797999987,None,,,,,,,[1.98473684],4.350000000000003,0.7368421052631579,11004,001,2023_Dec_29_1334,MFTM_A_new1021,2021.2.3,59.74657891047895,
,,,,,,,,stim/Instruction_adaptive.png,conditions/adaptive.xlsx,test,-0.6,-0.6,-0.6,0.6,0.6,left,L,,,,,0,1,1,1,0,19,19,21,,,,,,,,,,,,,,,,,,,,,,,,,,,,,,,,,,,,,,,,,,,,255.2650399999984,None,left,1,1.4301647999964189,255.76519030000054,256.6007873999988,255.76519030000054,256.09894460000214,255.76519030000054,256.09894460000214,255.76519030000054,256.09894460000214,255.76519030000054,256.09894460000214,255.76519030000054,256.09894460000214,256.06572430000233,256.5671932999976,256.06572430000233,256.5671932999976,256.06572430000233,256.5671932999976,256.06572430000233,256.5671932999976,256.06572430000233,256.5671932999976,256.06572430000233,256.5671932999976,256.06572430000233,256.5671932999976,256.06572430000233,256.5671932999976,255.76519030000054,None,256.5671932999976,258.57006170000386,0.32000000000000006,258.58579699999973,None,259.3377335000041,None,,,,,,,[1.9945],4.450000000000004,0.75,11004,001,2023_Dec_29_1334,MFTM_A_new1021,2021.2.3,59.74657891047895,
,,,,,,,,stim/Instruction_adaptive.png,conditions/adaptive.xlsx,test,0.6,0.6,0.6,-0.6,-0.6,right,R,,,,,0,1,1,1,0,20,20,66,,,,,,,,,,,,,,,,,,,,,,,,,,,,,,,,,,,,,,,,,,,,259.83840520000376,None,right,1,1.5376189000016893,260.3384376000031,261.1407363000035,260.3384376000031,260.63925510000263,260.3384376000031,260.63925510000263,260.3384376000031,260.63925510000263,260.3384376000031,260.63925510000263,260.3384376000031,260.63925510000263,260.62233769999875,261.12379659999715,260.62233769999875,261.12379659999715,260.62233769999875,261.12379659999715,260.62233769999875,261.12379659999715,260.62233769999875,261.12379659999715,260.62233769999875,261.12379659999715,260.62233769999875,261.12379659999715,260.62233769999875,261.12379659999715,260.3384376000031,None,261.12379659999715,None,0.30000000000000004,263.14284659999976,None,263.8940255999987,None,,,,,,,[2.00428571],4.540000000000004,0.7619047619047619,11004,001,2023_Dec_29_1334,MFTM_A_new1021,2021.2.3,59.74657891047895,
,,,,,,,,stim/Instruction_adaptive.png,conditions/adaptive.xlsx,test,0.6,0.6,0.6,-0.6,-0.6,right,R,,,,,0,1,1,1,0,21,21,8,,,,,,,,,,,,,,,,,,,,,,,,,,,,,,,,,,,,,,,,,,,,264.39533169999777,None,right,1,1.5157553999961237,264.8958818000028,265.68010309999954,264.8958818000028,265.1793203999987,264.8958818000028,265.1793203999987,264.8958818000028,265.1793203999987,264.8958818000028,265.1793203999987,264.8958818000028,265.1793203999987,265.1624673999977,265.6630984000003,265.1624673999977,265.6630984000003,265.1624673999977,265.6630984000003,265.1624673999977,265.6630984000003,265.1624673999977,265.6630984000003,265.1624673999977,265.6630984000003,265.1624673999977,265.6630984000003,265.1624673999977,265.6630984000003,264.8958818000028,None,265.6630984000003,267.68277130000206,0.28,267.69996569999785,None,268.4515623999978,None,,,,,,,[2.01409091],4.6300000000000034,0.7727272727272727,11004,001,2023_Dec_29_1334,MFTM_A_new1021,2021.2.3,59.74657891047895,
,,,,,,,,stim/Instruction_adaptive.png,conditions/adaptive.xlsx,test,-0.6,-0.6,-0.6,0.6,0.6,left,L,,,,,0,1,1,1,0,22,22,3,,,,,,,,,,,,,,,,,,,,,,,,,,,,,,,,,,,,,,,,,,,,268.9518270999979,None,left,1,1.3261485999973956,269.45312379999814,270.23662989999866,269.45312379999814,269.7366836000001,269.45312379999814,269.7366836000001,269.45312379999814,269.7366836000001,269.45312379999814,269.7366836000001,269.45312379999814,269.7366836000001,269.70292470000277,270.20314430000144,269.70292470000277,270.20314430000144,269.70292470000277,270.20314430000144,269.70292470000277,270.20314430000144,269.70292470000277,270.20314430000144,269.70292470000277,270.20314430000144,269.70292470000277,270.20314430000144,269.70292470000277,270.20314430000144,269.45312379999814,None,270.20314430000144,272.2401839000013,0.27,272.25682919999963,None,273.00820360000216,None,,,,,,,[2.02347826],4.7100000000000035,0.782608695652174,11004,001,2023_Dec_29_1334,MFTM_A_new1021,2021.2.3,59.74657891047895,
,,,,,,,,stim/Instruction_adaptive.png,conditions/adaptive.xlsx,test,0.6,0.6,0.6,-0.6,-0.6,right,R,,,,,0,1,1,1,0,23,23,58,,,,,,,,,,,,,,,,,,,,,,,,,,,,,,,,,,,,,,,,,,,,273.5086560999989,None,right,1,0.7938714000047185,274.00984569999855,274.7599043000009,274.00984569999855,274.2591040000043,274.00984569999855,274.2591040000043,274.00984569999855,274.2591040000043,274.00984569999855,274.2591040000043,274.00984569999855,274.2591040000043,274.2425558000032,274.7440467999986,274.2425558000032,274.7440467999986,274.2425558000032,274.7440467999986,274.2425558000032,274.7440467999986,274.2425558000032,274.7440467999986,274.2425558000032,274.7440467999986,274.2425558000032,274.7440467999986,274.2425558000032,274.7440467999986,274.00984569999855,None,274.7440467999986,276.7815000999981,0.25,276.7962969,None,277.5477284000008,None,,,,,,,[2.03291667],4.780000000000004,0.7916666666666666,11004,001,2023_Dec_29_1334,MFTM_A_new1021,2021.2.3,59.74657891047895,
,,,,,,,,stim/Instruction_adaptive.png,conditions/adaptive.xlsx,test,-0.6,-0.6,-0.6,0.6,0.6,left,L,,,,,0,1,1,1,0,24,24,71,,,,,,,,,,,,,,,,,,,,,,,,,,,,,,,,,,,,,,,,,,,,278.0487060000014,None,left,1,1.2459305000011227,278.54949379999744,279.30020689999947,278.54949379999744,278.7992805000031,278.54949379999744,278.7992805000031,278.54949379999744,278.7992805000031,278.54949379999744,278.7992805000031,278.54949379999744,278.7992805000031,278.7825683999981,279.2838619000031,278.7825683999981,279.2838619000031,278.7825683999981,279.2838619000031,278.7825683999981,279.2838619000031,278.7825683999981,279.2838619000031,278.7825683999981,279.2838619000031,278.7825683999981,279.2838619000031,278.7825683999981,279.2838619000031,278.54949379999744,None,279.2838619000031,281.3372151000003,0.25,281.3530680999975,None,282.104075700001,None,,,,,,,[2.0416],4.850000000000004,0.8,11004,001,2023_Dec_29_1334,MFTM_A_new1021,2021.2.3,59.74657891047895,
,,,,,,,,stim/Instruction_adaptive.png,conditions/adaptive.xlsx,test,-0.6,-0.6,-0.6,0.6,0.6,left,L,,,,,0,1,1,1,0,25,25,39,,,,,,,,,,,,,,,,,,,,,,,,,,,,,,,,,,,,,,,,,,,,282.6053366999986,None,left,1,1.5856425999954809,283.1057206999976,283.85776440000336,283.1057206999976,283.3568438000002,283.1057206999976,283.3568438000002,283.1057206999976,283.3568438000002,283.1057206999976,283.3568438000002,283.1057206999976,283.3568438000002,283.3397782000029,283.8406681999986,283.3397782000029,283.8406681999986,283.3397782000029,283.8406681999986,283.3397782000029,283.8406681999986,283.3397782000029,283.8406681999986,283.3397782000029,283.8406681999986,283.3397782000029,283.8406681999986,283.3397782000029,283.8406681999986,283.1057206999976,None,283.8406681999986,285.8933345999976,0.25,285.9096602999998,None,286.6608879999985,None,,,,,,,[2.04961538],4.910000000000004,0.8076923076923077,11004,001,2023_Dec_29_1334,MFTM_A_new1021,2021.2.3,59.74657891047895,
,,,,,,,,stim/Instruction_adaptive.png,conditions/adaptive.xlsx,test,0.6,0.6,0.6,-0.6,-0.6,right,R,,,,,0,1,1,1,0,26,26,46,,,,,,,,,,,,,,,,,,,,,,,,,,,,,,,,,,,,,,,,,,,,287.1617350000015,None,left,0,1.100726600001508,287.6630170999997,288.4141308000035,287.6630170999997,287.9128411999991,287.6630170999997,287.9128411999991,287.6630170999997,287.9128411999991,287.6630170999997,287.9128411999991,287.6630170999997,287.9128411999991,287.8961096999992,288.3967774999983,287.8961096999992,288.3967774999983,287.8961096999992,288.3967774999983,287.8961096999992,288.3967774999983,287.8961096999992,288.3967774999983,287.8961096999992,288.3967774999983,287.8961096999992,288.3967774999983,287.8961096999992,288.3967774999983,287.6630170999997,None,288.3967774999983,290.46710000000166,0.25,290.48325280000427,None,291.23531789999834,None,,,,,,,[2.05703704],4.7100000000000035,0.7777777777777778,11004,001,2023_Dec_29_1334,MFTM_A_new1021,2021.2.3,59.74657891047895,
,,,,,,,,stim/Instruction_adaptive.png,conditions/adaptive.xlsx,test,0.6,0.6,0.6,-0.6,-0.6,right,R,,,,,0,1,1,1,0,27,27,76,,,,,,,,,,,,,,,,,,,,,,,,,,,,,,,,,,,,,,,,,,,,291.7351880999995,None,right,1,1.0956338000032702,292.23569880000287,292.9876646999983,292.23569880000287,292.4862052000026,292.23569880000287,292.4862052000026,292.23569880000287,292.4862052000026,292.23569880000287,292.4862052000026,292.23569880000287,292.4862052000026,292.4695747000005,292.97084650000033,292.4695747000005,292.97084650000033,292.4695747000005,292.97084650000033,292.4695747000005,292.97084650000033,292.4695747000005,292.97084650000033,292.4695747000005,292.97084650000033,292.4695747000005,292.97084650000033,292.4695747000005,292.97084650000033,292.23569880000287,None,292.97084650000033,295.04221820000384,0.25,295.05635659999825,None,295.8089172999971,None,,,,,,,[2.06392857],4.770000000000004,0.7857142857142857,11004,001,2023_Dec_29_1334,MFTM_A_new1021,2021.2.3,59.74657891047895,
,,,,,,,,stim/Instruction_adaptive.png,conditions/adaptive.xlsx,test,0.6,0.6,0.6,-0.6,-0.6,right,R,,,,,0,1,1,1,0,28,28,44,,,,,,,,,,,,,,,,,,,,,,,,,,,,,,,,,,,,,,,,,,,,296.3089297000042,None,right,1,2.210072100002435,296.80920750000223,297.5610224999982,296.80920750000223,297.06081560000166,296.80920750000223,297.06081560000166,296.80920750000223,297.06081560000166,296.80920750000223,297.06081560000166,296.80920750000223,297.06081560000166,297.04366930000106,297.54440109999996,297.04366930000106,297.54440109999996,297.04366930000106,297.54440109999996,297.04366930000106,297.54440109999996,297.04366930000106,297.54440109999996,297.04366930000106,297.54440109999996,297.04366930000106,297.54440109999996,297.04366930000106,297.54440109999996,296.80920750000223,None,297.54440109999996,299.6134242000044,0.25,299.63080269999773,None,300.3813685999994,None,,,,,,,[2.07034483],4.830000000000004,0.7931034482758621,11004,001,2023_Dec_29_1334,MFTM_A_new1021,2021.2.3,59.74657891047895,
,,,,,,,,stim/Instruction_adaptive.png,conditions/adaptive.xlsx,test,-0.6,-0.6,-0.6,0.6,0.6,left,L,,,,,0,1,1,1,0,29,29,65,,,,,,,,,,,,,,,,,,,,,,,,,,,,,,,,,,,,,,,,,,,,300.8820666000029,None,left,1,2.0284600000013597,301.38276549999864,302.13442550000036,301.38276549999864,301.63371709999774,301.38276549999864,301.63371709999774,301.38276549999864,301.63371709999774,301.38276549999864,301.63371709999774,301.38276549999864,301.63371709999774,301.61677410000266,302.1173701000007,301.61677410000266,302.1173701000007,301.61677410000266,302.1173701000007,301.61677410000266,302.1173701000007,301.61677410000266,302.1173701000007,301.61677410000266,302.1173701000007,301.61677410000266,302.1173701000007,301.61677410000266,302.1173701000007,301.38276549999864,None,302.1173701000007,304.20360330000403,0.25,304.22082919999957,None,304.97169980000035,None,,,,,,,[2.07633333],4.890000000000004,0.8,11004,001,2023_Dec_29_1334,MFTM_A_new1021,2021.2.3,59.74657891047895,
,,,,,,,,stim/Instruction_adaptive.png,conditions/adaptive.xlsx,test,0.6,0.6,0.6,-0.6,-0.6,right,R,,,,,0,1,1,1,0,30,30,30,,,,,,,,,,,,,,,,,,,,,,,,,,,,,,,,,,,,,,,,,,,,305.4726423000029,None,left,0,1.5586112999953912,305.9727834000005,306.7245874,305.9727834000005,306.2232740000036,305.9727834000005,306.2232740000036,305.9727834000005,306.2232740000036,305.9727834000005,306.2232740000036,305.9727834000005,306.2232740000036,306.206494500002,306.7072208000027,306.206494500002,306.7072208000027,306.206494500002,306.7072208000027,306.206494500002,306.7072208000027,306.206494500002,306.7072208000027,306.206494500002,306.7072208000027,306.206494500002,306.7072208000027,306.206494500002,306.7072208000027,305.9727834000005,None,306.7072208000027,308.7942780000012,0.25,308.8106983000034,None,309.56146550000267,None,,,,,,,[2.08193548],4.7100000000000035,0.7741935483870968,11004,001,2023_Dec_29_1334,MFTM_A_new1021,2021.2.3,59.74657891047895,
,,,,,,,,stim/Instruction_adaptive.png,conditions/adaptive.xlsx,test,0.6,0.6,0.6,-0.6,-0.6,right,R,,,,,0,1,1,1,0,31,31,0,,,,,,,,,,,,,,,,,,,,,,,,,,,,,,,,,,,,,,,,,,,,310.06278230000316,None,right,1,1.2088164999950095,310.5629210000043,311.3154588000034,310.5629210000043,310.81339879999723,310.5629210000043,310.81339879999723,310.5629210000043,310.81339879999723,310.5629210000043,310.81339879999723,310.5629210000043,310.81339879999723,310.79731080000056,311.29791829999886,310.79731080000056,311.29791829999886,310.79731080000056,311.29791829999886,310.79731080000056,311.29791829999886,310.79731080000056,311.29791829999886,310.79731080000056,311.29791829999886,310.79731080000056,311.29791829999886,310.79731080000056,311.29791829999886,310.5629210000043,None,311.29791829999886,None,0.25,313.40193,None,314.1526296000011,None,,,,,,,[2.0871875],4.770000000000004,0.78125,11004,001,2023_Dec_29_1334,MFTM_A_new1021,2021.2.3,59.74657891047895,
,,,,,,,,stim/Instruction_adaptive.png,conditions/adaptive.xlsx,test,-0.6,-0.6,-0.6,0.6,0.6,left,L,,,,,0,1,1,1,0,32,32,25,,,,,,,,,,,,,,,,,,,,,,,,,,,,,,,,,,,,,,,,,,,,314.6526539999977,None,left,1,2.2030150999999023,315.1532634000032,315.9046662000037,315.1532634000032,315.4047759000023,315.1532634000032,315.4047759000023,315.1532634000032,315.4047759000023,315.1532634000032,315.4047759000023,315.1532634000032,315.4047759000023,315.3868487,315.8875726000042,315.3868487,315.8875726000042,315.3868487,315.8875726000042,315.3868487,315.8875726000042,315.3868487,315.8875726000042,315.3868487,315.8875726000042,315.3868487,315.8875726000042,315.3868487,315.8875726000042,315.1532634000032,None,315.8875726000042,317.99134620000405,0.25,318.0080745000014,None,318.75846260000253,None,,,,,,,[2.09212121],4.820000000000004,0.7878787878787878,11004,001,2023_Dec_29_1334,MFTM_A_new1021,2021.2.3,59.74657891047895,
,,,,,,,,stim/Instruction_adaptive.png,conditions/adaptive.xlsx,test,0.6,0.6,0.6,-0.6,-0.6,right,R,,,,,0,1,1,1,0,33,33,10,,,,,,,,,,,,,,,,,,,,,,,,,,,,,,,,,,,,,,,,,,,,319.2599057999978,None,right,1,1.6511667000013404,319.76049390000117,320.5120960999993,319.76049390000117,320.01022999999986,319.76049390000117,320.01022999999986,319.76049390000117,320.01022999999986,319.76049390000117,320.01022999999986,319.76049390000117,320.01022999999986,319.99364700000297,320.4942719000028,319.99364700000297,320.4942719000028,319.99364700000297,320.4942719000028,319.99364700000297,320.4942719000028,319.99364700000297,320.4942719000028,319.99364700000297,320.4942719000028,319.99364700000297,320.4942719000028,319.99364700000297,320.4942719000028,319.76049390000117,None,320.4942719000028,322.5983078999998,0.25,322.6147893000016,None,323.3650847000026,None,,,,,,,[2.09676471],4.870000000000004,0.7941176470588235,11004,001,2023_Dec_29_1334,MFTM_A_new1021,2021.2.3,59.74657891047895,
,,,,,,,,stim/Instruction_adaptive.png,conditions/adaptive.xlsx,test,-0.6,-0.6,-0.6,0.6,0.6,left,L,,,,,0,1,1,1,0,34,34,91,,,,,,,,,,,,,,,,,,,,,,,,,,,,,,,,,,,,,,,,,,,,323.86581390000356,None,left,1,1.8605026000004727,324.36676940000325,325.11888660000113,324.36676940000325,324.6170950000014,324.36676940000325,324.6170950000014,324.36676940000325,324.6170950000014,324.36676940000325,324.6170950000014,324.36676940000325,324.6170950000014,324.60180769999715,325.1019565000024,324.60180769999715,325.1019565000024,324.60180769999715,325.1019565000024,324.60180769999715,325.1019565000024,324.60180769999715,325.1019565000024,324.60180769999715,325.1019565000024,324.60180769999715,325.1019565000024,324.60180769999715,325.1019565000024,324.36676940000325,None,325.1019565000024,327.2042960000035,0.25,327.22090359999856,None,327.97222150000016,None,,,,,,,[2.10114286],4.9200000000000035,0.8,11004,001,2023_Dec_29_1334,MFTM_A_new1021,2021.2.3,59.74657891047895,
,,,,,,,,stim/Instruction_adaptive.png,conditions/adaptive.xlsx,test,0.6,0.6,0.6,-0.6,-0.6,right,R,,,,,0,1,1,1,0,35,35,42,,,,,,,,,,,,,,,,,,,,,,,,,,,,,,,,,,,,,,,,,,,,328.4741570000042,None,right,1,1.7251284000012674,328.9743770999994,329.724793100002,328.9743770999994,329.22385880000365,328.9743770999994,329.22385880000365,328.9743770999994,329.22385880000365,328.9743770999994,329.22385880000365,328.9743770999994,329.22385880000365,329.20699530000275,329.7082283999989,329.20699530000275,329.7082283999989,329.20699530000275,329.7082283999989,329.20699530000275,329.7082283999989,329.20699530000275,329.7082283999989,329.20699530000275,329.7082283999989,329.20699530000275,329.7082283999989,329.20699530000275,329.7082283999989,328.9743770999994,None,329.7082283999989,None,0.25,331.82762869999715,None,332.57899870000256,None,,,,,,,[2.10527778],4.970000000000004,0.8055555555555556,11004,001,2023_Dec_29_1334,MFTM_A_new1021,2021.2.3,59.74657891047895,
,,,,,,,,stim/Instruction_adaptive.png,conditions/adaptive.xlsx,test,-0.6,-0.6,-0.6,0.6,0.6,left,L,,,,,0,1,1,1,0,36,36,17,,,,,,,,,,,,,,,,,,,,,,,,,,,,,,,,,,,,,,,,,,,,333.0797620000012,None,right,0,1.5110349000024144,333.58044130000053,334.3315239000003,333.58044130000053,333.83067100000335,333.58044130000053,333.83067100000335,333.58044130000053,333.83067100000335,333.58044130000053,333.83067100000335,333.58044130000053,333.83067100000335,333.81427290000283,334.31474690000323,333.81427290000283,334.31474690000323,333.81427290000283,334.31474690000323,333.81427290000283,334.31474690000323,333.81427290000283,334.31474690000323,333.81427290000283,334.31474690000323,333.81427290000283,334.31474690000323,333.81427290000283,334.31474690000323,333.58044130000053,None,334.31474690000323,336.4352627999979,0.25,336.4513442000025,None,337.2032190000027,None,,,,,,,[2.10918919],4.810000000000004,0.7837837837837838,11004,001,2023_Dec_29_1334,MFTM_A_new1021,2021.2.3,59.74657891047895,
,,,,,,,,stim/Instruction_adaptive.png,conditions/adaptive.xlsx,test,-0.6,-0.6,-0.6,0.6,0.6,left,L,,,,,0,1,1,1,0,37,37,59,,,,,,,,,,,,,,,,,,,,,,,,,,,,,,,,,,,,,,,,,,,,337.70356670000183,None,right,0,1.8232893999957014,338.20389940000314,338.9560354999994,338.20389940000314,338.4541805999979,338.20389940000314,338.4541805999979,338.20389940000314,338.4541805999979,338.20389940000314,338.4541805999979,338.20389940000314,338.4541805999979,338.4374786999979,338.9392946000007,338.4374786999979,338.9392946000007,338.4374786999979,338.9392946000007,338.4374786999979,338.9392946000007,338.4374786999979,338.9392946000007,338.4374786999979,338.9392946000007,338.4374786999979,338.9392946000007,338.4374786999979,338.9392946000007,338.20389940000314,None,338.9392946000007,341.0588600999981,0.25,341.0749453000026,None,341.826765400001,None,,,,,,,[2.11289474],4.660000000000004,0.7631578947368421,11004,001,2023_Dec_29_1334,MFTM_A_new1021,2021.2.3,59.74657891047895,
,,,,,,,,stim/Instruction_adaptive.png,conditions/adaptive.xlsx,test,-0.6,-0.6,-0.6,0.6,0.6,left,L,,,,,0,1,1,1,0,38,38,83,,,,,,,,,,,,,,,,,,,,,,,,,,,,,,,,,,,,,,,,,,,,342.32734699999855,None,left,1,1.8081536000026972,342.8277317000029,343.59550509999826,342.8277317000029,343.0948157000021,342.8277317000029,343.0948157000021,342.8277317000029,343.0948157000021,342.8277317000029,343.0948157000021,342.8277317000029,343.0948157000021,343.0786447999999,343.57927819999895,343.0786447999999,343.57927819999895,343.0786447999999,343.57927819999895,343.0786447999999,343.57927819999895,343.0786447999999,343.57927819999895,343.0786447999999,343.57927819999895,343.0786447999999,343.57927819999895,343.0786447999999,343.57927819999895,342.8277317000029,None,343.57927819999895,345.6983634999997,0.26,345.71519889999763,None,346.466245100004,None,,,,,,,[2.11615385],4.7100000000000035,0.7692307692307693,11004,001,2023_Dec_29_1334,MFTM_A_new1021,2021.2.3,59.74657891047895,
,,,,,,,,stim/Instruction_adaptive.png,conditions/adaptive.xlsx,test,0.6,0.6,0.6,-0.6,-0.6,right,R,,,,,0,1,1,1,0,39,39,36,,,,,,,,,,,,,,,,,,,,,,,,,,,,,,,,,,,,,,,,,,,,346.9676142000026,None,right,1,1.063913699996192,347.46774690000166,348.2193421999982,347.46774690000166,347.7179996999985,347.46774690000166,347.7179996999985,347.46774690000166,347.7179996999985,347.46774690000166,347.7179996999985,347.46774690000166,347.7179996999985,347.70264979999774,348.2027090999982,347.70264979999774,348.2027090999982,347.70264979999774,348.2027090999982,347.70264979999774,348.2027090999982,347.70264979999774,348.2027090999982,347.70264979999774,348.2027090999982,347.70264979999774,348.2027090999982,347.70264979999774,348.2027090999982,347.46774690000166,None,348.2027090999982,350.3228006999998,0.25,350.338760300001,None,351.090555499999,None,,,,,,,[2.1195],4.760000000000003,0.775,11004,001,2023_Dec_29_1334,MFTM_A_new1021,2021.2.3,59.74657891047895,
,,,,,,,,stim/Instruction_adaptive.png,conditions/adaptive.xlsx,test,-0.6,-0.6,-0.6,0.6,0.6,left,L,,,,,0,1,1,1,0,40,40,53,,,,,,,,,,,,,,,,,,,,,,,,,,,,,,,,,,,,,,,,,,,,351.5914389000027,None,left,1,1.0564491000041016,352.09149590000015,352.8429550000001,352.09149590000015,352.34147120000125,352.09149590000015,352.34147120000125,352.09149590000015,352.34147120000125,352.09149590000015,352.34147120000125,352.09149590000015,352.34147120000125,352.3246642000013,352.82617030000256,352.3246642000013,352.82617030000256,352.3246642000013,352.82617030000256,352.3246642000013,352.82617030000256,352.3246642000013,352.82617030000256,352.3246642000013,352.82617030000256,352.3246642000013,352.82617030000256,352.3246642000013,352.82617030000256,352.09149590000015,None,352.82617030000256,354.9621195,0.25,354.9788241999995,None,355.7303877000013,None,,,,,,,[2.12268293],4.800000000000004,0.7804878048780488,11004,001,2023_Dec_29_1334,MFTM_A_new1021,2021.2.3,59.74657891047895,
,,,,,,,,stim/Instruction_adaptive.png,conditions/adaptive.xlsx,test,0.6,0.6,0.6,-0.6,-0.6,right,R,,,,,0,1,1,1,0,41,41,80,,,,,,,,,,,,,,,,,,,,,,,,,,,,,,,,,,,,,,,,,,,,356.2312183000031,None,right,1,1.1918627000050037,356.7317586999998,357.48417260000133,356.7317586999998,356.9823628000013,356.7317586999998,356.9823628000013,356.7317586999998,356.9823628000013,356.7317586999998,356.9823628000013,356.7317586999998,356.9823628000013,356.9653349,357.46584900000016,356.9653349,357.46584900000016,356.9653349,357.46584900000016,356.9653349,357.46584900000016,356.9653349,357.46584900000016,356.9653349,357.46584900000016,356.9653349,357.46584900000016,356.9653349,357.46584900000016,356.7317586999998,None,357.46584900000016,359.6032816000006,0.25,359.6195557000028,None,360.37017619999824,None,,,,,,,[2.12571429],4.850000000000004,0.7857142857142857,11004,001,2023_Dec_29_1334,MFTM_A_new1021,2021.2.3,59.74657891047895,
,,,,,,,,stim/Instruction_adaptive.png,conditions/adaptive.xlsx,test,-0.6,-0.6,-0.6,0.6,0.6,left,L,,,,,0,1,1,1,0,42,42,1,,,,,,,,,,,,,,,,,,,,,,,,,,,,,,,,,,,,,,,,,,,,360.87080699999933,None,left,1,1.007366899997578,361.3718426999985,362.1226486000014,361.3718426999985,361.62209150000126,361.3718426999985,361.62209150000126,361.3718426999985,361.62209150000126,361.3718426999985,361.62209150000126,361.3718426999985,361.62209150000126,361.60610769999766,362.10609269999986,361.60610769999766,362.10609269999986,361.60610769999766,362.10609269999986,361.60610769999766,362.10609269999986,361.60610769999766,362.10609269999986,361.60610769999766,362.10609269999986,361.60610769999766,362.10609269999986,361.60610769999766,362.10609269999986,361.3718426999985,None,362.10609269999986,364.24251229999936,0.25,364.25940529999934,None,365.0126686000003,None,,,,,,,[2.12860465],4.890000000000004,0.7906976744186046,11004,001,2023_Dec_29_1334,MFTM_A_new1021,2021.2.3,59.74657891047895,
,,,,,,,,stim/Instruction_adaptive.png,conditions/adaptive.xlsx,test,0.6,0.6,0.6,-0.6,-0.6,right,R,,,,,0,1,1,1,0,43,43,96,,,,,,,,,,,,,,,,,,,,,,,,,,,,,,,,,,,,,,,,,,,,365.5286449999985,None,right,1,1.1821961000023293,366.029664200003,366.7807408000008,366.029664200003,366.27903450000304,366.029664200003,366.27903450000304,366.029664200003,366.27903450000304,366.029664200003,366.27903450000304,366.029664200003,366.27903450000304,366.26203630000236,366.7634140000009,366.26203630000236,366.7634140000009,366.26203630000236,366.7634140000009,366.26203630000236,366.7634140000009,366.26203630000236,366.7634140000009,366.26203630000236,366.7634140000009,366.26203630000236,366.7634140000009,366.26203630000236,366.7634140000009,366.029664200003,None,366.7634140000009,368.9005498000042,0.25,368.91606909999973,None,369.66804160000174,None,,,,,,,[2.13136364],4.930000000000004,0.7954545454545454,11004,001,2023_Dec_29_1334,MFTM_A_new1021,2021.2.3,59.74657891047895,
,,,,,,,,stim/Instruction_adaptive.png,conditions/adaptive.xlsx,test,0.6,0.6,0.6,-0.6,-0.6,right,R,,,,,0,1,1,1,0,44,44,52,,,,,,,,,,,,,,,,,,,,,,,,,,,,,,,,,,,,,,,,,,,,370.16929930000333,None,right,1,1.2072403999991366,370.66868460000114,371.4203880999994,370.66868460000114,370.9196379999994,370.66868460000114,370.9196379999994,370.66868460000114,370.9196379999994,370.66868460000114,370.9196379999994,370.66868460000114,370.9196379999994,370.90238880000106,371.4037183000037,370.90238880000106,371.4037183000037,370.90238880000106,371.4037183000037,370.90238880000106,371.4037183000037,370.90238880000106,371.4037183000037,370.90238880000106,371.4037183000037,370.90238880000106,371.4037183000037,370.90238880000106,371.4037183000037,370.66868460000114,None,371.4037183000037,373.5396691999995,0.25,373.5564032999973,None,374.3072065000015,None,,,,,,,[2.134],4.960000000000004,0.8,11004,001,2023_Dec_29_1334,MFTM_A_new1021,2021.2.3,59.74657891047895,
,,,,,,,,stim/Instruction_adaptive.png,conditions/adaptive.xlsx,test,0.6,0.6,0.6,-0.6,-0.6,right,R,,,,,0,1,1,1,0,45,45,72,,,,,,,,,,,,,,,,,,,,,,,,,,,,,,,,,,,,,,,,,,,,374.80873260000226,None,left,0,1.4939465999996173,375.3094482000015,376.0599646999981,375.3094482000015,375.56020649999846,375.3094482000015,375.56020649999846,375.3094482000015,375.56020649999846,375.3094482000015,375.56020649999846,375.3094482000015,375.56020649999846,375.54328969999915,376.0434122000006,375.54328969999915,376.0434122000006,375.54328969999915,376.0434122000006,375.54328969999915,376.0434122000006,375.54328969999915,376.0434122000006,375.54328969999915,376.0434122000006,375.54328969999915,376.0434122000006,375.54328969999915,376.0434122000006,375.3094482000015,None,376.0434122000006,378.17994400000316,0.25,378.19749050000246,None,378.94840960000147,None,,,,,,,[2.13652174],4.840000000000003,0.782608695652174,11004,001,2023_Dec_29_1334,MFTM_A_new1021,2021.2.3,59.74657891047895,
,,,,,,,,stim/Instruction_adaptive.png,conditions/adaptive.xlsx,test,-0.6,-0.6,-0.6,0.6,0.6,left,L,,,,,0,1,1,1,0,46,46,35,,,,,,,,,,,,,,,,,,,,,,,,,,,,,,,,,,,,,,,,,,,,379.4490919000018,None,right,0,1.2459534000008716,379.9498989999993,380.7002963999985,379.9498989999993,380.19962829999713,379.9498989999993,380.19962829999713,379.9498989999993,380.19962829999713,379.9498989999993,380.19962829999713,379.9498989999993,380.19962829999713,380.18278490000375,380.68433760000335,380.18278490000375,380.68433760000335,380.18278490000375,380.68433760000335,380.18278490000375,380.68433760000335,380.18278490000375,380.68433760000335,380.18278490000375,380.68433760000335,380.18278490000375,380.68433760000335,380.18278490000375,380.68433760000335,379.9498989999993,None,380.68433760000335,382.8373365000007,0.25,382.8533368999997,None,383.60458590000053,None,,,,,,,[2.13893617],4.7100000000000035,0.7659574468085106,11004,001,2023_Dec_29_1334,MFTM_A_new1021,2021.2.3,59.74657891047895,
,,,,,,,,stim/Instruction_adaptive.png,conditions/adaptive.xlsx,test,-0.6,-0.6,-0.6,0.6,0.6,left,L,,,,,0,1,1,1,0,47,47,81,,,,,,,,,,,,,,,,,,,,,,,,,,,,,,,,,,,,,,,,,,,,384.1064314000032,None,left,1,1.7495039999994333,384.60600449999765,385.358639500002,384.60600449999765,384.85734210000373,384.60600449999765,384.85734210000373,384.60600449999765,384.85734210000373,384.60600449999765,384.85734210000373,384.60600449999765,384.85734210000373,384.83970399999816,385.3404845000041,384.83970399999816,385.3404845000041,384.83970399999816,385.3404845000041,384.83970399999816,385.3404845000041,384.83970399999816,385.3404845000041,384.83970399999816,385.3404845000041,384.83970399999816,385.3404845000041,384.83970399999816,385.3404845000041,384.60600449999765,None,385.3404845000041,387.4963538000011,0.25,387.5277783999991,None,388.2790292999998,None,,,,,,,[2.14125],4.7500000000000036,0.7708333333333334,11004,001,2023_Dec_29_1334,MFTM_A_new1021,2021.2.3,59.74657891047895,
,,,,,,,,stim/Instruction_adaptive.png,conditions/adaptive.xlsx,test,0.6,0.6,0.6,-0.6,-0.6,right,R,,,,,0,1,1,1,0,48,48,90,,,,,,,,,,,,,,,,,,,,,,,,,,,,,,,,,,,,,,,,,,,,388.7795297999983,None,right,1,2.755300899996655,389.2802484999993,390.0315555999987,389.2802484999993,389.5299767000033,389.2802484999993,389.5299767000033,389.2802484999993,389.5299767000033,389.2802484999993,389.5299767000033,389.2802484999993,389.5299767000033,389.51429250000365,390.01411219999864,389.51429250000365,390.01411219999864,389.51429250000365,390.01411219999864,389.51429250000365,390.01411219999864,389.51429250000365,390.01411219999864,389.51429250000365,390.01411219999864,389.51429250000365,390.01411219999864,389.51429250000365,390.01411219999864,389.2802484999993,None,390.01411219999864,392.16877869999735,0.25,392.18349619999935,None,392.93510129999777,None,,,,,,,[2.14346939],4.790000000000004,0.7755102040816326,11004,001,2023_Dec_29_1334,MFTM_A_new1021,2021.2.3,59.74657891047895,
,,,,,,,,stim/Instruction_adaptive.png,conditions/adaptive.xlsx,test,0.6,0.6,0.6,-0.6,-0.6,right,R,,,,,0,1,1,1,0,49,49,34,,,,,,,,,,,,,,,,,,,,,,,,,,,,,,,,,,,,,,,,,,,,393.4357414000042,None,left,0,2.003439400003117,393.9364590999976,394.6887233000016,393.9364590999976,394.1875568000032,393.9364590999976,394.1875568000032,393.9364590999976,394.1875568000032,393.9364590999976,394.1875568000032,393.9364590999976,394.1875568000032,394.1700764999987,394.6709652999998,394.1700764999987,394.6709652999998,394.1700764999987,394.6709652999998,394.1700764999987,394.6709652999998,394.1700764999987,394.6709652999998,394.1700764999987,394.6709652999998,394.1700764999987,394.6709652999998,394.1700764999987,394.6709652999998,393.9364590999976,None,394.6709652999998,396.82454130000406,0.25,396.8406396999999,None,397.5927243000042,None,,,,,,,[2.1456],4.680000000000003,0.76,11004,001,2023_Dec_29_1334,MFTM_A_new1021,2021.2.3,59.74657891047895,
,,,,,,,,stim/Instruction_adaptive.png,conditions/adaptive.xlsx,test,-0.6,-0.6,-0.6,0.6,0.6,left,L,,,,,0,1,1,1,0,50,50,69,,,,,,,,,,,,,,,,,,,,,,,,,,,,,,,,,,,,,,,,,,,,398.0941974000016,None,right,0,1.1621462999974028,398.59328339999774,399.3612103999985,398.59328339999774,398.86078100000304,398.59328339999774,398.86078100000304,398.59328339999774,398.86078100000304,398.59328339999774,398.86078100000304,398.59328339999774,398.86078100000304,398.84443640000245,399.3450262000042,398.84443640000245,399.3450262000042,398.84443640000245,399.3450262000042,398.84443640000245,399.3450262000042,398.84443640000245,399.3450262000042,398.84443640000245,399.3450262000042,398.84443640000245,399.3450262000042,398.84443640000245,399.3450262000042,398.59328339999774,None,399.3450262000042,401.4976972000004,0.26,401.51440459999867,None,402.2655126000027,None,,,,,,,[2.14745098],4.560000000000004,0.7450980392156863,11004,001,2023_Dec_29_1334,MFTM_A_new1021,2021.2.3,59.74657891047895,
,,,,,,,,stim/Instruction_adaptive.png,conditions/adaptive.xlsx,test,0.6,0.6,0.6,-0.6,-0.6,right,R,,,,,0,1,1,1,0,51,51,64,,,,,,,,,,,,,,,,,,,,,,,,,,,,,,,,,,,,,,,,,,,,402.76640659999975,None,left,0,1.2234795000040322,403.2679016999973,404.0525263000018,403.2679016999973,403.5507832000003,403.2679016999973,403.5507832000003,403.2679016999973,403.5507832000003,403.2679016999973,403.5507832000003,403.2679016999973,403.5507832000003,403.53453389999777,404.0354226999989,403.53453389999777,404.0354226999989,403.53453389999777,404.0354226999989,403.53453389999777,404.0354226999989,403.53453389999777,404.0354226999989,403.53453389999777,404.0354226999989,403.53453389999777,404.0354226999989,403.53453389999777,404.0354226999989,403.2679016999973,None,404.0354226999989,406.18857930000377,0.28,406.20543790000374,None,406.95649470000353,None,,,,,,,[2.14884615],4.440000000000003,0.7307692307692307,11004,001,2023_Dec_29_1334,MFTM_A_new1021,2021.2.3,59.74657891047895,
,,,,,,,,stim/Instruction_adaptive.png,conditions/adaptive.xlsx,test,-0.6,-0.6,-0.6,0.6,0.6,left,L,,,,,0,1,1,1,0,52,52,9,,,,,,,,,,,,,,,,,,,,,,,,,,,,,,,,,,,,,,,,,,,,407.4567243999991,None,left,1,1.854126999998698,407.95728029999736,408.7608284000016,407.95728029999736,408.2586072999984,407.95728029999736,408.2586072999984,407.95728029999736,408.2586072999984,407.95728029999736,408.2586072999984,407.95728029999736,408.2586072999984,408.2417182999998,408.7419058000014,408.2417182999998,408.7419058000014,408.2417182999998,408.7419058000014,408.2417182999998,408.7419058000014,408.2417182999998,408.7419058000014,408.2417182999998,408.7419058000014,408.2417182999998,408.7419058000014,408.2417182999998,408.7419058000014,407.95728029999736,None,408.7419058000014,410.89613239999744,0.30000000000000004,410.9116579000038,None,411.66357589999825,None,,,,,,,[2.14981132],4.480000000000004,0.7358490566037735,11004,001,2023_Dec_29_1334,MFTM_A_new1021,2021.2.3,59.74657891047895,
,,,,,,,,stim/Instruction_adaptive.png,conditions/adaptive.xlsx,test,0.6,0.6,0.6,-0.6,-0.6,right,R,,,,,0,1,1,1,0,53,53,38,,,,,,,,,,,,,,,,,,,,,,,,,,,,,,,,,,,,,,,,,,,,412.16361390000384,None,right,1,1.283146099995065,412.6649873999995,413.4655141999974,412.6649873999995,412.9652102999971,412.6649873999995,412.9652102999971,412.6649873999995,412.9652102999971,412.6649873999995,412.9652102999971,412.6649873999995,412.9652102999971,412.9312396000023,413.432839400004,412.9312396000023,413.432839400004,412.9312396000023,413.432839400004,412.9312396000023,413.432839400004,412.9312396000023,413.432839400004,412.9312396000023,413.432839400004,412.9312396000023,413.432839400004,412.9312396000023,413.432839400004,412.6649873999995,None,413.432839400004,415.58517060000304,0.29000000000000004,415.61920259999897,None,416.36986949999846,None,,,,,,,[2.15092593],4.520000000000003,0.7407407407407407,11004,001,2023_Dec_29_1334,MFTM_A_new1021,2021.2.3,59.74657891047895,
,,,,,,,,stim/Instruction_adaptive.png,conditions/adaptive.xlsx,test,0.6,0.6,0.6,-0.6,-0.6,right,R,,,,,0,1,1,1,0,54,54,40,,,,,,,,,,,,,,,,,,,,,,,,,,,,,,,,,,,,,,,,,,,,416.87046530000225,None,right,1,1.9915379999947618,417.3718433000031,418.1722749000037,417.3718433000031,417.6719432000027,417.3718433000031,417.6719432000027,417.3718433000031,417.6719432000027,417.3718433000031,417.6719432000027,417.3718433000031,417.6719432000027,417.6392294000034,418.13904470000125,417.6392294000034,418.13904470000125,417.6392294000034,418.13904470000125,417.6392294000034,418.13904470000125,417.6392294000034,418.13904470000125,417.6392294000034,418.13904470000125,417.6392294000034,418.13904470000125,417.6392294000034,418.13904470000125,417.3718433000031,None,418.13904470000125,420.29311230000167,0.29000000000000004,420.3263411000007,None,421.077543600004,None,,,,,,,[2.152],4.560000000000004,0.7454545454545455,11004,001,2023_Dec_29_1334,MFTM_A_new1021,2021.2.3,59.74657891047895,
,,,,,,,,stim/Instruction_adaptive.png,conditions/adaptive.xlsx,test,-0.6,-0.6,-0.6,0.6,0.6,left,L,,,,,0,1,1,1,0,55,55,47,,,,,,,,,,,,,,,,,,,,,,,,,,,,,,,,,,,,,,,,,,,,421.5783633000028,None,left,1,1.5405007000008482,422.0789881000019,422.8624389000033,422.0789881000019,422.36223240000254,422.0789881000019,422.36223240000254,422.0789881000019,422.36223240000254,422.0789881000019,422.36223240000254,422.0789881000019,422.36223240000254,422.34539690000383,422.84619770000427,422.34539690000383,422.84619770000427,422.34539690000383,422.84619770000427,422.34539690000383,422.84619770000427,422.34539690000383,422.84619770000427,422.34539690000383,422.84619770000427,422.34539690000383,422.84619770000427,422.34539690000383,422.84619770000427,422.0789881000019,None,422.84619770000427,425.00059070000134,0.28,425.0154507999978,None,425.76754580000124,None,,,,,,,[2.15321429],4.600000000000003,0.75,11004,001,2023_Dec_29_1334,MFTM_A_new1021,2021.2.3,59.74657891047895,
,,,,,,,,stim/Instruction_adaptive.png,conditions/adaptive.xlsx,test,-0.6,-0.6,-0.6,0.6,0.6,left,L,,,,,0,1,1,1,0,56,56,55,,,,,,,,,,,,,,,,,,,,,,,,,,,,,,,,,,,,,,,,,,,,426.26846659999865,None,left,1,1.0833722000024864,426.76840690000245,427.5536159999974,426.76840690000245,427.05226720000064,426.76840690000245,427.05226720000064,426.76840690000245,427.05226720000064,426.76840690000245,427.05226720000064,426.76840690000245,427.05226720000064,427.01893579999887,427.52010449999943,427.01893579999887,427.52010449999943,427.01893579999887,427.52010449999943,427.01893579999887,427.52010449999943,427.01893579999887,427.52010449999943,427.01893579999887,427.52010449999943,427.01893579999887,427.52010449999943,427.01893579999887,427.52010449999943,426.76840690000245,None,427.52010449999943,429.6902822999982,0.27,429.70626939999784,None,430.4572363999978,None,,,,,,,[2.1545614],4.6300000000000034,0.7543859649122807,11004,001,2023_Dec_29_1334,MFTM_A_new1021,2021.2.3,59.74657891047895,
,,,,,,,,stim/Instruction_adaptive.png,conditions/adaptive.xlsx,test,-0.6,-0.6,-0.6,0.6,0.6,left,L,,,,,0,1,1,1,0,57,57,57,,,,,,,,,,,,,,,,,,,,,,,,,,,,,,,,,,,,,,,,,,,,430.95806209999864,None,right,0,1.1538409999993746,431.4587328999987,432.2443826000017,431.4587328999987,431.74326999999903,431.4587328999987,431.74326999999903,431.4587328999987,431.74326999999903,431.4587328999987,431.74326999999903,431.4587328999987,431.74326999999903,431.70945460000075,432.210473500003,431.70945460000075,432.210473500003,431.70945460000075,432.210473500003,431.70945460000075,432.210473500003,431.70945460000075,432.210473500003,431.70945460000075,432.210473500003,431.70945460000075,432.210473500003,431.70945460000075,432.210473500003,431.4587328999987,None,432.210473500003,434.38226399999985,0.27,434.3962270999982,None,435.1484270000001,None,,,,,,,[2.15586207],4.530000000000004,0.7413793103448276,11004,001,2023_Dec_29_1334,MFTM_A_new1021,2021.2.3,59.74657891047895,
,,,,,,,,stim/Instruction_adaptive.png,conditions/adaptive.xlsx,test,-0.6,-0.6,-0.6,0.6,0.6,left,L,,,,,0,1,1,1,0,58,58,77,,,,,,,,,,,,,,,,,,,,,,,,,,,,,,,,,,,,,,,,,,,,435.64838489999966,None,left,1,0.9659325000029639,436.14982820000296,436.93370850000065,436.14982820000296,436.43362219999835,436.14982820000296,436.43362219999835,436.14982820000296,436.43362219999835,436.14982820000296,436.43362219999835,436.14982820000296,436.43362219999835,436.41686409999966,436.91755450000346,436.41686409999966,436.91755450000346,436.41686409999966,436.91755450000346,436.41686409999966,436.91755450000346,436.41686409999966,436.91755450000346,436.41686409999966,436.91755450000346,436.41686409999966,436.91755450000346,436.41686409999966,436.91755450000346,436.14982820000296,None,436.91755450000346,None,0.28,439.0867542999986,None,439.8379466999977,None,,,,,,,[2.15694915],4.560000000000004,0.7457627118644068,11004,001,2023_Dec_29_1334,MFTM_A_new1021,2021.2.3,59.74657891047895,
,,,,,,,,stim/Instruction_adaptive.png,conditions/adaptive.xlsx,test,0.6,0.6,0.6,-0.6,-0.6,right,R,,,,,0,1,1,1,0,59,59,28,,,,,,,,,,,,,,,,,,,,,,,,,,,,,,,,,,,,,,,,,,,,440.3394337999998,None,right,1,1.5158904999989318,440.8402971000032,441.6245368000018,440.8402971000032,441.1241037,440.8402971000032,441.1241037,440.8402971000032,441.1241037,440.8402971000032,441.1241037,440.8402971000032,441.1241037,441.10657530000026,441.60781970000244,441.10657530000026,441.60781970000244,441.10657530000026,441.60781970000244,441.10657530000026,441.60781970000244,441.10657530000026,441.60781970000244,441.10657530000026,441.60781970000244,441.10657530000026,441.60781970000244,441.10657530000026,441.60781970000244,440.8402971000032,None,441.60781970000244,None,0.28,443.7777939000007,None,444.5288329000032,None,,,,,,,[2.158],4.600000000000003,0.75,11004,001,2023_Dec_29_1334,MFTM_A_new1021,2021.2.3,59.74657891047895,
,,,,,,,,stim/Instruction_adaptive.png,conditions/adaptive.xlsx,test,0.6,0.6,0.6,-0.6,-0.6,right,R,,,,,0,1,1,1,0,60,60,86,,,,,,,,,,,,,,,,,,,,,,,,,,,,,,,,,,,,,,,,,,,,445.0288359999977,None,right,1,1.6579775000063819,445.5296798999989,446.31418510000367,445.5296798999989,445.8134579000034,445.5296798999989,445.8134579000034,445.5296798999989,445.8134579000034,445.5296798999989,445.8134579000034,445.5296798999989,445.8134579000034,445.78072229999816,446.2812890999994,445.78072229999816,446.2812890999994,445.78072229999816,446.2812890999994,445.78072229999816,446.2812890999994,445.78072229999816,446.2812890999994,445.78072229999816,446.2812890999994,445.78072229999816,446.2812890999994,445.78072229999816,446.2812890999994,445.5296798999989,None,446.2812890999994,448.45177259999764,0.27,448.4683565000014,None,449.218804600001,None,,,,,,,[2.15918033],4.6300000000000034,0.7540983606557377,11004,001,2023_Dec_29_1334,MFTM_A_new1021,2021.2.3,59.74657891047895,
,,,,,,,,stim/Instruction_adaptive.png,conditions/adaptive.xlsx,test,0.6,0.6,0.6,-0.6,-0.6,right,R,,,,,0,1,1,1,0,61,61,56,,,,,,,,,,,,,,,,,,,,,,,,,,,,,,,,,,,,,,,,,,,,449.71900540000206,None,right,1,1.5904128999973182,450.2212426000042,451.0054607999991,450.2212426000042,450.5042536000037,450.2212426000042,450.5042536000037,450.2212426000042,450.5042536000037,450.2212426000042,450.5042536000037,450.2212426000042,450.5042536000037,450.4701731000023,450.9708710999985,450.4701731000023,450.9708710999985,450.4701731000023,450.9708710999985,450.4701731000023,450.9708710999985,450.4701731000023,450.9708710999985,450.4701731000023,450.9708710999985,450.4701731000023,450.9708710999985,450.4701731000023,450.9708710999985,450.2212426000042,None,450.9708710999985,453.14167720000114,0.27,453.1582038999986,None,453.90894449999905,None,,,,,,,[2.16032258],4.660000000000004,0.7580645161290323,11004,001,2023_Dec_29_1334,MFTM_A_new1021,2021.2.3,59.74657891047895,
,,,,,,,,stim/Instruction_adaptive.png,conditions/adaptive.xlsx,test,-0.6,-0.6,-0.6,0.6,0.6,left,L,,,,,0,1,1,1,0,62,62,15,,,,,,,,,,,,,,,,,,,,,,,,,,,,,,,,,,,,,,,,,,,,454.40948699999717,None,left,1,1.7497550999978557,454.91016330000275,455.67866109999886,454.91016330000275,455.17759690000094,454.91016330000275,455.17759690000094,454.91016330000275,455.17759690000094,454.91016330000275,455.17759690000094,454.91016330000275,455.17759690000094,455.16074830000434,455.66209119999985,455.16074830000434,455.66209119999985,455.16074830000434,455.66209119999985,455.16074830000434,455.66209119999985,455.16074830000434,455.66209119999985,455.16074830000434,455.66209119999985,455.16074830000434,455.66209119999985,455.16074830000434,455.66209119999985,454.91016330000275,None,455.66209119999985,None,0.26,457.831872200004,None,458.5828765999977,None,,,,,,,[2.1615873],4.690000000000004,0.7619047619047619,11004,001,2023_Dec_29_1334,MFTM_A_new1021,2021.2.3,59.74657891047895,
,,,,,,,,stim/Instruction_adaptive.png,conditions/adaptive.xlsx,test,0.6,0.6,0.6,-0.6,-0.6,right,R,,,,,0,1,1,1,0,63,63,20,,,,,,,,,,,,,,,,,,,,,,,,,,,,,,,,,,,,,,,,,,,,459.08306289999746,None,right,1,2.203772199995001,459.5843376999983,460.3356899999999,459.5843376999983,459.8353388000032,459.5843376999983,459.8353388000032,459.5843376999983,459.8353388000032,459.5843376999983,459.8353388000032,459.5843376999983,459.8353388000032,459.8176103000005,460.3190337999986,459.8176103000005,460.3190337999986,459.8176103000005,460.3190337999986,459.8176103000005,460.3190337999986,459.8176103000005,460.3190337999986,459.8176103000005,460.3190337999986,459.8176103000005,460.3190337999986,459.8176103000005,460.3190337999986,459.5843376999983,None,460.3190337999986,462.4890391000008,0.25,462.50539279999794,None,463.2558551000038,None,,,,,,,[2.16296875],4.720000000000004,0.765625,11004,001,2023_Dec_29_1334,MFTM_A_new1021,2021.2.3,59.74657891047895,
,,,,,,,,stim/Instruction_adaptive.png,conditions/adaptive.xlsx,test,0.6,0.6,0.6,-0.6,-0.6,right,R,,,,,0,1,1,1,0,64,64,62,,,,,,,,,,,,,,,,,,,,,,,,,,,,,,,,,,,,,,,,,,,,463.7570577000006,None,right,1,2.4338079000008292,464.2579353999972,465.00936119999824,464.2579353999972,464.50787400000263,464.2579353999972,464.50787400000263,464.2579353999972,464.50787400000263,464.2579353999972,464.50787400000263,464.2579353999972,464.50787400000263,464.491068299998,464.99187040000106,464.491068299998,464.99187040000106,464.491068299998,464.99187040000106,464.491068299998,464.99187040000106,464.491068299998,464.99187040000106,464.491068299998,464.99187040000106,464.491068299998,464.99187040000106,464.491068299998,464.99187040000106,464.2579353999972,None,464.99187040000106,467.1626130000004,0.25,467.1783594000008,None,467.9303635000033,None,,,,,,,[2.16430769],4.7500000000000036,0.7692307692307693,11004,001,2023_Dec_29_1334,MFTM_A_new1021,2021.2.3,59.74657891047895,
,,,,,,,,stim/Instruction_adaptive.png,conditions/adaptive.xlsx,test,-0.6,-0.6,-0.6,0.6,0.6,left,L,,,,,0,1,1,1,0,65,65,37,,,,,,,,,,,,,,,,,,,,,,,,,,,,,,,,,,,,,,,,,,,,468.4311035999999,None,left,1,2.1765388999992865,468.93102029999864,469.6823435999977,468.93102029999864,469.1823269000015,468.93102029999864,469.1823269000015,468.93102029999864,469.1823269000015,468.93102029999864,469.1823269000015,468.93102029999864,469.1823269000015,469.16463900000235,469.66586729999835,469.16463900000235,469.66586729999835,469.16463900000235,469.66586729999835,469.16463900000235,469.66586729999835,469.16463900000235,469.66586729999835,469.16463900000235,469.66586729999835,469.16463900000235,469.66586729999835,469.16463900000235,469.66586729999835,468.93102029999864,None,469.66586729999835,471.83540390000417,0.25,471.85201860000234,None,472.60364870000194,None,,,,,,,[2.16560606],4.780000000000004,0.7727272727272727,11004,001,2023_Dec_29_1334,MFTM_A_new1021,2021.2.3,59.74657891047895,
,,,,,,,,stim/Instruction_adaptive.png,conditions/adaptive.xlsx,test,-0.6,-0.6,-0.6,0.6,0.6,left,L,,,,,0,1,1,1,0,66,66,93,,,,,,,,,,,,,,,,,,,,,,,,,,,,,,,,,,,,,,,,,,,,473.1045701000039,None,left,1,1.3989194999958272,473.60460839999723,474.3564004,473.60460839999723,473.85499240000354,473.60460839999723,473.85499240000354,473.60460839999723,473.85499240000354,473.60460839999723,473.85499240000354,473.60460839999723,473.85499240000354,473.83887089999916,474.3389193999974,473.83887089999916,474.3389193999974,473.83887089999916,474.3389193999974,473.83887089999916,474.3389193999974,473.83887089999916,474.3389193999974,473.83887089999916,474.3389193999974,473.83887089999916,474.3389193999974,473.83887089999916,474.3389193999974,473.60460839999723,None,474.3389193999974,476.5089014000041,0.25,476.52617660000396,None,477.27688070000295,None,,,,,,,[2.16686567],4.810000000000004,0.7761194029850746,11004,001,2023_Dec_29_1334,MFTM_A_new1021,2021.2.3,59.74657891047895,
,,,,,,,,stim/Instruction_adaptive.png,conditions/adaptive.xlsx,test,-0.6,-0.6,-0.6,0.6,0.6,left,L,,,,,0,1,1,1,0,67,67,89,,,,,,,,,,,,,,,,,,,,,,,,,,,,,,,,,,,,,,,,,,,,477.7773673999982,None,left,1,1.1735671999995247,478.2782653000031,479.0303350000031,478.2782653000031,478.52932280000095,478.2782653000031,478.52932280000095,478.2782653000031,478.52932280000095,478.2782653000031,478.52932280000095,478.2782653000031,478.52932280000095,478.51174829999945,479.0133019999994,478.51174829999945,479.0133019999994,478.51174829999945,479.0133019999994,478.51174829999945,479.0133019999994,478.51174829999945,479.0133019999994,478.51174829999945,479.0133019999994,478.51174829999945,479.0133019999994,478.51174829999945,479.0133019999994,478.2782653000031,None,479.0133019999994,481.1827170000033,0.25,481.19982940000045,None,481.9510315000007,None,,,,,,,[2.16808824],4.840000000000003,0.7794117647058824,11004,001,2023_Dec_29_1334,MFTM_A_new1021,2021.2.3,59.74657891047895,
,,,,,,,,stim/Instruction_adaptive.png,conditions/adaptive.xlsx,test,-0.6,-0.6,-0.6,0.6,0.6,left,L,,,,,0,1,1,1,0,68,68,11,,,,,,,,,,,,,,,,,,,,,,,,,,,,,,,,,,,,,,,,,,,,482.45176170000195,None,right,0,0.8426571000018157,482.9528303000043,483.70340240000223,482.9528303000043,483.2027378999992,482.9528303000043,483.2027378999992,482.9528303000043,483.2027378999992,482.9528303000043,483.2027378999992,482.9528303000043,483.2027378999992,483.1856817000007,483.6874663999988,483.1856817000007,483.6874663999988,483.1856817000007,483.6874663999988,483.1856817000007,483.6874663999988,483.1856817000007,483.6874663999988,483.1856817000007,483.6874663999988,483.1856817000007,483.6874663999988,483.1856817000007,483.6874663999988,482.9528303000043,None,483.6874663999988,485.85698080000293,0.25,485.87273170000117,None,486.62394949999725,None,,,,,,,[2.16927536],4.7500000000000036,0.7681159420289855,11004,001,2023_Dec_29_1334,MFTM_A_new1021,2021.2.3,59.74657891047895,
,,,,,,,,stim/Instruction_adaptive.png,conditions/adaptive.xlsx,test,-0.6,-0.6,-0.6,0.6,0.6,left,L,,,,,0,1,1,1,0,69,69,19,,,,,,,,,,,,,,,,,,,,,,,,,,,,,,,,,,,,,,,,,,,,487.1254482000004,None,right,0,0.9214198999979999,487.62604909999936,488.37639430000127,487.62604909999936,487.87573449999763,487.62604909999936,487.87573449999763,487.62604909999936,487.87573449999763,487.62604909999936,487.87573449999763,487.62604909999936,487.87573449999763,487.86042050000106,488.360104899999,487.86042050000106,488.360104899999,487.86042050000106,488.360104899999,487.86042050000106,488.360104899999,487.86042050000106,488.360104899999,487.86042050000106,488.360104899999,487.86042050000106,488.360104899999,487.86042050000106,488.360104899999,487.62604909999936,None,488.360104899999,490.53037010000116,0.25,490.5464492000028,None,491.2978925999996,None,,,,,,,[2.17042857],4.6700000000000035,0.7571428571428571,11004,001,2023_Dec_29_1334,MFTM_A_new1021,2021.2.3,59.74657891047895,
,,,,,,,,stim/Instruction_adaptive.png,conditions/adaptive.xlsx,test,0.6,0.6,0.6,-0.6,-0.6,right,R,,,,,0,1,1,1,0,70,70,88,,,,,,,,,,,,,,,,,,,,,,,,,,,,,,,,,,,,,,,,,,,,491.79812369999854,None,right,1,1.4638722000017879,492.29996830000164,493.0667883999995,492.29996830000164,492.56613050000306,492.29996830000164,492.56613050000306,492.29996830000164,492.56613050000306,492.29996830000164,492.56613050000306,492.29996830000164,492.56613050000306,492.5494122000018,493.0514333000028,492.5494122000018,493.0514333000028,492.5494122000018,493.0514333000028,492.5494122000018,493.0514333000028,492.5494122000018,493.0514333000028,492.5494122000018,493.0514333000028,492.5494122000018,493.0514333000028,492.5494122000018,493.0514333000028,492.29996830000164,None,493.03465080000024,495.22002259999863,0.26,495.23673319999943,None,495.9878488000031,None,,,,,,,[2.17140845],4.700000000000004,0.7605633802816901,11004,001,2023_Dec_29_1334,MFTM_A_new1021,2021.2.3,59.74657891047895,
,,,,,,,,stim/Instruction_adaptive.png,conditions/adaptive.xlsx,test,-0.6,-0.6,-0.6,0.6,0.6,left,L,,,,,0,1,1,1,0,71,71,43,,,,,,,,,,,,,,,,,,,,,,,,,,,,,,,,,,,,,,,,,,,,496.4894054000033,None,left,1,1.1253891999949701,496.9900858000037,497.74130480000167,496.9900858000037,497.2406162000043,496.9900858000037,497.2406162000043,496.9900858000037,497.2406162000043,496.9900858000037,497.2406162000043,496.9900858000037,497.2406162000043,497.22274379999726,497.72364409999864,497.22274379999726,497.72364409999864,497.22274379999726,497.72364409999864,497.22274379999726,497.72364409999864,497.22274379999726,497.72364409999864,497.22274379999726,497.72364409999864,497.22274379999726,497.72364409999864,497.22274379999726,497.72364409999864,496.9900858000037,None,497.72364409999864,499.9111225000015,0.25,499.92718169999716,None,500.6781428000031,None,,,,,,,[2.1725],4.720000000000004,0.7638888888888888,11004,001,2023_Dec_29_1334,MFTM_A_new1021,2021.2.3,59.74657891047895,
,,,,,,,,stim/Instruction_adaptive.png,conditions/adaptive.xlsx,test,0.6,0.6,0.6,-0.6,-0.6,right,R,,,,,0,1,1,1,0,72,72,78,,,,,,,,,,,,,,,,,,,,,,,,,,,,,,,,,,,,,,,,,,,,501.17931430000317,None,right,1,1.1720902000015485,501.67972310000187,502.4314317000026,501.67972310000187,501.9300246999992,501.67972310000187,501.9300246999992,501.67972310000187,501.9300246999992,501.67972310000187,501.9300246999992,501.67972310000187,501.9300246999992,501.9137788000007,502.41451049999887,501.9137788000007,502.41451049999887,501.9137788000007,502.41451049999887,501.9137788000007,502.41451049999887,501.9137788000007,502.41451049999887,501.9137788000007,502.41451049999887,501.9137788000007,502.41451049999887,501.9137788000007,502.41451049999887,501.67972310000187,None,502.41451049999887,504.60051009999734,0.25,504.617287699999,None,505.3691082000005,None,,,,,,,[2.17356164],4.7500000000000036,0.7671232876712328,11004,001,2023_Dec_29_1334,MFTM_A_new1021,2021.2.3,59.74657891047895,
,,,,,,,,stim/Instruction_adaptive.png,conditions/adaptive.xlsx,test,0.6,0.6,0.6,-0.6,-0.6,right,R,,,,,0,1,1,1,0,73,73,92,,,,,,,,,,,,,,,,,,,,,,,,,,,,,,,,,,,,,,,,,,,,505.86914329999854,None,left,0,1.1223685999939335,506.3697917000027,507.12155509999866,506.3697917000027,506.6203797999988,506.3697917000027,506.6203797999988,506.3697917000027,506.6203797999988,506.3697917000027,506.6203797999988,506.3697917000027,506.6203797999988,506.6039469000025,507.1047558999999,506.6039469000025,507.1047558999999,506.6039469000025,507.1047558999999,506.6039469000025,507.1047558999999,506.6039469000025,507.1047558999999,506.6039469000025,507.1047558999999,506.6039469000025,507.1047558999999,506.6039469000025,507.1047558999999,506.3697917000027,None,507.1047558999999,509.2915348000024,0.25,509.30745520000346,None,510.0584952999998,None,,,,,,,[2.17459459],4.6700000000000035,0.7567567567567568,11004,001,2023_Dec_29_1334,MFTM_A_new1021,2021.2.3,59.74657891047895,
,,,,,,,,stim/Instruction_adaptive.png,conditions/adaptive.xlsx,test,-0.6,-0.6,-0.6,0.6,0.6,left,L,,,,,0,1,1,1,0,74,74,13,,,,,,,,,,,,,,,,,,,,,,,,,,,,,,,,,,,,,,,,,,,,510.5595944000015,None,right,0,0.7274652000050992,511.0600482000009,511.8290335999991,511.0600482000009,511.3280182000017,511.0600482000009,511.3280182000017,511.0600482000009,511.3280182000017,511.0600482000009,511.3280182000017,511.0600482000009,511.3280182000017,511.3111127000011,511.81162680000125,511.3111127000011,511.81162680000125,511.3111127000011,511.81162680000125,511.3111127000011,511.81162680000125,511.3111127000011,511.81162680000125,511.3111127000011,511.81162680000125,511.3111127000011,511.81162680000125,511.3111127000011,511.81162680000125,511.0600482000009,None,511.81162680000125,None,0.26,513.9982635999986,None,514.7494966000013,None,,,,,,,[2.17546667],4.590000000000003,0.7466666666666667,11004,001,2023_Dec_29_1334,MFTM_A_new1021,2021.2.3,59.74657891047895,
,,,,,,,,stim/Instruction_adaptive.png,conditions/adaptive.xlsx,test,0.6,0.6,0.6,-0.6,-0.6,right,R,,,,,0,1,1,1,0,75,75,84,,,,,,,,,,,,,,,,,,,,,,,,,,,,,,,,,,,,,,,,,,,,515.2504535999979,None,left,0,1.6764448000030825,515.7512685000038,516.5354701000033,515.7512685000038,516.0348462000038,515.7512685000038,516.0348462000038,515.7512685000038,516.0348462000038,515.7512685000038,516.0348462000038,515.7512685000038,516.0348462000038,516.0010938999985,516.5015248999989,516.0010938999985,516.5015248999989,516.0010938999985,516.5015248999989,516.0010938999985,516.5015248999989,516.0010938999985,516.5015248999989,516.0010938999985,516.5015248999989,516.0010938999985,516.5015248999989,516.0010938999985,516.5015248999989,515.7512685000038,None,516.5015248999989,518.6879410000038,0.27,518.7046898999979,None,519.4560086999991,None,,,,,,,[2.17618421],4.510000000000003,0.7368421052631579,11004,001,2023_Dec_29_1334,MFTM_A_new1021,2021.2.3,59.74657891047895,
,,,,,,,,stim/Instruction_adaptive.png,conditions/adaptive.xlsx,test,0.6,0.6,0.6,-0.6,-0.6,right,R,,,,,0,1,1,1,0,76,76,50,,,,,,,,,,,,,,,,,,,,,,,,,,,,,,,,,,,,,,,,,,,,519.9574876000042,None,right,1,0.9381554999999935,520.4574703000035,521.2591166999991,520.4574703000035,520.7579267000037,520.4574703000035,520.7579267000037,520.4574703000035,520.7579267000037,520.4574703000035,520.7579267000037,520.4574703000035,520.7579267000037,520.7245053000006,521.2257954000015,520.7245053000006,521.2257954000015,520.7245053000006,521.2257954000015,520.7245053000006,521.2257954000015,520.7245053000006,521.2257954000015,520.7245053000006,521.2257954000015,520.7245053000006,521.2257954000015,520.7245053000006,521.2257954000015,520.4574703000035,None,521.2257954000015,523.4121621000013,0.29000000000000004,523.4292809000035,None,524.1794899000015,None,,,,,,,[2.17662338],4.540000000000004,0.7402597402597403,11004,001,2023_Dec_29_1334,MFTM_A_new1021,2021.2.3,59.74657891047895,
,,,,,,,,stim/Instruction_adaptive.png,conditions/adaptive.xlsx,test,-0.6,-0.6,-0.6,0.6,0.6,left,L,,,,,0,1,1,1,0,77,77,27,,,,,,,,,,,,,,,,,,,,,,,,,,,,,,,,,,,,,,,,,,,,524.6806204000022,None,left,1,1.6059333000011975,525.1817209000001,525.9659900999977,525.1817209000001,525.465546200001,525.1817209000001,525.465546200001,525.1817209000001,525.465546200001,525.1817209000001,525.465546200001,525.1817209000001,525.465546200001,525.4489090999996,525.9498325000022,525.4489090999996,525.9498325000022,525.4489090999996,525.9498325000022,525.4489090999996,525.9498325000022,525.4489090999996,525.9498325000022,525.4489090999996,525.9498325000022,525.4489090999996,525.9498325000022,525.4489090999996,525.9498325000022,525.1817209000001,None,525.9498325000022,528.1359932999985,0.28,528.1521541999973,None,528.9032852000018,None,,,,,,,[2.17717949],4.560000000000004,0.7435897435897436,11004,001,2023_Dec_29_1334,MFTM_A_new1021,2021.2.3,59.74657891047895,
,,,,,,,,stim/Instruction_adaptive.png,conditions/adaptive.xlsx,test,0.6,0.6,0.6,-0.6,-0.6,right,R,,,,,0,1,1,1,0,78,78,68,,,,,,,,,,,,,,,,,,,,,,,,,,,,,,,,,,,,,,,,,,,,529.4040304000009,None,right,1,1.4267887999958475,529.904692199998,530.6899355999994,529.904692199998,530.188556400004,529.904692199998,530.188556400004,529.904692199998,530.188556400004,529.904692199998,530.188556400004,529.904692199998,530.188556400004,530.1718658000027,530.6732413999998,530.1718658000027,530.6732413999998,530.1718658000027,530.6732413999998,530.1718658000027,530.6732413999998,530.1718658000027,530.6732413999998,530.1718658000027,530.6732413999998,530.1718658000027,530.6732413999998,530.1718658000027,530.6732413999998,529.904692199998,None,530.6732413999998,532.8597812000007,0.28,532.8760598000008,None,533.6268896999973,None,,,,,,,[2.17772152],4.590000000000003,0.7468354430379747,11004,001,2023_Dec_29_1334,MFTM_A_new1021,2021.2.3,59.74657891047895,
,,,,,,,,stim/Instruction_adaptive.png,conditions/adaptive.xlsx,test,-0.6,-0.6,-0.6,0.6,0.6,left,L,,,,,0,1,1,1,0,79,79,79,,,,,,,,,,,,,,,,,,,,,,,,,,,,,,,,,,,,,,,,,,,,534.1277076000042,None,right,0,0.9843963999956031,534.6275978999984,535.3960068000015,534.6275978999984,534.9121822000016,534.6275978999984,534.9121822000016,534.6275978999984,534.9121822000016,534.6275978999984,534.9121822000016,534.6275978999984,534.9121822000016,534.8785628999976,535.3801243999987,534.8785628999976,535.3801243999987,534.8785628999976,535.3801243999987,534.8785628999976,535.3801243999987,534.8785628999976,535.3801243999987,534.8785628999976,535.3801243999987,534.8785628999976,535.3801243999987,534.8785628999976,535.3801243999987,534.6275978999984,None,535.3801243999987,537.5664300999997,0.27,537.5826987000037,None,538.3348071,None,,,,,,,[2.178375],4.510000000000003,0.7375,11004,001,2023_Dec_29_1334,MFTM_A_new1021,2021.2.3,59.74657891047895,
,,,,,,,,stim/Instruction_adaptive.png,conditions/adaptive.xlsx,test,0.6,0.6,0.6,-0.6,-0.6,right,R,,,,,0,1,1,1,0,80,80,4,,,,,,,,,,,,,,,,,,,,,,,,,,,,,,,,,,,,,,,,,,,,538.8347849999991,None,left,0,1.5477209000018775,539.3357469000039,540.1365463999973,539.3357469000039,539.6371985000005,539.3357469000039,539.6371985000005,539.3357469000039,539.6371985000005,539.3357469000039,539.6371985000005,539.3357469000039,539.6371985000005,539.6022515000004,540.1032048999987,539.6022515000004,540.1032048999987,539.6022515000004,540.1032048999987,539.6022515000004,540.1032048999987,539.6022515000004,540.1032048999987,539.6022515000004,540.1032048999987,539.6022515000004,540.1032048999987,539.6022515000004,540.1032048999987,539.3357469000039,None,540.1032048999987,542.2904113999975,0.29000000000000004,542.3062921000019,None,543.0583235000013,None,,,,,,,[2.17876543],4.430000000000003,0.7283950617283951,11004,001,2023_Dec_29_1334,MFTM_A_new1021,2021.2.3,59.74657891047895,
,,,,,,,,stim/Instruction_adaptive.png,conditions/adaptive.xlsx,test,0.6,0.6,0.6,-0.6,-0.6,right,R,,,,,0,1,1,1,0,81,81,74,,,,,,,,,,,,,,,,,,,,,,,,,,,,,,,,,,,,,,,,,,,,543.5588303999975,None,left,0,1.7052980000007665,544.058933100001,544.8777095000041,544.058933100001,544.3758763000005,544.058933100001,544.3758763000005,544.058933100001,544.3758763000005,544.058933100001,544.3758763000005,544.058933100001,544.3758763000005,544.3602858000013,544.8606658999997,544.3602858000013,544.8606658999997,544.3602858000013,544.8606658999997,544.3602858000013,544.8606658999997,544.3602858000013,544.8606658999997,544.3602858000013,544.8606658999997,544.3602858000013,544.8606658999997,544.3602858000013,544.8606658999997,544.058933100001,None,544.8436301000038,547.0303350000031,0.31000000000000005,547.046842900003,None,547.7979517999993,None,,,,,,,[2.17890244],4.340000000000003,0.7195121951219512,11004,001,2023_Dec_29_1334,MFTM_A_new1021,2021.2.3,59.74657891047895,
,,,,,,,,stim/Instruction_adaptive.png,conditions/adaptive.xlsx,test,-0.6,-0.6,-0.6,0.6,0.6,left,L,,,,,0,1,1,1,0,82,82,33,,,,,,,,,,,,,,,,,,,,,,,,,,,,,,,,,,,,,,,,,,,,548.2995296000008,None,right,0,1.9871912000016891,548.8003263999999,549.6341347999987,548.8003263999999,549.133179299999,548.8003263999999,549.133179299999,548.8003263999999,549.133179299999,548.8003263999999,549.133179299999,548.8003263999999,549.133179299999,549.1000574999998,549.6006676000034,549.1000574999998,549.6006676000034,549.1000574999998,549.6006676000034,549.1000574999998,549.6006676000034,549.1000574999998,549.6006676000034,549.1000574999998,549.6006676000034,549.1000574999998,549.6006676000034,549.1000574999998,549.6006676000034,548.8003263999999,None,549.6006676000034,551.7874951999984,0.32000000000000006,551.8038770999992,None,552.5556342999989,None,,,,,,,[2.17891566],4.2500000000000036,0.7108433734939759,11004,001,2023_Dec_29_1334,MFTM_A_new1021,2021.2.3,59.74657891047895,
,,,,,,,,stim/Instruction_adaptive.png,conditions/adaptive.xlsx,test,-0.6,-0.6,-0.6,0.6,0.6,left,L,,,,,0,1,1,1,0,83,83,45,,,,,,,,,,,,,,,,,,,,,,,,,,,,,,,,,,,,,,,,,,,,553.0563258999973,None,left,1,0.9988153999947826,553.5575919000039,554.4076284000039,553.5575919000039,553.9070560000036,553.5575919000039,553.9070560000036,553.5575919000039,553.9070560000036,553.5575919000039,553.9070560000036,553.5575919000039,553.9070560000036,553.8900177000032,554.3911913999982,553.8900177000032,554.3911913999982,553.8900177000032,554.3911913999982,553.8900177000032,554.3911913999982,553.8900177000032,554.3911913999982,553.8900177000032,554.3911913999982,553.8900177000032,554.3911913999982,553.8900177000032,554.3911913999982,553.5575919000039,None,554.3911913999982,556.5443394000031,0.3500000000000001,556.5612028000032,None,557.3126016000024,None,,,,,,,[[2.15]],4.290000000000004,0.7142857142857143,11004,001,2023_Dec_29_1334,MFTM_A_new1021,2021.2.3,59.74657891047895,
,,,,,,,,stim/Instruction_adaptive.png,conditions/adaptive.xlsx,test,-0.6,-0.6,-0.6,0.6,0.6,left,L,,,,,0,1,1,1,0,84,84,85,,,,,,,,,,,,,,,,,,,,,,,,,,,,,,,,,,,,,,,,,,,,557.8134894000032,None,left,1,1.834889400000975,558.3134436000037,559.164652200001,558.3134436000037,558.6641505000007,558.3134436000037,558.6641505000007,558.3134436000037,558.6641505000007,558.3134436000037,558.6641505000007,558.3134436000037,558.6641505000007,558.6308758000014,559.131460800003,558.6308758000014,559.131460800003,558.6308758000014,559.131460800003,558.6308758000014,559.131460800003,558.6308758000014,559.131460800003,558.6308758000014,559.131460800003,558.6308758000014,559.131460800003,558.6308758000014,559.131460800003,558.3134436000037,None,559.131460800003,561.3017235000007,0.3400000000000001,561.3183389999976,None,562.069253200003,None,,,,,,,[[2.16]],4.320000000000004,0.7176470588235294,11004,001,2023_Dec_29_1334,MFTM_A_new1021,2021.2.3,59.74657891047895,
,,,,,,,,stim/Instruction_adaptive.png,conditions/adaptive.xlsx,test,0.6,0.6,0.6,-0.6,-0.6,right,R,,,,,0,1,1,1,0,85,85,70,,,,,,,,,,,,,,,,,,,,,,,,,,,,,,,,,,,,,,,,,,,,562.5696874999994,None,right,1,1.0221377000052598,563.0704181999972,563.9057135000039,563.0704181999972,563.4045598000012,563.0704181999972,563.4045598000012,563.0704181999972,563.4045598000012,563.0704181999972,563.4045598000012,563.0704181999972,563.4045598000012,563.3879675999997,563.8885769999979,563.3879675999997,563.8885769999979,563.3879675999997,563.8885769999979,563.3879675999997,563.8885769999979,563.3879675999997,563.8885769999979,563.3879675999997,563.8885769999979,563.3879675999997,563.8885769999979,563.3879675999997,563.8885769999979,563.0704181999972,None,563.8885769999979,566.0587704999998,0.33000000000000007,566.0742972000007,None,566.8268692999991,None,,,,,,,[[2.17]],4.340000000000003,0.7209302325581395,11004,001,2023_Dec_29_1334,MFTM_A_new1021,2021.2.3,59.74657891047895,
,,,,,,,,stim/Instruction_adaptive.png,conditions/adaptive.xlsx,test,-0.6,-0.6,-0.6,0.6,0.6,left,L,,,,,0,1,1,1,0,86,86,23,,,,,,,,,,,,,,,,,,,,,,,,,,,,,,,,,,,,,,,,,,,,567.3267510000005,None,left,1,1.0333174999977928,567.8273563000039,568.6622653000013,567.8273563000039,568.1620186,567.8273563000039,568.1620186,567.8273563000039,568.1620186,567.8273563000039,568.1620186,567.8273563000039,568.1620186,568.1279505999992,568.6287437999999,568.1279505999992,568.6287437999999,568.1279505999992,568.6287437999999,568.1279505999992,568.6287437999999,568.1279505999992,568.6287437999999,568.1279505999992,568.6287437999999,568.1279505999992,568.6287437999999,568.1279505999992,568.6287437999999,567.8273563000039,None,568.6287437999999,570.8151843000014,0.32000000000000006,570.832213200003,None,571.5839191999985,None,,,,,,,[2.17827586],4.370000000000004,0.7241379310344828,11004,001,2023_Dec_29_1334,MFTM_A_new1021,2021.2.3,59.74657891047895,
,,,,,,,,stim/Instruction_adaptive.png,conditions/adaptive.xlsx,test,0.6,0.6,0.6,-0.6,-0.6,right,R,,,,,0,1,1,1,0,87,87,94,,,,,,,,,,,,,,,,,,,,,,,,,,,,,,,,,,,,,,,,,,,,572.0848158000008,None,right,1,1.1153401999981725,572.5846340999997,573.4194504000043,572.5846340999997,572.9183789000017,572.5846340999997,572.9183789000017,572.5846340999997,572.9183789000017,572.5846340999997,572.9183789000017,572.5846340999997,572.9183789000017,572.8847773000016,573.3857602999997,572.8847773000016,573.3857602999997,572.8847773000016,573.3857602999997,572.8847773000016,573.3857602999997,572.8847773000016,573.3857602999997,572.8847773000016,573.3857602999997,572.8847773000016,573.3857602999997,572.8847773000016,573.3857602999997,572.5846340999997,None,573.3857602999997,575.572370300004,0.32000000000000006,575.5902506999992,None,576.3405426000027,None,,,,,,,[2.17829545],4.400000000000004,0.7272727272727273,11004,001,2023_Dec_29_1334,MFTM_A_new1021,2021.2.3,59.74657891047895,
,,,,,,,,stim/Instruction_adaptive.png,conditions/adaptive.xlsx,test,0.6,0.6,0.6,-0.6,-0.6,right,R,,,,,0,1,1,1,0,88,88,18,,,,,,,,,,,,,,,,,,,,,,,,,,,,,,,,,,,,,,,,,,,,576.8408557000002,None,left,0,1.4138337999975192,577.3426641999977,578.1595617999992,577.3426641999977,577.6594490999996,577.3426641999977,577.6594490999996,577.3426641999977,577.6594490999996,577.3426641999977,577.6594490999996,577.3426641999977,577.6594490999996,577.6252700000041,578.1267645000044,577.6252700000041,578.1267645000044,577.6252700000041,578.1267645000044,577.6252700000041,578.1267645000044,577.6252700000041,578.1267645000044,577.6252700000041,578.1267645000044,577.6252700000041,578.1267645000044,577.6252700000041,578.1267645000044,577.3426641999977,None,578.1267645000044,580.3135860000039,0.31000000000000005,580.3291805999979,None,581.0805609000017,None,,,,,,,[2.17842697],4.320000000000004,0.7191011235955056,11004,001,2023_Dec_29_1334,MFTM_A_new1021,2021.2.3,59.74657891047895,
,,,,,,,,stim/Instruction_adaptive.png,conditions/adaptive.xlsx,test,-0.6,-0.6,-0.6,0.6,0.6,left,L,,,,,0,1,1,1,0,89,89,75,,,,,,,,,,,,,,,,,,,,,,,,,,,,,,,,,,,,,,,,,,,,581.5820000000022,None,left,1,1.7459406000052695,582.0821638999987,582.9165536,582.0821638999987,582.4168180999986,582.0821638999987,582.4168180999986,582.0821638999987,582.4168180999986,582.0821638999987,582.4168180999986,582.0821638999987,582.4168180999986,582.3991549999992,582.9008274000007,582.3991549999992,582.9008274000007,582.3991549999992,582.9008274000007,582.3991549999992,582.9008274000007,582.3991549999992,582.9008274000007,582.3991549999992,582.9008274000007,582.3991549999992,582.9008274000007,582.3991549999992,582.9008274000007,582.0821638999987,None,582.9008274000007,585.0703932000033,0.33000000000000007,585.085891900002,None,585.8377748999992,None,,,,,,,[[2.17]],4.350000000000003,0.7222222222222222,11004,001,2023_Dec_29_1334,MFTM_A_new1021,2021.2.3,59.74657891047895,
,,,,,,,,stim/Instruction_adaptive.png,conditions/adaptive.xlsx,test,0.6,0.6,0.6,-0.6,-0.6,right,R,,,,,0,1,1,1,0,90,90,16,,,,,,,,,,,,,,,,,,,,,,,,,,,,,,,,,,,,,,,,,,,,586.339158499999,None,right,1,1.3572846999959438,586.8391617000016,587.6738600000026,586.8391617000016,587.1728552999994,586.8391617000016,587.1728552999994,586.8391617000016,587.1728552999994,586.8391617000016,587.1728552999994,586.8391617000016,587.1728552999994,587.1395128000004,587.6407927999971,587.1395128000004,587.6407927999971,587.1395128000004,587.6407927999971,587.1395128000004,587.6407927999971,587.1395128000004,587.6407927999971,587.1395128000004,587.6407927999971,587.1395128000004,587.6407927999971,587.1395128000004,587.6407927999971,586.8391617000016,None,587.6407927999971,589.8267979000011,0.32000000000000006,589.8434483000019,None,590.5956697000001,None,,,,,,,[2.17835165],4.370000000000004,0.7252747252747253,11004,001,2023_Dec_29_1334,MFTM_A_new1021,2021.2.3,59.74657891047895,
,,,,,,,,stim/Instruction_adaptive.png,conditions/adaptive.xlsx,test,0.6,0.6,0.6,-0.6,-0.6,right,R,,,,,0,1,1,1,0,91,91,14,,,,,,,,,,,,,,,,,,,,,,,,,,,,,,,,,,,,,,,,,,,,591.0964065000007,None,left,0,1.4152883999995538,591.5964796000044,592.4317755000011,591.5964796000044,591.930145600003,591.5964796000044,591.930145600003,591.5964796000044,591.930145600003,591.5964796000044,591.930145600003,591.5964796000044,591.930145600003,591.8965076000022,592.3971998999987,591.8965076000022,592.3971998999987,591.8965076000022,592.3971998999987,591.8965076000022,592.3971998999987,591.8965076000022,592.3971998999987,591.8965076000022,592.3971998999987,591.8965076000022,592.3971998999987,591.8965076000022,592.3971998999987,591.5964796000044,None,592.3971998999987,594.5843843999974,0.32000000000000006,594.6001587999999,None,595.3516410000011,None,,,,,,,[2.17836957],4.300000000000003,0.717391304347826,11004,001,2023_Dec_29_1334,MFTM_A_new1021,2021.2.3,59.74657891047895,
,,,,,,,,stim/Instruction_adaptive.png,conditions/adaptive.xlsx,test,-0.6,-0.6,-0.6,0.6,0.6,left,L,,,,,0,1,1,1,0,92,92,63,,,,,,,,,,,,,,,,,,,,,,,,,,,,,,,,,,,,,,,,,,,,595.8529249999992,None,right,0,1.4024254999967525,596.3537300000025,597.1875484999982,596.3537300000025,596.6871021000043,596.3537300000025,596.6871021000043,596.3537300000025,596.6871021000043,596.3537300000025,596.6871021000043,596.3537300000025,596.6871021000043,596.6702046999999,597.1713725000009,596.6702046999999,597.1713725000009,596.6702046999999,597.1713725000009,596.6702046999999,597.1713725000009,596.6702046999999,597.1713725000009,596.6702046999999,597.1713725000009,596.6702046999999,597.1713725000009,596.6702046999999,597.1713725000009,596.3537300000025,None,597.1713725000009,599.341966400003,0.33000000000000007,599.3576375999983,None,600.1095937999999,None,,,,,,,[[2.17]],4.2100000000000035,0.7096774193548387,11004,001,2023_Dec_29_1334,MFTM_A_new1021,2021.2.3,59.74657891047895,
,,,,,,,,stim/Instruction_adaptive.png,conditions/adaptive.xlsx,test,-0.6,-0.6,-0.6,0.6,0.6,left,L,,,,,0,1,1,1,0,93,93,67,,,,,,,,,,,,,,,,,,,,,,,,,,,,,,,,,,,,,,,,,,,,600.6099889000034,None,left,1,1.9254541999980574,601.1102271999989,601.9787990999976,601.1102271999989,601.478160300001,601.1102271999989,601.478160300001,601.1102271999989,601.478160300001,601.1102271999989,601.478160300001,601.1102271999989,601.478160300001,601.4606340000028,601.9620410999996,601.4606340000028,601.9620410999996,601.4606340000028,601.9620410999996,601.4606340000028,601.9620410999996,601.4606340000028,601.9620410999996,601.4606340000028,601.9620410999996,601.4606340000028,601.9620410999996,601.4606340000028,601.9620410999996,601.1102271999989,None,601.9620410999996,None,0.3600000000000001,604.1146203000026,None,604.8664632,None,,,,,,,[[2.14]],4.240000000000004,0.7127659574468085,11004,001,2023_Dec_29_1334,MFTM_A_new1021,2021.2.3,59.74657891047895,
,,,,,,,,stim/Instruction_adaptive.png,conditions/adaptive.xlsx,test,-0.6,-0.6,-0.6,0.6,0.6,left,L,,,,,0,1,1,1,0,94,94,29,,,,,,,,,,,,,,,,,,,,,,,,,,,,,,,,,,,,,,,,,,,,605.3673491000009,None,left,1,1.7528202999965288,605.8677449000024,606.7195697999996,605.8677449000024,606.2189944999991,605.8677449000024,606.2189944999991,605.8677449000024,606.2189944999991,605.8677449000024,606.2189944999991,605.8677449000024,606.2189944999991,606.2018296000024,606.7016853000023,606.2018296000024,606.7016853000023,606.2018296000024,606.7016853000023,606.2018296000024,606.7016853000023,606.2018296000024,606.7016853000023,606.2018296000024,606.7016853000023,606.2018296000024,606.7016853000023,606.2018296000024,606.7016853000023,605.8677449000024,None,606.7016853000023,608.8550450000039,0.3500000000000001,608.8720892999991,None,609.6236511000025,None,,,,,,,[[2.15]],4.270000000000003,0.7157894736842105,11004,001,2023_Dec_29_1334,MFTM_A_new1021,2021.2.3,59.74657891047895,
