arrwidth1,arrwidth2,arrwidth3,arrwidth4,arrwidth5,keyb,type,orientation,instruction_image,block_filename,block_type,arrow11,arrow22,arrow33,arrow44,arrow55,keyb_3,orientation3,trials.thisRepN,trials.thisTrialN,trials.thisN,trials.thisIndex,trials_3.thisRepN,trials_3.thisTrialN,trials_3.thisN,trials_3.thisIndex,trials_2.thisRepN,trials_2.thisTrialN,trials_2.thisN,trials_2.thisIndex,welcome.started,welcome.stopped,key_resp.keys,key_resp.rt,key_resp.started,key_resp.stopped,instruction_example.started,instruction_example.stopped,key_resp_3.keys,key_resp_3.rt,key_resp_3.started,key_resp_3.stopped,instruction_task.started,instruction_task.stopped,key_resp_2.keys,key_resp_2.rt,key_resp_2.started,key_resp_2.stopped,text_2.started,text_2.stopped,A1.started,A1.stopped,A2.started,A2.stopped,A3.started,A3.stopped,A4.started,A4.stopped,A5.started,A5.stopped,key_resp_4.keys,key_resp_4.corr,key_resp_4.rt,key_resp_4.started,key_resp_4.stopped,fb.started,fb.stopped,instruction_block.started,instruction_block.stopped,key_resp_8.keys,key_resp_8.rt,key_resp_8.started,key_resp_8.stopped,text_8.started,text_8.stopped,key_resp_9.keys,key_resp_9.corr,key_resp_9.rt,text_5.started,text_5.stopped,A11_3.started,A11_3.stopped,A22_2.started,A22_2.stopped,A33_2.started,A33_2.stopped,A44_2.started,A44_2.stopped,A55_2.started,A55_2.stopped,M1_3.started,M1_3.stopped,M2_2.started,M2_2.stopped,M3_2.started,M3_2.stopped,M4_2.started,M4_2.stopped,M5_2.started,M5_2.stopped,M6_2.started,M6_2.stopped,M7_2.started,M7_2.stopped,M8_2.started,M8_2.stopped,key_resp_9.started,key_resp_9.stopped,fixation.started,fixation.stopped,ET,fb_3.started,fb_3.stopped,text_9.started,text_9.stopped,fb_4.started,fb_4.stopped,text_7.started,text_7.stopped,endtext.started,endtext.stopped,fixation_ITI,CCC,Acc,participant,session,date,expName,psychopyVersion,frameRate,
,,,,,,,,,,,,,,,,,,,,,,,,,,,,,,14.317909000033978,None,space,2.7905636000214145,14.317909000033978,None,,,,,,,,,,,,,,,,,,,,,,,,,,,,,,,,,,,,,,,,,,,,,,,,,,,,,,,,,,,,,,,,,,,,,,,,,,,,,,,,,,,,,,,,,11006,002,2024_Jan_01_1739,MFTM_A_new1021,2021.2.3,59.93022922610245,
,,,,,,,,,,,,,,,,,,,,,,,,,,,,,,,,,,,,17.140788300021086,None,right,3.975838100013789,17.140788300021086,None,,,,,,,,,,,,,,,,,,,,,,,,,,,,,,,,,,,,,,,,,,,,,,,,,,,,,,,,,,,,,,,,,,,,,,,,,,,,,,,,,,,11006,002,2024_Jan_01_1739,MFTM_A_new1021,2021.2.3,59.93022922610245,
,,,,,,,,,,,,,,,,,,,,,,,,,,,,,,,,,,,,,,,,,,21.14496780000627,None,right,2.3557147000101395,21.14496780000627,None,,,,,,,,,,,,,,,,,,,,,,,,,,,,,,,,,,,,,,,,,,,,,,,,,,,,,,,,,,,,,,,,,,,,,,,,,,,,,11006,002,2024_Jan_01_1739,MFTM_A_new1021,2021.2.3,59.93022922610245,
0.6,0.6,0.6,-0.6,-0.6,right,3:2,R,,,,,,,,,,,0,0,0,0,,,,,,,,,,,,,,,,,,,,,,,,,,,23.53266490000533,None,23.53266490000533,None,23.53266490000533,None,23.53266490000533,None,23.53266490000533,None,23.53266490000533,None,right,1,2.0000035999692045,23.53266490000533,None,25.568268900038674,None,,,,,,,,,,,,,,,,,,,,,,,,,,,,,,,,,,,,,,,,,,,,,,,,,,,,,,,,,,11006,002,2024_Jan_01_1739,MFTM_A_new1021,2021.2.3,59.93022922610245,
-0.6,-0.6,-0.6,0.6,0.6,left,3:2,L,,,,,,,,,,,0,1,1,1,,,,,,,,,,,,,,,,,,,,,,,,,,,26.319182600011118,None,26.319182600011118,None,26.319182600011118,None,26.319182600011118,None,26.319182600011118,None,26.319182600011118,None,left,1,1.2217710000113584,26.319182600011118,None,27.571632800041698,None,,,,,,,,,,,,,,,,,,,,,,,,,,,,,,,,,,,,,,,,,,,,,,,,,,,,,,,,,,11006,002,2024_Jan_01_1739,MFTM_A_new1021,2021.2.3,59.93022922610245,
0.6,0.6,0.6,-0.6,-0.6,right,3:2,R,,,,,,,,,,,1,0,2,0,,,,,,,,,,,,,,,,,,,,,,,,,,,28.322288200026378,None,28.322288200026378,None,28.322288200026378,None,28.322288200026378,None,28.322288200026378,None,28.322288200026378,None,right,1,1.6105419999803416,28.322288200026378,None,29.958049200009555,None,,,,,,,,,,,,,,,,,,,,,,,,,,,,,,,,,,,,,,,,,,,,,,,,,,,,,,,,,,11006,002,2024_Jan_01_1739,MFTM_A_new1021,2021.2.3,59.93022922610245,
-0.6,-0.6,-0.6,0.6,0.6,left,3:2,L,,,,,,,,,,,1,1,3,1,,,,,,,,,,,,,,,,,,,,,,,,,,,30.709602600021753,None,30.709602600021753,None,30.709602600021753,None,30.709602600021753,None,30.709602600021753,None,30.709602600021753,None,left,1,1.4311198000214063,30.709602600021753,None,32.16113230003975,None,,,,,,,,,,,,,,,,,,,,,,,,,,,,,,,,,,,,,,,,,,,,,,,,,,,,,,,,,,11006,002,2024_Jan_01_1739,MFTM_A_new1021,2021.2.3,59.93022922610245,
,,,,,,,,stim/Instruction_mask.png,conditions/adaptive.xlsx,practice,0.6,0.6,0.6,-0.6,-0.6,right,R,,,,,0,0,0,0,0,0,0,2,,,,,,,,,,,,,,,,,,,,,,,,,,,,,,,,,,,,,,33.19610390003072,None,left,1.7697986999992281,33.19610390003072,None,35.06586550001521,None,right,1,1.5037185000255704,35.500904500018805,None,35.500904500018805,38.5040663999971,35.500904500018805,38.5040663999971,35.500904500018805,38.5040663999971,35.500904500018805,38.5040663999971,35.500904500018805,38.5040663999971,38.48728739999933,38.98804540000856,38.48728739999933,38.98804540000856,38.48728739999933,38.98804540000856,38.48728739999933,38.98804540000856,38.48728739999933,38.98804540000856,38.48728739999933,38.98804540000856,38.48728739999933,38.98804540000856,38.48728739999933,38.98804540000856,35.500904500018805,None,38.98804540000856,38.98804540000856,3,39.00480510003399,None,39.756271700025536,None,,,,,,,,,,11006,002,2024_Jan_01_1739,MFTM_A_new1021,2021.2.3,59.93022922610245,
,,,,,,,,stim/Instruction_mask.png,conditions/adaptive.xlsx,practice,0.6,0.6,0.6,-0.6,-0.6,right,R,,,,,0,0,0,0,0,1,1,30,,,,,,,,,,,,,,,,,,,,,,,,,,,,,,,,,,,,,,,,,,,,40.257070999999996,None,right,1,1.5913379000267014,40.75758480001241,42.76031380001223,40.75758480001241,42.26062220003223,40.75758480001241,42.26062220003223,40.75758480001241,42.26062220003223,40.75758480001241,42.26062220003223,40.75758480001241,42.26062220003223,42.24264780001249,42.74372399999993,42.24264780001249,42.74372399999993,42.24264780001249,42.74372399999993,42.24264780001249,42.74372399999993,42.24264780001249,42.74372399999993,42.24264780001249,42.74372399999993,42.24264780001249,42.74372399999993,42.24264780001249,42.74372399999993,40.75758480001241,None,42.74372399999993,44.246397499984596,1.5,44.26245209999615,None,45.01351339998655,None,,,,,,,,,,11006,002,2024_Jan_01_1739,MFTM_A_new1021,2021.2.3,59.93022922610245,
,,,,,,,,stim/Instruction_mask.png,conditions/adaptive.xlsx,practice,-0.6,-0.6,-0.6,0.6,0.6,left,L,,,,,0,0,0,0,0,2,2,9,,,,,,,,,,,,,,,,,,,,,,,,,,,,,,,,,,,,,,,,,,,,45.51548200001707,None,left,1,1.5179950000019744,46.01557580003282,47.31918739998946,46.01557580003282,46.816229499992914,46.01557580003282,46.816229499992914,46.01557580003282,46.816229499992914,46.01557580003282,46.816229499992914,46.01557580003282,46.816229499992914,46.80058590002591,47.30073290003929,46.80058590002591,47.30073290003929,46.80058590002591,47.30073290003929,46.80058590002591,47.30073290003929,46.80058590002591,47.30073290003929,46.80058590002591,47.30073290003929,46.80058590002591,47.30073290003929,46.80058590002591,47.30073290003929,46.01557580003282,None,47.30073290003929,49.50412170001073,0.8,49.52042260003509,None,50.27205949998461,None,,,,,,,,,,11006,002,2024_Jan_01_1739,MFTM_A_new1021,2021.2.3,59.93022922610245,
,,,,,,,,stim/Instruction_mask.png,conditions/adaptive.xlsx,practice,-0.6,-0.6,-0.6,0.6,0.6,left,L,,,,,0,0,0,0,0,3,3,79,,,,,,,,,,,,,,,,,,,,,,,,,,,,,,,,,,,,,,,,,,,,50.77261849999195,None,left,1,1.4515882999985479,51.273250700032804,52.024083300027996,51.273250700032804,51.52337120001903,51.273250700032804,51.52337120001903,51.273250700032804,51.52337120001903,51.273250700032804,51.52337120001903,51.273250700032804,51.52337120001903,51.50656559999334,52.00745570001891,51.50656559999334,52.00745570001891,51.50656559999334,52.00745570001891,51.50656559999334,52.00745570001891,51.50656559999334,52.00745570001891,51.50656559999334,52.00745570001891,51.50656559999334,52.00745570001891,51.50656559999334,52.00745570001891,51.273250700032804,None,52.00745570001891,54.76135540002724,3,54.778014399984386,None,55.52931559999706,None,,,,,,,,,,11006,002,2024_Jan_01_1739,MFTM_A_new1021,2021.2.3,59.93022922610245,
,,,,,,,,stim/Instruction_mask.png,conditions/adaptive.xlsx,practice,,,,,,,,,,,,0,0,0,0,,,,,,,,,,,,,,,,,,,,,,,,,,,,,,,,,,,,,,,,,,,,,,,,,,,,,,,,,,,,,,,,,,,,,,,,,,,,,,,,,,,,,,,,,,56.04663789999904,57.0488421000191,57.01475149998441,57.01475149998441,57.01475149998441,None,,,,11006,002,2024_Jan_01_1739,MFTM_A_new1021,2021.2.3,59.93022922610245,
,,,,,,,,stim/Instruction_adaptive.png,conditions/adaptive.xlsx,test,0.6,0.6,0.6,-0.6,-0.6,right,R,,,,,0,1,1,1,0,0,0,44,,,,,,,,,,,,,,,,,,,,,,,,,,,,,,,,,,,,,,60.16939060000004,None,left,1.2517603999585845,60.16939060000004,None,61.4545048000291,None,right,1,2.2731221999856643,61.95584210002562,None,61.95584210002562,64.96031350002158,61.95584210002562,64.96031350002158,61.95584210002562,64.96031350002158,61.95584210002562,64.96031350002158,61.95584210002562,64.96031350002158,64.94315609999467,65.44464970001718,64.94315609999467,65.44464970001718,64.94315609999467,65.44464970001718,64.94315609999467,65.44464970001718,64.94315609999467,65.44464970001718,64.94315609999467,65.44464970001718,64.94315609999467,65.44464970001718,64.94315609999467,65.44464970001718,61.95584210002562,None,65.44464970001718,65.44464970001718,3,65.46067840000615,None,66.2122834000038,None,,,,,,,0,6.000000000000005,1.0,11006,002,2024_Jan_01_1739,MFTM_A_new1021,2021.2.3,59.93022922610245,
,,,,,,,,stim/Instruction_adaptive.png,conditions/adaptive.xlsx,test,0.6,0.6,0.6,-0.6,-0.6,right,R,,,,,0,1,1,1,0,1,1,66,,,,,,,,,,,,,,,,,,,,,,,,,,,,,,,,,,,,,,,,,,,,66.7127305000322,None,right,1,0.9683513999916613,67.21326270001009,67.9643161999993,67.21326270001009,67.4638879999984,67.21326270001009,67.4638879999984,67.21326270001009,67.4638879999984,67.21326270001009,67.4638879999984,67.21326270001009,67.4638879999984,67.44700079999166,67.94836510001915,67.44700079999166,67.94836510001915,67.44700079999166,67.94836510001915,67.44700079999166,67.94836510001915,67.44700079999166,67.94836510001915,67.44700079999166,67.94836510001915,67.44700079999166,67.94836510001915,67.44700079999166,67.94836510001915,67.21326270001009,None,67.94836510001915,68.83293000003323,0.25,68.84919839998474,None,69.60051010001916,None,,,,,,,[0.875],6.000000000000005,1.0,11006,002,2024_Jan_01_1739,MFTM_A_new1021,2021.2.3,59.93022922610245,
,,,,,,,,stim/Instruction_adaptive.png,conditions/adaptive.xlsx,test,-0.6,-0.6,-0.6,0.6,0.6,left,L,,,,,0,1,1,1,0,2,2,45,,,,,,,,,,,,,,,,,,,,,,,,,,,,,,,,,,,,,,,,,,,,70.10137620003661,None,right,0,0.8838072000071406,70.60154150001472,71.35312899999553,70.60154150001472,70.85233960003825,70.60154150001472,70.85233960003825,70.60154150001472,70.85233960003825,70.60154150001472,70.85233960003825,70.60154150001472,70.85233960003825,70.83558910002466,71.33602230000542,70.83558910002466,71.33602230000542,70.83558910002466,71.33602230000542,70.83558910002466,71.33602230000542,70.83558910002466,71.33602230000542,70.83558910002466,71.33602230000542,70.83558910002466,71.33602230000542,70.83558910002466,71.33602230000542,70.60154150001472,None,71.33602230000542,72.67136820004089,0.25,72.68737699999474,None,73.43985369999427,None,,,,,,,[1.33333333],3.1800000000000024,0.6666666666666666,11006,002,2024_Jan_01_1739,MFTM_A_new1021,2021.2.3,59.93022922610245,
,,,,,,,,stim/Instruction_adaptive.png,conditions/adaptive.xlsx,test,0.6,0.6,0.6,-0.6,-0.6,right,R,,,,,0,1,1,1,0,3,3,6,,,,,,,,,,,,,,,,,,,,,,,,,,,,,,,,,,,,,,,,,,,,73.9402839000104,None,right,1,1.3645240999758244,74.44062499998836,75.6757854000316,74.44062499998836,75.17572130000917,74.44062499998836,75.17572130000917,74.44062499998836,75.17572130000917,74.44062499998836,75.17572130000917,74.44062499998836,75.17572130000917,75.15831920003984,75.66006050002761,75.15831920003984,75.66006050002761,75.15831920003984,75.66006050002761,75.15831920003984,75.66006050002761,75.15831920003984,75.66006050002761,75.15831920003984,75.66006050002761,75.15831920003984,75.66006050002761,75.15831920003984,75.66006050002761,74.44062499998836,None,75.66006050002761,77.11215639999136,0.7300000000000004,77.12780780001776,None,77.87927949998993,None,,,,,,,[1.4425],4.030000000000003,0.75,11006,002,2024_Jan_01_1739,MFTM_A_new1021,2021.2.3,59.93022922610245,
,,,,,,,,stim/Instruction_adaptive.png,conditions/adaptive.xlsx,test,0.6,0.6,0.6,-0.6,-0.6,right,R,,,,,0,1,1,1,0,4,4,24,,,,,,,,,,,,,,,,,,,,,,,,,,,,,,,,,,,,,,,,,,,,78.37999450002098,None,right,1,1.1326510000508279,78.88055559998611,79.78226539999014,78.88055559998611,79.28145360003691,78.88055559998611,79.28145360003691,78.88055559998611,79.28145360003691,78.88055559998611,79.28145360003691,78.88055559998611,79.28145360003691,79.2644716000068,79.76523720001569,79.2644716000068,79.76523720001569,79.2644716000068,79.76523720001569,79.2644716000068,79.76523720001569,79.2644716000068,79.76523720001569,79.2644716000068,79.76523720001569,79.2644716000068,79.76523720001569,79.2644716000068,79.76523720001569,78.88055559998611,None,79.76523720001569,81.35173990001203,0.40000000000000013,81.36760830000276,None,82.11863780004205,None,,,,,,,[1.574],4.550000000000003,0.8,11006,002,2024_Jan_01_1739,MFTM_A_new1021,2021.2.3,59.93022922610245,
,,,,,,,,stim/Instruction_adaptive.png,conditions/adaptive.xlsx,test,-0.6,-0.6,-0.6,0.6,0.6,left,L,,,,,0,1,1,1,0,5,5,1,,,,,,,,,,,,,,,,,,,,,,,,,,,,,,,,,,,,,,,,,,,,82.61933369998587,None,left,1,1.6377737000002526,83.12019180000061,83.90484680002555,83.12019180000061,83.40448660001857,83.12019180000061,83.40448660001857,83.12019180000061,83.40448660001857,83.12019180000061,83.40448660001857,83.12019180000061,83.40448660001857,83.38789290003479,83.8878851000336,83.38789290003479,83.8878851000336,83.38789290003479,83.8878851000336,83.38789290003479,83.8878851000336,83.38789290003479,83.8878851000336,83.38789290003479,83.8878851000336,83.38789290003479,83.8878851000336,83.38789290003479,83.8878851000336,83.12019180000061,None,83.8878851000336,85.5744013999938,0.28,85.59065219998593,None,86.34153730003163,None,,,,,,,[1.68166667],4.910000000000004,0.8333333333333334,11006,002,2024_Jan_01_1739,MFTM_A_new1021,2021.2.3,59.93022922610245,
,,,,,,,,stim/Instruction_adaptive.png,conditions/adaptive.xlsx,test,-0.6,-0.6,-0.6,0.6,0.6,left,L,,,,,0,1,1,1,0,6,6,39,,,,,,,,,,,,,,,,,,,,,,,,,,,,,,,,,,,,,,,,,,,,86.84221660002368,None,left,1,1.7421923999791034,87.34319240000332,88.09405680000782,87.34319240000332,87.59353600000031,87.34319240000332,87.59353600000031,87.34319240000332,87.59353600000031,87.34319240000332,87.59353600000031,87.34319240000332,87.59353600000031,87.57694410003023,88.07773210003506,87.57694410003023,88.07773210003506,87.57694410003023,88.07773210003506,87.57694410003023,88.07773210003506,87.57694410003023,88.07773210003506,87.57694410003023,88.07773210003506,87.57694410003023,88.07773210003506,87.57694410003023,88.07773210003506,87.34319240000332,None,88.07773210003506,89.84708530001808,0.25,89.863996900036,None,90.61459310003556,None,,,,,,,[1.76285714],5.180000000000004,0.8571428571428571,11006,002,2024_Jan_01_1739,MFTM_A_new1021,2021.2.3,59.93022922610245,
,,,,,,,,stim/Instruction_adaptive.png,conditions/adaptive.xlsx,test,-0.6,-0.6,-0.6,0.6,0.6,left,L,,,,,0,1,1,1,0,7,7,31,,,,,,,,,,,,,,,,,,,,,,,,,,,,,,,,,,,,,,,,,,,,91.11532819998683,None,left,1,1.9329776999657042,91.61618620000081,92.36785370000871,91.61618620000081,91.86713430000236,91.61618620000081,91.86713430000236,91.61618620000081,91.86713430000236,91.61618620000081,91.86713430000236,91.61618620000081,91.86713430000236,91.84976240003016,92.35039289999986,91.84976240003016,92.35039289999986,91.84976240003016,92.35039289999986,91.84976240003016,92.35039289999986,91.84976240003016,92.35039289999986,91.84976240003016,92.35039289999986,91.84976240003016,92.35039289999986,91.84976240003016,92.35039289999986,91.61618620000081,None,92.35039289999986,94.18810680002207,0.25,94.20331720000831,None,94.9543837000383,None,,,,,,,[1.82375],5.380000000000004,0.875,11006,002,2024_Jan_01_1739,MFTM_A_new1021,2021.2.3,59.93022922610245,
,,,,,,,,stim/Instruction_adaptive.png,conditions/adaptive.xlsx,test,0.6,0.6,0.6,-0.6,-0.6,right,R,,,,,0,1,1,1,0,8,8,88,,,,,,,,,,,,,,,,,,,,,,,,,,,,,,,,,,,,,,,,,,,,95.4549277999904,None,right,1,1.033127799979411,95.95584760000929,96.707361400011,95.95584760000929,96.20617560000392,95.95584760000929,96.20617560000392,95.95584760000929,96.20617560000392,95.95584760000929,96.20617560000392,95.95584760000929,96.20617560000392,96.19030419999035,96.6903610000154,96.19030419999035,96.6903610000154,96.19030419999035,96.6903610000154,96.19030419999035,96.6903610000154,96.19030419999035,96.6903610000154,96.19030419999035,96.6903610000154,96.19030419999035,96.6903610000154,96.19030419999035,96.6903610000154,95.95584760000929,None,96.6903610000154,None,0.25,98.5762795000337,None,99.32800720003434,None,,,,,,,[1.87111111],5.550000000000004,0.8888888888888888,11006,002,2024_Jan_01_1739,MFTM_A_new1021,2021.2.3,59.93022922610245,
,,,,,,,,stim/Instruction_adaptive.png,conditions/adaptive.xlsx,test,-0.6,-0.6,-0.6,0.6,0.6,left,L,,,,,0,1,1,1,0,9,9,83,,,,,,,,,,,,,,,,,,,,,,,,,,,,,,,,,,,,,,,,,,,,99.82833650003886,None,left,1,0.987204400007613,100.32957090000855,101.08063919999404,100.32957090000855,100.5802726999973,100.32957090000855,100.5802726999973,100.32957090000855,100.5802726999973,100.32957090000855,100.5802726999973,100.32957090000855,100.5802726999973,100.56262240000069,101.06427339999937,100.56262240000069,101.06427339999937,100.56262240000069,101.06427339999937,100.56262240000069,101.06427339999937,100.56262240000069,101.06427339999937,100.56262240000069,101.06427339999937,100.56262240000069,101.06427339999937,100.56262240000069,101.06427339999937,100.32957090000855,None,101.06427339999937,102.9839529999881,0.25,102.99954260000959,None,103.7514093000209,None,,,,,,,[1.909],5.690000000000005,0.9,11006,002,2024_Jan_01_1739,MFTM_A_new1021,2021.2.3,59.93022922610245,
,,,,,,,,stim/Instruction_adaptive.png,conditions/adaptive.xlsx,test,0.6,0.6,0.6,-0.6,-0.6,right,R,,,,,0,1,1,1,0,10,10,84,,,,,,,,,,,,,,,,,,,,,,,,,,,,,,,,,,,,,,,,,,,,104.25228350004181,None,left,0,1.6284523000358604,104.75223169999663,105.50366310001118,104.75223169999663,105.00278300000355,104.75223169999663,105.00278300000355,104.75223169999663,105.00278300000355,104.75223169999663,105.00278300000355,104.75223169999663,105.00278300000355,104.98563770001056,105.48667660000501,104.98563770001056,105.48667660000501,104.98563770001056,105.48667660000501,104.98563770001056,105.48667660000501,104.98563770001056,105.48667660000501,104.98563770001056,105.48667660000501,104.98563770001056,105.48667660000501,104.98563770001056,105.48667660000501,104.75223169999663,None,105.48667660000501,107.44016240001656,0.25,107.45618670003023,None,108.20775540004252,None,,,,,,,[1.94],5.010000000000004,0.8181818181818182,11006,002,2024_Jan_01_1739,MFTM_A_new1021,2021.2.3,59.93022922610245,
,,,,,,,,stim/Instruction_adaptive.png,conditions/adaptive.xlsx,test,-0.6,-0.6,-0.6,0.6,0.6,left,L,,,,,0,1,1,1,0,11,11,35,,,,,,,,,,,,,,,,,,,,,,,,,,,,,,,,,,,,,,,,,,,,108.70830920001026,None,right,0,2.604752200015355,109.20859460002976,109.96013600000879,109.20859460002976,109.45919409999624,109.20859460002976,109.45919409999624,109.20859460002976,109.45919409999624,109.20859460002976,109.45919409999624,109.20859460002976,109.45919409999624,109.44268340000417,109.94299930002308,109.44268340000417,109.94299930002308,109.44268340000417,109.94299930002308,109.44268340000417,109.94299930002308,109.44268340000417,109.94299930002308,109.44268340000417,109.94299930002308,109.44268340000417,109.94299930002308,109.44268340000417,109.94299930002308,109.20859460002976,None,109.94299930002308,111.91369090002263,0.25,111.92953660001513,None,112.68103060004069,None,,,,,,,[1.96583333],4.480000000000004,0.75,11006,002,2024_Jan_01_1739,MFTM_A_new1021,2021.2.3,59.93022922610245,
,,,,,,,,stim/Instruction_adaptive.png,conditions/adaptive.xlsx,test,0.6,0.6,0.6,-0.6,-0.6,right,R,,,,,0,1,1,1,0,12,12,2,,,,,,,,,,,,,,,,,,,,,,,,,,,,,,,,,,,,,,,,,,,,113.18151429999853,None,left,0,1.02608290000353,113.68270699999994,114.48334720003186,113.68270699999994,113.98348639998585,113.68270699999994,113.98348639998585,113.68270699999994,113.98348639998585,113.68270699999994,113.98348639998585,113.68270699999994,113.98348639998585,113.94923690002179,114.4499543000129,113.94923690002179,114.4499543000129,113.94923690002179,114.4499543000129,113.94923690002179,114.4499543000129,113.94923690002179,114.4499543000129,113.94923690002179,114.4499543000129,113.94923690002179,114.4499543000129,113.94923690002179,114.4499543000129,113.68270699999994,None,114.4499543000129,116.43680210004095,0.29000000000000004,116.4696804000414,None,117.2211202000035,None,,,,,,,[1.98461538],3.940000000000003,0.6923076923076923,11006,002,2024_Jan_01_1739,MFTM_A_new1021,2021.2.3,59.93022922610245,
,,,,,,,,stim/Instruction_adaptive.png,conditions/adaptive.xlsx,test,0.6,0.6,0.6,-0.6,-0.6,right,R,,,,,0,1,1,1,0,13,13,82,,,,,,,,,,,,,,,,,,,,,,,,,,,,,,,,,,,,,,,,,,,,117.72195929998998,None,left,0,2.390669499989599,118.22219450003468,119.15753319999203,118.22219450003468,118.65660970000317,118.22219450003468,118.65660970000317,118.22219450003468,118.65660970000317,118.22219450003468,118.65660970000317,118.22219450003468,118.65660970000317,118.63937370001804,119.14085790002719,118.63937370001804,119.14085790002719,118.63937370001804,119.14085790002719,118.63937370001804,119.14085790002719,118.63937370001804,119.14085790002719,118.63937370001804,119.14085790002719,118.63937370001804,119.14085790002719,118.63937370001804,119.14085790002719,118.22219450003468,None,119.14085790002719,None,0.43000000000000016,121.14309379999759,None,121.89493430004222,None,,,,,,,[1.99071429],3.2600000000000025,0.6428571428571429,11006,002,2024_Jan_01_1739,MFTM_A_new1021,2021.2.3,59.93022922610245,
,,,,,,,,stim/Instruction_adaptive.png,conditions/adaptive.xlsx,test,-0.6,-0.6,-0.6,0.6,0.6,left,L,,,,,0,1,1,1,0,14,14,49,,,,,,,,,,,,,,,,,,,,,,,,,,,,,,,,,,,,,,,,,,,,122.39495960000204,None,right,0,1.8292275000130758,122.89578960003564,124.0974961000029,122.89578960003564,123.59682929998962,122.89578960003564,123.59682929998962,122.89578960003564,123.59682929998962,122.89578960003564,123.59682929998962,122.89578960003564,123.59682929998962,123.56354589998955,124.06408869998995,123.56354589998955,124.06408869998995,123.56354589998955,124.06408869998995,123.56354589998955,124.06408869998995,123.56354589998955,124.06408869998995,123.56354589998955,124.06408869998995,123.56354589998955,124.06408869998995,123.56354589998955,124.06408869998995,122.89578960003564,None,124.06408869998995,125.88420030003181,0.6900000000000004,125.90031679999083,None,126.65127640002174,None,,,,,,,[[1.81]],2.3500000000000014,0.6,11006,002,2024_Jan_01_1739,MFTM_A_new1021,2021.2.3,59.93022922610245,
,,,,,,,,stim/Instruction_adaptive.png,conditions/adaptive.xlsx,test,-0.6,-0.6,-0.6,0.6,0.6,left,L,,,,,0,1,1,1,0,15,15,71,,,,,,,,,,,,,,,,,,,,,,,,,,,,,,,,,,,,,,,,,,,,127.15242870000657,None,right,0,2.4646234000101686,127.65277470002184,129.45604920003098,127.65277470002184,128.95544719998725,127.65277470002184,128.95544719998725,127.65277470002184,128.95544719998725,127.65277470002184,128.95544719998725,127.65277470002184,128.95544719998725,128.92147920001298,129.42200700001558,128.92147920001298,129.42200700001558,128.92147920001298,129.42200700001558,128.92147920001298,129.42200700001558,128.92147920001298,129.42200700001558,128.92147920001298,129.42200700001558,128.92147920001298,129.42200700001558,128.92147920001298,129.42200700001558,127.65277470002184,None,129.42200700001558,130.64041640004143,1.290000000000001,130.65751600003568,None,131.40820760000497,None,,,,,,,[[1.21]],0.8900000000000003,0.5625,11006,002,2024_Jan_01_1739,MFTM_A_new1021,2021.2.3,59.93022922610245,
,,,,,,,,stim/Instruction_adaptive.png,conditions/adaptive.xlsx,test,-0.6,-0.6,-0.6,0.6,0.6,left,L,,,,,0,1,1,1,0,16,16,57,,,,,,,,,,,,,,,,,,,,,,,,,,,,,,,,,,,,,,,,,,,,131.90913849999197,None,left,1,2.2752163000404835,132.41005450004013,None,132.41005450004013,135.41426089999732,132.41005450004013,135.41426089999732,132.41005450004013,135.41426089999732,132.41005450004013,135.41426089999732,132.41005450004013,135.41426089999732,135.3979446000303,135.8989824000164,135.3979446000303,135.8989824000164,135.3979446000303,135.8989824000164,135.3979446000303,135.8989824000164,135.3979446000303,135.8989824000164,135.3979446000303,135.8989824000164,135.3979446000303,135.8989824000164,135.3979446000303,135.8989824000164,132.41005450004013,None,135.8989824000164,135.8989824000164,3.0000000000000027,135.9150190000073,None,136.6662658000132,None,,,,,,,0,1.650000000000001,0.5882352941176471,11006,002,2024_Jan_01_1739,MFTM_A_new1021,2021.2.3,59.93022922610245,
,,,,,,,,stim/Instruction_adaptive.png,conditions/adaptive.xlsx,test,0.6,0.6,0.6,-0.6,-0.6,right,R,,,,,0,1,1,1,0,17,17,34,,,,,,,,,,,,,,,,,,,,,,,,,,,,,,,,,,,,,,,,,,,,137.16719060001196,None,right,1,1.4163769999868236,137.66841959999874,140.27166580001358,137.66841959999874,139.77086400002008,137.66841959999874,139.77086400002008,137.66841959999874,139.77086400002008,137.66841959999874,139.77086400002008,137.66841959999874,139.77086400002008,139.75401340000099,140.25481910002418,139.75401340000099,140.25481910002418,139.75401340000099,140.25481910002418,139.75401340000099,140.25481910002418,139.75401340000099,140.25481910002418,139.75401340000099,140.25481910002418,139.75401340000099,140.25481910002418,139.75401340000099,140.25481910002418,137.66841959999874,None,140.25481910002418,140.65642270003445,2.1000000000000014,140.67206760001136,None,141.4232738999999,None,,,,,,,[[0.4]],2.030000000000001,0.6111111111111112,11006,002,2024_Jan_01_1739,MFTM_A_new1021,2021.2.3,59.93022922610245,
,,,,,,,,stim/Instruction_adaptive.png,conditions/adaptive.xlsx,test,0.6,0.6,0.6,-0.6,-0.6,right,R,,,,,0,1,1,1,0,18,18,64,,,,,,,,,,,,,,,,,,,,,,,,,,,,,,,,,,,,,,,,,,,,141.92450720001943,None,right,1,1.9170465000206605,142.42458120000083,144.54449709999608,142.42458120000083,144.0443690000102,142.42458120000083,144.0443690000102,142.42458120000083,144.0443690000102,142.42458120000083,144.0443690000102,142.42458120000083,144.0443690000102,144.01042760000564,144.51159210002515,144.01042760000564,144.51159210002515,144.01042760000564,144.51159210002515,144.01042760000564,144.51159210002515,144.01042760000564,144.51159210002515,144.01042760000564,144.51159210002515,144.01042760000564,144.51159210002515,144.01042760000564,144.51159210002515,142.42458120000083,None,144.51159210002515,145.41248729999643,1.6100000000000012,145.42941000004066,None,146.18037100002402,None,,,,,,,[[0.89]],2.290000000000002,0.631578947368421,11006,002,2024_Jan_01_1739,MFTM_A_new1021,2021.2.3,59.93022922610245,
,,,,,,,,stim/Instruction_adaptive.png,conditions/adaptive.xlsx,test,0.6,0.6,0.6,-0.6,-0.6,right,R,,,,,0,1,1,1,0,19,19,8,,,,,,,,,,,,,,,,,,,,,,,,,,,,,,,,,,,,,,,,,,,,146.68112590000965,None,right,1,1.4068349999724887,147.1822290000273,149.03470020001987,147.1822290000273,148.5345110000344,147.1822290000273,148.5345110000344,147.1822290000273,148.5345110000344,147.1822290000273,148.5345110000344,147.1822290000273,148.5345110000344,148.51741269999184,149.01774540002225,148.51741269999184,149.01774540002225,148.51741269999184,149.01774540002225,148.51741269999184,149.01774540002225,148.51741269999184,149.01774540002225,148.51741269999184,149.01774540002225,148.51741269999184,149.01774540002225,148.51741269999184,149.01774540002225,147.1822290000273,None,149.01774540002225,150.17031820002012,1.350000000000001,150.18678320001345,None,150.93735220003873,None,,,,,,,[[1.15]],2.490000000000002,0.65,11006,002,2024_Jan_01_1739,MFTM_A_new1021,2021.2.3,59.93022922610245,
,,,,,,,,stim/Instruction_adaptive.png,conditions/adaptive.xlsx,test,-0.6,-0.6,-0.6,0.6,0.6,left,L,,,,,0,1,1,1,0,20,20,15,,,,,,,,,,,,,,,,,,,,,,,,,,,,,,,,,,,,,,,,,,,,151.4380855000345,None,left,1,1.1378887000028044,151.93889320001472,153.60865180002293,151.93889320001472,153.12440319999587,151.93889320001472,153.12440319999587,151.93889320001472,153.12440319999587,151.93889320001472,153.12440319999587,151.93889320001472,153.12440319999587,153.0905383999925,153.59152509999694,153.0905383999925,153.59152509999694,153.0905383999925,153.59152509999694,153.0905383999925,153.59152509999694,153.0905383999925,153.59152509999694,153.0905383999925,153.59152509999694,153.0905383999925,153.59152509999694,153.0905383999925,153.59152509999694,151.93889320001472,None,153.59152509999694,154.92674520000583,1.1700000000000008,154.94341669999994,None,155.6944783999934,None,,,,,,,[[1.33]],2.660000000000002,0.6666666666666666,11006,002,2024_Jan_01_1739,MFTM_A_new1021,2021.2.3,59.93022922610245,
,,,,,,,,stim/Instruction_adaptive.png,conditions/adaptive.xlsx,test,0.6,0.6,0.6,-0.6,-0.6,right,R,,,,,0,1,1,1,0,21,21,32,,,,,,,,,,,,,,,,,,,,,,,,,,,,,,,,,,,,,,,,,,,,156.19582510000328,None,right,1,1.6769137000082992,156.6962196000386,158.248150600004,156.6962196000386,157.7487373999902,156.6962196000386,157.7487373999902,156.6962196000386,157.7487373999902,156.6962196000386,157.7487373999902,156.6962196000386,157.7487373999902,157.7139870999963,158.21543460001703,157.7139870999963,158.21543460001703,157.7139870999963,158.21543460001703,157.7139870999963,158.21543460001703,157.7139870999963,158.21543460001703,157.7139870999963,158.21543460001703,157.7139870999963,158.21543460001703,157.7139870999963,158.21543460001703,156.6962196000386,None,158.21543460001703,159.68521790002706,1.0400000000000007,159.70023110002512,None,160.45280229998752,None,,,,,,,[[1.46]],2.800000000000002,0.6818181818181818,11006,002,2024_Jan_01_1739,MFTM_A_new1021,2021.2.3,59.93022922610245,
,,,,,,,,stim/Instruction_adaptive.png,conditions/adaptive.xlsx,test,-0.6,-0.6,-0.6,0.6,0.6,left,L,,,,,0,1,1,1,0,22,22,81,,,,,,,,,,,,,,,,,,,,,,,,,,,,,,,,,,,,,,,,,,,,160.95248209999409,None,right,0,1.4404360000044107,161.45290670002578,162.90517069998896,161.45290670002578,162.40509690000908,161.45290670002578,162.40509690000908,161.45290670002578,162.40509690000908,161.45290670002578,162.40509690000908,161.45290670002578,162.40509690000908,162.3721437000204,162.87225070002023,162.3721437000204,162.87225070002023,162.3721437000204,162.87225070002023,162.3721437000204,162.87225070002023,162.3721437000204,162.87225070002023,162.3721437000204,162.87225070002023,162.3721437000204,162.87225070002023,162.3721437000204,162.87225070002023,161.45290670002578,None,162.87225070002023,164.44132129999343,0.9400000000000006,164.45727950002765,None,165.20838339999318,None,,,,,,,[[1.56]],2.4300000000000015,0.6521739130434783,11006,002,2024_Jan_01_1739,MFTM_A_new1021,2021.2.3,59.93022922610245,
,,,,,,,,stim/Instruction_adaptive.png,conditions/adaptive.xlsx,test,-0.6,-0.6,-0.6,0.6,0.6,left,L,,,,,0,1,1,1,0,23,23,95,,,,,,,,,,,,,,,,,,,,,,,,,,,,,,,,,,,,,,,,,,,,165.70987399999285,None,left,1,1.298913899983745,166.21000630001072,167.92994689999614,166.21000630001072,167.44545140000992,166.21000630001072,167.44545140000992,166.21000630001072,167.44545140000992,166.21000630001072,167.44545140000992,166.21000630001072,167.44545140000992,167.41197399998782,167.9134966999991,167.41197399998782,167.9134966999991,167.41197399998782,167.9134966999991,167.41197399998782,167.9134966999991,167.41197399998782,167.9134966999991,167.41197399998782,167.9134966999991,167.41197399998782,167.9134966999991,167.41197399998782,167.9134966999991,166.21000630001072,None,167.9134966999991,169.19821160001447,1.2200000000000009,169.21444640000118,None,169.96595770004205,None,,,,,,,[[1.28]],2.570000000000002,0.6666666666666666,11006,002,2024_Jan_01_1739,MFTM_A_new1021,2021.2.3,59.93022922610245,
,,,,,,,,stim/Instruction_adaptive.png,conditions/adaptive.xlsx,test,0.6,0.6,0.6,-0.6,-0.6,right,R,,,,,0,1,1,1,0,24,24,62,,,,,,,,,,,,,,,,,,,,,,,,,,,,,,,,,,,,,,,,,,,,170.4661730999942,None,left,0,2.3338640999863856,170.96729360002792,172.58648890000768,170.96729360002792,172.0853761000326,170.96729360002792,172.0853761000326,170.96729360002792,172.0853761000326,170.96729360002792,172.0853761000326,170.96729360002792,172.0853761000326,172.068633900024,172.56956149998587,172.068633900024,172.56956149998587,172.068633900024,172.56956149998587,172.068633900024,172.56956149998587,172.068633900024,172.56956149998587,172.068633900024,172.56956149998587,172.068633900024,172.56956149998587,172.068633900024,172.56956149998587,170.96729360002792,None,172.56956149998587,None,1.1100000000000008,173.9712423000019,None,174.72241580003174,None,,,,,,,[[1.39]],2.1900000000000013,0.64,11006,002,2024_Jan_01_1739,MFTM_A_new1021,2021.2.3,59.93022922610245,
,,,,,,,,stim/Instruction_adaptive.png,conditions/adaptive.xlsx,test,-0.6,-0.6,-0.6,0.6,0.6,left,L,,,,,0,1,1,1,0,25,25,53,,,,,,,,,,,,,,,,,,,,,,,,,,,,,,,,,,,,,,,,,,,,175.22390710003674,None,left,1,1.3440718000056222,175.7250323999906,177.6791941000265,175.7250323999906,177.17629590001889,175.7250323999906,177.17629590001889,175.7250323999906,177.17629590001889,175.7250323999906,177.17629590001889,175.7250323999906,177.17629590001889,177.14287010004045,177.64348850003444,177.14287010004045,177.64348850003444,177.14287010004045,177.64348850003444,177.14287010004045,177.64348850003444,177.14287010004045,177.64348850003444,177.14287010004045,177.64348850003444,177.14287010004045,177.64348850003444,177.14287010004045,177.64348850003444,175.7250323999906,None,177.64348850003444,178.7124384000199,1.440000000000001,178.72833120002178,None,179.48068989999592,None,,,,,,,[[1.06]],2.3400000000000016,0.6538461538461539,11006,002,2024_Jan_01_1739,MFTM_A_new1021,2021.2.3,59.93022922610245,
,,,,,,,,stim/Instruction_adaptive.png,conditions/adaptive.xlsx,test,-0.6,-0.6,-0.6,0.6,0.6,left,L,,,,,0,1,1,1,0,26,26,21,,,,,,,,,,,,,,,,,,,,,,,,,,,,,,,,,,,,,,,,,,,,179.98021720000543,None,left,1,1.859034800028894,180.48174850002397,182.28377510001883,180.48174850002397,181.7835184999858,180.48174850002397,181.7835184999858,180.48174850002397,181.7835184999858,180.48174850002397,181.7835184999858,180.48174850002397,181.7835184999858,181.76633230003063,182.26772539998638,181.76633230003063,182.26772539998638,181.76633230003063,182.26772539998638,181.76633230003063,182.26772539998638,181.76633230003063,182.26772539998638,181.76633230003063,182.26772539998638,181.76633230003063,182.26772539998638,181.76633230003063,182.26772539998638,180.48174850002397,None,182.26772539998638,183.46953230001964,1.300000000000001,183.48603650002042,None,184.23751170001924,None,,,,,,,[[1.2]],2.4600000000000017,0.6666666666666666,11006,002,2024_Jan_01_1739,MFTM_A_new1021,2021.2.3,59.93022922610245,
,,,,,,,,stim/Instruction_adaptive.png,conditions/adaptive.xlsx,test,-0.6,-0.6,-0.6,0.6,0.6,left,L,,,,,0,1,1,1,0,27,27,77,,,,,,,,,,,,,,,,,,,,,,,,,,,,,,,,,,,,,,,,,,,,184.73747990000993,None,left,1,1.1508501999778673,185.23866620002082,186.9409456999856,185.23866620002082,186.43975060002413,185.23866620002082,186.43975060002413,185.23866620002082,186.43975060002413,185.23866620002082,186.43975060002413,185.23866620002082,186.43975060002413,186.42379259999143,186.92472210002597,186.42379259999143,186.92472210002597,186.42379259999143,186.92472210002597,186.42379259999143,186.92472210002597,186.42379259999143,186.92472210002597,186.42379259999143,186.92472210002597,186.42379259999143,186.92472210002597,186.42379259999143,186.92472210002597,185.23866620002082,None,186.92472210002597,188.22703840001486,1.2000000000000008,188.24303350003902,None,188.9940365999937,None,,,,,,,[[1.3]],2.570000000000002,0.6785714285714286,11006,002,2024_Jan_01_1739,MFTM_A_new1021,2021.2.3,59.93022922610245,
,,,,,,,,stim/Instruction_adaptive.png,conditions/adaptive.xlsx,test,0.6,0.6,0.6,-0.6,-0.6,right,R,,,,,0,1,1,1,0,28,28,50,,,,,,,,,,,,,,,,,,,,,,,,,,,,,,,,,,,,,,,,,,,,189.49490859999787,None,right,1,1.3536368000204675,189.99536500003887,191.61417920002714,189.99536500003887,191.11359439999796,189.99536500003887,191.11359439999796,189.99536500003887,191.11359439999796,189.99536500003887,191.11359439999796,189.99536500003887,191.11359439999796,191.0801472000312,191.58076550002443,191.0801472000312,191.58076550002443,191.0801472000312,191.58076550002443,191.0801472000312,191.58076550002443,191.0801472000312,191.58076550002443,191.0801472000312,191.58076550002443,191.0801472000312,191.58076550002443,191.0801472000312,191.58076550002443,189.99536500003887,None,191.58076550002443,192.98392850003438,1.1100000000000008,192.9995664000162,None,193.75057770003332,None,,,,,,,[[1.39]],2.6700000000000017,0.6896551724137931,11006,002,2024_Jan_01_1739,MFTM_A_new1021,2021.2.3,59.93022922610245,
,,,,,,,,stim/Instruction_adaptive.png,conditions/adaptive.xlsx,test,-0.6,-0.6,-0.6,0.6,0.6,left,L,,,,,0,1,1,1,0,29,29,9,,,,,,,,,,,,,,,,,,,,,,,,,,,,,,,,,,,,,,,,,,,,194.25213740003528,None,left,1,1.2526624000165612,194.7522406000062,196.2878519000369,194.7522406000062,195.78713870001957,194.7522406000062,195.78713870001957,194.7522406000062,195.78713870001957,194.7522406000062,195.78713870001957,194.7522406000062,195.78713870001957,195.7710303000058,196.271562799986,195.7710303000058,196.271562799986,195.7710303000058,196.271562799986,195.7710303000058,196.271562799986,195.7710303000058,196.271562799986,195.7710303000058,196.271562799986,195.7710303000058,196.271562799986,195.7710303000058,196.271562799986,194.7522406000062,None,196.271562799986,197.74022109998623,1.0300000000000007,197.7573745000409,None,198.50804450002033,None,,,,,,,[[1.47]],2.760000000000002,0.7,11006,002,2024_Jan_01_1739,MFTM_A_new1021,2021.2.3,59.93022922610245,
,,,,,,,,stim/Instruction_adaptive.png,conditions/adaptive.xlsx,test,0.6,0.6,0.6,-0.6,-0.6,right,R,,,,,0,1,1,1,0,30,30,40,,,,,,,,,,,,,,,,,,,,,,,,,,,,,,,,,,,,,,,,,,,,199.00852339999983,None,left,0,1.9757624000194483,199.5094157999847,200.97824329999276,199.5094157999847,200.49416510004085,199.5094157999847,200.49416510004085,199.5094157999847,200.49416510004085,199.5094157999847,200.49416510004085,199.5094157999847,200.49416510004085,200.4612296000123,200.96205610001925,200.4612296000123,200.96205610001925,200.4612296000123,200.96205610001925,200.4612296000123,200.96205610001925,200.4612296000123,200.96205610001925,200.4612296000123,200.96205610001925,200.4612296000123,200.96205610001925,200.4612296000123,200.96205610001925,199.5094157999847,None,200.96205610001925,202.4976738000405,0.9700000000000006,202.5141944999923,None,203.2654937999905,None,,,,,,,[[1.53]],2.5100000000000016,0.6774193548387096,11006,002,2024_Jan_01_1739,MFTM_A_new1021,2021.2.3,59.93022922610245,
,,,,,,,,stim/Instruction_adaptive.png,conditions/adaptive.xlsx,test,0.6,0.6,0.6,-0.6,-0.6,right,R,,,,,0,1,1,1,0,31,31,10,,,,,,,,,,,,,,,,,,,,,,,,,,,,,,,,,,,,,,,,,,,,203.76594519999344,None,right,1,2.210477799992077,204.2664947999874,205.91868970001815,204.2664947999874,205.41808770003263,204.2664947999874,205.41808770003263,204.2664947999874,205.41808770003263,204.2664947999874,205.41808770003263,204.2664947999874,205.41808770003263,205.40132070000982,205.9020967000397,205.40132070000982,205.9020967000397,205.40132070000982,205.9020967000397,205.40132070000982,205.9020967000397,205.40132070000982,205.9020967000397,205.40132070000982,205.9020967000397,205.40132070000982,205.9020967000397,205.40132070000982,205.9020967000397,204.2664947999874,None,205.9020967000397,207.25429760001134,1.1500000000000008,207.27119910001056,None,208.022506600013,None,,,,,,,[[1.35]],2.600000000000002,0.6875,11006,002,2024_Jan_01_1739,MFTM_A_new1021,2021.2.3,59.93022922610245,
,,,,,,,,stim/Instruction_adaptive.png,conditions/adaptive.xlsx,test,-0.6,-0.6,-0.6,0.6,0.6,left,L,,,,,0,1,1,1,0,32,32,79,,,,,,,,,,,,,,,,,,,,,,,,,,,,,,,,,,,,,,,,,,,,208.5232727000257,None,left,1,1.0293926000013016,209.02342650003266,210.6260652000201,209.02342650003266,210.1256608000258,209.02342650003266,210.1256608000258,209.02342650003266,210.1256608000258,209.02342650003266,210.1256608000258,209.02342650003266,210.1256608000258,210.09165100002429,210.59316170000238,210.09165100002429,210.59316170000238,210.09165100002429,210.59316170000238,210.09165100002429,210.59316170000238,210.09165100002429,210.59316170000238,210.09165100002429,210.59316170000238,210.09165100002429,210.59316170000238,210.09165100002429,210.59316170000238,209.02342650003266,None,210.59316170000238,212.0111312000081,1.0900000000000007,212.0278232000419,None,212.77967730001546,None,,,,,,,[[1.41]],2.680000000000002,0.696969696969697,11006,002,2024_Jan_01_1739,MFTM_A_new1021,2021.2.3,59.93022922610245,
,,,,,,,,stim/Instruction_adaptive.png,conditions/adaptive.xlsx,test,0.6,0.6,0.6,-0.6,-0.6,right,R,,,,,0,1,1,1,0,33,33,52,,,,,,,,,,,,,,,,,,,,,,,,,,,,,,,,,,,,,,,,,,,,213.27971870003967,None,right,1,1.8964995000278577,213.78035240003373,215.31601110001793,213.78035240003373,214.81542639998952,213.78035240003373,214.81542639998952,213.78035240003373,214.81542639998952,213.78035240003373,214.81542639998952,213.78035240003373,214.81542639998952,214.7986294000293,215.2993121999898,214.7986294000293,215.2993121999898,214.7986294000293,215.2993121999898,214.7986294000293,215.2993121999898,214.7986294000293,215.2993121999898,214.7986294000293,215.2993121999898,214.7986294000293,215.2993121999898,214.7986294000293,215.2993121999898,213.78035240003373,None,215.2993121999898,216.76857100002235,1.0300000000000007,216.78480389999459,None,217.53613439999754,None,,,,,,,[[1.47]],2.760000000000002,0.7058823529411765,11006,002,2024_Jan_01_1739,MFTM_A_new1021,2021.2.3,59.93022922610245,
,,,,,,,,stim/Instruction_adaptive.png,conditions/adaptive.xlsx,test,-0.6,-0.6,-0.6,0.6,0.6,left,L,,,,,0,1,1,1,0,34,34,93,,,,,,,,,,,,,,,,,,,,,,,,,,,,,,,,,,,,,,,,,,,,218.03669630002696,None,left,1,1.5947519000037573,218.53840160003165,220.0238573999959,218.53840160003165,219.52220820001094,218.53840160003165,219.52220820001094,218.53840160003165,219.52220820001094,218.53840160003165,219.52220820001094,218.53840160003165,219.52220820001094,219.4892256000312,219.9895221000188,219.4892256000312,219.9895221000188,219.4892256000312,219.9895221000188,219.4892256000312,219.9895221000188,219.4892256000312,219.9895221000188,219.4892256000312,219.9895221000188,219.4892256000312,219.9895221000188,219.4892256000312,219.9895221000188,218.53840160003165,None,219.9895221000188,221.52725290000672,0.9700000000000006,221.5418573000352,None,222.2937416000059,None,,,,,,,[[1.53]],2.830000000000002,0.7142857142857143,11006,002,2024_Jan_01_1739,MFTM_A_new1021,2021.2.3,59.93022922610245,
,,,,,,,,stim/Instruction_adaptive.png,conditions/adaptive.xlsx,test,-0.6,-0.6,-0.6,0.6,0.6,left,L,,,,,0,1,1,1,0,35,35,37,,,,,,,,,,,,,,,,,,,,,,,,,,,,,,,,,,,,,,,,,,,,222.7944846000173,None,left,1,1.6626613000407815,223.29463180003222,224.72990899998695,223.29463180003222,224.22953740000958,223.29463180003222,224.22953740000958,223.29463180003222,224.22953740000958,223.29463180003222,224.22953740000958,223.29463180003222,224.22953740000958,224.21243610000238,224.7134086000151,224.21243610000238,224.7134086000151,224.21243610000238,224.7134086000151,224.21243610000238,224.7134086000151,224.21243610000238,224.7134086000151,224.21243610000238,224.7134086000151,224.21243610000238,224.7134086000151,224.21243610000238,224.7134086000151,223.29463180003222,None,224.7134086000151,226.24883019999834,0.9300000000000006,226.26576260000002,None,227.01743569999235,None,,,,,,,[1.53138889],2.8900000000000023,0.7222222222222222,11006,002,2024_Jan_01_1739,MFTM_A_new1021,2021.2.3,59.93022922610245,
,,,,,,,,stim/Instruction_adaptive.png,conditions/adaptive.xlsx,test,-0.6,-0.6,-0.6,0.6,0.6,left,L,,,,,0,1,1,1,0,36,36,17,,,,,,,,,,,,,,,,,,,,,,,,,,,,,,,,,,,,,,,,,,,,227.5177701000357,None,left,1,1.5865455000312068,228.0183085000026,229.42023410002002,228.0183085000026,228.92018180002924,228.0183085000026,228.92018180002924,228.0183085000026,228.92018180002924,228.0183085000026,228.92018180002924,228.0183085000026,228.92018180002924,228.88638460001675,229.3870157999918,228.88638460001675,229.3870157999918,228.88638460001675,229.3870157999918,228.88638460001675,229.3870157999918,228.88638460001675,229.3870157999918,228.88638460001675,229.3870157999918,228.88638460001675,229.3870157999918,228.88638460001675,229.3870157999918,228.0183085000026,None,229.3870157999918,230.92318899999373,0.8900000000000006,230.95672760001617,None,231.70729660004145,None,,,,,,,[1.53351351],2.950000000000002,0.7297297297297297,11006,002,2024_Jan_01_1739,MFTM_A_new1021,2021.2.3,59.93022922610245,
,,,,,,,,stim/Instruction_adaptive.png,conditions/adaptive.xlsx,test,0.6,0.6,0.6,-0.6,-0.6,right,R,,,,,0,1,1,1,0,37,37,22,,,,,,,,,,,,,,,,,,,,,,,,,,,,,,,,,,,,,,,,,,,,232.20771109999623,None,left,0,2.401388500002213,232.70842829998583,234.06054879998555,232.70842829998583,233.5596804000088,232.70842829998583,233.5596804000088,232.70842829998583,233.5596804000088,232.70842829998583,233.5596804000088,232.70842829998583,233.5596804000088,233.54303589998744,234.04419420001796,233.54303589998744,234.04419420001796,233.54303589998744,234.04419420001796,233.54303589998744,234.04419420001796,233.54303589998744,234.04419420001796,233.54303589998744,234.04419420001796,233.54303589998744,234.04419420001796,233.54303589998744,234.04419420001796,232.70842829998583,None,234.04419420001796,235.5807953000185,0.8500000000000005,235.59593609999865,None,236.34726130001945,None,,,,,,,[1.53657895],2.780000000000002,0.7105263157894737,11006,002,2024_Jan_01_1739,MFTM_A_new1021,2021.2.3,59.93022922610245,
,,,,,,,,stim/Instruction_adaptive.png,conditions/adaptive.xlsx,test,0.6,0.6,0.6,-0.6,-0.6,right,R,,,,,0,1,1,1,0,38,38,58,,,,,,,,,,,,,,,,,,,,,,,,,,,,,,,,,,,,,,,,,,,,236.84805359999882,None,left,0,1.8008382000261918,237.34870299999602,238.819677099993,237.34870299999602,238.31717789999675,237.34870299999602,238.31717789999675,237.34870299999602,238.31717789999675,237.34870299999602,238.31717789999675,237.34870299999602,238.31717789999675,238.30023340001935,238.80088350002188,238.30023340001935,238.80088350002188,238.30023340001935,238.80088350002188,238.30023340001935,238.80088350002188,238.30023340001935,238.80088350002188,238.30023340001935,238.80088350002188,238.30023340001935,238.80088350002188,238.30023340001935,238.80088350002188,237.34870299999602,None,238.7845757000032,240.33673169999383,0.9600000000000006,240.35295820003375,None,241.10448700003326,None,,,,,,,[1.53666667],2.600000000000002,0.6923076923076923,11006,002,2024_Jan_01_1739,MFTM_A_new1021,2021.2.3,59.93022922610245,
,,,,,,,,stim/Instruction_adaptive.png,conditions/adaptive.xlsx,test,-0.6,-0.6,-0.6,0.6,0.6,left,L,,,,,0,1,1,1,0,39,39,69,,,,,,,,,,,,,,,,,,,,,,,,,,,,,,,,,,,,,,,,,,,,241.605028400023,None,left,1,1.2275133000221103,242.10600800003158,243.70826029998716,242.10600800003158,243.20747329998994,242.10600800003158,243.20747329998994,242.10600800003158,243.20747329998994,242.10600800003158,243.20747329998994,242.10600800003158,243.20747329998994,243.1746757000219,243.67562480003107,243.1746757000219,243.67562480003107,243.1746757000219,243.67562480003107,243.1746757000219,243.67562480003107,243.1746757000219,243.67562480003107,243.1746757000219,243.67562480003107,243.1746757000219,243.67562480003107,243.1746757000219,243.67562480003107,242.10600800003158,None,243.67562480003107,245.09376200003317,1.0900000000000007,245.1100441000308,None,245.86129820003407,None,,,,,,,[[1.41]],2.660000000000002,0.7,11006,002,2024_Jan_01_1739,MFTM_A_new1021,2021.2.3,59.93022922610245,
,,,,,,,,stim/Instruction_adaptive.png,conditions/adaptive.xlsx,test,-0.6,-0.6,-0.6,0.6,0.6,left,L,,,,,0,1,1,1,0,40,40,29,,,,,,,,,,,,,,,,,,,,,,,,,,,,,,,,,,,,,,,,,,,,246.36244340002304,None,left,1,1.7506955999997444,246.86268690001452,248.41567940003006,246.86268690001452,247.91452099999879,246.86268690001452,247.91452099999879,246.86268690001452,247.91452099999879,246.86268690001452,247.91452099999879,246.86268690001452,247.91452099999879,247.88163429999258,248.38178230001358,247.88163429999258,248.38178230001358,247.88163429999258,248.38178230001358,247.88163429999258,248.38178230001358,247.88163429999258,248.38178230001358,247.88163429999258,248.38178230001358,247.88163429999258,248.38178230001358,247.88163429999258,248.38178230001358,246.86268690001452,None,248.38178230001358,249.8514135000296,1.0400000000000007,249.8671205000137,None,250.61879640002735,None,,,,,,,[[1.46]],2.720000000000002,0.7073170731707317,11006,002,2024_Jan_01_1739,MFTM_A_new1021,2021.2.3,59.93022922610245,
,,,,,,,,stim/Instruction_adaptive.png,conditions/adaptive.xlsx,test,0.6,0.6,0.6,-0.6,-0.6,right,R,,,,,0,1,1,1,0,41,41,90,,,,,,,,,,,,,,,,,,,,,,,,,,,,,,,,,,,,,,,,,,,,251.11918690003222,None,left,0,1.7212513000122271,251.6198653000174,253.1226717000245,251.6198653000174,252.6224244000041,251.6198653000174,252.6224244000041,251.6198653000174,252.6224244000041,251.6198653000174,252.6224244000041,251.6198653000174,252.6224244000041,252.60461199999554,253.10538070002804,252.60461199999554,253.10538070002804,252.60461199999554,253.10538070002804,252.60461199999554,253.10538070002804,252.60461199999554,253.10538070002804,252.60461199999554,253.10538070002804,252.60461199999554,253.10538070002804,252.60461199999554,253.10538070002804,251.6198653000174,None,253.10538070002804,254.60766620002687,1.0000000000000007,254.62424670002656,None,255.37550940003712,None,,,,,,,[[1.5]],2.5500000000000016,0.6904761904761905,11006,002,2024_Jan_01_1739,MFTM_A_new1021,2021.2.3,59.93022922610245,
,,,,,,,,stim/Instruction_adaptive.png,conditions/adaptive.xlsx,test,0.6,0.6,0.6,-0.6,-0.6,right,R,,,,,0,1,1,1,0,42,42,72,,,,,,,,,,,,,,,,,,,,,,,,,,,,,,,,,,,,,,,,,,,,255.87716470001033,None,right,1,1.9009213000535965,256.3770244999905,257.9957814000081,256.3770244999905,257.5119953000103,256.3770244999905,257.5119953000103,256.3770244999905,257.5119953000103,256.3770244999905,257.5119953000103,256.3770244999905,257.5119953000103,257.47876830003224,257.9795976000023,257.47876830003224,257.9795976000023,257.47876830003224,257.9795976000023,257.47876830003224,257.9795976000023,257.47876830003224,257.9795976000023,257.47876830003224,257.9795976000023,257.47876830003224,257.9795976000023,257.47876830003224,257.9795976000023,256.3770244999905,None,257.9795976000023,259.36526500002947,1.1200000000000008,259.3813937000232,None,260.13353739999,None,,,,,,,[[1.38]],2.610000000000002,0.6976744186046512,11006,002,2024_Jan_01_1739,MFTM_A_new1021,2021.2.3,59.93022922610245,
,,,,,,,,stim/Instruction_adaptive.png,conditions/adaptive.xlsx,test,-0.6,-0.6,-0.6,0.6,0.6,left,L,,,,,0,1,1,1,0,43,43,87,,,,,,,,,,,,,,,,,,,,,,,,,,,,,,,,,,,,,,,,,,,,260.6337796000298,None,left,1,1.3348658999893814,261.13432770001236,262.7195529000019,261.13432770001236,262.22004270000616,261.13432770001236,262.22004270000616,261.13432770001236,262.22004270000616,261.13432770001236,262.22004270000616,261.13432770001236,262.22004270000616,262.2022109000245,262.70380690001184,262.2022109000245,262.70380690001184,262.2022109000245,262.70380690001184,262.2022109000245,262.70380690001184,262.2022109000245,262.70380690001184,262.2022109000245,262.70380690001184,262.2022109000245,262.70380690001184,262.2022109000245,262.70380690001184,261.13432770001236,None,262.70380690001184,None,1.0800000000000007,264.13884040003177,None,264.89040760003263,None,,,,,,,[[1.42]],2.6700000000000017,0.7045454545454546,11006,002,2024_Jan_01_1739,MFTM_A_new1021,2021.2.3,59.93022922610245,
,,,,,,,,stim/Instruction_adaptive.png,conditions/adaptive.xlsx,test,-0.6,-0.6,-0.6,0.6,0.6,left,L,,,,,0,1,1,1,0,44,44,23,,,,,,,,,,,,,,,,,,,,,,,,,,,,,,,,,,,,,,,,,,,,265.3902393000317,None,left,1,1.6501516999560408,265.8909958000295,267.42658680002205,265.8909958000295,266.9258521000156,265.8909958000295,266.9258521000156,265.8909958000295,266.9258521000156,265.8909958000295,266.9258521000156,265.8909958000295,266.9258521000156,266.90925140003674,267.4099524000194,266.90925140003674,267.4099524000194,266.90925140003674,267.4099524000194,266.90925140003674,267.4099524000194,266.90925140003674,267.4099524000194,266.90925140003674,267.4099524000194,266.90925140003674,267.4099524000194,266.90925140003674,267.4099524000194,265.8909958000295,None,267.4099524000194,268.8790039999876,1.0300000000000007,268.8953674000222,None,269.6466008000425,None,,,,,,,[[1.47]],2.720000000000002,0.7111111111111111,11006,002,2024_Jan_01_1739,MFTM_A_new1021,2021.2.3,59.93022922610245,
,,,,,,,,stim/Instruction_adaptive.png,conditions/adaptive.xlsx,test,-0.6,-0.6,-0.6,0.6,0.6,left,L,,,,,0,1,1,1,0,45,45,47,,,,,,,,,,,,,,,,,,,,,,,,,,,,,,,,,,,,,,,,,,,,270.14754219999304,None,left,1,1.7974393999902532,270.64810440002475,272.15040839998983,270.64810440002475,271.6495180000202,270.64810440002475,271.6495180000202,270.64810440002475,271.6495180000202,270.64810440002475,271.6495180000202,270.64810440002475,271.6495180000202,271.6336099000182,272.134026499989,271.6336099000182,272.134026499989,271.6336099000182,272.134026499989,271.6336099000182,272.134026499989,271.6336099000182,272.134026499989,271.6336099000182,272.134026499989,271.6336099000182,272.134026499989,271.6336099000182,272.134026499989,270.64810440002475,None,272.134026499989,273.63682340004016,1.0000000000000007,273.65245380002307,None,274.40398140001344,None,,,,,,,[[1.5]],2.7700000000000022,0.717391304347826,11006,002,2024_Jan_01_1739,MFTM_A_new1021,2021.2.3,59.93022922610245,
,,,,,,,,stim/Instruction_adaptive.png,conditions/adaptive.xlsx,test,0.6,0.6,0.6,-0.6,-0.6,right,R,,,,,0,1,1,1,0,46,46,76,,,,,,,,,,,,,,,,,,,,,,,,,,,,,,,,,,,,,,,,,,,,274.90472779999254,None,left,0,1.6635640999884345,275.4055266000214,276.8740324000246,275.4055266000214,276.3739062999957,275.4055266000214,276.3739062999957,275.4055266000214,276.3739062999957,275.4055266000214,276.3739062999957,275.4055266000214,276.3739062999957,276.35667920002015,276.8574234000407,276.35667920002015,276.8574234000407,276.35667920002015,276.8574234000407,276.35667920002015,276.8574234000407,276.35667920002015,276.8574234000407,276.35667920002015,276.8574234000407,276.35667920002015,276.8574234000407,276.35667920002015,276.8574234000407,275.4055266000214,None,276.8574234000407,None,0.9600000000000006,278.392789000005,None,279.144274100021,None,,,,,,,[1.52361702],2.6300000000000017,0.7021276595744681,11006,002,2024_Jan_01_1739,MFTM_A_new1021,2021.2.3,59.93022922610245,
,,,,,,,,stim/Instruction_adaptive.png,conditions/adaptive.xlsx,test,-0.6,-0.6,-0.6,0.6,0.6,left,L,,,,,0,1,1,1,0,47,47,41,,,,,,,,,,,,,,,,,,,,,,,,,,,,,,,,,,,,,,,,,,,,279.64456630003406,None,left,1,1.2352869000169449,280.14623529999517,281.7146889999858,280.14623529999517,281.21434170001885,280.14623529999517,281.21434170001885,280.14623529999517,281.21434170001885,280.14623529999517,281.21434170001885,280.14623529999517,281.21434170001885,281.18040350003866,281.68137200002093,281.18040350003866,281.68137200002093,281.18040350003866,281.68137200002093,281.18040350003866,281.68137200002093,281.18040350003866,281.68137200002093,281.18040350003866,281.68137200002093,281.18040350003866,281.68137200002093,281.18040350003866,281.68137200002093,280.14623529999517,None,281.68137200002093,283.1339944000356,1.0600000000000007,283.1500025000423,None,283.9016211000271,None,,,,,,,[[1.44]],2.680000000000002,0.7083333333333334,11006,002,2024_Jan_01_1739,MFTM_A_new1021,2021.2.3,59.93022922610245,
,,,,,,,,stim/Instruction_adaptive.png,conditions/adaptive.xlsx,test,0.6,0.6,0.6,-0.6,-0.6,right,R,,,,,0,1,1,1,0,48,48,28,,,,,,,,,,,,,,,,,,,,,,,,,,,,,,,,,,,,,,,,,,,,284.40165280003566,None,right,1,1.9506125999614596,284.9024744000053,286.43820750003215,284.9024744000053,285.93802220001817,284.9024744000053,285.93802220001817,284.9024744000053,285.93802220001817,284.9024744000053,285.93802220001817,284.9024744000053,285.93802220001817,285.9206656999886,286.4214673000388,285.9206656999886,286.4214673000388,285.9206656999886,286.4214673000388,285.9206656999886,286.4214673000388,285.9206656999886,286.4214673000388,285.9206656999886,286.4214673000388,285.9206656999886,286.4214673000388,285.9206656999886,286.4214673000388,284.9024744000053,None,286.4214673000388,None,1.0300000000000007,287.9068307999987,None,288.6590404000017,None,,,,,,,[[1.47]],2.730000000000002,0.7142857142857143,11006,002,2024_Jan_01_1739,MFTM_A_new1021,2021.2.3,59.93022922610245,
,,,,,,,,stim/Instruction_adaptive.png,conditions/adaptive.xlsx,test,-0.6,-0.6,-0.6,0.6,0.6,left,L,,,,,0,1,1,1,0,49,49,3,,,,,,,,,,,,,,,,,,,,,,,,,,,,,,,,,,,,,,,,,,,,289.15906690002885,None,left,1,1.6817083999630995,289.65963070001453,291.1624546000385,289.65963070001453,290.660967600008,289.65963070001453,290.660967600008,289.65963070001453,290.660967600008,289.65963070001453,290.660967600008,289.65963070001453,290.660967600008,290.62834390002536,291.1290115999873,290.62834390002536,291.1290115999873,290.62834390002536,291.1290115999873,290.62834390002536,291.1290115999873,290.62834390002536,291.1290115999873,290.62834390002536,291.1290115999873,290.62834390002536,291.1290115999873,290.62834390002536,291.1290115999873,289.65963070001453,None,291.1290115999873,292.64809999999125,0.9900000000000007,292.66397340002004,None,293.4153411000152,None,,,,,,,[[1.51]],2.7700000000000022,0.72,11006,002,2024_Jan_01_1739,MFTM_A_new1021,2021.2.3,59.93022922610245,
,,,,,,,,stim/Instruction_adaptive.png,conditions/adaptive.xlsx,test,0.6,0.6,0.6,-0.6,-0.6,right,R,,,,,0,1,1,1,0,50,50,42,,,,,,,,,,,,,,,,,,,,,,,,,,,,,,,,,,,,,,,,,,,,293.91568480001297,None,right,1,2.0926211000187322,294.4165997999953,295.8861936000176,294.4165997999953,295.38545599998906,294.4165997999953,295.38545599998906,294.4165997999953,295.38545599998906,294.4165997999953,295.38545599998906,294.4165997999953,295.38545599998906,295.3677391000092,295.8687835999881,295.3677391000092,295.8687835999881,295.3677391000092,295.8687835999881,295.3677391000092,295.8687835999881,295.3677391000092,295.8687835999881,295.3677391000092,295.8687835999881,295.3677391000092,295.8687835999881,295.3677391000092,295.8687835999881,294.4165997999953,None,295.8687835999881,None,0.9600000000000006,297.40422999998555,None,298.1555171000073,None,,,,,,,[1.52098039],2.820000000000002,0.7254901960784313,11006,002,2024_Jan_01_1739,MFTM_A_new1021,2021.2.3,59.93022922610245,
,,,,,,,,stim/Instruction_adaptive.png,conditions/adaptive.xlsx,test,0.6,0.6,0.6,-0.6,-0.6,right,R,,,,,0,1,1,1,0,51,51,14,,,,,,,,,,,,,,,,,,,,,,,,,,,,,,,,,,,,,,,,,,,,298.65685820003273,None,right,1,1.5199748000013642,299.15703460003715,300.5924937000382,299.15703460003715,300.0921500000404,299.15703460003715,300.0921500000404,299.15703460003715,300.0921500000404,299.15703460003715,300.0921500000404,299.15703460003715,300.0921500000404,300.075417199987,300.5763100000331,300.075417199987,300.5763100000331,300.075417199987,300.5763100000331,300.075417199987,300.5763100000331,300.075417199987,300.5763100000331,300.075417199987,300.5763100000331,300.075417199987,300.5763100000331,300.075417199987,300.5763100000331,299.15703460003715,None,300.5763100000331,None,0.9300000000000006,302.1120070000179,None,302.8635134000215,None,,,,,,,[1.52192308],2.860000000000002,0.7307692307692307,11006,002,2024_Jan_01_1739,MFTM_A_new1021,2021.2.3,59.93022922610245,
,,,,,,,,stim/Instruction_adaptive.png,conditions/adaptive.xlsx,test,-0.6,-0.6,-0.6,0.6,0.6,left,L,,,,,0,1,1,1,0,52,52,11,,,,,,,,,,,,,,,,,,,,,,,,,,,,,,,,,,,,,,,,,,,,303.3639533999958,None,left,1,1.6853359999950044,303.8640209999867,305.2825798999984,303.8640209999867,304.78199500002665,303.8640209999867,304.78199500002665,303.8640209999867,304.78199500002665,303.8640209999867,304.78199500002665,303.8640209999867,304.78199500002665,304.7654829000239,305.2666659000097,304.7654829000239,305.2666659000097,304.7654829000239,305.2666659000097,304.7654829000239,305.2666659000097,304.7654829000239,305.2666659000097,304.7654829000239,305.2666659000097,304.7654829000239,305.2666659000097,304.7654829000239,305.2666659000097,303.8640209999867,None,305.2666659000097,None,0.9100000000000006,306.8016825999948,None,307.55269149999367,None,,,,,,,[1.52320755],2.900000000000002,0.7358490566037735,11006,002,2024_Jan_01_1739,MFTM_A_new1021,2021.2.3,59.93022922610245,
,,,,,,,,stim/Instruction_adaptive.png,conditions/adaptive.xlsx,test,-0.6,-0.6,-0.6,0.6,0.6,left,L,,,,,0,1,1,1,0,53,53,97,,,,,,,,,,,,,,,,,,,,,,,,,,,,,,,,,,,,,,,,,,,,308.05333710002014,None,left,1,1.6036931999842636,308.5541273000417,309.9401736999862,308.5541273000417,309.4389489000314,308.5541273000417,309.4389489000314,308.5541273000417,309.4389489000314,308.5541273000417,309.4389489000314,308.5541273000417,309.4389489000314,309.42292490002,309.92320060002385,309.42292490002,309.92320060002385,309.42292490002,309.92320060002385,309.42292490002,309.92320060002385,309.42292490002,309.92320060002385,309.42292490002,309.92320060002385,309.42292490002,309.92320060002385,309.42292490002,309.92320060002385,308.5541273000417,None,309.92320060002385,None,0.8800000000000006,311.459327700024,None,312.21005639998475,None,,,,,,,[1.525],2.940000000000002,0.7407407407407407,11006,002,2024_Jan_01_1739,MFTM_A_new1021,2021.2.3,59.93022922610245,
,,,,,,,,stim/Instruction_adaptive.png,conditions/adaptive.xlsx,test,0.6,0.6,0.6,-0.6,-0.6,right,R,,,,,0,1,1,1,0,54,54,18,,,,,,,,,,,,,,,,,,,,,,,,,,,,,,,,,,,,,,,,,,,,312.7103078000364,None,right,1,1.5544852000311948,313.2109424000373,314.5811708000256,313.2109424000373,314.07939010002883,313.2109424000373,314.07939010002883,313.2109424000373,314.07939010002883,313.2109424000373,314.07939010002883,313.2109424000373,314.07939010002883,314.06223360000877,314.564016600023,314.06223360000877,314.564016600023,314.06223360000877,314.564016600023,314.06223360000877,314.564016600023,314.06223360000877,314.564016600023,314.06223360000877,314.564016600023,314.06223360000877,314.564016600023,314.06223360000877,314.564016600023,313.2109424000373,None,314.564016600023,None,0.8600000000000005,316.0989065000322,None,316.8496748000034,None,,,,,,,[1.52709091],2.980000000000002,0.7454545454545455,11006,002,2024_Jan_01_1739,MFTM_A_new1021,2021.2.3,59.93022922610245,
,,,,,,,,stim/Instruction_adaptive.png,conditions/adaptive.xlsx,test,0.6,0.6,0.6,-0.6,-0.6,right,R,,,,,0,1,1,1,0,55,55,26,,,,,,,,,,,,,,,,,,,,,,,,,,,,,,,,,,,,,,,,,,,,317.35101490002126,None,left,0,1.6096787999849766,317.8513129000203,319.1872131000273,317.8513129000203,318.68610380002065,317.8513129000203,318.68610380002065,317.8513129000203,318.68610380002065,317.8513129000203,318.68610380002065,317.8513129000203,318.68610380002065,318.66991530003725,319.1699699999881,318.66991530003725,319.1699699999881,318.66991530003725,319.1699699999881,318.66991530003725,319.1699699999881,318.66991530003725,319.1699699999881,318.66991530003725,319.1699699999881,318.66991530003725,319.1699699999881,318.66991530003725,319.1699699999881,317.8513129000203,None,319.1699699999881,320.70655120001175,0.8300000000000005,320.7221921000164,None,321.4733173000277,None,,,,,,,[1.52964286],2.870000000000002,0.7321428571428571,11006,002,2024_Jan_01_1739,MFTM_A_new1021,2021.2.3,59.93022922610245,
,,,,,,,,stim/Instruction_adaptive.png,conditions/adaptive.xlsx,test,0.6,0.6,0.6,-0.6,-0.6,right,R,,,,,0,1,1,1,0,56,56,46,,,,,,,,,,,,,,,,,,,,,,,,,,,,,,,,,,,,,,,,,,,,321.97461929998826,None,right,1,0.6826649999711663,322.4748862000415,323.8773029000149,322.4748862000415,323.37694159999955,322.4748862000415,323.37694159999955,322.4748862000415,323.37694159999955,322.4748862000415,323.37694159999955,322.4748862000415,323.37694159999955,323.359483600012,323.8603044000338,323.359483600012,323.8603044000338,323.359483600012,323.8603044000338,323.359483600012,323.8603044000338,323.359483600012,323.8603044000338,323.359483600012,323.8603044000338,323.359483600012,323.8603044000338,323.359483600012,323.8603044000338,322.4748862000415,None,323.8603044000338,325.3958225999959,0.9000000000000006,325.41248910001013,None,326.16462460003095,None,,,,,,,[1.53087719],2.910000000000002,0.7368421052631579,11006,002,2024_Jan_01_1739,MFTM_A_new1021,2021.2.3,59.93022922610245,
,,,,,,,,stim/Instruction_adaptive.png,conditions/adaptive.xlsx,test,-0.6,-0.6,-0.6,0.6,0.6,left,L,,,,,0,1,1,1,0,57,57,73,,,,,,,,,,,,,,,,,,,,,,,,,,,,,,,,,,,,,,,,,,,,326.664312500041,None,left,1,1.1683165999711491,327.1650076000369,328.5508680000203,327.1650076000369,328.0508224000223,327.1650076000369,328.0508224000223,327.1650076000369,328.0508224000223,327.1650076000369,328.0508224000223,327.1650076000369,328.0508224000223,328.0336191999959,328.5338665000163,328.0336191999959,328.5338665000163,328.0336191999959,328.5338665000163,328.0336191999959,328.5338665000163,328.0336191999959,328.5338665000163,328.0336191999959,328.5338665000163,328.0336191999959,328.5338665000163,328.0336191999959,328.5338665000163,327.1650076000369,None,328.5338665000163,330.07013820001157,0.8800000000000006,330.08618079998996,None,330.8375149000203,None,,,,,,,[1.53241379],2.940000000000002,0.7413793103448276,11006,002,2024_Jan_01_1739,MFTM_A_new1021,2021.2.3,59.93022922610245,
,,,,,,,,stim/Instruction_adaptive.png,conditions/adaptive.xlsx,test,0.6,0.6,0.6,-0.6,-0.6,right,R,,,,,0,1,1,1,0,58,58,30,,,,,,,,,,,,,,,,,,,,,,,,,,,,,,,,,,,,,,,,,,,,331.33778960001655,None,right,1,1.8783494999515824,331.83878410002217,333.2076958999969,331.83878410002217,332.70734190003714,331.83878410002217,332.70734190003714,331.83878410002217,332.70734190003714,331.83878410002217,332.70734190003714,331.83878410002217,332.70734190003714,332.69010090001393,333.1907630999922,332.69010090001393,333.1907630999922,332.69010090001393,333.1907630999922,332.69010090001393,333.1907630999922,332.69010090001393,333.1907630999922,332.69010090001393,333.1907630999922,332.69010090001393,333.1907630999922,332.69010090001393,333.1907630999922,331.83878410002217,None,333.1907630999922,334.7269767000107,0.8600000000000005,334.74375840002904,None,335.49471200001426,None,,,,,,,[1.53423729],2.980000000000002,0.7457627118644068,11006,002,2024_Jan_01_1739,MFTM_A_new1021,2021.2.3,59.93022922610245,
,,,,,,,,stim/Instruction_adaptive.png,conditions/adaptive.xlsx,test,-0.6,-0.6,-0.6,0.6,0.6,left,L,,,,,0,1,1,1,0,59,59,65,,,,,,,,,,,,,,,,,,,,,,,,,,,,,,,,,,,,,,,,,,,,335.9948218000354,None,left,1,1.461421000014525,336.49575780000305,337.83092450001277,336.49575780000305,337.33022310002707,336.49575780000305,337.33022310002707,336.49575780000305,337.33022310002707,336.49575780000305,337.33022310002707,336.49575780000305,337.33022310002707,337.31363490002695,337.8144759000279,337.31363490002695,337.8144759000279,337.31363490002695,337.8144759000279,337.31363490002695,337.8144759000279,337.31363490002695,337.8144759000279,337.31363490002695,337.8144759000279,337.31363490002695,337.8144759000279,337.31363490002695,337.8144759000279,336.49575780000305,None,337.8144759000279,None,0.8300000000000005,339.3666651000385,None,340.11884320003446,None,,,,,,,[1.5365],3.0100000000000025,0.75,11006,002,2024_Jan_01_1739,MFTM_A_new1021,2021.2.3,59.93022922610245,
,,,,,,,,stim/Instruction_adaptive.png,conditions/adaptive.xlsx,test,0.6,0.6,0.6,-0.6,-0.6,right,R,,,,,0,1,1,1,0,60,60,12,,,,,,,,,,,,,,,,,,,,,,,,,,,,,,,,,,,,,,,,,,,,340.6185678000329,None,right,1,1.638462700007949,341.11913170001935,342.43820650002453,341.11913170001935,341.9543619999895,341.11913170001935,341.9543619999895,341.11913170001935,341.9543619999895,341.11913170001935,341.9543619999895,341.11913170001935,341.9543619999895,341.9206241000211,342.42182520002825,341.9206241000211,342.42182520002825,341.9206241000211,342.42182520002825,341.9206241000211,342.42182520002825,341.9206241000211,342.42182520002825,341.9206241000211,342.42182520002825,341.9206241000211,342.42182520002825,341.9206241000211,342.42182520002825,341.11913170001935,None,342.42182520002825,343.9747310000239,0.8200000000000005,343.98994910001056,None,344.74198009999236,None,,,,,,,[1.53885246],3.0400000000000023,0.7540983606557377,11006,002,2024_Jan_01_1739,MFTM_A_new1021,2021.2.3,59.93022922610245,
,,,,,,,,stim/Instruction_adaptive.png,conditions/adaptive.xlsx,test,0.6,0.6,0.6,-0.6,-0.6,right,R,,,,,0,1,1,1,0,61,61,20,,,,,,,,,,,,,,,,,,,,,,,,,,,,,,,,,,,,,,,,,,,,345.2432950999937,None,left,0,1.5031149999704212,345.7426456999965,347.0451774999965,345.7426456999965,346.5445785000338,345.7426456999965,346.5445785000338,345.7426456999965,346.5445785000338,345.7426456999965,346.5445785000338,345.7426456999965,346.5445785000338,346.5277429000125,347.0293139000423,346.5277429000125,347.0293139000423,346.5277429000125,347.0293139000423,346.5277429000125,347.0293139000423,346.5277429000125,347.0293139000423,346.5277429000125,347.0293139000423,346.5277429000125,347.0293139000423,346.5277429000125,347.0293139000423,345.7426456999965,None,347.0293139000423,348.5812745000003,0.8000000000000005,348.59673430002294,None,349.3478896000306,None,,,,,,,[1.54145161],2.950000000000002,0.7419354838709677,11006,002,2024_Jan_01_1739,MFTM_A_new1021,2021.2.3,59.93022922610245,
,,,,,,,,stim/Instruction_adaptive.png,conditions/adaptive.xlsx,test,-0.6,-0.6,-0.6,0.6,0.6,left,L,,,,,0,1,1,1,0,62,62,91,,,,,,,,,,,,,,,,,,,,,,,,,,,,,,,,,,,,,,,,,,,,349.84851119999075,None,right,0,1.5837575999903493,350.34959530003835,351.7014400000335,350.34959530003835,351.2007386999903,350.34959530003835,351.2007386999903,350.34959530003835,351.2007386999903,350.34959530003835,351.2007386999903,350.34959530003835,351.2007386999903,351.18386739998823,351.68462780001573,351.18386739998823,351.68462780001573,351.18386739998823,351.68462780001573,351.18386739998823,351.68462780001573,351.18386739998823,351.68462780001573,351.18386739998823,351.68462780001573,351.18386739998823,351.68462780001573,351.18386739998823,351.68462780001573,350.34959530003835,None,351.68462780001573,353.2374885000172,0.8500000000000005,353.2538315000129,None,354.00672160001704,None,,,,,,,[1.5431746],2.8500000000000023,0.7301587301587301,11006,002,2024_Jan_01_1739,MFTM_A_new1021,2021.2.3,59.93022922610245,
,,,,,,,,stim/Instruction_adaptive.png,conditions/adaptive.xlsx,test,0.6,0.6,0.6,-0.6,-0.6,right,R,,,,,0,1,1,1,0,63,63,80,,,,,,,,,,,,,,,,,,,,,,,,,,,,,,,,,,,,,,,,,,,,354.50600649998523,None,right,1,1.6388246000278741,355.0062345000333,356.42549340002006,355.0062345000333,355.9244237000239,355.0062345000333,355.9244237000239,355.0062345000333,355.9244237000239,355.0062345000333,355.9244237000239,355.0062345000333,355.9244237000239,355.90842210000847,356.40848290000577,355.90842210000847,356.40848290000577,355.90842210000847,356.40848290000577,355.90842210000847,356.40848290000577,355.90842210000847,356.40848290000577,355.90842210000847,356.40848290000577,355.90842210000847,356.40848290000577,355.90842210000847,356.40848290000577,355.0062345000333,None,356.391872600012,357.9440466000233,0.9100000000000006,357.96067760000005,None,358.7118599000387,None,,,,,,,[1.54390625],2.8900000000000023,0.734375,11006,002,2024_Jan_01_1739,MFTM_A_new1021,2021.2.3,59.93022922610245,
,,,,,,,,stim/Instruction_adaptive.png,conditions/adaptive.xlsx,test,0.6,0.6,0.6,-0.6,-0.6,right,R,,,,,0,1,1,1,0,64,64,56,,,,,,,,,,,,,,,,,,,,,,,,,,,,,,,,,,,,,,,,,,,,359.2124629000318,None,right,1,1.4029970000265166,359.7139702999848,361.1152879000292,359.7139702999848,360.6148545999895,359.7139702999848,360.6148545999895,359.7139702999848,360.6148545999895,359.7139702999848,360.6148545999895,359.7139702999848,360.6148545999895,360.58125160000054,361.0821863000165,360.58125160000054,361.0821863000165,360.58125160000054,361.0821863000165,360.58125160000054,361.0821863000165,360.58125160000054,361.0821863000165,360.58125160000054,361.0821863000165,360.58125160000054,361.0821863000165,360.58125160000054,361.0821863000165,359.7139702999848,None,361.0821863000165,362.63487260002876,0.8900000000000006,362.6511129999999,None,363.4021988000022,None,,,,,,,[1.54492308],2.920000000000002,0.7384615384615385,11006,002,2024_Jan_01_1739,MFTM_A_new1021,2021.2.3,59.93022922610245,
,,,,,,,,stim/Instruction_adaptive.png,conditions/adaptive.xlsx,test,0.6,0.6,0.6,-0.6,-0.6,right,R,,,,,0,1,1,1,0,65,65,4,,,,,,,,,,,,,,,,,,,,,,,,,,,,,,,,,,,,,,,,,,,,363.9033039000351,None,right,1,1.458213399979286,364.4036827000091,365.7890566000133,364.4036827000091,365.2890827000374,364.4036827000091,365.2890827000374,364.4036827000091,365.2890827000374,364.4036827000091,365.2890827000374,364.4036827000091,365.2890827000374,365.2548711000127,365.75567740004044,365.2548711000127,365.75567740004044,365.2548711000127,365.75567740004044,365.2548711000127,365.75567740004044,365.2548711000127,365.75567740004044,365.2548711000127,365.75567740004044,365.2548711000127,365.75567740004044,365.2548711000127,365.75567740004044,364.4036827000091,None,365.75567740004044,367.30834420002066,0.8700000000000006,367.324657500023,None,368.0764467000263,None,,,,,,,[1.54621212],2.950000000000002,0.7424242424242424,11006,002,2024_Jan_01_1739,MFTM_A_new1021,2021.2.3,59.93022922610245,
,,,,,,,,stim/Instruction_adaptive.png,conditions/adaptive.xlsx,test,0.6,0.6,0.6,-0.6,-0.6,right,R,,,,,0,1,1,1,0,66,66,54,,,,,,,,,,,,,,,,,,,,,,,,,,,,,,,,,,,,,,,,,,,,368.57754969998496,None,left,0,1.624157699989155,369.07723330002045,370.429721100023,369.07723330002045,369.9289731000317,369.07723330002045,369.9289731000317,369.07723330002045,369.9289731000317,369.07723330002045,369.9289731000317,369.07723330002045,369.9289731000317,369.9125344000058,370.41260010004044,369.9125344000058,370.41260010004044,369.9125344000058,370.41260010004044,369.9125344000058,370.41260010004044,369.9125344000058,370.41260010004044,369.9125344000058,370.41260010004044,369.9125344000058,370.41260010004044,369.9125344000058,370.41260010004044,369.07723330002045,None,370.41260010004044,371.96529170003487,0.8500000000000005,371.9815758999903,None,372.73326800001087,None,,,,,,,[1.54776119],2.860000000000002,0.7313432835820896,11006,002,2024_Jan_01_1739,MFTM_A_new1021,2021.2.3,59.93022922610245,
,,,,,,,,stim/Instruction_adaptive.png,conditions/adaptive.xlsx,test,-0.6,-0.6,-0.6,0.6,0.6,left,L,,,,,0,1,1,1,0,67,67,51,,,,,,,,,,,,,,,,,,,,,,,,,,,,,,,,,,,,,,,,,,,,373.2336653000093,None,left,1,1.6232231000321917,373.73436609999044,375.1528713000007,373.73436609999044,374.65228929999284,373.73436609999044,374.65228929999284,373.73436609999044,374.65228929999284,373.73436609999044,374.65228929999284,373.73436609999044,374.65228929999284,374.63567700004205,375.1367829000228,374.63567700004205,375.1367829000228,374.63567700004205,375.1367829000228,374.63567700004205,375.1367829000228,374.63567700004205,375.1367829000228,374.63567700004205,375.1367829000228,374.63567700004205,375.1367829000228,374.63567700004205,375.1367829000228,373.73436609999044,None,375.1367829000228,376.6901436999906,0.9100000000000006,376.7050090000266,None,377.45715249999193,None,,,,,,,[1.54838235],2.8900000000000023,0.7352941176470589,11006,002,2024_Jan_01_1739,MFTM_A_new1021,2021.2.3,59.93022922610245,
,,,,,,,,stim/Instruction_adaptive.png,conditions/adaptive.xlsx,test,0.6,0.6,0.6,-0.6,-0.6,right,R,,,,,0,1,1,1,0,68,68,98,,,,,,,,,,,,,,,,,,,,,,,,,,,,,,,,,,,,,,,,,,,,377.95688650000375,None,right,1,1.587395699985791,378.4576885999995,379.8602373999893,378.4576885999995,379.35947910003597,378.4576885999995,379.35947910003597,378.4576885999995,379.35947910003597,378.4576885999995,379.35947910003597,378.4576885999995,379.35947910003597,379.3258022000082,379.8269381999853,379.3258022000082,379.8269381999853,379.3258022000082,379.8269381999853,379.3258022000082,379.8269381999853,379.3258022000082,379.8269381999853,379.3258022000082,379.8269381999853,379.3258022000082,379.8269381999853,379.3258022000082,379.8269381999853,378.4576885999995,None,379.8269381999853,381.3795228000381,0.8900000000000006,381.3965775000397,None,382.1467667000252,None,,,,,,,[1.54927536],2.920000000000002,0.7391304347826086,11006,002,2024_Jan_01_1739,MFTM_A_new1021,2021.2.3,59.93022922610245,
,,,,,,,,stim/Instruction_adaptive.png,conditions/adaptive.xlsx,test,0.6,0.6,0.6,-0.6,-0.6,right,R,,,,,0,1,1,1,0,69,69,86,,,,,,,,,,,,,,,,,,,,,,,,,,,,,,,,,,,,,,,,,,,,382.64736549998634,None,right,1,0.9698906000121497,383.14806690003024,384.53369660000317,383.14806690003024,384.0334499999881,383.14806690003024,384.0334499999881,383.14806690003024,384.0334499999881,383.14806690003024,384.0334499999881,383.14806690003024,384.0334499999881,383.9993200000026,384.5001881000353,383.9993200000026,384.5001881000353,383.9993200000026,384.5001881000353,383.9993200000026,384.5001881000353,383.9993200000026,384.5001881000353,383.9993200000026,384.5001881000353,383.9993200000026,384.5001881000353,383.9993200000026,384.5001881000353,383.14806690003024,None,384.5001881000353,386.0531087000272,0.8700000000000006,386.0693778000423,None,386.8208319999976,None,,,,,,,[1.55042857],2.950000000000002,0.7428571428571429,11006,002,2024_Jan_01_1739,MFTM_A_new1021,2021.2.3,59.93022922610245,
,,,,,,,,stim/Instruction_adaptive.png,conditions/adaptive.xlsx,test,0.6,0.6,0.6,-0.6,-0.6,right,R,,,,,0,1,1,1,0,70,70,68,,,,,,,,,,,,,,,,,,,,,,,,,,,,,,,,,,,,,,,,,,,,387.3212080000085,None,right,1,1.9436014999519102,387.8215013000299,389.17436669999734,387.8215013000299,388.6736159999855,387.8215013000299,388.6736159999855,387.8215013000299,388.6736159999855,387.8215013000299,388.6736159999855,387.8215013000299,388.6736159999855,388.6570525999996,389.15690860000905,388.6570525999996,389.15690860000905,388.6570525999996,389.15690860000905,388.6570525999996,389.15690860000905,388.6570525999996,389.15690860000905,388.6570525999996,389.15690860000905,388.6570525999996,389.15690860000905,388.6570525999996,389.15690860000905,387.8215013000299,None,389.15690860000905,390.7093917999882,0.8500000000000005,390.72594949998893,None,391.4772285000072,None,,,,,,,[1.55183099],2.980000000000002,0.7464788732394366,11006,002,2024_Jan_01_1739,MFTM_A_new1021,2021.2.3,59.93022922610245,
,,,,,,,,stim/Instruction_adaptive.png,conditions/adaptive.xlsx,test,0.6,0.6,0.6,-0.6,-0.6,right,R,,,,,0,1,1,1,0,71,71,78,,,,,,,,,,,,,,,,,,,,,,,,,,,,,,,,,,,,,,,,,,,,391.97794810001506,None,right,1,1.7748555000289343,392.47846190002747,393.81436389999,392.47846190002747,393.3139448000002,392.47846190002747,393.3139448000002,392.47846190002747,393.3139448000002,392.47846190002747,393.3139448000002,392.47846190002747,393.3139448000002,393.29654519999167,393.79768800002057,393.29654519999167,393.79768800002057,393.29654519999167,393.79768800002057,393.29654519999167,393.79768800002057,393.29654519999167,393.79768800002057,393.29654519999167,393.79768800002057,393.29654519999167,393.79768800002057,393.29654519999167,393.79768800002057,392.47846190002747,None,393.79768800002057,395.34944389999146,0.8300000000000005,395.3666000000085,None,396.11720810004044,None,,,,,,,[1.55347222],3.0100000000000025,0.75,11006,002,2024_Jan_01_1739,MFTM_A_new1021,2021.2.3,59.93022922610245,
,,,,,,,,stim/Instruction_adaptive.png,conditions/adaptive.xlsx,test,-0.6,-0.6,-0.6,0.6,0.6,left,L,,,,,0,1,1,1,0,72,72,13,,,,,,,,,,,,,,,,,,,,,,,,,,,,,,,,,,,,,,,,,,,,396.61779930000193,None,left,1,1.3982741999789141,397.1195817000116,398.45343510003295,397.1195817000116,397.9534706000122,397.1195817000116,397.9534706000122,397.1195817000116,397.9534706000122,397.1195817000116,397.9534706000122,397.1195817000116,397.9534706000122,397.92061380000087,398.42082810000284,397.92061380000087,398.42082810000284,397.92061380000087,398.42082810000284,397.92061380000087,398.42082810000284,397.92061380000087,398.42082810000284,397.92061380000087,398.42082810000284,397.92061380000087,398.42082810000284,397.92061380000087,398.42082810000284,397.1195817000116,None,398.42082810000284,399.9899015999981,0.8200000000000005,400.0063985000015,None,400.7575328000239,None,,,,,,,[1.55520548],3.030000000000002,0.7534246575342466,11006,002,2024_Jan_01_1739,MFTM_A_new1021,2021.2.3,59.93022922610245,
,,,,,,,,stim/Instruction_adaptive.png,conditions/adaptive.xlsx,test,-0.6,-0.6,-0.6,0.6,0.6,left,L,,,,,0,1,1,1,0,73,73,43,,,,,,,,,,,,,,,,,,,,,,,,,,,,,,,,,,,,,,,,,,,,401.25899320002645,None,left,1,1.374037200002931,401.7594909000327,403.07747940003173,401.7594909000327,402.5771574000246,401.7594909000327,402.5771574000246,401.7594909000327,402.5771574000246,401.7594909000327,402.5771574000246,401.7594909000327,402.5771574000246,402.5603921000147,403.06083700002637,402.5603921000147,403.06083700002637,402.5603921000147,403.06083700002637,402.5603921000147,403.06083700002637,402.5603921000147,403.06083700002637,402.5603921000147,403.06083700002637,402.5603921000147,403.06083700002637,402.5603921000147,403.06083700002637,401.7594909000327,None,403.06083700002637,None,0.8100000000000005,404.62995810003486,None,405.381121399987,None,,,,,,,[1.55702703],3.0600000000000023,0.7567567567567568,11006,002,2024_Jan_01_1739,MFTM_A_new1021,2021.2.3,59.93022922610245,
,,,,,,,,stim/Instruction_adaptive.png,conditions/adaptive.xlsx,test,-0.6,-0.6,-0.6,0.6,0.6,left,L,,,,,0,1,1,1,0,74,74,25,,,,,,,,,,,,,,,,,,,,,,,,,,,,,,,,,,,,,,,,,,,,405.88173040002584,None,right,0,1.5196588999824598,406.3825848000124,407.6864684000029,406.3825848000124,407.1844537000288,406.3825848000124,407.1844537000288,406.3825848000124,407.1844537000288,406.3825848000124,407.1844537000288,406.3825848000124,407.1844537000288,407.150397600024,407.6509399000206,407.150397600024,407.6509399000206,407.150397600024,407.6509399000206,407.150397600024,407.6509399000206,407.150397600024,407.6509399000206,407.150397600024,407.6509399000206,407.150397600024,407.6509399000206,407.150397600024,407.6509399000206,406.3825848000124,None,407.6509399000206,409.2211275000009,0.7900000000000005,409.2364753999864,None,409.98867749999044,None,,,,,,,[1.55906667],2.980000000000002,0.7466666666666667,11006,002,2024_Jan_01_1739,MFTM_A_new1021,2021.2.3,59.93022922610245,
,,,,,,,,stim/Instruction_adaptive.png,conditions/adaptive.xlsx,test,0.6,0.6,0.6,-0.6,-0.6,right,R,,,,,0,1,1,1,0,75,75,0,,,,,,,,,,,,,,,,,,,,,,,,,,,,,,,,,,,,,,,,,,,,410.48892460000934,None,left,0,1.4631932000047527,410.98994649999077,412.3251372000086,410.98994649999077,411.82387270004256,410.98994649999077,411.82387270004256,410.98994649999077,411.82387270004256,410.98994649999077,411.82387270004256,410.98994649999077,411.82387270004256,411.8077675999957,412.30806449998636,411.8077675999957,412.30806449998636,411.8077675999957,412.30806449998636,411.8077675999957,412.30806449998636,411.8077675999957,412.30806449998636,411.8077675999957,412.30806449998636,411.8077675999957,412.30806449998636,411.8077675999957,412.30806449998636,410.98994649999077,None,412.30806449998636,413.8775895999861,0.8300000000000005,413.89386650000233,None,414.644651300041,None,,,,,,,[1.56052632],2.900000000000002,0.7368421052631579,11006,002,2024_Jan_01_1739,MFTM_A_new1021,2021.2.3,59.93022922610245,
,,,,,,,,stim/Instruction_adaptive.png,conditions/adaptive.xlsx,test,-0.6,-0.6,-0.6,0.6,0.6,left,L,,,,,0,1,1,1,0,76,76,27,,,,,,,,,,,,,,,,,,,,,,,,,,,,,,,,,,,,,,,,,,,,415.1461874000379,None,left,1,1.7985875000013039,415.64667859999463,417.031844000041,415.64667859999463,416.5309682000079,415.64667859999463,416.5309682000079,415.64667859999463,416.5309682000079,415.64667859999463,416.5309682000079,415.64667859999463,416.5309682000079,416.5147810000344,417.01513479999267,416.5147810000344,417.01513479999267,416.5147810000344,417.01513479999267,416.5147810000344,417.01513479999267,416.5147810000344,417.01513479999267,416.5147810000344,417.01513479999267,416.5147810000344,417.01513479999267,416.5147810000344,417.01513479999267,415.64667859999463,None,417.01513479999267,418.58484740002314,0.8800000000000006,418.6005708000157,None,419.35237119998783,None,,,,,,,[1.5612987],2.9300000000000024,0.7402597402597403,11006,002,2024_Jan_01_1739,MFTM_A_new1021,2021.2.3,59.93022922610245,
,,,,,,,,stim/Instruction_adaptive.png,conditions/adaptive.xlsx,test,0.6,0.6,0.6,-0.6,-0.6,right,R,,,,,0,1,1,1,0,77,77,16,,,,,,,,,,,,,,,,,,,,,,,,,,,,,,,,,,,,,,,,,,,,419.85282000002917,None,left,0,1.580838699999731,420.353220399993,421.7230545000057,420.353220399993,421.2219849000103,420.353220399993,421.2219849000103,420.353220399993,421.2219849000103,420.353220399993,421.2219849000103,420.353220399993,421.2219849000103,421.188131300034,421.68896579998545,421.188131300034,421.68896579998545,421.188131300034,421.68896579998545,421.188131300034,421.68896579998545,421.188131300034,421.68896579998545,421.188131300034,421.68896579998545,421.188131300034,421.68896579998545,421.188131300034,421.68896579998545,420.353220399993,None,421.68896579998545,423.25833790004253,0.8600000000000005,423.27450749999844,None,424.0252897000173,None,,,,,,,[1.56230769],2.8500000000000023,0.7307692307692307,11006,002,2024_Jan_01_1739,MFTM_A_new1021,2021.2.3,59.93022922610245,
,,,,,,,,stim/Instruction_adaptive.png,conditions/adaptive.xlsx,test,-0.6,-0.6,-0.6,0.6,0.6,left,L,,,,,0,1,1,1,0,78,78,75,,,,,,,,,,,,,,,,,,,,,,,,,,,,,,,,,,,,,,,,,,,,424.52613380004186,None,left,1,2.162135799997486,425.0272165000206,426.44612999999663,425.0272165000206,425.9448696000036,425.0272165000206,425.9448696000036,425.0272165000206,425.9448696000036,425.0272165000206,425.9448696000036,425.0272165000206,425.9448696000036,425.92819430003874,426.42902400001185,425.92819430003874,426.42902400001185,425.92819430003874,426.42902400001185,425.92819430003874,426.42902400001185,425.92819430003874,426.42902400001185,425.92819430003874,426.42902400001185,425.92819430003874,426.42902400001185,425.92819430003874,426.42902400001185,425.0272165000206,None,426.42902400001185,427.9976560000214,0.9100000000000006,428.01439150003716,None,428.7659867000184,None,,,,,,,[1.56265823],2.880000000000002,0.7341772151898734,11006,002,2024_Jan_01_1739,MFTM_A_new1021,2021.2.3,59.93022922610245,
,,,,,,,,stim/Instruction_adaptive.png,conditions/adaptive.xlsx,test,0.6,0.6,0.6,-0.6,-0.6,right,R,,,,,0,1,1,1,0,79,79,48,,,,,,,,,,,,,,,,,,,,,,,,,,,,,,,,,,,,,,,,,,,,429.26707450003596,None,right,1,1.8856926000444219,429.7678449000232,431.1696559000411,429.7678449000232,430.6690898000379,429.7678449000232,430.6690898000379,429.7678449000232,430.6690898000379,429.7678449000232,430.6690898000379,429.7678449000232,430.6690898000379,430.63513750000857,431.1368930999888,430.63513750000857,431.1368930999888,430.63513750000857,431.1368930999888,430.63513750000857,431.1368930999888,430.63513750000857,431.1368930999888,430.63513750000857,431.1368930999888,430.63513750000857,431.1368930999888,430.63513750000857,431.1368930999888,429.7678449000232,None,431.1368930999888,432.705584899988,0.8900000000000006,432.72240650001913,None,433.47322580002947,None,,,,,,,[1.56325],2.910000000000002,0.7375,11006,002,2024_Jan_01_1739,MFTM_A_new1021,2021.2.3,59.93022922610245,
,,,,,,,,stim/Instruction_adaptive.png,conditions/adaptive.xlsx,test,0.6,0.6,0.6,-0.6,-0.6,right,R,,,,,0,1,1,1,0,80,80,70,,,,,,,,,,,,,,,,,,,,,,,,,,,,,,,,,,,,,,,,,,,,433.9734707000316,None,right,1,1.6196529000299051,434.47412440000335,435.8596872999915,434.47412440000335,435.35895500000333,434.47412440000335,435.35895500000333,434.47412440000335,435.35895500000333,434.47412440000335,435.35895500000333,434.47412440000335,435.35895500000333,435.3419963000342,435.84289820003323,435.3419963000342,435.84289820003323,435.3419963000342,435.84289820003323,435.3419963000342,435.84289820003323,435.3419963000342,435.84289820003323,435.3419963000342,435.84289820003323,435.3419963000342,435.84289820003323,435.3419963000342,435.84289820003323,434.47412440000335,None,435.84289820003323,437.4117752999882,0.8800000000000006,437.4284697000403,None,438.1802883000346,None,,,,,,,[1.56395062],2.9300000000000024,0.7407407407407407,11006,002,2024_Jan_01_1739,MFTM_A_new1021,2021.2.3,59.93022922610245,
,,,,,,,,stim/Instruction_adaptive.png,conditions/adaptive.xlsx,test,-0.6,-0.6,-0.6,0.6,0.6,left,L,,,,,0,1,1,1,0,81,81,7,,,,,,,,,,,,,,,,,,,,,,,,,,,,,,,,,,,,,,,,,,,,438.68020740000065,None,left,1,1.4888456999906339,439.1810420000111,440.5507632000372,439.1810420000111,440.04951179999625,439.1810420000111,440.04951179999625,439.1810420000111,440.04951179999625,439.1810420000111,440.04951179999625,439.1810420000111,440.04951179999625,440.0159391000052,440.51672320003854,440.0159391000052,440.51672320003854,440.0159391000052,440.51672320003854,440.0159391000052,440.51672320003854,440.0159391000052,440.51672320003854,440.0159391000052,440.51672320003854,440.0159391000052,440.51672320003854,440.0159391000052,440.51672320003854,439.1810420000111,None,440.51672320003854,442.08614180004224,0.8600000000000005,442.1185775999911,None,442.8698535999865,None,,,,,,,[1.56487805],2.960000000000002,0.7439024390243902,11006,002,2024_Jan_01_1739,MFTM_A_new1021,2021.2.3,59.93022922610245,
,,,,,,,,stim/Instruction_adaptive.png,conditions/adaptive.xlsx,test,-0.6,-0.6,-0.6,0.6,0.6,left,L,,,,,0,1,1,1,0,82,82,61,,,,,,,,,,,,,,,,,,,,,,,,,,,,,,,,,,,,,,,,,,,,443.37069260003045,None,right,0,1.4777537999907508,443.87145320000127,445.22415000002366,443.87145320000127,444.72262830002,443.87145320000127,444.72262830002,443.87145320000127,444.72262830002,443.87145320000127,444.72262830002,443.87145320000127,444.72262830002,444.70600060001016,445.2067034000065,444.70600060001016,445.2067034000065,444.70600060001016,445.2067034000065,444.70600060001016,445.2067034000065,444.70600060001016,445.2067034000065,444.70600060001016,445.2067034000065,444.70600060001016,445.2067034000065,444.70600060001016,445.2067034000065,443.87145320000127,None,445.2067034000065,446.7757769000018,0.8500000000000005,446.7923946999945,None,447.54392880003434,None,,,,,,,[1.56590361],2.880000000000002,0.7349397590361446,11006,002,2024_Jan_01_1739,MFTM_A_new1021,2021.2.3,59.93022922610245,
,,,,,,,,stim/Instruction_adaptive.png,conditions/adaptive.xlsx,test,-0.6,-0.6,-0.6,0.6,0.6,left,L,,,,,0,1,1,1,0,83,83,99,,,,,,,,,,,,,,,,,,,,,,,,,,,,,,,,,,,,,,,,,,,,448.0449845000403,None,left,1,1.500496499997098,448.54483640001854,449.9472103000153,448.54483640001854,449.4461303999997,448.54483640001854,449.4461303999997,448.54483640001854,449.4461303999997,448.54483640001854,449.4461303999997,448.54483640001854,449.4461303999997,449.4133094000281,449.9139186000102,449.4133094000281,449.9139186000102,449.4133094000281,449.9139186000102,449.4133094000281,449.9139186000102,449.4133094000281,449.9139186000102,449.4133094000281,449.9139186000102,449.4133094000281,449.9139186000102,449.4133094000281,449.9139186000102,448.54483640001854,None,449.9139186000102,451.48350890004076,0.8900000000000006,451.51597569999285,None,452.26726210000925,None,,,,,,,[1.56642857],2.910000000000002,0.7380952380952381,11006,002,2024_Jan_01_1739,MFTM_A_new1021,2021.2.3,59.93022922610245,
,,,,,,,,stim/Instruction_adaptive.png,conditions/adaptive.xlsx,test,0.6,0.6,0.6,-0.6,-0.6,right,R,,,,,0,1,1,1,0,84,84,92,,,,,,,,,,,,,,,,,,,,,,,,,,,,,,,,,,,,,,,,,,,,452.7687771000201,None,left,0,1.4568387999897823,453.2686935000238,454.6540998000419,453.2686935000238,454.1539143000264,453.2686935000238,454.1539143000264,453.2686935000238,454.1539143000264,453.2686935000238,454.1539143000264,453.2686935000238,454.1539143000264,454.1371857000049,454.6376370000071,454.1371857000049,454.6376370000071,454.1371857000049,454.6376370000071,454.1371857000049,454.6376370000071,454.1371857000049,454.6376370000071,454.1371857000049,454.6376370000071,454.1371857000049,454.6376370000071,454.1371857000049,454.6376370000071,453.2686935000238,None,454.6376370000071,456.20738089998486,0.8800000000000006,456.22302790003596,None,456.9751013999921,None,,,,,,,[1.56705882],2.830000000000002,0.7294117647058823,11006,002,2024_Jan_01_1739,MFTM_A_new1021,2021.2.3,59.93022922610245,
,,,,,,,,stim/Instruction_adaptive.png,conditions/adaptive.xlsx,test,-0.6,-0.6,-0.6,0.6,0.6,left,L,,,,,0,1,1,1,0,85,85,5,,,,,,,,,,,,,,,,,,,,,,,,,,,,,,,,,,,,,,,,,,,,457.47499300003983,None,left,1,1.5495766999665648,457.9756547000143,459.41092300001765,457.9756547000143,458.91102860000683,457.9756547000143,458.91102860000683,457.9756547000143,458.91102860000683,457.9756547000143,458.91102860000683,457.9756547000143,458.91102860000683,458.8936607000069,459.3942278000177,458.8936607000069,459.3942278000177,458.8936607000069,459.3942278000177,458.8936607000069,459.3942278000177,458.8936607000069,459.3942278000177,458.8936607000069,459.3942278000177,458.8936607000069,459.3942278000177,458.8936607000069,459.3942278000177,457.9756547000143,None,459.3942278000177,460.96378230000846,0.9300000000000006,460.9801606000401,None,461.73183880001307,None,,,,,,,[1.56709302],2.860000000000002,0.7325581395348837,11006,002,2024_Jan_01_1739,MFTM_A_new1021,2021.2.3,59.93022922610245,
,,,,,,,,stim/Instruction_adaptive.png,conditions/adaptive.xlsx,test,0.6,0.6,0.6,-0.6,-0.6,right,R,,,,,0,1,1,1,0,86,86,60,,,,,,,,,,,,,,,,,,,,,,,,,,,,,,,,,,,,,,,,,,,,462.2322992000263,None,right,1,2.505182299995795,462.733260900015,464.15147720003733,462.733260900015,463.6513561999891,462.733260900015,463.6513561999891,462.733260900015,463.6513561999891,462.733260900015,463.6513561999891,462.733260900015,463.6513561999891,463.6341669000103,464.1347113000229,463.6341669000103,464.1347113000229,463.6341669000103,464.1347113000229,463.6341669000103,464.1347113000229,463.6341669000103,464.1347113000229,463.6341669000103,464.1347113000229,463.6341669000103,464.1347113000229,463.6341669000103,464.1347113000229,462.733260900015,None,464.11877280002227,465.6874185000197,0.9100000000000006,465.72108590003336,None,466.4716316999984,None,,,,,,,[1.56735632],2.880000000000002,0.735632183908046,11006,002,2024_Jan_01_1739,MFTM_A_new1021,2021.2.3,59.93022922610245,
,,,,,,,,stim/Instruction_adaptive.png,conditions/adaptive.xlsx,test,-0.6,-0.6,-0.6,0.6,0.6,left,L,,,,,0,1,1,1,0,87,87,67,,,,,,,,,,,,,,,,,,,,,,,,,,,,,,,,,,,,,,,,,,,,466.9729701000033,None,left,1,1.6436006000149064,467.47373810003046,468.8751769000082,467.47373810003046,468.37452150002355,467.47373810003046,468.37452150002355,467.47373810003046,468.37452150002355,467.47373810003046,468.37452150002355,467.47373810003046,468.37452150002355,468.3419946000213,468.84177400002955,468.3419946000213,468.84177400002955,468.3419946000213,468.84177400002955,468.3419946000213,468.84177400002955,468.3419946000213,468.84177400002955,468.3419946000213,468.84177400002955,468.3419946000213,468.84177400002955,468.3419946000213,468.84177400002955,467.47373810003046,None,468.84177400002955,470.410769500013,0.8900000000000006,470.4441048000008,None,471.19569289998617,None,,,,,,,[1.56784091],2.910000000000002,0.7386363636363636,11006,002,2024_Jan_01_1739,MFTM_A_new1021,2021.2.3,59.93022922610245,
,,,,,,,,stim/Instruction_adaptive.png,conditions/adaptive.xlsx,test,-0.6,-0.6,-0.6,0.6,0.6,left,L,,,,,0,1,1,1,0,88,88,19,,,,,,,,,,,,,,,,,,,,,,,,,,,,,,,,,,,,,,,,,,,,471.6959498000215,None,left,1,1.5927657000138424,472.19659330003196,473.5827599000186,472.19659330003196,473.08128700003726,472.19659330003196,473.08128700003726,472.19659330003196,473.08128700003726,472.19659330003196,473.08128700003726,472.19659330003196,473.08128700003726,473.0656748000183,473.56570189999184,473.0656748000183,473.56570189999184,473.0656748000183,473.56570189999184,473.0656748000183,473.56570189999184,473.0656748000183,473.56570189999184,473.0656748000183,473.56570189999184,473.0656748000183,473.56570189999184,473.0656748000183,473.56570189999184,472.19659330003196,None,473.56570189999184,475.1342195000034,0.8800000000000006,475.1509745999938,None,475.90291850001086,None,,,,,,,[1.56842697],2.9300000000000024,0.7415730337078652,11006,002,2024_Jan_01_1739,MFTM_A_new1021,2021.2.3,59.93022922610245,
,,,,,,,,stim/Instruction_adaptive.png,conditions/adaptive.xlsx,test,-0.6,-0.6,-0.6,0.6,0.6,left,L,,,,,0,1,1,1,0,89,89,63,,,,,,,,,,,,,,,,,,,,,,,,,,,,,,,,,,,,,,,,,,,,476.4039395999862,None,left,1,2.1337570999749005,476.9037345999968,478.27330180001445,476.9037345999968,477.77186560002156,476.9037345999968,477.77186560002156,476.9037345999968,477.77186560002156,476.9037345999968,477.77186560002156,476.9037345999968,477.77186560002156,477.73850099998526,478.23962940002093,477.73850099998526,478.23962940002093,477.73850099998526,478.23962940002093,477.73850099998526,478.23962940002093,477.73850099998526,478.23962940002093,477.73850099998526,478.23962940002093,477.73850099998526,478.23962940002093,477.73850099998526,478.23962940002093,476.9037345999968,None,478.23962940002093,479.8079695000197,0.8600000000000005,479.8414546000422,None,480.5930446999846,None,,,,,,,[1.56922222],2.950000000000002,0.7444444444444445,11006,002,2024_Jan_01_1739,MFTM_A_new1021,2021.2.3,59.93022922610245,
,,,,,,,,stim/Instruction_adaptive.png,conditions/adaptive.xlsx,test,0.6,0.6,0.6,-0.6,-0.6,right,R,,,,,0,1,1,1,0,90,90,96,,,,,,,,,,,,,,,,,,,,,,,,,,,,,,,,,,,,,,,,,,,,481.0932390000089,None,right,1,1.8202190999872983,481.59419050003635,482.94649450003635,481.59419050003635,482.44521800003713,481.59419050003635,482.44521800003713,481.59419050003635,482.44521800003713,481.59419050003635,482.44521800003713,481.59419050003635,482.44521800003713,482.4287699999986,482.92964879999636,482.4287699999986,482.92964879999636,482.4287699999986,482.92964879999636,482.4287699999986,482.92964879999636,482.4287699999986,482.92964879999636,482.4287699999986,482.92964879999636,482.4287699999986,482.92964879999636,482.4287699999986,482.92964879999636,481.59419050003635,None,482.92964879999636,484.4984813000192,0.8500000000000005,484.51503960002447,None,485.26691960002063,None,,,,,,,[1.57010989],2.980000000000002,0.7472527472527473,11006,002,2024_Jan_01_1739,MFTM_A_new1021,2021.2.3,59.93022922610245,
,,,,,,,,stim/Instruction_adaptive.png,conditions/adaptive.xlsx,test,0.6,0.6,0.6,-0.6,-0.6,right,R,,,,,0,1,1,1,0,91,91,74,,,,,,,,,,,,,,,,,,,,,,,,,,,,,,,,,,,,,,,,,,,,485.7668123000185,None,right,1,1.6981563000008464,486.26801550004166,487.6029358000378,486.26801550004166,487.102191700018,486.26801550004166,487.102191700018,486.26801550004166,487.102191700018,486.26801550004166,487.102191700018,486.26801550004166,487.102191700018,487.0859902999946,487.5866718000034,487.0859902999946,487.5866718000034,487.0859902999946,487.5866718000034,487.0859902999946,487.5866718000034,487.0859902999946,487.5866718000034,487.0859902999946,487.5866718000034,487.0859902999946,487.5866718000034,487.0859902999946,487.5866718000034,486.26801550004166,None,487.5866718000034,None,0.8300000000000005,489.17191570001887,None,489.92339230002835,None,,,,,,,[1.57119565],3.000000000000002,0.75,11006,002,2024_Jan_01_1739,MFTM_A_new1021,2021.2.3,59.93022922610245,
,,,,,,,,stim/Instruction_adaptive.png,conditions/adaptive.xlsx,test,0.6,0.6,0.6,-0.6,-0.6,right,R,,,,,0,1,1,1,0,92,92,38,,,,,,,,,,,,,,,,,,,,,,,,,,,,,,,,,,,,,,,,,,,,490.42442950000986,None,right,1,1.5927401999942958,490.92485760001,492.2597481000121,490.92485760001,491.7597561000148,490.92485760001,491.7597561000148,490.92485760001,491.7597561000148,490.92485760001,491.7597561000148,490.92485760001,491.7597561000148,491.72586360003334,492.22691710002255,491.72586360003334,492.22691710002255,491.72586360003334,492.22691710002255,491.72586360003334,492.22691710002255,491.72586360003334,492.22691710002255,491.72586360003334,492.22691710002255,491.72586360003334,492.22691710002255,491.72586360003334,492.22691710002255,490.92485760001,None,492.22691710002255,493.81202120002126,0.8200000000000005,493.82967310003005,None,494.5814040999976,None,,,,,,,[1.57236559],3.0200000000000022,0.7526881720430108,11006,002,2024_Jan_01_1739,MFTM_A_new1021,2021.2.3,59.93022922610245,
,,,,,,,,stim/Instruction_adaptive.png,conditions/adaptive.xlsx,test,-0.6,-0.6,-0.6,0.6,0.6,left,L,,,,,0,1,1,1,0,93,93,59,,,,,,,,,,,,,,,,,,,,,,,,,,,,,,,,,,,,,,,,,,,,495.08095149998553,None,left,1,2.0154707999899983,495.58190200000536,496.90020090003964,495.58190200000536,496.39904049999313,495.58190200000536,496.39904049999313,495.58190200000536,496.39904049999313,495.58190200000536,496.39904049999313,495.58190200000536,496.39904049999313,496.36594859999605,496.86726369999815,496.36594859999605,496.86726369999815,496.36594859999605,496.86726369999815,496.36594859999605,496.86726369999815,496.36594859999605,496.86726369999815,496.36594859999605,496.86726369999815,496.36594859999605,496.86726369999815,496.36594859999605,496.86726369999815,495.58190200000536,None,496.86726369999815,498.45216370001435,0.8100000000000005,498.4689251999953,None,499.2208547000191,None,,,,,,,[1.57361702],3.0400000000000023,0.7553191489361702,11006,002,2024_Jan_01_1739,MFTM_A_new1021,2021.2.3,59.93022922610245,
