arrwidth1,arrwidth2,arrwidth3,arrwidth4,arrwidth5,keyb,type,orientation,instruction_image,block_filename,block_type,arrow11,arrow22,arrow33,arrow44,arrow55,keyb_3,orientation3,trials.thisRepN,trials.thisTrialN,trials.thisN,trials.thisIndex,trials_3.thisRepN,trials_3.thisTrialN,trials_3.thisN,trials_3.thisIndex,trials_2.thisRepN,trials_2.thisTrialN,trials_2.thisN,trials_2.thisIndex,welcome.started,welcome.stopped,key_resp.keys,key_resp.rt,key_resp.started,key_resp.stopped,instruction_example.started,instruction_example.stopped,key_resp_3.keys,key_resp_3.rt,key_resp_3.started,key_resp_3.stopped,instruction_task.started,instruction_task.stopped,key_resp_2.keys,key_resp_2.rt,key_resp_2.started,key_resp_2.stopped,text_2.started,text_2.stopped,A1.started,A1.stopped,A2.started,A2.stopped,A3.started,A3.stopped,A4.started,A4.stopped,A5.started,A5.stopped,key_resp_4.keys,key_resp_4.corr,key_resp_4.rt,key_resp_4.started,key_resp_4.stopped,fb.started,fb.stopped,instruction_block.started,instruction_block.stopped,key_resp_8.keys,key_resp_8.rt,key_resp_8.started,key_resp_8.stopped,text_8.started,text_8.stopped,key_resp_9.keys,key_resp_9.corr,key_resp_9.rt,text_5.started,text_5.stopped,A11_3.started,A11_3.stopped,A22_2.started,A22_2.stopped,A33_2.started,A33_2.stopped,A44_2.started,A44_2.stopped,A55_2.started,A55_2.stopped,M1_3.started,M1_3.stopped,M2_2.started,M2_2.stopped,M3_2.started,M3_2.stopped,M4_2.started,M4_2.stopped,M5_2.started,M5_2.stopped,M6_2.started,M6_2.stopped,M7_2.started,M7_2.stopped,M8_2.started,M8_2.stopped,key_resp_9.started,key_resp_9.stopped,fixation.started,fixation.stopped,ET,fb_3.started,fb_3.stopped,text_9.started,text_9.stopped,fb_4.started,fb_4.stopped,text_7.started,text_7.stopped,endtext.started,endtext.stopped,fixation_ITI,CCC,Acc,participant,session,date,expName,psychopyVersion,frameRate,
,,,,,,,,,,,,,,,,,,,,,,,,,,,,,,10.788126899977215,None,down,13.511851800023578,10.788126899977215,None,,,,,,,,,,,,,,,,,,,,,,,,,,,,,,,,,,,,,,,,,,,,,,,,,,,,,,,,,,,,,,,,,,,,,,,,,,,,,,,,,,,,,,,,,11007,001,2024_Jan_01_1411,MFTM_A_new1021,2021.2.3,59.48815205741747,
,,,,,,,,,,,,,,,,,,,,,,,,,,,,,,,,,,,,24.325100899965037,None,down,27.51929209998343,24.325100899965037,None,,,,,,,,,,,,,,,,,,,,,,,,,,,,,,,,,,,,,,,,,,,,,,,,,,,,,,,,,,,,,,,,,,,,,,,,,,,,,,,,,,,11007,001,2024_Jan_01_1411,MFTM_A_new1021,2021.2.3,59.48815205741747,
,,,,,,,,,,,,,,,,,,,,,,,,,,,,,,,,,,,,,,,,,,51.86647129995981,None,down,10.546437599987257,51.86647129995981,None,,,,,,,,,,,,,,,,,,,,,,,,,,,,,,,,,,,,,,,,,,,,,,,,,,,,,,,,,,,,,,,,,,,,,,,,,,,,,11007,001,2024_Jan_01_1411,MFTM_A_new1021,2021.2.3,59.48815205741747,
0.6,0.6,0.6,-0.6,-0.6,right,3:2,R,,,,,,,,,,,0,0,0,0,,,,,,,,,,,,,,,,,,,,,,,,,,,62.448072500003036,None,62.448072500003036,None,62.448072500003036,None,62.448072500003036,None,62.448072500003036,None,62.448072500003036,None,right,1,2.2440773000125773,62.448072500003036,None,64.73605730000418,None,,,,,,,,,,,,,,,,,,,,,,,,,,,,,,,,,,,,,,,,,,,,,,,,,,,,,,,,,,11007,001,2024_Jan_01_1411,MFTM_A_new1021,2021.2.3,59.48815205741747,
-0.6,-0.6,-0.6,0.6,0.6,left,3:2,L,,,,,,,,,,,0,1,1,1,,,,,,,,,,,,,,,,,,,,,,,,,,,65.48583009996219,None,65.48583009996219,None,65.48583009996219,None,65.48583009996219,None,65.48583009996219,None,65.48583009996219,None,left,1,4.15852850000374,65.48583009996219,None,69.65873470000224,None,,,,,,,,,,,,,,,,,,,,,,,,,,,,,,,,,,,,,,,,,,,,,,,,,,,,,,,,,,11007,001,2024_Jan_01_1411,MFTM_A_new1021,2021.2.3,59.48815205741747,
0.6,0.6,0.6,-0.6,-0.6,right,3:2,R,,,,,,,,,,,1,0,2,0,,,,,,,,,,,,,,,,,,,,,,,,,,,70.40986419998808,None,70.40986419998808,None,70.40986419998808,None,70.40986419998808,None,70.40986419998808,None,70.40986419998808,None,right,1,1.4668338000192307,70.40986419998808,None,71.89528840000276,None,,,,,,,,,,,,,,,,,,,,,,,,,,,,,,,,,,,,,,,,,,,,,,,,,,,,,,,,,,11007,001,2024_Jan_01_1411,MFTM_A_new1021,2021.2.3,59.48815205741747,
-0.6,-0.6,-0.6,0.6,0.6,left,3:2,L,,,,,,,,,,,1,1,3,1,,,,,,,,,,,,,,,,,,,,,,,,,,,72.64688640000531,None,72.64688640000531,None,72.64688640000531,None,72.64688640000531,None,72.64688640000531,None,72.64688640000531,None,left,1,1.7732508999761194,72.64688640000531,None,74.44914399995469,None,,,,,,,,,,,,,,,,,,,,,,,,,,,,,,,,,,,,,,,,,,,,,,,,,,,,,,,,,,11007,001,2024_Jan_01_1411,MFTM_A_new1021,2021.2.3,59.48815205741747,
,,,,,,,,stim/Instruction_mask.png,conditions/adaptive.xlsx,practice,-0.6,-0.6,-0.6,0.6,0.6,left,L,,,,,0,0,0,0,0,0,0,77,,,,,,,,,,,,,,,,,,,,,,,,,,,,,,,,,,,,,,75.45063179999124,None,down,39.42583020002348,75.45063179999124,None,114.97641239996301,None,left,1,3.394356600008905,115.40980789996684,None,115.40980789996684,118.41422869998496,115.40980789996684,118.41422869998496,115.40980789996684,118.41422869998496,115.40980789996684,118.41422869998496,115.40980789996684,118.41422869998496,118.39775649999501,118.89837249997072,118.39775649999501,118.89837249997072,118.39775649999501,118.89837249997072,118.39775649999501,118.89837249997072,118.39775649999501,118.89837249997072,118.39775649999501,118.89837249997072,118.39775649999501,118.89837249997072,118.39775649999501,118.89837249997072,115.40980789996684,None,118.89837249997072,118.89837249997072,3,118.91496979998192,None,119.66632530000061,None,,,,,,,,,,11007,001,2024_Jan_01_1411,MFTM_A_new1021,2021.2.3,59.48815205741747,
,,,,,,,,stim/Instruction_mask.png,conditions/adaptive.xlsx,practice,-0.6,-0.6,-0.6,0.6,0.6,left,L,,,,,0,0,0,0,0,1,1,71,,,,,,,,,,,,,,,,,,,,,,,,,,,,,,,,,,,,,,,,,,,,120.1670737999957,None,left,1,2.0407615999574773,120.66810569999507,122.67065889999503,120.66810569999507,122.17022789997282,120.66810569999507,122.17022789997282,120.66810569999507,122.17022789997282,120.66810569999507,122.17022789997282,120.66810569999507,122.17022789997282,122.153350699984,122.65463329997147,122.153350699984,122.65463329997147,122.153350699984,122.65463329997147,122.153350699984,122.65463329997147,122.153350699984,122.65463329997147,122.153350699984,122.65463329997147,122.153350699984,122.65463329997147,122.153350699984,122.65463329997147,120.66810569999507,None,122.65463329997147,124.15664619999006,1.5,124.1731253999751,None,124.92395679996116,None,,,,,,,,,,11007,001,2024_Jan_01_1411,MFTM_A_new1021,2021.2.3,59.48815205741747,
,,,,,,,,stim/Instruction_mask.png,conditions/adaptive.xlsx,practice,0.6,0.6,0.6,-0.6,-0.6,right,R,,,,,0,0,0,0,0,2,2,24,,,,,,,,,,,,,,,,,,,,,,,,,,,,,,,,,,,,,,,,,,,,125.42528769996716,None,right,1,1.3580615000100806,125.92603559995769,127.22823509998852,125.92603559995769,126.72735689999536,125.92603559995769,126.72735689999536,125.92603559995769,126.72735689999536,125.92603559995769,126.72735689999536,125.92603559995769,126.72735689999536,126.71056409995072,127.211356099986,126.71056409995072,127.211356099986,126.71056409995072,127.211356099986,126.71056409995072,127.211356099986,126.71056409995072,127.211356099986,126.71056409995072,127.211356099986,126.71056409995072,127.211356099986,126.71056409995072,127.211356099986,125.92603559995769,None,127.211356099986,129.4150598999695,0.8,129.43141540000215,None,130.18193679995602,None,,,,,,,,,,11007,001,2024_Jan_01_1411,MFTM_A_new1021,2021.2.3,59.48815205741747,
,,,,,,,,stim/Instruction_mask.png,conditions/adaptive.xlsx,practice,0.6,0.6,0.6,-0.6,-0.6,right,R,,,,,0,0,0,0,0,3,3,96,,,,,,,,,,,,,,,,,,,,,,,,,,,,,,,,,,,,,,,,,,,,130.68326379999053,None,left,0,1.9333105999976397,131.18324049998773,131.93467930000043,131.18324049998773,131.4341313999612,131.18324049998773,131.4341313999612,131.18324049998773,131.4341313999612,131.18324049998773,131.4341313999612,131.18324049998773,131.4341313999612,131.4170693999622,131.91777040000306,131.4170693999622,131.91777040000306,131.4170693999622,131.91777040000306,131.4170693999622,131.91777040000306,131.4170693999622,131.91777040000306,131.4170693999622,131.91777040000306,131.4170693999622,131.91777040000306,131.4170693999622,131.91777040000306,131.18324049998773,None,131.91777040000306,134.6726257999544,3,134.68839149997802,None,135.44039339997107,None,,,,,,,,,,11007,001,2024_Jan_01_1411,MFTM_A_new1021,2021.2.3,59.48815205741747,
,,,,,,,,stim/Instruction_mask.png,conditions/adaptive.xlsx,practice,,,,,,,,,,,,0,0,0,0,,,,,,,,,,,,,,,,,,,,,,,,,,,,,,,,,,,,,,,,,,,,,,,,,,,,,,,,,,,,,,,,,,,,,,,,,,,,,,,,,,,,,,,,,,135.9739314999897,136.9764196999604,136.95868769998197,136.95868769998197,136.95868769998197,None,,,,11007,001,2024_Jan_01_1411,MFTM_A_new1021,2021.2.3,59.48815205741747,
,,,,,,,,stim/Instruction_adaptive.png,conditions/adaptive.xlsx,test,-0.6,-0.6,-0.6,0.6,0.6,left,L,,,,,0,1,1,1,0,0,0,15,,,,,,,,,,,,,,,,,,,,,,,,,,,,,,,,,,,,,,140.1129588999902,None,down,24.083719500049483,140.1129588999902,None,164.23168929998064,None,left,1,1.647507300018333,164.73295729997335,None,164.73295729997335,167.73814400000265,164.73295729997335,167.73814400000265,164.73295729997335,167.73814400000265,164.73295729997335,167.73814400000265,164.73295729997335,167.73814400000265,167.7209135000012,168.2219126999844,167.7209135000012,168.2219126999844,167.7209135000012,168.2219126999844,167.7209135000012,168.2219126999844,167.7209135000012,168.2219126999844,167.7209135000012,168.2219126999844,167.7209135000012,168.2219126999844,167.7209135000012,168.2219126999844,164.73295729997335,None,168.2219126999844,168.2219126999844,3,168.23808779998217,None,168.99002209998434,None,,,,,,,0,6.000000000000005,1.0,11007,001,2024_Jan_01_1411,MFTM_A_new1021,2021.2.3,59.48815205741747,
,,,,,,,,stim/Instruction_adaptive.png,conditions/adaptive.xlsx,test,0.6,0.6,0.6,-0.6,-0.6,right,R,,,,,0,1,1,1,0,1,1,2,,,,,,,,,,,,,,,,,,,,,,,,,,,,,,,,,,,,,,,,,,,,169.49063249997562,None,right,1,1.1662605999736115,169.99072589998832,170.74179949995596,169.99072589998832,170.2415214999928,169.99072589998832,170.2415214999928,169.99072589998832,170.2415214999928,169.99072589998832,170.2415214999928,169.99072589998832,170.2415214999928,170.22496139997384,170.72565919999033,170.22496139997384,170.72565919999033,170.22496139997384,170.72565919999033,170.22496139997384,170.72565919999033,170.22496139997384,170.72565919999033,170.22496139997384,170.72565919999033,170.22496139997384,170.72565919999033,170.22496139997384,170.72565919999033,169.99072589998832,None,170.72565919999033,171.60980819998076,0.25,171.62649850000162,None,172.37878759996966,None,,,,,,,[0.875],6.000000000000005,1.0,11007,001,2024_Jan_01_1411,MFTM_A_new1021,2021.2.3,59.48815205741747,
,,,,,,,,stim/Instruction_adaptive.png,conditions/adaptive.xlsx,test,0.6,0.6,0.6,-0.6,-0.6,right,R,,,,,0,1,1,1,0,2,2,76,,,,,,,,,,,,,,,,,,,,,,,,,,,,,,,,,,,,,,,,,,,,172.8791483999812,None,right,1,0.8249397000181489,173.37912309996318,174.13123469997663,173.37912309996318,173.62945249996847,173.37912309996318,173.62945249996847,173.37912309996318,173.62945249996847,173.37912309996318,173.62945249996847,173.37912309996318,173.62945249996847,173.61308469995856,174.11354959994787,173.61308469995856,174.11354959994787,173.61308469995856,174.11354959994787,173.61308469995856,174.11354959994787,173.61308469995856,174.11354959994787,173.61308469995856,174.11354959994787,173.61308469995856,174.11354959994787,173.61308469995856,174.11354959994787,173.37912309996318,None,174.11354959994787,175.44860279996647,0.25,175.4661696999683,None,176.2171673999983,None,,,,,,,[1.33333333],6.000000000000005,1.0,11007,001,2024_Jan_01_1411,MFTM_A_new1021,2021.2.3,59.48815205741747,
,,,,,,,,stim/Instruction_adaptive.png,conditions/adaptive.xlsx,test,0.6,0.6,0.6,-0.6,-0.6,right,R,,,,,0,1,1,1,0,3,3,4,,,,,,,,,,,,,,,,,,,,,,,,,,,,,,,,,,,,,,,,,,,,176.71734909998486,None,left,0,1.218334000033792,177.21822559996508,177.9698407999822,177.21822559996508,177.46865279995836,177.21822559996508,177.46865279995836,177.21822559996508,177.46865279995836,177.21822559996508,177.46865279995836,177.21822559996508,177.46865279995836,177.4515274000005,177.95259659999283,177.4515274000005,177.95259659999283,177.4515274000005,177.95259659999283,177.4515274000005,177.95259659999283,177.4515274000005,177.95259659999283,177.4515274000005,177.95259659999283,177.4515274000005,177.95259659999283,177.4515274000005,177.95259659999283,177.21822559996508,None,177.95259659999283,179.52308359998278,0.25,179.5375778999878,None,180.28953660000116,None,,,,,,,[1.5625],4.030000000000003,0.75,11007,001,2024_Jan_01_1411,MFTM_A_new1021,2021.2.3,59.48815205741747,
,,,,,,,,stim/Instruction_adaptive.png,conditions/adaptive.xlsx,test,-0.6,-0.6,-0.6,0.6,0.6,left,L,,,,,0,1,1,1,0,4,4,5,,,,,,,,,,,,,,,,,,,,,,,,,,,,,,,,,,,,,,,,,,,,180.79019219998736,None,right,0,2.1219780999817885,181.29061189998174,182.19275919999927,181.29061189998174,181.6921689999872,181.29061189998174,181.6921689999872,181.29061189998174,181.6921689999872,181.29061189998174,181.6921689999872,181.29061189998174,181.6921689999872,181.67454330000328,182.1759788999916,181.67454330000328,182.1759788999916,181.67454330000328,182.1759788999916,181.67454330000328,182.1759788999916,181.67454330000328,182.1759788999916,181.67454330000328,182.1759788999916,181.67454330000328,182.1759788999916,181.67454330000328,182.1759788999916,181.29061189998174,None,182.1759788999916,None,0.40000000000000013,183.86110439995537,None,184.61313079996035,None,,,,,,,[1.67],2.5100000000000016,0.6,11007,001,2024_Jan_01_1411,MFTM_A_new1021,2021.2.3,59.48815205741747,
,,,,,,,,stim/Instruction_adaptive.png,conditions/adaptive.xlsx,test,-0.6,-0.6,-0.6,0.6,0.6,left,L,,,,,0,1,1,1,0,5,5,59,,,,,,,,,,,,,,,,,,,,,,,,,,,,,,,,,,,,,,,,,,,,185.11349839996547,None,left,1,1.5191315000411123,185.6138506999705,187.2663602999528,185.6138506999705,186.76560019998578,185.6138506999705,186.76560019998578,185.6138506999705,186.76560019998578,185.6138506999705,186.76560019998578,185.6138506999705,186.76560019998578,186.74894289998338,187.24965749995317,186.74894289998338,187.24965749995317,186.74894289998338,187.24965749995317,186.74894289998338,187.24965749995317,186.74894289998338,187.24965749995317,186.74894289998338,187.24965749995317,186.74894289998338,187.24965749995317,186.74894289998338,187.24965749995317,185.6138506999705,None,187.24965749995317,188.60270419996232,1.1500000000000008,188.6183690999751,None,189.36971479997737,None,,,,,,,[[1.35]],3.1700000000000026,0.6666666666666666,11007,001,2024_Jan_01_1411,MFTM_A_new1021,2021.2.3,59.48815205741747,
,,,,,,,,stim/Instruction_adaptive.png,conditions/adaptive.xlsx,test,-0.6,-0.6,-0.6,0.6,0.6,left,L,,,,,0,1,1,1,0,6,6,13,,,,,,,,,,,,,,,,,,,,,,,,,,,,,,,,,,,,,,,,,,,,189.87093819997972,None,right,0,1.505363899981603,190.37083869997878,191.6073426999501,190.37083869997878,191.10525540000526,190.37083869997878,191.10525540000526,190.37083869997878,191.10525540000526,190.37083869997878,191.10525540000526,190.37083869997878,191.10525540000526,191.08874969999306,191.58974629995646,191.08874969999306,191.58974629995646,191.08874969999306,191.58974629995646,191.08874969999306,191.58974629995646,191.08874969999306,191.58974629995646,191.08874969999306,191.58974629995646,191.08874969999306,191.58974629995646,191.08874969999306,191.58974629995646,190.37083869997878,None,191.58974629995646,None,0.7300000000000004,193.24123270000564,None,193.9931064999546,None,,,,,,,[1.63857143],2.0400000000000014,0.5714285714285714,11007,001,2024_Jan_01_1411,MFTM_A_new1021,2021.2.3,59.48815205741747,
,,,,,,,,stim/Instruction_adaptive.png,conditions/adaptive.xlsx,test,-0.6,-0.6,-0.6,0.6,0.6,left,L,,,,,0,1,1,1,0,7,7,25,,,,,,,,,,,,,,,,,,,,,,,,,,,,,,,,,,,,,,,,,,,,194.4937624000013,None,left,1,2.033246200007852,194.9948352999636,197.0974251999869,194.9948352999636,196.5974492999958,194.9948352999636,196.5974492999958,194.9948352999636,196.5974492999958,194.9948352999636,196.5974492999958,194.9948352999636,196.5974492999958,196.58120739995502,197.0806829999783,196.58120739995502,197.0806829999783,196.58120739995502,197.0806829999783,196.58120739995502,197.0806829999783,196.58120739995502,197.0806829999783,196.58120739995502,197.0806829999783,196.58120739995502,197.0806829999783,196.58120739995502,197.0806829999783,194.9948352999636,None,197.0806829999783,197.9835692999768,1.6000000000000012,197.99870979995467,None,198.75000159995398,None,,,,,,,[[0.9]],2.540000000000002,0.625,11007,001,2024_Jan_01_1411,MFTM_A_new1021,2021.2.3,59.48815205741747,
,,,,,,,,stim/Instruction_adaptive.png,conditions/adaptive.xlsx,test,0.6,0.6,0.6,-0.6,-0.6,right,R,,,,,0,1,1,1,0,8,8,96,,,,,,,,,,,,,,,,,,,,,,,,,,,,,,,,,,,,,,,,,,,,199.25161479995586,None,right,1,3.3562266000080854,199.7518521999591,201.38776999997208,199.7518521999591,200.88652179995552,199.7518521999591,200.88652179995552,199.7518521999591,200.88652179995552,199.7518521999591,200.88652179995552,199.7518521999591,200.88652179995552,200.87014959997032,201.37058759998763,200.87014959997032,201.37058759998763,200.87014959997032,201.37058759998763,200.87014959997032,201.37058759998763,200.87014959997032,201.37058759998763,200.87014959997032,201.37058759998763,200.87014959997032,201.37058759998763,200.87014959997032,201.37058759998763,199.7518521999591,None,201.37058759998763,203.12331009999616,1.1300000000000008,203.13963269995293,None,203.89193539996631,None,,,,,,,[[1.37]],2.870000000000002,0.6666666666666666,11007,001,2024_Jan_01_1411,MFTM_A_new1021,2021.2.3,59.48815205741747,
,,,,,,,,stim/Instruction_adaptive.png,conditions/adaptive.xlsx,test,-0.6,-0.6,-0.6,0.6,0.6,left,L,,,,,0,1,1,1,0,9,9,47,,,,,,,,,,,,,,,,,,,,,,,,,,,,,,,,,,,,,,,,,,,,204.392880600004,None,None,0,0,204.89305139996577,206.29520039999625,204.89305139996577,205.79437729995698,204.89305139996577,205.79437729995698,204.89305139996577,205.79437729995698,204.89305139996577,205.79437729995698,204.89305139996577,205.79437729995698,205.7769936999539,206.27845689997775,205.7769936999539,206.27845689997775,205.7769936999539,206.27845689997775,205.7769936999539,206.27845689997775,205.7769936999539,206.27845689997775,205.7769936999539,206.27845689997775,205.7769936999539,206.27845689997775,205.7769936999539,206.27845689997775,204.89305139996577,None,206.27845689997775,208.3812743999879,0.9000000000000006,208.39717249997193,None,209.14885179995326,None,,,,,,,[[2.1]],2.1400000000000015,0.6,11007,001,2024_Jan_01_1411,MFTM_A_new1021,2021.2.3,59.48815205741747,
,,,,,,,,stim/Instruction_adaptive.png,conditions/adaptive.xlsx,test,0.6,0.6,0.6,-0.6,-0.6,right,R,,,,,0,1,1,1,0,10,10,22,,,,,,,,,,,,,,,,,,,,,,,,,,,,,,,,,,,,,,,,,,,,209.6500190999941,None,right,1,1.3661467999918386,210.15086349996272,212.15379759995267,210.15086349996272,211.65292699995916,210.15086349996272,211.65292699995916,210.15086349996272,211.65292699995916,210.15086349996272,211.65292699995916,210.15086349996272,211.65292699995916,211.61888979998184,212.11974049999844,211.61888979998184,212.11974049999844,211.61888979998184,212.11974049999844,211.61888979998184,212.11974049999844,211.61888979998184,212.11974049999844,211.61888979998184,212.11974049999844,211.61888979998184,212.11974049999844,211.61888979998184,212.11974049999844,210.15086349996272,None,212.11974049999844,213.13865519996034,1.490000000000001,213.1547102999757,None,213.90643579995958,None,,,,,,,[[1.01]],2.4400000000000017,0.6363636363636364,11007,001,2024_Jan_01_1411,MFTM_A_new1021,2021.2.3,59.48815205741747,
,,,,,,,,stim/Instruction_adaptive.png,conditions/adaptive.xlsx,test,0.6,0.6,0.6,-0.6,-0.6,right,R,,,,,0,1,1,1,0,11,11,0,,,,,,,,,,,,,,,,,,,,,,,,,,,,,,,,,,,,,,,,,,,,214.40702069998952,None,right,1,1.5774082000134513,214.9072054999997,216.6271895999671,214.9072054999997,216.1256907999632,214.9072054999997,216.1256907999632,214.9072054999997,216.1256907999632,214.9072054999997,216.1256907999632,214.9072054999997,216.1256907999632,216.09245419997023,216.5933033999754,216.09245419997023,216.5933033999754,216.09245419997023,216.5933033999754,216.09245419997023,216.5933033999754,216.09245419997023,216.5933033999754,216.09245419997023,216.5933033999754,216.09245419997023,216.5933033999754,216.09245419997023,216.5933033999754,214.9072054999997,None,216.5933033999754,217.89568689995212,1.2100000000000009,217.91218200000003,None,218.66414720000466,None,,,,,,,[[1.29]],2.6700000000000017,0.6666666666666666,11007,001,2024_Jan_01_1411,MFTM_A_new1021,2021.2.3,59.48815205741747,
,,,,,,,,stim/Instruction_adaptive.png,conditions/adaptive.xlsx,test,0.6,0.6,0.6,-0.6,-0.6,right,R,,,,,0,1,1,1,0,12,12,98,,,,,,,,,,,,,,,,,,,,,,,,,,,,,,,,,,,,,,,,,,,,219.16431169997668,None,right,1,2.267318800033536,219.66521879995707,221.19995259999996,219.66521879995707,220.69986569997855,219.66521879995707,220.69986569997855,219.66521879995707,220.69986569997855,219.66521879995707,220.69986569997855,219.66521879995707,220.69986569997855,220.68291219999082,221.18345309997676,220.68291219999082,221.18345309997676,220.68291219999082,221.18345309997676,220.68291219999082,221.18345309997676,220.68291219999082,221.18345309997676,220.68291219999082,221.18345309997676,220.68291219999082,221.18345309997676,220.68291219999082,221.18345309997676,219.66521879995707,None,221.18345309997676,222.65207059995737,1.0300000000000007,222.66875259997323,None,223.4199686999782,None,,,,,,,[[1.47]],2.860000000000002,0.6923076923076923,11007,001,2024_Jan_01_1411,MFTM_A_new1021,2021.2.3,59.48815205741747,
,,,,,,,,stim/Instruction_adaptive.png,conditions/adaptive.xlsx,test,-0.6,-0.6,-0.6,0.6,0.6,left,L,,,,,0,1,1,1,0,13,13,99,,,,,,,,,,,,,,,,,,,,,,,,,,,,,,,,,,,,,,,,,,,,223.92133869999088,None,right,0,1.9356854999787174,224.42134499998065,225.84053519996814,224.42134499998065,225.33927619998576,224.42134499998065,225.33927619998576,224.42134499998065,225.33927619998576,224.42134499998065,225.33927619998576,224.42134499998065,225.33927619998576,225.32297599996673,225.82365969999228,225.32297599996673,225.82365969999228,225.32297599996673,225.82365969999228,225.32297599996673,225.82365969999228,225.32297599996673,225.82365969999228,225.32297599996673,225.82365969999228,225.32297599996673,225.82365969999228,225.32297599996673,225.82365969999228,224.42134499998065,None,225.82365969999228,None,0.9100000000000006,227.30898549995618,None,228.06076510000275,None,,,,,,,[1.47857143],2.3900000000000015,0.6428571428571429,11007,001,2024_Jan_01_1411,MFTM_A_new1021,2021.2.3,59.48815205741747,
,,,,,,,,stim/Instruction_adaptive.png,conditions/adaptive.xlsx,test,-0.6,-0.6,-0.6,0.6,0.6,left,L,,,,,0,1,1,1,0,14,14,3,,,,,,,,,,,,,,,,,,,,,,,,,,,,,,,,,,,,,,,,,,,,228.56142669997644,None,left,1,1.4787043000105768,229.0615835999488,230.83216429996537,229.0615835999488,230.33020109997597,229.0615835999488,230.33020109997597,229.0615835999488,230.33020109997597,229.0615835999488,230.33020109997597,229.0615835999488,230.33020109997597,230.29663159995107,230.79840809997404,230.29663159995107,230.79840809997404,230.29663159995107,230.79840809997404,230.29663159995107,230.79840809997404,230.29663159995107,230.79840809997404,230.29663159995107,230.79840809997404,230.29663159995107,230.79840809997404,230.29663159995107,230.79840809997404,229.0615835999488,None,230.79840809997404,232.04985119996127,1.260000000000001,232.0665588999982,None,232.8173826999846,None,,,,,,,[[1.24]],2.570000000000002,0.6666666666666666,11007,001,2024_Jan_01_1411,MFTM_A_new1021,2021.2.3,59.48815205741747,
,,,,,,,,stim/Instruction_adaptive.png,conditions/adaptive.xlsx,test,0.6,0.6,0.6,-0.6,-0.6,right,R,,,,,0,1,1,1,0,15,15,34,,,,,,,,,,,,,,,,,,,,,,,,,,,,,,,,,,,,,,,,,,,,233.31863169994904,None,left,0,1.4417987000197172,233.81867349997628,235.43886309996014,233.81867349997628,234.93743459996767,233.81867349997628,234.93743459996767,233.81867349997628,234.93743459996767,233.81867349997628,234.93743459996767,233.81867349997628,234.93743459996767,234.90358859999105,235.40544569998747,234.90358859999105,235.40544569998747,234.90358859999105,235.40544569998747,234.90358859999105,235.40544569998747,234.90358859999105,235.40544569998747,234.90358859999105,235.40544569998747,234.90358859999105,235.40544569998747,234.90358859999105,235.40544569998747,233.81867349997628,None,235.40544569998747,236.8069212999544,1.1100000000000008,236.82311879994813,None,237.57450609997613,None,,,,,,,[[1.39]],2.1000000000000014,0.625,11007,001,2024_Jan_01_1411,MFTM_A_new1021,2021.2.3,59.48815205741747,
,,,,,,,,stim/Instruction_adaptive.png,conditions/adaptive.xlsx,test,-0.6,-0.6,-0.6,0.6,0.6,left,L,,,,,0,1,1,1,0,16,16,43,,,,,,,,,,,,,,,,,,,,,,,,,,,,,,,,,,,,,,,,,,,,238.07567259995267,None,left,1,1.7011638999683782,238.5756846999866,240.61209399998188,238.5756846999866,240.11132169998018,238.5756846999866,240.11132169998018,238.5756846999866,240.11132169998018,238.5756846999866,240.11132169998018,238.5756846999866,240.11132169998018,240.09462559997337,240.59662379999645,240.09462559997337,240.59662379999645,240.09462559997337,240.59662379999645,240.09462559997337,240.59662379999645,240.09462559997337,240.59662379999645,240.09462559997337,240.59662379999645,240.09462559997337,240.59662379999645,240.09462559997337,240.59662379999645,238.5756846999866,None,240.59662379999645,None,1.5300000000000011,241.58092979999492,None,242.33328389999224,None,,,,,,,[[0.97]],2.290000000000002,0.6470588235294118,11007,001,2024_Jan_01_1411,MFTM_A_new1021,2021.2.3,59.48815205741747,
,,,,,,,,stim/Instruction_adaptive.png,conditions/adaptive.xlsx,test,-0.6,-0.6,-0.6,0.6,0.6,left,L,,,,,0,1,1,1,0,17,17,71,,,,,,,,,,,,,,,,,,,,,,,,,,,,,,,,,,,,,,,,,,,,242.83231329999398,None,left,1,1.1986943000229076,243.33373589999974,245.1862013999489,243.33373589999974,244.685477299965,243.33373589999974,244.685477299965,243.33373589999974,244.685477299965,243.33373589999974,244.685477299965,243.33373589999974,244.685477299965,244.66805159999058,245.16942599997856,244.66805159999058,245.16942599997856,244.66805159999058,245.16942599997856,244.66805159999058,245.16942599997856,244.66805159999058,245.16942599997856,244.66805159999058,245.16942599997856,244.66805159999058,245.16942599997856,244.66805159999058,245.16942599997856,243.33373589999974,None,245.16942599997856,246.32102419994771,1.350000000000001,246.33719170000404,None,247.08898729999783,None,,,,,,,[[1.15]],2.4400000000000017,0.6666666666666666,11007,001,2024_Jan_01_1411,MFTM_A_new1021,2021.2.3,59.48815205741747,
,,,,,,,,stim/Instruction_adaptive.png,conditions/adaptive.xlsx,test,-0.6,-0.6,-0.6,0.6,0.6,left,L,,,,,0,1,1,1,0,18,18,97,,,,,,,,,,,,,,,,,,,,,,,,,,,,,,,,,,,,,,,,,,,,247.58903360000113,None,left,1,1.3144580000080168,248.08999670000048,249.8093820999493,248.08999670000048,249.30858089996036,248.08999670000048,249.30858089996036,248.08999670000048,249.30858089996036,248.08999670000048,249.30858089996036,248.08999670000048,249.30858089996036,249.27528199995868,249.77589839999564,249.27528199995868,249.77589839999564,249.27528199995868,249.77589839999564,249.27528199995868,249.77589839999564,249.27528199995868,249.77589839999564,249.27528199995868,249.77589839999564,249.27528199995868,249.77589839999564,249.27528199995868,249.77589839999564,248.08999670000048,None,249.77589839999564,251.07896569999866,1.2100000000000009,251.09416949999286,None,251.84610739996424,None,,,,,,,[[1.29]],2.570000000000002,0.6842105263157895,11007,001,2024_Jan_01_1411,MFTM_A_new1021,2021.2.3,59.48815205741747,
,,,,,,,,stim/Instruction_adaptive.png,conditions/adaptive.xlsx,test,0.6,0.6,0.6,-0.6,-0.6,right,R,,,,,0,1,1,1,0,19,19,50,,,,,,,,,,,,,,,,,,,,,,,,,,,,,,,,,,,,,,,,,,,,252.3469061999931,None,left,0,1.2131720999605022,252.8470846999553,254.46578470000532,252.8470846999553,253.965850699984,252.8470846999553,253.965850699984,252.8470846999553,253.965850699984,252.8470846999553,253.965850699984,252.8470846999553,253.965850699984,253.93172189994948,254.43314609996742,253.93172189994948,254.43314609996742,253.93172189994948,254.43314609996742,253.93172189994948,254.43314609996742,253.93172189994948,254.43314609996742,253.93172189994948,254.43314609996742,253.93172189994948,254.43314609996742,253.93172189994948,254.43314609996742,252.8470846999553,None,254.43314609996742,255.83520390000194,1.1100000000000008,255.85178490000544,None,256.6033546999679,None,,,,,,,[[1.39]],2.2200000000000015,0.65,11007,001,2024_Jan_01_1411,MFTM_A_new1021,2021.2.3,59.48815205741747,
,,,,,,,,stim/Instruction_adaptive.png,conditions/adaptive.xlsx,test,0.6,0.6,0.6,-0.6,-0.6,right,R,,,,,0,1,1,1,0,20,20,20,,,,,,,,,,,,,,,,,,,,,,,,,,,,,,,,,,,,,,,,,,,,257.10383729997557,None,right,1,1.3198704000096768,257.60468549997313,259.5239416999975,257.60468549997313,259.0228553999914,257.60468549997313,259.0228553999914,257.60468549997313,259.0228553999914,257.60468549997313,259.0228553999914,257.60468549997313,259.0228553999914,258.98992009996437,259.49069239996606,258.98992009996437,259.49069239996606,258.98992009996437,259.49069239996606,258.98992009996437,259.49069239996606,258.98992009996437,259.49069239996606,258.98992009996437,259.49069239996606,258.98992009996437,259.49069239996606,258.98992009996437,259.49069239996606,257.60468549997313,None,259.49069239996606,260.5915140999714,1.410000000000001,260.6081861999701,None,261.36012699996354,None,,,,,,,[[1.09]],2.3500000000000014,0.6666666666666666,11007,001,2024_Jan_01_1411,MFTM_A_new1021,2021.2.3,59.48815205741747,
,,,,,,,,stim/Instruction_adaptive.png,conditions/adaptive.xlsx,test,-0.6,-0.6,-0.6,0.6,0.6,left,L,,,,,0,1,1,1,0,21,21,75,,,,,,,,,,,,,,,,,,,,,,,,,,,,,,,,,,,,,,,,,,,,261.86068250000244,None,right,0,2.3951995000243187,262.3610238999827,264.16458339995006,262.3610238999827,263.66312449995894,262.3610238999827,263.66312449995894,262.3610238999827,263.66312449995894,262.3610238999827,263.66312449995894,262.3610238999827,263.66312449995894,263.63004530000035,264.13106929999776,263.63004530000035,264.13106929999776,263.63004530000035,264.13106929999776,263.63004530000035,264.13106929999776,263.63004530000035,264.13106929999776,263.63004530000035,264.13106929999776,263.63004530000035,264.13106929999776,263.63004530000035,264.13106929999776,262.3610238999827,None,264.13106929999776,265.34944029996404,1.290000000000001,265.36478539998643,None,266.1168547999696,None,,,,,,,[[1.21]],2.0000000000000013,0.6363636363636364,11007,001,2024_Jan_01_1411,MFTM_A_new1021,2021.2.3,59.48815205741747,
,,,,,,,,stim/Instruction_adaptive.png,conditions/adaptive.xlsx,test,0.6,0.6,0.6,-0.6,-0.6,right,R,,,,,0,1,1,1,0,22,22,88,,,,,,,,,,,,,,,,,,,,,,,,,,,,,,,,,,,,,,,,,,,,266.6181097999797,None,left,0,1.4390990000101738,267.1179514999967,269.271739799995,267.1179514999967,268.77035589999286,267.1179514999967,268.77035589999286,267.1179514999967,268.77035589999286,267.1179514999967,268.77035589999286,267.1179514999967,268.77035589999286,268.73706659994787,269.2380980000016,268.73706659994787,269.2380980000016,268.73706659994787,269.2380980000016,268.73706659994787,269.2380980000016,268.73706659994787,269.2380980000016,268.73706659994787,269.2380980000016,268.73706659994787,269.2380980000016,268.73706659994787,269.2380980000016,267.1179514999967,None,269.2380980000016,270.1065091000055,1.6400000000000012,270.1224905999843,None,270.87453859997913,None,,,,,,,[[0.86]],1.550000000000001,0.6086956521739131,11007,001,2024_Jan_01_1411,MFTM_A_new1021,2021.2.3,59.48815205741747,
,,,,,,,,stim/Instruction_adaptive.png,conditions/adaptive.xlsx,test,-0.6,-0.6,-0.6,0.6,0.6,left,L,,,,,0,1,1,1,0,23,23,9,,,,,,,,,,,,,,,,,,,,,,,,,,,,,,,,,,,,,,,,,,,,271.37503609998384,None,left,1,1.2890539000509307,271.87575690000085,274.6290868999786,271.87575690000085,274.1282135999645,271.87575690000085,274.1282135999645,271.87575690000085,274.1282135999645,271.87575690000085,274.1282135999645,271.87575690000085,274.1282135999645,274.1116260999697,274.6125119999633,274.1116260999697,274.6125119999633,274.1116260999697,274.6125119999633,274.1116260999697,274.6125119999633,274.1116260999697,274.6125119999633,274.1116260999697,274.6125119999633,274.1116260999697,274.6125119999633,274.1116260999697,274.6125119999633,271.87575690000085,None,274.6125119999633,274.86358329997165,2.2500000000000018,274.87938479997683,None,275.6313359999913,None,,,,,,,[[0.25]],1.730000000000001,0.625,11007,001,2024_Jan_01_1411,MFTM_A_new1021,2021.2.3,59.48815205741747,
,,,,,,,,stim/Instruction_adaptive.png,conditions/adaptive.xlsx,test,-0.6,-0.6,-0.6,0.6,0.6,left,L,,,,,0,1,1,1,0,24,24,89,,,,,,,,,,,,,,,,,,,,,,,,,,,,,,,,,,,,,,,,,,,,276.1318404999911,None,left,1,2.915827899996657,276.63284009997733,279.1197248999961,276.63284009997733,278.6189737999812,276.63284009997733,278.6189737999812,276.63284009997733,278.6189737999812,276.63284009997733,278.6189737999812,276.63284009997733,278.6189737999812,278.6019650999806,279.1034379999619,278.6019650999806,279.1034379999619,278.6019650999806,279.1034379999619,278.6019650999806,279.1034379999619,278.6019650999806,279.1034379999619,278.6019650999806,279.1034379999619,278.6019650999806,279.1034379999619,278.6019650999806,279.1034379999619,276.63284009997733,None,279.1034379999619,None,1.9800000000000015,279.63647440000204,None,280.3877101999824,None,,,,,,,[[0.52]],1.8700000000000012,0.64,11007,001,2024_Jan_01_1411,MFTM_A_new1021,2021.2.3,59.48815205741747,
,,,,,,,,stim/Instruction_adaptive.png,conditions/adaptive.xlsx,test,0.6,0.6,0.6,-0.6,-0.6,right,R,,,,,0,1,1,1,0,25,25,78,,,,,,,,,,,,,,,,,,,,,,,,,,,,,,,,,,,,,,,,,,,,280.8892733999528,None,right,1,1.7515477999695577,281.38966339995386,283.6927336999797,281.38966339995386,283.1924212999875,281.38966339995386,283.1924212999875,281.38966339995386,283.1924212999875,281.38966339995386,283.1924212999875,281.38966339995386,283.1924212999875,283.17548380000517,283.6766407999676,283.17548380000517,283.6766407999676,283.17548380000517,283.6766407999676,283.17548380000517,283.6766407999676,283.17548380000517,283.6766407999676,283.17548380000517,283.6766407999676,283.17548380000517,283.6766407999676,283.17548380000517,283.6766407999676,281.38966339995386,None,283.6766407999676,284.37760059995344,1.8000000000000014,284.3937117999885,None,285.1457218999858,None,,,,,,,[[0.7]],2.0000000000000013,0.6538461538461539,11007,001,2024_Jan_01_1411,MFTM_A_new1021,2021.2.3,59.48815205741747,
,,,,,,,,stim/Instruction_adaptive.png,conditions/adaptive.xlsx,test,-0.6,-0.6,-0.6,0.6,0.6,left,L,,,,,0,1,1,1,0,26,26,35,,,,,,,,,,,,,,,,,,,,,,,,,,,,,,,,,,,,,,,,,,,,285.6462369999499,None,left,1,1.6101693999953568,286.1462668000022,288.30004119995283,286.1462668000022,287.7992404999677,286.1462668000022,287.7992404999677,286.1462668000022,287.7992404999677,286.1462668000022,287.7992404999677,286.1462668000022,287.7992404999677,287.7659317999496,288.2667278999579,287.7659317999496,288.2667278999579,287.7659317999496,288.2667278999579,287.7659317999496,288.2667278999579,287.7659317999496,288.2667278999579,287.7659317999496,288.2667278999579,287.7659317999496,288.2667278999579,287.7659317999496,288.2667278999579,286.1462668000022,None,288.2667278999579,289.13469279999845,1.6400000000000012,289.15146500000264,None,289.9027116999496,None,,,,,,,[[0.86]],2.1000000000000014,0.6666666666666666,11007,001,2024_Jan_01_1411,MFTM_A_new1021,2021.2.3,59.48815205741747,
,,,,,,,,stim/Instruction_adaptive.png,conditions/adaptive.xlsx,test,-0.6,-0.6,-0.6,0.6,0.6,left,L,,,,,0,1,1,1,0,27,27,7,,,,,,,,,,,,,,,,,,,,,,,,,,,,,,,,,,,,,,,,,,,,290.4028335000039,None,left,1,1.3966639999998733,290.9036373999552,292.9401733999839,290.9036373999552,292.43918649997795,290.9036373999552,292.43918649997795,290.9036373999552,292.43918649997795,290.9036373999552,292.43918649997795,290.9036373999552,292.43918649997795,292.42250819999026,292.9236585999606,292.42250819999026,292.9236585999606,292.42250819999026,292.9236585999606,292.42250819999026,292.9236585999606,292.42250819999026,292.9236585999606,292.42250819999026,292.9236585999606,292.42250819999026,292.9236585999606,292.42250819999026,292.9236585999606,290.9036373999552,None,292.9236585999606,None,1.5300000000000011,293.9083394999616,None,294.6594278999837,None,,,,,,,[[0.97]],2.2000000000000015,0.6785714285714286,11007,001,2024_Jan_01_1411,MFTM_A_new1021,2021.2.3,59.48815205741747,
,,,,,,,,stim/Instruction_adaptive.png,conditions/adaptive.xlsx,test,-0.6,-0.6,-0.6,0.6,0.6,left,L,,,,,0,1,1,1,0,28,28,85,,,,,,,,,,,,,,,,,,,,,,,,,,,,,,,,,,,,,,,,,,,,295.16010330000427,None,left,1,1.6080367999966256,295.6603929999983,297.5965174000012,295.6603929999983,297.09641959995497,295.6603929999983,297.09641959995497,295.6603929999983,297.09641959995497,295.6603929999983,297.09641959995497,295.6603929999983,297.09641959995497,297.080224299978,297.5809978999896,297.080224299978,297.5809978999896,297.080224299978,297.5809978999896,297.080224299978,297.5809978999896,297.080224299978,297.5809978999896,297.080224299978,297.5809978999896,297.080224299978,297.5809978999896,297.080224299978,297.5809978999896,295.6603929999983,None,297.5809978999896,None,1.430000000000001,298.664762099972,None,299.4161757999682,None,,,,,,,[[1.07]],2.2800000000000016,0.6896551724137931,11007,001,2024_Jan_01_1411,MFTM_A_new1021,2021.2.3,59.48815205741747,
,,,,,,,,stim/Instruction_adaptive.png,conditions/adaptive.xlsx,test,0.6,0.6,0.6,-0.6,-0.6,right,R,,,,,0,1,1,1,0,29,29,80,,,,,,,,,,,,,,,,,,,,,,,,,,,,,,,,,,,,,,,,,,,,299.9172662999481,None,left,0,1.6029322000104003,300.41806429997087,302.2706390999956,300.41806429997087,301.77047210000455,300.41806429997087,301.77047210000455,300.41806429997087,301.77047210000455,300.41806429997087,301.77047210000455,300.41806429997087,301.77047210000455,301.752678299963,302.25408799998695,301.752678299963,302.25408799998695,301.752678299963,302.25408799998695,301.752678299963,302.25408799998695,301.752678299963,302.25408799998695,301.752678299963,302.25408799998695,301.752678299963,302.25408799998695,301.752678299963,302.25408799998695,300.41806429997087,None,302.25408799998695,303.40568789996905,1.350000000000001,303.42171909997705,None,304.1740687999991,None,,,,,,,[[1.15]],2.0500000000000016,0.6666666666666666,11007,001,2024_Jan_01_1411,MFTM_A_new1021,2021.2.3,59.48815205741747,
,,,,,,,,stim/Instruction_adaptive.png,conditions/adaptive.xlsx,test,0.6,0.6,0.6,-0.6,-0.6,right,R,,,,,0,1,1,1,0,30,30,10,,,,,,,,,,,,,,,,,,,,,,,,,,,,,,,,,,,,,,,,,,,,304.67447349999566,None,right,1,1.6937901999917813,305.17448019998847,307.27823469997384,305.17448019998847,306.7773597999476,305.17448019998847,306.7773597999476,305.17448019998847,306.7773597999476,305.17448019998847,306.7773597999476,305.17448019998847,306.7773597999476,306.744011999981,307.24465279997094,306.744011999981,307.24465279997094,306.744011999981,307.24465279997094,306.744011999981,307.24465279997094,306.744011999981,307.24465279997094,306.744011999981,307.24465279997094,306.744011999981,307.24465279997094,306.744011999981,307.24465279997094,305.17448019998847,None,307.24465279997094,308.16217470000265,1.5900000000000012,308.1796170999878,None,308.93030179996276,None,,,,,,,[[0.91]],2.1300000000000017,0.6774193548387096,11007,001,2024_Jan_01_1411,MFTM_A_new1021,2021.2.3,59.48815205741747,
,,,,,,,,stim/Instruction_adaptive.png,conditions/adaptive.xlsx,test,-0.6,-0.6,-0.6,0.6,0.6,left,L,,,,,0,1,1,1,0,31,31,1,,,,,,,,,,,,,,,,,,,,,,,,,,,,,,,,,,,,,,,,,,,,309.4310359999654,None,left,1,1.8649933999986388,309.93206449999707,311.9351018999587,309.93206449999707,311.43436459999066,309.93206449999707,311.43436459999066,309.93206449999707,311.43436459999066,309.93206449999707,311.43436459999066,309.93206449999707,311.43436459999066,311.4171337999869,311.9182043999899,311.4171337999869,311.9182043999899,311.4171337999869,311.9182043999899,311.4171337999869,311.9182043999899,311.4171337999869,311.9182043999899,311.4171337999869,311.9182043999899,311.4171337999869,311.9182043999899,311.4171337999869,311.9182043999899,309.93206449999707,None,311.9182043999899,312.919652499957,1.500000000000001,312.9364826999954,None,313.6877304999507,None,,,,,,,[[1.]],2.2100000000000017,0.6875,11007,001,2024_Jan_01_1411,MFTM_A_new1021,2021.2.3,59.48815205741747,
,,,,,,,,stim/Instruction_adaptive.png,conditions/adaptive.xlsx,test,0.6,0.6,0.6,-0.6,-0.6,right,R,,,,,0,1,1,1,0,32,32,92,,,,,,,,,,,,,,,,,,,,,,,,,,,,,,,,,,,,,,,,,,,,314.18783259997144,None,right,1,1.5792671999661252,314.68913839996094,316.6090779999504,314.68913839996094,316.1241088999668,314.68913839996094,316.1241088999668,314.68913839996094,316.1241088999668,314.68913839996094,316.1241088999668,314.68913839996094,316.1241088999668,316.0912446999573,316.5920405999641,316.0912446999573,316.5920405999641,316.0912446999573,316.5920405999641,316.0912446999573,316.5920405999641,316.0912446999573,316.5920405999641,316.0912446999573,316.5920405999641,316.0912446999573,316.5920405999641,316.0912446999573,316.5920405999641,314.68913839996094,None,316.5920405999641,317.6762919999892,1.420000000000001,317.6935918999952,None,318.44413309998345,None,,,,,,,[[1.08]],2.2800000000000016,0.696969696969697,11007,001,2024_Jan_01_1411,MFTM_A_new1021,2021.2.3,59.48815205741747,
,,,,,,,,stim/Instruction_adaptive.png,conditions/adaptive.xlsx,test,0.6,0.6,0.6,-0.6,-0.6,right,R,,,,,0,1,1,1,0,33,33,64,,,,,,,,,,,,,,,,,,,,,,,,,,,,,,,,,,,,,,,,,,,,318.94536719995085,None,right,1,1.589941899990663,319.4464190999861,321.29944400000386,319.4464190999861,320.79750609997427,319.4464190999861,320.79750609997427,319.4464190999861,320.79750609997427,319.4464190999861,320.79750609997427,319.4464190999861,320.79750609997427,320.78089900000487,321.2825551999849,320.78089900000487,321.2825551999849,320.78089900000487,321.2825551999849,320.78089900000487,321.2825551999849,320.78089900000487,321.2825551999849,320.78089900000487,321.2825551999849,320.78089900000487,321.2825551999849,320.78089900000487,321.2825551999849,319.4464190999861,None,321.2825551999849,322.43383289995836,1.350000000000001,322.4506455999799,None,323.2014215999516,None,,,,,,,[[1.15]],2.3500000000000014,0.7058823529411765,11007,001,2024_Jan_01_1411,MFTM_A_new1021,2021.2.3,59.48815205741747,
,,,,,,,,stim/Instruction_adaptive.png,conditions/adaptive.xlsx,test,-0.6,-0.6,-0.6,0.6,0.6,left,L,,,,,0,1,1,1,0,34,34,51,,,,,,,,,,,,,,,,,,,,,,,,,,,,,,,,,,,,,,,,,,,,323.70259579998674,None,left,1,1.745557699992787,324.2027665999485,326.0053242999711,324.2027665999485,325.50445539999055,324.2027665999485,325.50445539999055,324.2027665999485,325.50445539999055,324.2027665999485,325.50445539999055,324.2027665999485,325.50445539999055,325.4709633999737,325.97185529995477,325.4709633999737,325.97185529995477,325.4709633999737,325.97185529995477,325.4709633999737,325.97185529995477,325.4709633999737,325.97185529995477,325.4709633999737,325.97185529995477,325.4709633999737,325.97185529995477,325.4709633999737,325.97185529995477,324.2027665999485,None,325.97185529995477,327.19109359994764,1.290000000000001,327.20697709999513,None,327.9591390999849,None,,,,,,,[1.20457143],2.410000000000002,0.7142857142857143,11007,001,2024_Jan_01_1411,MFTM_A_new1021,2021.2.3,59.48815205741747,
,,,,,,,,stim/Instruction_adaptive.png,conditions/adaptive.xlsx,test,-0.6,-0.6,-0.6,0.6,0.6,left,L,,,,,0,1,1,1,0,35,35,11,,,,,,,,,,,,,,,,,,,,,,,,,,,,,,,,,,,,,,,,,,,,328.45908669999335,None,left,1,1.7968142000027,328.9598049999913,330.71236809995025,328.9598049999913,330.2125102999853,328.9598049999913,330.2125102999853,328.9598049999913,330.2125102999853,328.9598049999913,330.2125102999853,328.9598049999913,330.2125102999853,330.1785899999668,330.6794130000053,330.1785899999668,330.6794130000053,330.1785899999668,330.6794130000053,330.1785899999668,330.6794130000053,330.1785899999668,330.6794130000053,330.1785899999668,330.6794130000053,330.1785899999668,330.6794130000053,330.1785899999668,330.6794130000053,328.9598049999913,None,330.6794130000053,331.89860059996136,1.2400000000000009,331.91401939996285,None,332.66580409999005,None,,,,,,,[1.20611111],2.4700000000000015,0.7222222222222222,11007,001,2024_Jan_01_1411,MFTM_A_new1021,2021.2.3,59.48815205741747,
,,,,,,,,stim/Instruction_adaptive.png,conditions/adaptive.xlsx,test,0.6,0.6,0.6,-0.6,-0.6,right,R,,,,,0,1,1,1,0,36,36,38,,,,,,,,,,,,,,,,,,,,,,,,,,,,,,,,,,,,,,,,,,,,333.16623569995863,None,left,0,1.4659181999741122,333.6665940999519,335.36985069996445,333.6665940999519,334.8682494999957,333.6665940999519,334.8682494999957,333.6665940999519,334.8682494999957,333.6665940999519,334.8682494999957,333.6665940999519,334.8682494999957,334.8354337999481,335.33578809996834,334.8354337999481,335.33578809996834,334.8354337999481,335.33578809996834,334.8354337999481,335.33578809996834,334.8354337999481,335.33578809996834,334.8354337999481,335.33578809996834,334.8354337999481,335.33578809996834,334.8354337999481,335.33578809996834,333.6665940999519,None,335.33578809996834,336.5545986999641,1.1900000000000008,336.5709215999814,None,337.3227786999778,None,,,,,,,[1.20891892],2.3000000000000016,0.7027027027027027,11007,001,2024_Jan_01_1411,MFTM_A_new1021,2021.2.3,59.48815205741747,
,,,,,,,,stim/Instruction_adaptive.png,conditions/adaptive.xlsx,test,-0.6,-0.6,-0.6,0.6,0.6,left,L,,,,,0,1,1,1,0,37,37,45,,,,,,,,,,,,,,,,,,,,,,,,,,,,,,,,,,,,,,,,,,,,337.82357179996325,None,left,1,1.624414700025227,338.3245032999548,340.1772947999998,338.3245032999548,339.67545979999704,338.3245032999548,339.67545979999704,338.3245032999548,339.67545979999704,338.3245032999548,339.67545979999704,338.3245032999548,339.67545979999704,339.64199019997614,340.14374889998,339.64199019997614,340.14374889998,339.64199019997614,340.14374889998,339.64199019997614,340.14374889998,339.64199019997614,340.14374889998,339.64199019997614,340.14374889998,339.64199019997614,340.14374889998,339.64199019997614,340.14374889998,338.3245032999548,None,340.14374889998,341.31215059995884,1.340000000000001,341.3279278999544,None,342.07911419996526,None,,,,,,,[[1.16]],2.3600000000000017,0.7105263157894737,11007,001,2024_Jan_01_1411,MFTM_A_new1021,2021.2.3,59.48815205741747,
,,,,,,,,stim/Instruction_adaptive.png,conditions/adaptive.xlsx,test,-0.6,-0.6,-0.6,0.6,0.6,left,L,,,,,0,1,1,1,0,38,38,95,,,,,,,,,,,,,,,,,,,,,,,,,,,,,,,,,,,,,,,,,,,,342.57983809994766,None,left,1,2.099268599995412,343.0812314999639,344.8671913999715,343.0812314999639,344.36643679998815,343.0812314999639,344.36643679998815,343.0812314999639,344.36643679998815,343.0812314999639,344.36643679998815,343.0812314999639,344.36643679998815,344.349017200002,344.8498695999733,344.349017200002,344.8498695999733,344.349017200002,344.8498695999733,344.349017200002,344.8498695999733,344.349017200002,344.8498695999733,344.349017200002,344.8498695999733,344.349017200002,344.8498695999733,344.349017200002,344.8498695999733,343.0812314999639,None,344.8498695999733,None,1.280000000000001,346.06830589997116,None,346.82005179999396,None,,,,,,,[1.20794872],2.4200000000000017,0.717948717948718,11007,001,2024_Jan_01_1411,MFTM_A_new1021,2021.2.3,59.48815205741747,
,,,,,,,,stim/Instruction_adaptive.png,conditions/adaptive.xlsx,test,-0.6,-0.6,-0.6,0.6,0.6,left,L,,,,,0,1,1,1,0,39,39,87,,,,,,,,,,,,,,,,,,,,,,,,,,,,,,,,,,,,,,,,,,,,347.3210428999737,None,left,1,1.6636054000118747,347.8209926999989,349.5573298999807,347.8209926999989,349.05678409995744,347.8209926999989,349.05678409995744,347.8209926999989,349.05678409995744,347.8209926999989,349.05678409995744,347.8209926999989,349.05678409995744,349.0394218000001,349.5408962999936,349.0394218000001,349.5408962999936,349.0394218000001,349.5408962999936,349.0394218000001,349.5408962999936,349.0394218000001,349.5408962999936,349.0394218000001,349.5408962999936,349.0394218000001,349.5408962999936,349.0394218000001,349.5408962999936,347.8209926999989,None,349.5408962999936,350.75942659995053,1.2300000000000009,350.7760073999525,None,351.52639099996304,None,,,,,,,[1.2095],2.4700000000000015,0.725,11007,001,2024_Jan_01_1411,MFTM_A_new1021,2021.2.3,59.48815205741747,
,,,,,,,,stim/Instruction_adaptive.png,conditions/adaptive.xlsx,test,0.6,0.6,0.6,-0.6,-0.6,right,R,,,,,0,1,1,1,0,40,40,68,,,,,,,,,,,,,,,,,,,,,,,,,,,,,,,,,,,,,,,,,,,,352.02746779995505,None,right,1,2.1650013000471517,352.52783419995103,354.230615199951,352.52783419995103,353.7302462999942,352.52783419995103,353.7302462999942,352.52783419995103,353.7302462999942,352.52783419995103,353.7302462999942,352.52783419995103,353.7302462999942,353.69603110000025,354.1970775999944,353.69603110000025,354.1970775999944,353.69603110000025,354.1970775999944,353.69603110000025,354.1970775999944,353.69603110000025,354.1970775999944,353.69603110000025,354.1970775999944,353.69603110000025,354.1970775999944,353.69603110000025,354.1970775999944,352.52783419995103,None,354.1970775999944,355.41626309999265,1.1900000000000008,355.43285569996806,None,356.18366089998744,None,,,,,,,[1.21195122],2.520000000000002,0.7317073170731707,11007,001,2024_Jan_01_1411,MFTM_A_new1021,2021.2.3,59.48815205741747,
,,,,,,,,stim/Instruction_adaptive.png,conditions/adaptive.xlsx,test,-0.6,-0.6,-0.6,0.6,0.6,left,L,,,,,0,1,1,1,0,41,41,79,,,,,,,,,,,,,,,,,,,,,,,,,,,,,,,,,,,,,,,,,,,,356.6843941999832,None,left,1,1.5241337000043131,357.18476739997277,358.83801469998434,357.18476739997277,358.3376238999772,357.18476739997277,358.3376238999772,357.18476739997277,358.3376238999772,357.18476739997277,358.3376238999772,357.18476739997277,358.3376238999772,358.3207155999844,358.8211897999863,358.3207155999844,358.8211897999863,358.3207155999844,358.8211897999863,358.3207155999844,358.8211897999863,358.3207155999844,358.8211897999863,358.3207155999844,358.8211897999863,358.3207155999844,358.8211897999863,358.3207155999844,358.8211897999863,357.18476739997277,None,358.8211897999863,360.03971539996564,1.1500000000000008,360.0561125999666,None,360.80770199996186,None,,,,,,,[1.2152381],2.560000000000002,0.7380952380952381,11007,001,2024_Jan_01_1411,MFTM_A_new1021,2021.2.3,59.48815205741747,
,,,,,,,,stim/Instruction_adaptive.png,conditions/adaptive.xlsx,test,0.6,0.6,0.6,-0.6,-0.6,right,R,,,,,0,1,1,1,0,42,42,44,,,,,,,,,,,,,,,,,,,,,,,,,,,,,,,,,,,,,,,,,,,,361.30817729997216,None,left,0,1.7241791000124067,361.8083082999801,363.44498609995935,361.8083082999801,362.926677499956,361.8083082999801,362.926677499956,361.8083082999801,362.926677499956,361.8083082999801,362.926677499956,361.8083082999801,362.926677499956,362.91096509998897,363.4105637999601,362.91096509998897,363.4105637999601,362.91096509998897,363.4105637999601,362.91096509998897,363.4105637999601,362.91096509998897,363.4105637999601,362.91096509998897,363.4105637999601,362.91096509998897,363.4105637999601,362.91096509998897,363.4105637999601,361.8083082999801,None,363.4105637999601,364.6297777,1.1200000000000008,364.64585789997363,None,365.39756859996123,None,,,,,,,[1.21906977],2.4300000000000015,0.7209302325581395,11007,001,2024_Jan_01_1411,MFTM_A_new1021,2021.2.3,59.48815205741747,
,,,,,,,,stim/Instruction_adaptive.png,conditions/adaptive.xlsx,test,0.6,0.6,0.6,-0.6,-0.6,right,R,,,,,0,1,1,1,0,43,43,66,,,,,,,,,,,,,,,,,,,,,,,,,,,,,,,,,,,,,,,,,,,,365.8985466999584,None,right,1,2.198110999946948,366.39836519997334,368.1188459999976,366.39836519997334,367.6178935999633,366.39836519997334,367.6178935999633,366.39836519997334,367.6178935999633,366.39836519997334,367.6178935999633,366.39836519997334,367.6178935999633,367.60101280000526,368.10116629995173,367.60101280000526,368.10116629995173,367.60101280000526,368.10116629995173,367.60101280000526,368.10116629995173,367.60101280000526,368.10116629995173,367.60101280000526,368.10116629995173,367.60101280000526,368.10116629995173,367.60101280000526,368.10116629995173,366.39836519997334,None,368.10116629995173,369.33657329995185,1.2200000000000009,369.35271499998635,None,370.1040301999892,None,,,,,,,[1.22045455],2.4700000000000015,0.7272727272727273,11007,001,2024_Jan_01_1411,MFTM_A_new1021,2021.2.3,59.48815205741747,
,,,,,,,,stim/Instruction_adaptive.png,conditions/adaptive.xlsx,test,-0.6,-0.6,-0.6,0.6,0.6,left,L,,,,,0,1,1,1,0,44,44,91,,,,,,,,,,,,,,,,,,,,,,,,,,,,,,,,,,,,,,,,,,,,370.60572469996987,None,left,1,1.5382508999900892,371.1061128999572,372.8085546999937,371.1061128999572,372.30714809999336,371.1061128999572,372.30714809999336,371.1061128999572,372.30714809999336,371.1061128999572,372.30714809999336,371.1061128999572,372.30714809999336,372.2742084999918,372.77506610000273,372.2742084999918,372.77506610000273,372.2742084999918,372.77506610000273,372.2742084999918,372.77506610000273,372.2742084999918,372.77506610000273,372.2742084999918,372.77506610000273,372.2742084999918,372.77506610000273,372.2742084999918,372.77506610000273,371.1061128999572,None,372.77506610000273,374.01047619996825,1.1900000000000008,374.02644139999757,None,374.77839099999983,None,,,,,,,[1.22244444],2.520000000000002,0.7333333333333333,11007,001,2024_Jan_01_1411,MFTM_A_new1021,2021.2.3,59.48815205741747,
,,,,,,,,stim/Instruction_adaptive.png,conditions/adaptive.xlsx,test,0.6,0.6,0.6,-0.6,-0.6,right,R,,,,,0,1,1,1,0,45,45,36,,,,,,,,,,,,,,,,,,,,,,,,,,,,,,,,,,,,,,,,,,,,375.27843309997115,None,right,1,1.9126230000401847,375.77980749995913,377.43205239996314,375.77980749995913,376.9316467999597,375.77980749995913,376.9316467999597,375.77980749995913,376.9316467999597,375.77980749995913,376.9316467999597,375.77980749995913,376.9316467999597,376.91420259996084,377.41553189995466,376.91420259996084,377.41553189995466,376.91420259996084,377.41553189995466,376.91420259996084,377.41553189995466,376.91420259996084,377.41553189995466,376.91420259996084,377.41553189995466,376.91420259996084,377.41553189995466,376.91420259996084,377.41553189995466,375.77980749995913,None,377.41553189995466,378.65028699999675,1.1500000000000008,378.66656809998676,None,379.41861829999834,None,,,,,,,[1.22521739],2.560000000000002,0.7391304347826086,11007,001,2024_Jan_01_1411,MFTM_A_new1021,2021.2.3,59.48815205741747,
,,,,,,,,stim/Instruction_adaptive.png,conditions/adaptive.xlsx,test,-0.6,-0.6,-0.6,0.6,0.6,left,L,,,,,0,1,1,1,0,46,46,37,,,,,,,,,,,,,,,,,,,,,,,,,,,,,,,,,,,,,,,,,,,,379.92001770000206,None,left,1,1.297271199990064,380.419258799986,382.03824059996987,380.419258799986,381.53764949995093,380.419258799986,381.53764949995093,380.419258799986,381.53764949995093,380.419258799986,381.53764949995093,380.419258799986,381.53764949995093,381.52159189997474,382.02178199996706,381.52159189997474,382.02178199996706,381.52159189997474,382.02178199996706,381.52159189997474,382.02178199996706,381.52159189997474,382.02178199996706,381.52159189997474,382.02178199996706,381.52159189997474,382.02178199996706,381.52159189997474,382.02178199996706,380.419258799986,None,382.02178199996706,383.2576613999554,1.1200000000000008,383.27435219998006,None,384.0251605999656,None,,,,,,,[1.22851064],2.600000000000002,0.7446808510638298,11007,001,2024_Jan_01_1411,MFTM_A_new1021,2021.2.3,59.48815205741747,
,,,,,,,,stim/Instruction_adaptive.png,conditions/adaptive.xlsx,test,0.6,0.6,0.6,-0.6,-0.6,right,R,,,,,0,1,1,1,0,47,47,24,,,,,,,,,,,,,,,,,,,,,,,,,,,,,,,,,,,,,,,,,,,,384.52595039998414,None,left,0,1.8260905999923125,385.0266836999799,386.62885099998675,385.0266836999799,386.127844899951,385.0266836999799,386.127844899951,385.0266836999799,386.127844899951,385.0266836999799,386.127844899951,385.0266836999799,386.127844899951,386.0943533999962,386.59567919996334,386.0943533999962,386.59567919996334,386.0943533999962,386.59567919996334,386.0943533999962,386.59567919996334,386.0943533999962,386.59567919996334,386.0943533999962,386.59567919996334,386.0943533999962,386.59567919996334,386.0943533999962,386.59567919996334,385.0266836999799,None,386.59567919996334,387.83121329999994,1.0900000000000007,387.8629785999656,None,388.61553700000513,None,,,,,,,[1.23229167],2.4800000000000018,0.7291666666666666,11007,001,2024_Jan_01_1411,MFTM_A_new1021,2021.2.3,59.48815205741747,
,,,,,,,,stim/Instruction_adaptive.png,conditions/adaptive.xlsx,test,0.6,0.6,0.6,-0.6,-0.6,right,R,,,,,0,1,1,1,0,48,48,84,,,,,,,,,,,,,,,,,,,,,,,,,,,,,,,,,,,,,,,,,,,,389.1153729999787,None,right,1,2.276075400004629,389.6167727999855,391.3025826999801,389.6167727999855,390.8012187999557,389.6167727999855,390.8012187999557,389.6167727999855,390.8012187999557,389.6167727999855,390.8012187999557,389.6167727999855,390.8012187999557,390.78482359996997,391.2860568999895,390.78482359996997,391.2860568999895,390.78482359996997,391.2860568999895,390.78482359996997,391.2860568999895,390.78482359996997,391.2860568999895,390.78482359996997,391.2860568999895,390.78482359996997,391.2860568999895,390.78482359996997,391.2860568999895,389.6167727999855,None,391.2860568999895,392.5211704999674,1.1800000000000008,392.5370850999607,None,393.2889110999531,None,,,,,,,[1.23408163],2.520000000000002,0.7346938775510204,11007,001,2024_Jan_01_1411,MFTM_A_new1021,2021.2.3,59.48815205741747,
,,,,,,,,stim/Instruction_adaptive.png,conditions/adaptive.xlsx,test,0.6,0.6,0.6,-0.6,-0.6,right,R,,,,,0,1,1,1,0,49,49,86,,,,,,,,,,,,,,,,,,,,,,,,,,,,,,,,,,,,,,,,,,,,393.7892370999907,None,right,1,1.6034178999834694,394.28997959999833,395.94236309995176,394.28997959999833,395.4421983999782,394.28997959999833,395.4421983999782,394.28997959999833,395.4421983999782,394.28997959999833,395.4421983999782,394.28997959999833,395.4421983999782,395.42505510000046,395.9257915999624,395.42505510000046,395.9257915999624,395.42505510000046,395.9257915999624,395.42505510000046,395.9257915999624,395.42505510000046,395.9257915999624,395.42505510000046,395.9257915999624,395.42505510000046,395.9257915999624,395.42505510000046,395.9257915999624,394.28997959999833,None,395.9257915999624,None,1.1500000000000008,397.1773289999692,None,397.929456199985,None,,,,,,,[1.2364],2.560000000000002,0.74,11007,001,2024_Jan_01_1411,MFTM_A_new1021,2021.2.3,59.48815205741747,
,,,,,,,,stim/Instruction_adaptive.png,conditions/adaptive.xlsx,test,-0.6,-0.6,-0.6,0.6,0.6,left,L,,,,,0,1,1,1,0,50,50,41,,,,,,,,,,,,,,,,,,,,,,,,,,,,,,,,,,,,,,,,,,,,398.4302568999701,None,left,1,1.6036454999702983,398.9299495999585,400.5492816999904,398.9299495999585,400.06621229997836,398.9299495999585,400.06621229997836,398.9299495999585,400.06621229997836,398.9299495999585,400.06621229997836,398.9299495999585,400.06621229997836,400.032064399973,400.532605699962,400.032064399973,400.532605699962,400.032064399973,400.532605699962,400.032064399973,400.532605699962,400.032064399973,400.532605699962,400.032064399973,400.532605699962,400.032064399973,400.532605699962,400.032064399973,400.532605699962,398.9299495999585,None,400.532605699962,401.78517269995064,1.1200000000000008,401.8008321999805,None,402.5520661000046,None,,,,,,,[1.23921569],2.600000000000002,0.7450980392156863,11007,001,2024_Jan_01_1411,MFTM_A_new1021,2021.2.3,59.48815205741747,
,,,,,,,,stim/Instruction_adaptive.png,conditions/adaptive.xlsx,test,0.6,0.6,0.6,-0.6,-0.6,right,R,,,,,0,1,1,1,0,51,51,74,,,,,,,,,,,,,,,,,,,,,,,,,,,,,,,,,,,,,,,,,,,,403.0526375999907,None,right,1,2.1311814000364393,403.5535197999561,405.1565570999519,403.5535197999561,404.6552422999521,403.5535197999561,404.6552422999521,403.5535197999561,404.6552422999521,403.5535197999561,404.6552422999521,403.5535197999561,404.6552422999521,404.6217456999584,405.1224326999509,404.6217456999584,405.1224326999509,404.6217456999584,405.1224326999509,404.6217456999584,405.1224326999509,404.6217456999584,405.1224326999509,404.6217456999584,405.1224326999509,404.6217456999584,405.1224326999509,404.6217456999584,405.1224326999509,403.5535197999561,None,405.1224326999509,406.37516549997963,1.0900000000000007,406.3910243999562,None,407.1435659999843,None,,,,,,,[1.2425],2.640000000000002,0.75,11007,001,2024_Jan_01_1411,MFTM_A_new1021,2021.2.3,59.48815205741747,
,,,,,,,,stim/Instruction_adaptive.png,conditions/adaptive.xlsx,test,0.6,0.6,0.6,-0.6,-0.6,right,R,,,,,0,1,1,1,0,52,52,70,,,,,,,,,,,,,,,,,,,,,,,,,,,,,,,,,,,,,,,,,,,,407.64357509999536,None,right,1,1.997080700006336,408.14368280000053,409.7132532999967,408.14368280000053,409.2125529999612,408.14368280000053,409.2125529999612,408.14368280000053,409.2125529999612,408.14368280000053,409.2125529999612,408.14368280000053,409.2125529999612,409.17881309997756,409.67983689997345,409.17881309997756,409.67983689997345,409.17881309997756,409.67983689997345,409.17881309997756,409.67983689997345,409.17881309997756,409.67983689997345,409.17881309997756,409.67983689997345,409.17881309997756,409.67983689997345,409.17881309997756,409.67983689997345,408.14368280000053,None,409.67983689997345,410.9315473999595,1.0600000000000007,410.96535429998767,None,411.71557369997026,None,,,,,,,[1.24622642],2.6700000000000017,0.7547169811320755,11007,001,2024_Jan_01_1411,MFTM_A_new1021,2021.2.3,59.48815205741747,
,,,,,,,,stim/Instruction_adaptive.png,conditions/adaptive.xlsx,test,-0.6,-0.6,-0.6,0.6,0.6,left,L,,,,,0,1,1,1,0,53,53,69,,,,,,,,,,,,,,,,,,,,,,,,,,,,,,,,,,,,,,,,,,,,412.21722209994914,None,left,1,1.6712502000154927,412.7171608999488,414.2537763,412.7171608999488,413.75270489999093,412.7171608999488,413.75270489999093,412.7171608999488,413.75270489999093,412.7171608999488,413.75270489999093,412.7171608999488,413.75270489999093,413.73518339998554,414.2367559999693,413.73518339998554,414.2367559999693,413.73518339998554,414.2367559999693,413.73518339998554,414.2367559999693,413.73518339998554,414.2367559999693,413.73518339998554,414.2367559999693,413.73518339998554,414.2367559999693,413.73518339998554,414.2367559999693,412.7171608999488,None,414.2367559999693,415.48788889998104,1.0300000000000007,415.5053028999828,None,416.2559095000033,None,,,,,,,[1.25037037],2.7100000000000017,0.7592592592592593,11007,001,2024_Jan_01_1411,MFTM_A_new1021,2021.2.3,59.48815205741747,
,,,,,,,,stim/Instruction_adaptive.png,conditions/adaptive.xlsx,test,0.6,0.6,0.6,-0.6,-0.6,right,R,,,,,0,1,1,1,0,54,54,30,,,,,,,,,,,,,,,,,,,,,,,,,,,,,,,,,,,,,,,,,,,,416.75664369994774,None,left,0,2.4273855999927036,417.25722939998377,418.77669369999785,417.25722939998377,418.2762938999804,417.25722939998377,418.2762938999804,417.25722939998377,418.2762938999804,417.25722939998377,418.2762938999804,417.25722939998377,418.2762938999804,418.2427827999927,418.7435312999878,418.2427827999927,418.7435312999878,418.2427827999927,418.7435312999878,418.2427827999927,418.7435312999878,418.2427827999927,418.7435312999878,418.2427827999927,418.7435312999878,418.2427827999927,418.7435312999878,418.2427827999927,418.7435312999878,417.25722939998377,None,418.7435312999878,420.01179209997645,1.0100000000000007,420.02788949996466,None,420.7795506999828,None,,,,,,,[1.25472727],2.610000000000002,0.7454545454545455,11007,001,2024_Jan_01_1411,MFTM_A_new1021,2021.2.3,59.48815205741747,
,,,,,,,,stim/Instruction_adaptive.png,conditions/adaptive.xlsx,test,-0.6,-0.6,-0.6,0.6,0.6,left,L,,,,,0,1,1,1,0,55,55,61,,,,,,,,,,,,,,,,,,,,,,,,,,,,,,,,,,,,,,,,,,,,421.28029639995657,None,left,1,1.608105199993588,421.7803306999849,423.3668115999899,421.7803306999849,422.8661129999673,421.7803306999849,422.8661129999673,421.7803306999849,422.8661129999673,421.7803306999849,422.8661129999673,421.7803306999849,422.8661129999673,422.84867699997267,423.3499893999542,422.84867699997267,423.3499893999542,422.84867699997267,423.3499893999542,422.84867699997267,423.3499893999542,422.84867699997267,423.3499893999542,422.84867699997267,423.3499893999542,422.84867699997267,423.3499893999542,422.84867699997267,423.3499893999542,421.7803306999849,None,423.3499893999542,None,1.0800000000000007,424.6180761999567,None,425.36965069995495,None,,,,,,,[1.25767857],2.640000000000002,0.75,11007,001,2024_Jan_01_1411,MFTM_A_new1021,2021.2.3,59.48815205741747,
,,,,,,,,stim/Instruction_adaptive.png,conditions/adaptive.xlsx,test,-0.6,-0.6,-0.6,0.6,0.6,left,L,,,,,0,1,1,1,0,56,56,57,,,,,,,,,,,,,,,,,,,,,,,,,,,,,,,,,,,,,,,,,,,,425.8700665999786,None,left,1,2.1140414000255987,426.37057669996284,427.93971199996304,426.37057669996284,427.43883279996226,426.37057669996284,427.43883279996226,426.37057669996284,427.43883279996226,426.37057669996284,427.43883279996226,426.37057669996284,427.43883279996226,427.42294779996155,427.9230554999667,427.42294779996155,427.9230554999667,427.42294779996155,427.9230554999667,427.42294779996155,427.9230554999667,427.42294779996155,427.9230554999667,427.42294779996155,427.9230554999667,427.42294779996155,427.9230554999667,427.42294779996155,427.9230554999667,426.37057669996284,None,427.9230554999667,None,1.0600000000000007,429.19147259998135,None,429.9430247999844,None,,,,,,,[1.26087719],2.6700000000000017,0.7543859649122807,11007,001,2024_Jan_01_1411,MFTM_A_new1021,2021.2.3,59.48815205741747,
,,,,,,,,stim/Instruction_adaptive.png,conditions/adaptive.xlsx,test,-0.6,-0.6,-0.6,0.6,0.6,left,L,,,,,0,1,1,1,0,57,57,29,,,,,,,,,,,,,,,,,,,,,,,,,,,,,,,,,,,,,,,,,,,,430.44329899997683,None,left,1,1.1637986000278033,430.94478399999207,432.4797662999481,430.94478399999207,431.97944149997784,430.94478399999207,431.97944149997784,430.94478399999207,431.97944149997784,430.94478399999207,431.97944149997784,430.94478399999207,431.97944149997784,431.9627987999702,432.46294529997976,431.9627987999702,432.46294529997976,431.9627987999702,432.46294529997976,431.9627987999702,432.46294529997976,431.9627987999702,432.46294529997976,431.9627987999702,432.46294529997976,431.9627987999702,432.46294529997976,431.9627987999702,432.46294529997976,430.94478399999207,None,432.46294529997976,433.73275159997866,1.0300000000000007,433.7482713999925,None,434.5001878999756,None,,,,,,,[1.26448276],2.7100000000000017,0.7586206896551724,11007,001,2024_Jan_01_1411,MFTM_A_new1021,2021.2.3,59.48815205741747,
,,,,,,,,stim/Instruction_adaptive.png,conditions/adaptive.xlsx,test,-0.6,-0.6,-0.6,0.6,0.6,left,L,,,,,0,1,1,1,0,58,58,17,,,,,,,,,,,,,,,,,,,,,,,,,,,,,,,,,,,,,,,,,,,,434.9999831999885,None,left,1,1.3363864999846555,435.50074629997835,437.01973289996386,435.50074629997835,436.5190905999625,435.50074629997835,436.5190905999625,435.50074629997835,436.5190905999625,435.50074629997835,436.5190905999625,435.50074629997835,436.5190905999625,436.50232809997397,437.00383309996687,436.50232809997397,437.00383309996687,436.50232809997397,437.00383309996687,436.50232809997397,437.00383309996687,436.50232809997397,437.00383309996687,436.50232809997397,437.00383309996687,436.50232809997397,437.00383309996687,436.50232809997397,437.00383309996687,435.50074629997835,None,437.00383309996687,438.27280549996067,1.0100000000000007,438.28908179997234,None,439.03966619999846,None,,,,,,,[1.26830508],2.740000000000002,0.7627118644067796,11007,001,2024_Jan_01_1411,MFTM_A_new1021,2021.2.3,59.48815205741747,
,,,,,,,,stim/Instruction_adaptive.png,conditions/adaptive.xlsx,test,-0.6,-0.6,-0.6,0.6,0.6,left,L,,,,,0,1,1,1,0,59,59,73,,,,,,,,,,,,,,,,,,,,,,,,,,,,,,,,,,,,,,,,,,,,439.54113430000143,None,left,1,1.8842253999901004,440.04088220000267,441.5274730999954,440.04088220000267,441.02552239998477,440.04088220000267,441.02552239998477,440.04088220000267,441.02552239998477,440.04088220000267,441.02552239998477,440.04088220000267,441.02552239998477,441.00901389995124,441.5107142999768,441.00901389995124,441.5107142999768,441.00901389995124,441.5107142999768,441.00901389995124,441.5107142999768,441.00901389995124,441.5107142999768,441.00901389995124,441.5107142999768,441.00901389995124,441.5107142999768,441.00901389995124,441.5107142999768,440.04088220000267,None,441.5107142999768,None,0.9800000000000006,442.7953570999671,None,443.54724230000284,None,,,,,,,[1.2725],2.760000000000002,0.7666666666666667,11007,001,2024_Jan_01_1411,MFTM_A_new1021,2021.2.3,59.48815205741747,
,,,,,,,,stim/Instruction_adaptive.png,conditions/adaptive.xlsx,test,0.6,0.6,0.6,-0.6,-0.6,right,R,,,,,0,1,1,1,0,60,60,94,,,,,,,,,,,,,,,,,,,,,,,,,,,,,,,,,,,,,,,,,,,,444.0477955999668,None,right,1,1.5917759999865666,444.54874259995995,446.0334250999731,444.54874259995995,445.53288419998717,444.54874259995995,445.53288419998717,444.54874259995995,445.53288419998717,444.54874259995995,445.53288419998717,444.54874259995995,445.53288419998717,445.4990708999685,446.00054839998484,445.4990708999685,446.00054839998484,445.4990708999685,446.00054839998484,445.4990708999685,446.00054839998484,445.4990708999685,446.00054839998484,445.4990708999685,446.00054839998484,445.4990708999685,446.00054839998484,445.4990708999685,446.00054839998484,444.54874259995995,None,446.00054839998484,447.28595319995657,0.9700000000000006,447.30284879996907,None,448.05341649998445,None,,,,,,,[1.27672131],2.790000000000002,0.7704918032786885,11007,001,2024_Jan_01_1411,MFTM_A_new1021,2021.2.3,59.48815205741747,
,,,,,,,,stim/Instruction_adaptive.png,conditions/adaptive.xlsx,test,-0.6,-0.6,-0.6,0.6,0.6,left,L,,,,,0,1,1,1,0,61,61,49,,,,,,,,,,,,,,,,,,,,,,,,,,,,,,,,,,,,,,,,,,,,448.55439219996333,None,left,1,1.3339343999978155,449.0550701000029,450.5073227999965,449.0550701000029,450.0065745000029,449.0550701000029,450.0065745000029,449.0550701000029,450.0065745000029,449.0550701000029,450.0065745000029,449.0550701000029,450.0065745000029,449.99003399995854,450.4907621999737,449.99003399995854,450.4907621999737,449.99003399995854,450.4907621999737,449.99003399995854,450.4907621999737,449.99003399995854,450.4907621999737,449.99003399995854,450.4907621999737,449.99003399995854,450.4907621999737,449.99003399995854,450.4907621999737,449.0550701000029,None,450.4907621999737,451.7750594999525,0.9500000000000006,451.7918047999847,None,452.54349379998166,None,,,,,,,[1.28112903],2.820000000000002,0.7741935483870968,11007,001,2024_Jan_01_1411,MFTM_A_new1021,2021.2.3,59.48815205741747,
,,,,,,,,stim/Instruction_adaptive.png,conditions/adaptive.xlsx,test,0.6,0.6,0.6,-0.6,-0.6,right,R,,,,,0,1,1,1,0,62,62,72,,,,,,,,,,,,,,,,,,,,,,,,,,,,,,,,,,,,,,,,,,,,453.04375049995724,None,right,1,2.6278234999626875,453.54491189995315,454.97971439996036,453.54491189995315,454.4792024999624,453.54491189995315,454.4792024999624,453.54491189995315,454.4792024999624,453.54491189995315,454.4792024999624,453.54491189995315,454.4792024999624,454.46291069994913,454.96415509999497,454.46291069994913,454.96415509999497,454.46291069994913,454.96415509999497,454.46291069994913,454.96415509999497,454.46291069994913,454.96415509999497,454.46291069994913,454.96415509999497,454.46291069994913,454.96415509999497,454.46291069994913,454.96415509999497,453.54491189995315,None,454.96415509999497,456.24935509997886,0.9300000000000006,456.2648779999581,None,457.0161791999708,None,,,,,,,[1.28571429],2.8500000000000023,0.7777777777777778,11007,001,2024_Jan_01_1411,MFTM_A_new1021,2021.2.3,59.48815205741747,
,,,,,,,,stim/Instruction_adaptive.png,conditions/adaptive.xlsx,test,0.6,0.6,0.6,-0.6,-0.6,right,R,,,,,0,1,1,1,0,63,63,8,,,,,,,,,,,,,,,,,,,,,,,,,,,,,,,,,,,,,,,,,,,,457.5168143999763,None,right,1,0.8754310999647714,458.01747629995225,459.43728569999803,458.01747629995225,458.9357136999606,458.01747629995225,458.9357136999606,458.01747629995225,458.9357136999606,458.01747629995225,458.9357136999606,458.01747629995225,458.9357136999606,458.90251669997815,459.40299249999225,458.90251669997815,459.40299249999225,458.90251669997815,459.40299249999225,458.90251669997815,459.40299249999225,458.90251669997815,459.40299249999225,458.90251669997815,459.40299249999225,458.90251669997815,459.40299249999225,458.90251669997815,459.40299249999225,458.01747629995225,None,459.40299249999225,460.7050748000038,0.9100000000000006,460.72158469998976,None,461.472588399949,None,,,,,,,[1.29046875],2.870000000000002,0.78125,11007,001,2024_Jan_01_1411,MFTM_A_new1021,2021.2.3,59.48815205741747,
,,,,,,,,stim/Instruction_adaptive.png,conditions/adaptive.xlsx,test,-0.6,-0.6,-0.6,0.6,0.6,left,L,,,,,0,1,1,1,0,64,64,33,,,,,,,,,,,,,,,,,,,,,,,,,,,,,,,,,,,,,,,,,,,,461.9732046999852,None,left,1,1.4031033999635838,462.4740748999757,463.8763067999971,462.4740748999757,463.3757396999863,462.4740748999757,463.3757396999863,462.4740748999757,463.3757396999863,462.4740748999757,463.3757396999863,462.4740748999757,463.3757396999863,463.35879999998724,463.86028579995036,463.35879999998724,463.86028579995036,463.35879999998724,463.86028579995036,463.35879999998724,463.86028579995036,463.35879999998724,463.86028579995036,463.35879999998724,463.86028579995036,463.35879999998724,463.86028579995036,463.35879999998724,463.86028579995036,462.4740748999757,None,463.86028579995036,465.16280289995484,0.9000000000000006,465.17885919997934,None,465.92964829999255,None,,,,,,,[1.29523077],2.900000000000002,0.7846153846153846,11007,001,2024_Jan_01_1411,MFTM_A_new1021,2021.2.3,59.48815205741747,
,,,,,,,,stim/Instruction_adaptive.png,conditions/adaptive.xlsx,test,-0.6,-0.6,-0.6,0.6,0.6,left,L,,,,,0,1,1,1,0,65,65,65,,,,,,,,,,,,,,,,,,,,,,,,,,,,,,,,,,,,,,,,,,,,466.43085959996097,None,right,0,2.5938099999912083,466.9307027999894,468.3163449999993,466.9307027999894,467.81562779995147,466.9307027999894,467.81562779995147,466.9307027999894,467.81562779995147,466.9307027999894,467.81562779995147,466.9307027999894,467.81562779995147,467.79907869995805,468.30097209999803,467.79907869995805,468.30097209999803,467.79907869995805,468.30097209999803,467.79907869995805,468.30097209999803,467.79907869995805,468.30097209999803,467.79907869995805,468.30097209999803,467.79907869995805,468.30097209999803,467.79907869995805,468.30097209999803,466.9307027999894,None,468.30097209999803,469.60176109999884,0.8800000000000006,469.6180269999895,None,470.36972339998465,None,,,,,,,[1.30015152],2.820000000000002,0.7727272727272727,11007,001,2024_Jan_01_1411,MFTM_A_new1021,2021.2.3,59.48815205741747,
,,,,,,,,stim/Instruction_adaptive.png,conditions/adaptive.xlsx,test,-0.6,-0.6,-0.6,0.6,0.6,left,L,,,,,0,1,1,1,0,66,66,21,,,,,,,,,,,,,,,,,,,,,,,,,,,,,,,,,,,,,,,,,,,,470.8711488999543,None,left,1,1.1937094999593683,471.37087029998656,472.8070734999492,471.37087029998656,472.3062708999496,471.37087029998656,472.3062708999496,471.37087029998656,472.3062708999496,471.37087029998656,472.3062708999496,471.37087029998656,472.3062708999496,472.2894148999476,472.7901695999899,472.2894148999476,472.7901695999899,472.2894148999476,472.7901695999899,472.2894148999476,472.7901695999899,472.2894148999476,472.7901695999899,472.2894148999476,472.7901695999899,472.2894148999476,472.7901695999899,472.2894148999476,472.7901695999899,471.37087029998656,None,472.7901695999899,None,0.9300000000000006,474.10835029999726,None,474.85984389996156,None,,,,,,,[1.3041791],2.8500000000000023,0.7761194029850746,11007,001,2024_Jan_01_1411,MFTM_A_new1021,2021.2.3,59.48815205741747,
,,,,,,,,stim/Instruction_adaptive.png,conditions/adaptive.xlsx,test,0.6,0.6,0.6,-0.6,-0.6,right,R,,,,,0,1,1,1,0,67,67,62,,,,,,,,,,,,,,,,,,,,,,,,,,,,,,,,,,,,,,,,,,,,475.3605826999992,None,right,1,1.6480868000071496,475.8605073999497,477.2802611999796,475.8605073999497,476.77970139996614,475.8605073999497,476.77970139996614,475.8605073999497,476.77970139996614,475.8605073999497,476.77970139996614,475.8605073999497,476.77970139996614,476.76232379995054,477.26323039998533,476.76232379995054,477.26323039998533,476.76232379995054,477.26323039998533,476.76232379995054,477.26323039998533,476.76232379995054,477.26323039998533,476.76232379995054,477.26323039998533,476.76232379995054,477.26323039998533,476.76232379995054,477.26323039998533,475.8605073999497,None,477.24647339998046,478.5646706999978,0.9100000000000006,478.58203729998786,None,479.33339799998794,None,,,,,,,[1.30838235],2.880000000000002,0.7794117647058824,11007,001,2024_Jan_01_1411,MFTM_A_new1021,2021.2.3,59.48815205741747,
,,,,,,,,stim/Instruction_adaptive.png,conditions/adaptive.xlsx,test,0.6,0.6,0.6,-0.6,-0.6,right,R,,,,,0,1,1,1,0,68,68,42,,,,,,,,,,,,,,,,,,,,,,,,,,,,,,,,,,,,,,,,,,,,479.83368069998687,None,right,1,0.7739331999910064,480.33472189999884,481.7360264000017,480.33472189999884,481.2354559999658,480.33472189999884,481.2354559999658,480.33472189999884,481.2354559999658,480.33472189999884,481.2354559999658,480.33472189999884,481.2354559999658,481.201794099994,481.7031241999939,481.201794099994,481.7031241999939,481.201794099994,481.7031241999939,481.201794099994,481.7031241999939,481.201794099994,481.7031241999939,481.201794099994,481.7031241999939,481.201794099994,481.7031241999939,481.201794099994,481.7031241999939,480.33472189999884,None,481.7031241999939,483.0214954999974,0.8900000000000006,483.0383393999655,None,483.7899548999849,None,,,,,,,[1.31275362],2.900000000000002,0.782608695652174,11007,001,2024_Jan_01_1411,MFTM_A_new1021,2021.2.3,59.48815205741747,
,,,,,,,,stim/Instruction_adaptive.png,conditions/adaptive.xlsx,test,-0.6,-0.6,-0.6,0.6,0.6,left,L,,,,,0,1,1,1,0,69,69,81,,,,,,,,,,,,,,,,,,,,,,,,,,,,,,,,,,,,,,,,,,,,484.2901866000029,None,left,1,1.4617869000067003,484.7906968999887,486.17695469997125,484.7906968999887,485.6757992999628,484.7906968999887,485.6757992999628,484.7906968999887,485.6757992999628,484.7906968999887,485.6757992999628,484.7906968999887,485.6757992999628,485.65923219994875,486.15999539999757,485.65923219994875,486.15999539999757,485.65923219994875,486.15999539999757,485.65923219994875,486.15999539999757,485.65923219994875,486.15999539999757,485.65923219994875,486.15999539999757,485.65923219994875,486.15999539999757,485.65923219994875,486.15999539999757,484.7906968999887,None,486.15999539999757,487.4785346999997,0.8800000000000006,487.49475189996883,None,488.24612959998194,None,,,,,,,[1.31714286],2.920000000000002,0.7857142857142857,11007,001,2024_Jan_01_1411,MFTM_A_new1021,2021.2.3,59.48815205741747,
,,,,,,,,stim/Instruction_adaptive.png,conditions/adaptive.xlsx,test,-0.6,-0.6,-0.6,0.6,0.6,left,L,,,,,0,1,1,1,0,70,70,63,,,,,,,,,,,,,,,,,,,,,,,,,,,,,,,,,,,,,,,,,,,,488.74688299995614,None,left,1,1.8055908999522217,489.24724749999586,490.6165701999562,489.24724749999586,490.13243999995757,489.24724749999586,490.13243999995757,489.24724749999586,490.13243999995757,489.24724749999586,490.13243999995757,489.24724749999586,490.13243999995757,490.0993800999713,490.59981339995284,490.0993800999713,490.59981339995284,490.0993800999713,490.59981339995284,490.0993800999713,490.59981339995284,490.0993800999713,490.59981339995284,490.0993800999713,490.59981339995284,490.0993800999713,490.59981339995284,490.0993800999713,490.59981339995284,489.24724749999586,None,490.59981339995284,491.9349496999639,0.8700000000000006,491.9519048999646,None,492.7025348999887,None,,,,,,,[1.3215493],2.950000000000002,0.7887323943661971,11007,001,2024_Jan_01_1411,MFTM_A_new1021,2021.2.3,59.48815205741747,
,,,,,,,,stim/Instruction_adaptive.png,conditions/adaptive.xlsx,test,0.6,0.6,0.6,-0.6,-0.6,right,R,,,,,0,1,1,1,0,71,71,26,,,,,,,,,,,,,,,,,,,,,,,,,,,,,,,,,,,,,,,,,,,,493.2032995999907,None,right,1,2.460903299972415,493.70384410000406,495.0563898999826,493.70384410000406,494.5556571999914,493.70384410000406,494.5556571999914,493.70384410000406,494.5556571999914,493.70384410000406,494.5556571999914,493.70384410000406,494.5556571999914,494.5389379999833,495.03909959999146,494.5389379999833,495.03909959999146,494.5389379999833,495.03909959999146,494.5389379999833,495.03909959999146,494.5389379999833,495.03909959999146,494.5389379999833,495.03909959999146,494.5389379999833,495.03909959999146,494.5389379999833,495.03909959999146,493.70384410000406,None,495.03909959999146,496.3744315999793,0.8500000000000005,496.39117129996885,None,497.14261679997435,None,,,,,,,[1.32611111],2.9700000000000024,0.7916666666666666,11007,001,2024_Jan_01_1411,MFTM_A_new1021,2021.2.3,59.48815205741747,
,,,,,,,,stim/Instruction_adaptive.png,conditions/adaptive.xlsx,test,0.6,0.6,0.6,-0.6,-0.6,right,R,,,,,0,1,1,1,0,72,72,28,,,,,,,,,,,,,,,,,,,,,,,,,,,,,,,,,,,,,,,,,,,,497.64334719994804,None,right,1,2.701241700036917,498.1437320999685,499.4960135999718,498.1437320999685,498.9952399999602,498.1437320999685,498.9952399999602,498.1437320999685,498.9952399999602,498.1437320999685,498.9952399999602,498.1437320999685,498.9952399999602,498.96188199997414,499.4623249999713,498.96188199997414,499.4623249999713,498.96188199997414,499.4623249999713,498.96188199997414,499.4623249999713,498.96188199997414,499.4623249999713,498.96188199997414,499.4623249999713,498.96188199997414,499.4623249999713,498.96188199997414,499.4623249999713,498.1437320999685,None,499.4623249999713,500.8651026999578,0.8400000000000005,500.88103279995266,None,501.6327319999691,None,,,,,,,[1.33068493],2.990000000000002,0.7945205479452054,11007,001,2024_Jan_01_1411,MFTM_A_new1021,2021.2.3,59.48815205741747,
,,,,,,,,stim/Instruction_adaptive.png,conditions/adaptive.xlsx,test,0.6,0.6,0.6,-0.6,-0.6,right,R,,,,,0,1,1,1,0,73,73,18,,,,,,,,,,,,,,,,,,,,,,,,,,,,,,,,,,,,,,,,,,,,502.13373259996297,None,right,1,1.3229824000154622,502.6337255999679,503.9687843999709,502.6337255999679,503.4687835999648,502.6337255999679,503.4687835999648,502.6337255999679,503.4687835999648,502.6337255999679,503.4687835999648,502.6337255999679,503.4687835999648,503.4515958999982,503.9524230999523,503.4515958999982,503.9524230999523,503.4515958999982,503.9524230999523,503.4515958999982,503.9524230999523,503.4515958999982,503.9524230999523,503.4515958999982,503.9524230999523,503.4515958999982,503.9524230999523,503.4515958999982,503.9524230999523,502.6337255999679,None,503.9524230999523,505.2891576999682,0.8300000000000005,505.30443639995065,None,506.0553673999966,None,,,,,,,[1.33527027],3.0100000000000025,0.7972972972972973,11007,001,2024_Jan_01_1411,MFTM_A_new1021,2021.2.3,59.48815205741747,
,,,,,,,,stim/Instruction_adaptive.png,conditions/adaptive.xlsx,test,0.6,0.6,0.6,-0.6,-0.6,right,R,,,,,0,1,1,1,0,74,74,58,,,,,,,,,,,,,,,,,,,,,,,,,,,,,,,,,,,,,,,,,,,,506.55603300000075,None,left,0,1.5008472999907099,507.0567596000037,508.3761900999816,507.0567596000037,507.89198699995177,507.0567596000037,507.89198699995177,507.0567596000037,507.89198699995177,507.0567596000037,507.89198699995177,507.0567596000037,507.89198699995177,507.8586284999619,508.3593182999757,507.8586284999619,508.3593182999757,507.8586284999619,508.3593182999757,507.8586284999619,508.3593182999757,507.8586284999619,508.3593182999757,507.8586284999619,508.3593182999757,507.8586284999619,508.3593182999757,507.8586284999619,508.3593182999757,507.0567596000037,None,508.3593182999757,509.71130349999294,0.8200000000000005,509.72790409997106,None,510.47920040000463,None,,,,,,,[1.33986667],2.950000000000002,0.7866666666666666,11007,001,2024_Jan_01_1411,MFTM_A_new1021,2021.2.3,59.48815205741747,
,,,,,,,,stim/Instruction_adaptive.png,conditions/adaptive.xlsx,test,0.6,0.6,0.6,-0.6,-0.6,right,R,,,,,0,1,1,1,0,75,75,14,,,,,,,,,,,,,,,,,,,,,,,,,,,,,,,,,,,,,,,,,,,,510.9795753999497,None,right,1,2.228131600015331,511.4804040999734,512.8329350999556,511.4804040999734,512.3315806000028,511.4804040999734,512.3315806000028,511.4804040999734,512.3315806000028,511.4804040999734,512.3315806000028,511.4804040999734,512.3315806000028,512.3161860999535,512.8157364999643,512.3161860999535,512.8157364999643,512.3161860999535,512.8157364999643,512.3161860999535,512.8157364999643,512.3161860999535,512.8157364999643,512.3161860999535,512.8157364999643,512.3161860999535,512.8157364999643,512.3161860999535,512.8157364999643,511.4804040999734,None,512.8157364999643,514.1683490999858,0.8500000000000005,514.184863100003,None,514.9356565999915,None,,,,,,,[1.34394737],2.9700000000000024,0.7894736842105263,11007,001,2024_Jan_01_1411,MFTM_A_new1021,2021.2.3,59.48815205741747,
,,,,,,,,stim/Instruction_adaptive.png,conditions/adaptive.xlsx,test,0.6,0.6,0.6,-0.6,-0.6,right,R,,,,,0,1,1,1,0,76,76,90,,,,,,,,,,,,,,,,,,,,,,,,,,,,,,,,,,,,,,,,,,,,515.4365714999731,None,left,0,2.244175300002098,515.9365488999756,517.2887697999831,515.9365488999756,516.7885674999561,515.9365488999756,516.7885674999561,515.9365488999756,516.7885674999561,515.9365488999756,516.7885674999561,515.9365488999756,516.7885674999561,516.7554248999804,517.255846199987,516.7554248999804,517.255846199987,516.7554248999804,517.255846199987,516.7554248999804,517.255846199987,516.7554248999804,517.255846199987,516.7554248999804,517.255846199987,516.7554248999804,517.255846199987,516.7554248999804,517.255846199987,515.9365488999756,None,517.255846199987,518.6080872999737,0.8400000000000005,518.6237164999475,None,519.3759864000021,None,,,,,,,[1.34805195],2.910000000000002,0.7792207792207793,11007,001,2024_Jan_01_1411,MFTM_A_new1021,2021.2.3,59.48815205741747,
,,,,,,,,stim/Instruction_adaptive.png,conditions/adaptive.xlsx,test,0.6,0.6,0.6,-0.6,-0.6,right,R,,,,,0,1,1,1,0,77,77,60,,,,,,,,,,,,,,,,,,,,,,,,,,,,,,,,,,,,,,,,,,,,519.876615599962,None,right,1,2.1000154999783263,520.3771577999578,521.762740199978,520.3771577999578,521.2619201999623,520.3771577999578,521.2619201999623,520.3771577999578,521.2619201999623,520.3771577999578,521.2619201999623,520.3771577999578,521.2619201999623,521.2449467999977,521.7461367999786,521.2449467999977,521.7461367999786,521.2449467999977,521.7461367999786,521.2449467999977,521.7461367999786,521.2449467999977,521.7461367999786,521.2449467999977,521.7461367999786,521.2449467999977,521.7461367999786,521.2449467999977,521.7461367999786,520.3771577999578,None,521.7461367999786,523.0987320999848,0.8800000000000006,523.113799099985,None,523.8658331999904,None,,,,,,,[1.35153846],2.9300000000000024,0.782051282051282,11007,001,2024_Jan_01_1411,MFTM_A_new1021,2021.2.3,59.48815205741747,
,,,,,,,,stim/Instruction_adaptive.png,conditions/adaptive.xlsx,test,0.6,0.6,0.6,-0.6,-0.6,right,R,,,,,0,1,1,1,0,78,78,32,,,,,,,,,,,,,,,,,,,,,,,,,,,,,,,,,,,,,,,,,,,,524.3665914000012,None,left,0,2.1705655999830924,524.8667873999802,526.2355801999802,524.8667873999802,525.7353460000013,524.8667873999802,525.7353460000013,524.8667873999802,525.7353460000013,524.8667873999802,525.7353460000013,524.8667873999802,525.7353460000013,525.7180629999493,526.2191128999693,525.7180629999493,526.2191128999693,525.7180629999493,526.2191128999693,525.7180629999493,526.2191128999693,525.7180629999493,526.2191128999693,525.7180629999493,526.2191128999693,525.7180629999493,526.2191128999693,525.7180629999493,526.2191128999693,524.8667873999802,None,526.2191128999693,None,0.8600000000000005,527.5873737999937,None,528.3384275999852,None,,,,,,,[1.35518987],2.870000000000002,0.7721518987341772,11007,001,2024_Jan_01_1411,MFTM_A_new1021,2021.2.3,59.48815205741747,
,,,,,,,,stim/Instruction_adaptive.png,conditions/adaptive.xlsx,test,0.6,0.6,0.6,-0.6,-0.6,right,R,,,,,0,1,1,1,0,79,79,46,,,,,,,,,,,,,,,,,,,,,,,,,,,,,,,,,,,,,,,,,,,,528.8397999999579,None,right,1,2.2163897999562323,529.3401093999855,530.7420055999537,529.3401093999855,530.2411305999849,529.3401093999855,530.2411305999849,529.3401093999855,530.2411305999849,529.3401093999855,530.2411305999849,529.3401093999855,530.2411305999849,530.2249781999853,530.7258695999626,530.2249781999853,530.7258695999626,530.2249781999853,530.7258695999626,530.2249781999853,530.7258695999626,530.2249781999853,530.7258695999626,530.2249781999853,530.7258695999626,530.2249781999853,530.7258695999626,530.2249781999853,530.7258695999626,529.3401093999855,None,530.7258695999626,532.0944054999854,0.9000000000000006,532.1110544999829,None,532.8619421999902,None,,,,,,,[1.35825],2.8900000000000023,0.775,11007,001,2024_Jan_01_1411,MFTM_A_new1021,2021.2.3,59.48815205741747,
,,,,,,,,stim/Instruction_adaptive.png,conditions/adaptive.xlsx,test,-0.6,-0.6,-0.6,0.6,0.6,left,L,,,,,0,1,1,1,0,80,80,39,,,,,,,,,,,,,,,,,,,,,,,,,,,,,,,,,,,,,,,,,,,,533.3631432999973,None,left,1,2.180295899976045,533.8642963999882,535.2660527999979,533.8642963999882,534.7652305999654,533.8642963999882,534.7652305999654,533.8642963999882,534.7652305999654,533.8642963999882,534.7652305999654,533.8642963999882,534.7652305999654,534.7313079999876,535.2325658999616,534.7313079999876,535.2325658999616,534.7313079999876,535.2325658999616,534.7313079999876,535.2325658999616,534.7313079999876,535.2325658999616,534.7313079999876,535.2325658999616,534.7313079999876,535.2325658999616,534.7313079999876,535.2325658999616,533.8642963999882,None,535.2325658999616,536.6018005999504,0.8900000000000006,536.6184145999723,None,537.3689400999574,None,,,,,,,[1.36135802],2.910000000000002,0.7777777777777778,11007,001,2024_Jan_01_1411,MFTM_A_new1021,2021.2.3,59.48815205741747,
,,,,,,,,stim/Instruction_adaptive.png,conditions/adaptive.xlsx,test,0.6,0.6,0.6,-0.6,-0.6,right,R,,,,,0,1,1,1,0,81,81,48,,,,,,,,,,,,,,,,,,,,,,,,,,,,,,,,,,,,,,,,,,,,537.8694762999658,None,right,1,1.6666245000087656,538.370247099956,539.756097799982,538.370247099956,539.2545916999807,538.370247099956,539.2545916999807,538.370247099956,539.2545916999807,538.370247099956,539.2545916999807,538.370247099956,539.2545916999807,539.2386771999882,539.7394699999713,539.2386771999882,539.7394699999713,539.2386771999882,539.7394699999713,539.2386771999882,539.7394699999713,539.2386771999882,539.7394699999713,539.2386771999882,539.7394699999713,539.2386771999882,539.7394699999713,539.2386771999882,539.7394699999713,538.370247099956,None,539.7394699999713,541.1096284999512,0.8800000000000006,541.1240757999476,None,541.8751786999637,None,,,,,,,[1.3645122],2.9300000000000024,0.7804878048780488,11007,001,2024_Jan_01_1411,MFTM_A_new1021,2021.2.3,59.48815205741747,
,,,,,,,,stim/Instruction_adaptive.png,conditions/adaptive.xlsx,test,-0.6,-0.6,-0.6,0.6,0.6,left,L,,,,,0,1,1,1,0,82,82,67,,,,,,,,,,,,,,,,,,,,,,,,,,,,,,,,,,,,,,,,,,,,542.3758844999829,None,right,0,2.415110400004778,542.8774405999575,544.2462666999782,542.8774405999575,543.7452310999506,542.8774405999575,543.7452310999506,542.8774405999575,543.7452310999506,542.8774405999575,543.7452310999506,542.8774405999575,543.7452310999506,543.727968399995,544.2286085999804,543.727968399995,544.2286085999804,543.727968399995,544.2286085999804,543.727968399995,544.2286085999804,543.727968399995,544.2286085999804,543.727968399995,544.2286085999804,543.727968399995,544.2286085999804,543.727968399995,544.2286085999804,542.8774405999575,None,544.2126810000045,545.5813764999621,0.8600000000000005,545.6139492999646,None,546.3659602999687,None,,,,,,,[1.36783133],2.870000000000002,0.7710843373493976,11007,001,2024_Jan_01_1411,MFTM_A_new1021,2021.2.3,59.48815205741747,
,,,,,,,,stim/Instruction_adaptive.png,conditions/adaptive.xlsx,test,-0.6,-0.6,-0.6,0.6,0.6,left,L,,,,,0,1,1,1,0,83,83,27,,,,,,,,,,,,,,,,,,,,,,,,,,,,,,,,,,,,,,,,,,,,546.866473299975,None,right,0,2.598544700013008,547.3666994999512,548.770294899994,547.3666994999512,548.2681525999797,547.3666994999512,548.2681525999797,547.3666994999512,548.2681525999797,547.3666994999512,548.2681525999797,547.3666994999512,548.2681525999797,548.2512544000056,548.7520922999829,548.2512544000056,548.7520922999829,548.2512544000056,548.7520922999829,548.2512544000056,548.7520922999829,548.2512544000056,548.7520922999829,548.2512544000056,548.7520922999829,548.2512544000056,548.7520922999829,548.2512544000056,548.7520922999829,547.3666994999512,None,548.7520922999829,550.1210954999551,0.9000000000000006,550.1382325000013,None,550.8887236999581,None,,,,,,,[1.37059524],2.8100000000000023,0.7619047619047619,11007,001,2024_Jan_01_1411,MFTM_A_new1021,2021.2.3,59.48815205741747,
,,,,,,,,stim/Instruction_adaptive.png,conditions/adaptive.xlsx,test,-0.6,-0.6,-0.6,0.6,0.6,left,L,,,,,0,1,1,1,0,84,84,23,,,,,,,,,,,,,,,,,,,,,,,,,,,,,,,,,,,,,,,,,,,,551.3894594999729,None,left,1,2.37108440004522,551.8900120999897,553.3421572999796,551.8900120999897,552.8418231999967,551.8900120999897,552.8418231999967,551.8900120999897,552.8418231999967,551.8900120999897,552.8418231999967,551.8900120999897,552.8418231999967,552.8080402999767,553.3093493999913,552.8080402999767,553.3093493999913,552.8080402999767,553.3093493999913,552.8080402999767,553.3093493999913,552.8080402999767,553.3093493999913,552.8080402999767,553.3093493999913,552.8080402999767,553.3093493999913,552.8080402999767,553.3093493999913,551.8900120999897,None,553.3093493999913,554.6945510999649,0.9400000000000006,554.7115606999723,None,555.4617893999675,None,,,,,,,[1.37282353],2.830000000000002,0.7647058823529411,11007,001,2024_Jan_01_1411,MFTM_A_new1021,2021.2.3,59.48815205741747,
,,,,,,,,stim/Instruction_adaptive.png,conditions/adaptive.xlsx,test,0.6,0.6,0.6,-0.6,-0.6,right,R,,,,,0,1,1,1,0,85,85,52,,,,,,,,,,,,,,,,,,,,,,,,,,,,,,,,,,,,,,,,,,,,555.9632598999888,None,right,1,2.2859369999496266,556.4635609999532,557.8998020999716,556.4635609999532,557.398243899981,556.4635609999532,557.398243899981,556.4635609999532,557.398243899981,556.4635609999532,557.398243899981,556.4635609999532,557.398243899981,557.3815434999997,557.8828442999511,557.3815434999997,557.8828442999511,557.3815434999997,557.8828442999511,557.3815434999997,557.8828442999511,557.3815434999997,557.8828442999511,557.3815434999997,557.8828442999511,557.3815434999997,557.8828442999511,557.3815434999997,557.8828442999511,556.4635609999532,None,557.8828442999511,None,0.9300000000000006,559.2682263999595,None,560.0191702999873,None,,,,,,,[1.37511628],2.8500000000000023,0.7674418604651163,11007,001,2024_Jan_01_1411,MFTM_A_new1021,2021.2.3,59.48815205741747,
,,,,,,,,stim/Instruction_adaptive.png,conditions/adaptive.xlsx,test,0.6,0.6,0.6,-0.6,-0.6,right,R,,,,,0,1,1,1,0,86,86,82,,,,,,,,,,,,,,,,,,,,,,,,,,,,,,,,,,,,,,,,,,,,560.5194521999802,None,right,1,2.248757699970156,561.0205293999752,562.4391316999681,561.0205293999752,561.9388232000056,561.0205293999752,561.9388232000056,561.0205293999752,561.9388232000056,561.0205293999752,561.9388232000056,561.0205293999752,561.9388232000056,561.9221861999831,562.4229071000009,561.9221861999831,562.4229071000009,561.9221861999831,562.4229071000009,561.9221861999831,562.4229071000009,561.9221861999831,562.4229071000009,561.9221861999831,562.4229071000009,561.9221861999831,562.4229071000009,561.9221861999831,562.4229071000009,561.0205293999752,None,562.4229071000009,None,0.9100000000000006,563.8081104999874,None,564.5592219999526,None,,,,,,,[1.37758621],2.870000000000002,0.7701149425287356,11007,001,2024_Jan_01_1411,MFTM_A_new1021,2021.2.3,59.48815205741747,
,,,,,,,,stim/Instruction_adaptive.png,conditions/adaptive.xlsx,test,0.6,0.6,0.6,-0.6,-0.6,right,R,,,,,0,1,1,1,0,87,87,40,,,,,,,,,,,,,,,,,,,,,,,,,,,,,,,,,,,,,,,,,,,,565.059263299976,None,right,1,1.2928528999909759,565.5601700999541,566.9631563999574,565.5601700999541,566.4622791999718,565.5601700999541,566.4622791999718,565.5601700999541,566.4622791999718,565.5601700999541,566.4622791999718,565.5601700999541,566.4622791999718,566.4452566999826,566.9461530999979,566.4452566999826,566.9461530999979,566.4452566999826,566.9461530999979,566.4452566999826,566.9461530999979,566.4452566999826,566.9461530999979,566.4452566999826,566.9461530999979,566.4452566999826,566.9461530999979,566.4452566999826,566.9461530999979,565.5601700999541,None,566.9461530999979,568.331392699969,0.9000000000000006,568.3477265999536,None,569.0995359999943,None,,,,,,,[1.38011364],2.8900000000000023,0.7727272727272727,11007,001,2024_Jan_01_1411,MFTM_A_new1021,2021.2.3,59.48815205741747,
,,,,,,,,stim/Instruction_adaptive.png,conditions/adaptive.xlsx,test,-0.6,-0.6,-0.6,0.6,0.6,left,L,,,,,0,1,1,1,0,88,88,83,,,,,,,,,,,,,,,,,,,,,,,,,,,,,,,,,,,,,,,,,,,,569.6003236999968,None,left,1,1.6165191999753006,570.1003171000048,571.5048585999757,570.1003171000048,571.0017806999967,570.1003171000048,571.0017806999967,570.1003171000048,571.0017806999967,570.1003171000048,571.0017806999967,570.1003171000048,571.0017806999967,570.9683002999518,571.4691906999797,570.9683002999518,571.4691906999797,570.9683002999518,571.4691906999797,570.9683002999518,571.4691906999797,570.9683002999518,571.4691906999797,570.9683002999518,571.4691906999797,570.9683002999518,571.4691906999797,570.9683002999518,571.4691906999797,570.1003171000048,None,571.4691906999797,572.8547873999923,0.8900000000000006,572.8882065999787,None,573.6400221999502,None,,,,,,,[1.38269663],2.910000000000002,0.7752808988764045,11007,001,2024_Jan_01_1411,MFTM_A_new1021,2021.2.3,59.48815205741747,
,,,,,,,,stim/Instruction_adaptive.png,conditions/adaptive.xlsx,test,0.6,0.6,0.6,-0.6,-0.6,right,R,,,,,0,1,1,1,0,89,89,56,,,,,,,,,,,,,,,,,,,,,,,,,,,,,,,,,,,,,,,,,,,,574.1402900999528,None,right,1,1.4439534000121057,574.6406240999931,576.0264634999912,574.6406240999931,575.524932899978,574.6406240999931,575.524932899978,574.6406240999931,575.524932899978,574.6406240999931,575.524932899978,574.6406240999931,575.524932899978,575.5084279999719,576.0099177999655,575.5084279999719,576.0099177999655,575.5084279999719,576.0099177999655,575.5084279999719,576.0099177999655,575.5084279999719,576.0099177999655,575.5084279999719,576.0099177999655,575.5084279999719,576.0099177999655,575.5084279999719,576.0099177999655,574.6406240999931,None,576.0099177999655,577.3951880999957,0.8800000000000006,577.4118674999918,None,578.162318799994,None,,,,,,,[1.38533333],2.9300000000000024,0.7777777777777778,11007,001,2024_Jan_01_1411,MFTM_A_new1021,2021.2.3,59.48815205741747,
,,,,,,,,stim/Instruction_adaptive.png,conditions/adaptive.xlsx,test,0.6,0.6,0.6,-0.6,-0.6,right,R,,,,,0,1,1,1,0,90,90,16,,,,,,,,,,,,,,,,,,,,,,,,,,,,,,,,,,,,,,,,,,,,578.6637014999869,None,left,0,1.873239399981685,579.1636863999884,580.5344283999875,579.1636863999884,580.0318169999518,579.1636863999884,580.0318169999518,579.1636863999884,580.0318169999518,579.1636863999884,580.0318169999518,579.1636863999884,580.0318169999518,580.0150764999562,580.516152199998,580.0150764999562,580.516152199998,580.0150764999562,580.516152199998,580.0150764999562,580.516152199998,580.0150764999562,580.516152199998,580.0150764999562,580.516152199998,580.0150764999562,580.516152199998,580.0150764999562,580.516152199998,579.1636863999884,None,580.516152199998,None,0.8600000000000005,581.91787569999,None,582.6694240999641,None,,,,,,,[1.38813187],2.870000000000002,0.7692307692307693,11007,001,2024_Jan_01_1411,MFTM_A_new1021,2021.2.3,59.48815205741747,
,,,,,,,,stim/Instruction_adaptive.png,conditions/adaptive.xlsx,test,-0.6,-0.6,-0.6,0.6,0.6,left,L,,,,,0,1,1,1,0,91,91,93,,,,,,,,,,,,,,,,,,,,,,,,,,,,,,,,,,,,,,,,,,,,583.1696150999633,None,left,1,2.00667049997719,583.6704640999669,585.0742825999623,583.6704640999669,584.572197099973,583.6704640999669,584.572197099973,583.6704640999669,584.572197099973,583.6704640999669,584.572197099973,583.6704640999669,584.572197099973,584.5556460999651,585.056037399976,584.5556460999651,585.056037399976,584.5556460999651,585.056037399976,584.5556460999651,585.056037399976,584.5556460999651,585.056037399976,584.5556460999651,585.056037399976,584.5556460999651,585.056037399976,584.5556460999651,585.056037399976,583.6704640999669,None,585.056037399976,586.4589212999563,0.9000000000000006,586.4743572999723,None,587.226620499976,None,,,,,,,[1.39043478],2.8900000000000023,0.7717391304347826,11007,001,2024_Jan_01_1411,MFTM_A_new1021,2021.2.3,59.48815205741747,
,,,,,,,,stim/Instruction_adaptive.png,conditions/adaptive.xlsx,test,-0.6,-0.6,-0.6,0.6,0.6,left,L,,,,,0,1,1,1,0,92,92,31,,,,,,,,,,,,,,,,,,,,,,,,,,,,,,,,,,,,,,,,,,,,587.7270279999939,None,left,1,2.1538071999675594,588.2271438000025,589.6303629999747,588.2271438000025,589.1290833999519,588.2271438000025,589.1290833999519,588.2271438000025,589.1290833999519,588.2271438000025,589.1290833999519,588.2271438000025,589.1290833999519,589.0961975999526,589.5963820999605,589.0961975999526,589.5963820999605,589.0961975999526,589.5963820999605,589.0961975999526,589.5963820999605,589.0961975999526,589.5963820999605,589.0961975999526,589.5963820999605,589.0961975999526,589.5963820999605,589.0961975999526,589.5963820999605,588.2271438000025,None,589.5963820999605,590.9986726999632,0.8900000000000006,591.015329399961,None,591.7667015999905,None,,,,,,,[1.3927957],2.910000000000002,0.7741935483870968,11007,001,2024_Jan_01_1411,MFTM_A_new1021,2021.2.3,59.48815205741747,
,,,,,,,,stim/Instruction_adaptive.png,conditions/adaptive.xlsx,test,0.6,0.6,0.6,-0.6,-0.6,right,R,,,,,0,1,1,1,0,93,93,6,,,,,,,,,,,,,,,,,,,,,,,,,,,,,,,,,,,,,,,,,,,,592.2670728999656,None,left,0,2.2293650999781676,592.7673528000014,594.1532244999544,592.7673528000014,593.6529389999923,592.7673528000014,593.6529389999923,592.7673528000014,593.6529389999923,592.7673528000014,593.6529389999923,592.7673528000014,593.6529389999923,593.6354651000001,594.1364935999736,593.6354651000001,594.1364935999736,593.6354651000001,594.1364935999736,593.6354651000001,594.1364935999736,593.6354651000001,594.1364935999736,593.6354651000001,594.1364935999736,593.6354651000001,594.1364935999736,593.6354651000001,594.1364935999736,592.7673528000014,None,594.1364935999736,595.5399174999911,0.8800000000000006,595.5550375999883,None,596.3064378999989,None,,,,,,,[1.39521277],2.8500000000000023,0.7659574468085106,11007,001,2024_Jan_01_1411,MFTM_A_new1021,2021.2.3,59.48815205741747,
