arrwidth1,arrwidth2,arrwidth3,arrwidth4,arrwidth5,keyb,type,orientation,instruction_image,block_filename,block_type,arrow11,arrow22,arrow33,arrow44,arrow55,keyb_3,orientation3,trials.thisRepN,trials.thisTrialN,trials.thisN,trials.thisIndex,trials_3.thisRepN,trials_3.thisTrialN,trials_3.thisN,trials_3.thisIndex,trials_2.thisRepN,trials_2.thisTrialN,trials_2.thisN,trials_2.thisIndex,welcome.started,welcome.stopped,key_resp.keys,key_resp.rt,key_resp.started,key_resp.stopped,instruction_example.started,instruction_example.stopped,key_resp_3.keys,key_resp_3.rt,key_resp_3.started,key_resp_3.stopped,instruction_task.started,instruction_task.stopped,key_resp_2.keys,key_resp_2.rt,key_resp_2.started,key_resp_2.stopped,text_2.started,text_2.stopped,A1.started,A1.stopped,A2.started,A2.stopped,A3.started,A3.stopped,A4.started,A4.stopped,A5.started,A5.stopped,key_resp_4.keys,key_resp_4.corr,key_resp_4.rt,key_resp_4.started,key_resp_4.stopped,fb.started,fb.stopped,instruction_block.started,instruction_block.stopped,key_resp_8.keys,key_resp_8.rt,key_resp_8.started,key_resp_8.stopped,text_8.started,text_8.stopped,key_resp_9.keys,key_resp_9.corr,key_resp_9.rt,text_5.started,text_5.stopped,A11_3.started,A11_3.stopped,A22_2.started,A22_2.stopped,A33_2.started,A33_2.stopped,A44_2.started,A44_2.stopped,A55_2.started,A55_2.stopped,M1_3.started,M1_3.stopped,M2_2.started,M2_2.stopped,M3_2.started,M3_2.stopped,M4_2.started,M4_2.stopped,M5_2.started,M5_2.stopped,M6_2.started,M6_2.stopped,M7_2.started,M7_2.stopped,M8_2.started,M8_2.stopped,key_resp_9.started,key_resp_9.stopped,fixation.started,fixation.stopped,ET,fb_3.started,fb_3.stopped,text_9.started,text_9.stopped,fb_4.started,fb_4.stopped,text_7.started,text_7.stopped,endtext.started,endtext.stopped,fixation_ITI,CCC,Acc,participant,session,date,expName,psychopyVersion,frameRate,
,,,,,,,,,,,,,,,,,,,,,,,,,,,,,,21.431611100008013,None,space,1.2514267999940785,21.431611100008013,None,,,,,,,,,,,,,,,,,,,,,,,,,,,,,,,,,,,,,,,,,,,,,,,,,,,,,,,,,,,,,,,,,,,,,,,,,,,,,,,,,,,,,,,,,11004,002,2023_Dec_29_1950,MFTM_A_new1021,2021.2.3,59.994732460794,
,,,,,,,,,,,,,,,,,,,,,,,,,,,,,,,,,,,,22.700680199995986,None,space,6.957830400002422,22.700680199995986,None,,,,,,,,,,,,,,,,,,,,,,,,,,,,,,,,,,,,,,,,,,,,,,,,,,,,,,,,,,,,,,,,,,,,,,,,,,,,,,,,,,,11004,002,2023_Dec_29_1950,MFTM_A_new1021,2021.2.3,59.994732460794,
,,,,,,,,,,,,,,,,,,,,,,,,,,,,,,,,,,,,,,,,,,29.67671660000633,None,space,1.782030999995186,29.67671660000633,None,,,,,,,,,,,,,,,,,,,,,,,,,,,,,,,,,,,,,,,,,,,,,,,,,,,,,,,,,,,,,,,,,,,,,,,,,,,,,11004,002,2023_Dec_29_1950,MFTM_A_new1021,2021.2.3,59.994732460794,
-0.6,-0.6,-0.6,0.6,0.6,left,3:2,L,,,,,,,,,,,0,0,0,1,,,,,,,,,,,,,,,,,,,,,,,,,,,31.497894300002372,None,31.497894300002372,None,31.497894300002372,None,31.497894300002372,None,31.497894300002372,None,31.497894300002372,None,left,1,2.5128968999924837,31.497894300002372,None,34.050452600000426,None,,,,,,,,,,,,,,,,,,,,,,,,,,,,,,,,,,,,,,,,,,,,,,,,,,,,,,,,,,11004,002,2023_Dec_29_1950,MFTM_A_new1021,2021.2.3,59.994732460794,
0.6,0.6,0.6,-0.6,-0.6,right,3:2,R,,,,,,,,,,,0,1,1,0,,,,,,,,,,,,,,,,,,,,,,,,,,,34.801932700007455,None,34.801932700007455,None,34.801932700007455,None,34.801932700007455,None,34.801932700007455,None,34.801932700007455,None,right,1,1.056665999989491,34.801932700007455,None,35.88643139999476,None,,,,,,,,,,,,,,,,,,,,,,,,,,,,,,,,,,,,,,,,,,,,,,,,,,,,,,,,,,11004,002,2023_Dec_29_1950,MFTM_A_new1021,2021.2.3,59.994732460794,
-0.6,-0.6,-0.6,0.6,0.6,left,3:2,L,,,,,,,,,,,1,0,2,1,,,,,,,,,,,,,,,,,,,,,,,,,,,36.6370317999972,None,36.6370317999972,None,36.6370317999972,None,36.6370317999972,None,36.6370317999972,None,36.6370317999972,None,left,1,1.8055912999989232,36.6370317999972,None,38.47310750000179,None,,,,,,,,,,,,,,,,,,,,,,,,,,,,,,,,,,,,,,,,,,,,,,,,,,,,,,,,,,11004,002,2023_Dec_29_1950,MFTM_A_new1021,2021.2.3,59.994732460794,
0.6,0.6,0.6,-0.6,-0.6,right,3:2,R,,,,,,,,,,,1,1,3,0,,,,,,,,,,,,,,,,,,,,,,,,,,,39.22506130000693,None,39.22506130000693,None,39.22506130000693,None,39.22506130000693,None,39.22506130000693,None,39.22506130000693,None,right,1,0.6414924999990035,39.22506130000693,None,39.892636300006416,None,,,,,,,,,,,,,,,,,,,,,,,,,,,,,,,,,,,,,,,,,,,,,,,,,,,,,,,,,,11004,002,2023_Dec_29_1950,MFTM_A_new1021,2021.2.3,59.994732460794,
,,,,,,,,stim/Instruction_mask.png,conditions/adaptive.xlsx,practice,-0.6,-0.6,-0.6,0.6,0.6,left,L,,,,,0,0,0,0,0,0,0,27,,,,,,,,,,,,,,,,,,,,,,,,,,,,,,,,,,,,,,40.910875500005204,None,space,3.955845699994825,40.910875500005204,None,44.99992139999813,None,left,1,1.8258142999984557,45.40094639999734,None,45.40094639999734,48.40524190000724,45.40094639999734,48.40524190000724,45.40094639999734,48.40524190000724,45.40094639999734,48.40524190000724,45.40094639999734,48.40524190000724,48.38955100000021,48.88943700000527,48.38955100000021,48.88943700000527,48.38955100000021,48.88943700000527,48.38955100000021,48.88943700000527,48.38955100000021,48.88943700000527,48.38955100000021,48.88943700000527,48.38955100000021,48.88943700000527,48.38955100000021,48.88943700000527,45.40094639999734,None,48.88943700000527,48.88943700000527,3,48.90623649999907,None,49.65729529999953,None,,,,,,,,,,11004,002,2023_Dec_29_1950,MFTM_A_new1021,2021.2.3,59.994732460794,
,,,,,,,,stim/Instruction_mask.png,conditions/adaptive.xlsx,practice,-0.6,-0.6,-0.6,0.6,0.6,left,L,,,,,0,0,0,0,0,1,1,69,,,,,,,,,,,,,,,,,,,,,,,,,,,,,,,,,,,,,,,,,,,,50.15787779999664,None,left,1,2.560288499997114,50.65883889999532,52.66163960000267,50.65883889999532,52.160768700006884,50.65883889999532,52.160768700006884,50.65883889999532,52.160768700006884,50.65883889999532,52.160768700006884,50.65883889999532,52.160768700006884,52.14423710000119,52.644213599996874,52.14423710000119,52.644213599996874,52.14423710000119,52.644213599996874,52.14423710000119,52.644213599996874,52.14423710000119,52.644213599996874,52.14423710000119,52.644213599996874,52.14423710000119,52.644213599996874,52.14423710000119,52.644213599996874,50.65883889999532,None,52.644213599996874,54.14649630000349,1.5,54.16390690000844,None,54.9151744999981,None,,,,,,,,,,11004,002,2023_Dec_29_1950,MFTM_A_new1021,2021.2.3,59.994732460794,
,,,,,,,,stim/Instruction_mask.png,conditions/adaptive.xlsx,practice,0.6,0.6,0.6,-0.6,-0.6,right,R,,,,,0,0,0,0,0,2,2,32,,,,,,,,,,,,,,,,,,,,,,,,,,,,,,,,,,,,,,,,,,,,55.4157428000035,None,right,1,1.8461527999897953,55.91626980000001,57.21849709999515,55.91626980000001,56.71770870000182,55.91626980000001,56.71770870000182,55.91626980000001,56.71770870000182,55.91626980000001,56.71770870000182,55.91626980000001,56.71770870000182,56.7006476999959,57.202246200002264,56.7006476999959,57.202246200002264,56.7006476999959,57.202246200002264,56.7006476999959,57.202246200002264,56.7006476999959,57.202246200002264,56.7006476999959,57.202246200002264,56.7006476999959,57.202246200002264,56.7006476999959,57.202246200002264,55.91626980000001,None,57.202246200002264,59.40539400000125,0.8,59.422257700003684,None,60.1727702000062,None,,,,,,,,,,11004,002,2023_Dec_29_1950,MFTM_A_new1021,2021.2.3,59.994732460794,
,,,,,,,,stim/Instruction_mask.png,conditions/adaptive.xlsx,practice,0.6,0.6,0.6,-0.6,-0.6,right,R,,,,,0,0,0,0,0,3,3,8,,,,,,,,,,,,,,,,,,,,,,,,,,,,,,,,,,,,,,,,,,,,60.67363689999911,None,left,0,1.6936592999991262,61.17363829999522,61.925498399999924,61.17363829999522,61.424405900004786,61.17363829999522,61.424405900004786,61.17363829999522,61.424405900004786,61.17363829999522,61.424405900004786,61.17363829999522,61.424405900004786,61.40781089999655,61.90861969999969,61.40781089999655,61.90861969999969,61.40781089999655,61.90861969999969,61.40781089999655,61.90861969999969,61.40781089999655,61.90861969999969,61.40781089999655,61.90861969999969,61.40781089999655,61.90861969999969,61.40781089999655,61.90861969999969,61.17363829999522,None,61.90861969999969,64.66280439999537,3,64.67859989999852,None,65.43069629999809,None,,,,,,,,,,11004,002,2023_Dec_29_1950,MFTM_A_new1021,2021.2.3,59.994732460794,
,,,,,,,,stim/Instruction_mask.png,conditions/adaptive.xlsx,practice,,,,,,,,,,,,0,0,0,0,,,,,,,,,,,,,,,,,,,,,,,,,,,,,,,,,,,,,,,,,,,,,,,,,,,,,,,,,,,,,,,,,,,,,,,,,,,,,,,,,,,,,,,,,,65.94712870000512,66.94945339999686,66.9324087999994,66.9324087999994,66.9324087999994,None,,,,11004,002,2023_Dec_29_1950,MFTM_A_new1021,2021.2.3,59.994732460794,
,,,,,,,,stim/Instruction_adaptive.png,conditions/adaptive.xlsx,test,-0.6,-0.6,-0.6,0.6,0.6,left,L,,,,,0,1,1,1,0,0,0,15,,,,,,,,,,,,,,,,,,,,,,,,,,,,,,,,,,,,,,70.10364070000651,None,space,1.9789358999987599,70.10364070000651,None,72.14072310000483,None,None,0,0,72.62383959999715,None,72.62383959999715,75.62897530000191,72.62383959999715,75.62897530000191,72.62383959999715,75.62897530000191,72.62383959999715,75.62897530000191,72.62383959999715,75.62897530000191,75.61249230000249,76.11310560000129,75.61249230000249,76.11310560000129,75.61249230000249,76.11310560000129,75.61249230000249,76.11310560000129,75.61249230000249,76.11310560000129,75.61249230000249,76.11310560000129,75.61249230000249,76.11310560000129,75.61249230000249,76.11310560000129,72.62383959999715,None,76.09604040000704,76.09604040000704,3,76.14668020000681,None,76.89763029999449,None,,,,,,,0.0,0.5,0.0,11004,002,2023_Dec_29_1950,MFTM_A_new1021,2021.2.3,59.994732460794,
,,,,,,,,stim/Instruction_adaptive.png,conditions/adaptive.xlsx,test,-0.6,-0.6,-0.6,0.6,0.6,left,L,,,,,0,1,1,1,0,1,1,45,,,,,,,,,,,,,,,,,,,,,,,,,,,,,,,,,,,,,,,,,,,,77.39800280000782,None,left,1,0.8721491000032984,77.89869020000333,None,77.89869020000333,80.9031690999982,77.89869020000333,80.9031690999982,77.89869020000333,80.9031690999982,77.89869020000333,80.9031690999982,77.89869020000333,80.9031690999982,80.88677199999802,81.3881948000053,80.88677199999802,81.3881948000053,80.88677199999802,81.3881948000053,80.88677199999802,81.3881948000053,80.88677199999802,81.3881948000053,80.88677199999802,81.3881948000053,80.88677199999802,81.3881948000053,80.88677199999802,81.3881948000053,77.89869020000333,None,81.3881948000053,81.3881948000053,3.0000000000000027,81.42135190000408,None,82.1743165999942,None,,,,,,,0,0.5,0.5,11004,002,2023_Dec_29_1950,MFTM_A_new1021,2021.2.3,59.994732460794,
,,,,,,,,stim/Instruction_adaptive.png,conditions/adaptive.xlsx,test,0.6,0.6,0.6,-0.6,-0.6,right,R,,,,,0,1,1,1,0,2,2,2,,,,,,,,,,,,,,,,,,,,,,,,,,,,,,,,,,,,,,,,,,,,82.6720517000067,None,right,1,2.0376853000052506,83.17348680000578,None,83.17348680000578,86.17730160000792,83.17348680000578,86.17730160000792,83.17348680000578,86.17730160000792,83.17348680000578,86.17730160000792,83.17348680000578,86.17730160000792,86.16130979999434,86.66207410000789,86.16130979999434,86.66207410000789,86.16130979999434,86.66207410000789,86.16130979999434,86.66207410000789,86.16130979999434,86.66207410000789,86.16130979999434,86.66207410000789,86.16130979999434,86.66207410000789,86.16130979999434,86.66207410000789,83.17348680000578,None,86.66207410000789,86.66207410000789,3.0000000000000027,86.69587710000633,None,87.44679950000136,None,,,,,,,0,0.5,0.6666666666666666,11004,002,2023_Dec_29_1950,MFTM_A_new1021,2021.2.3,59.994732460794,
,,,,,,,,stim/Instruction_adaptive.png,conditions/adaptive.xlsx,test,-0.6,-0.6,-0.6,0.6,0.6,left,L,,,,,0,1,1,1,0,3,3,81,,,,,,,,,,,,,,,,,,,,,,,,,,,,,,,,,,,,,,,,,,,,87.947216200002,None,right,0,1.3627673000009963,88.4481475000066,None,88.4481475000066,91.45274160000554,88.4481475000066,91.45274160000554,88.4481475000066,91.45274160000554,88.4481475000066,91.45274160000554,88.4481475000066,91.45274160000554,91.43592190000345,91.93660250000539,91.43592190000345,91.93660250000539,91.43592190000345,91.93660250000539,91.43592190000345,91.93660250000539,91.43592190000345,91.93660250000539,91.43592190000345,91.93660250000539,91.43592190000345,91.93660250000539,91.43592190000345,91.93660250000539,88.4481475000066,None,91.93660250000539,91.93660250000539,3.0000000000000027,91.95214239999768,None,92.70354760000191,None,,,,,,,0,0.5,0.5,11004,002,2023_Dec_29_1950,MFTM_A_new1021,2021.2.3,59.994732460794,
,,,,,,,,stim/Instruction_adaptive.png,conditions/adaptive.xlsx,test,0.6,0.6,0.6,-0.6,-0.6,right,R,,,,,0,1,1,1,0,4,4,44,,,,,,,,,,,,,,,,,,,,,,,,,,,,,,,,,,,,,,,,,,,,93.20440360000066,None,right,1,0.8499464000051375,93.70501350000268,None,93.70501350000268,96.71019270000397,93.70501350000268,96.71019270000397,93.70501350000268,96.71019270000397,93.70501350000268,96.71019270000397,93.70501350000268,96.71019270000397,96.69358089999878,97.19403529999545,96.69358089999878,97.19403529999545,96.69358089999878,97.19403529999545,96.69358089999878,97.19403529999545,96.69358089999878,97.19403529999545,96.69358089999878,97.19403529999545,96.69358089999878,97.19403529999545,96.69358089999878,97.19403529999545,93.70501350000268,None,97.19403529999545,97.19403529999545,3.0000000000000027,97.21004780000658,None,97.9619978999981,None,,,,,,,0,0.5,0.6,11004,002,2023_Dec_29_1950,MFTM_A_new1021,2021.2.3,59.994732460794,
,,,,,,,,stim/Instruction_adaptive.png,conditions/adaptive.xlsx,test,0.6,0.6,0.6,-0.6,-0.6,right,R,,,,,0,1,1,1,0,5,5,26,,,,,,,,,,,,,,,,,,,,,,,,,,,,,,,,,,,,,,,,,,,,98.4620719999948,None,right,1,1.9598884000006365,98.96358890000556,None,98.96358890000556,101.96786930000235,98.96358890000556,101.96786930000235,98.96358890000556,101.96786930000235,98.96358890000556,101.96786930000235,98.96358890000556,101.96786930000235,101.95056949999707,102.45214999999735,101.95056949999707,102.45214999999735,101.95056949999707,102.45214999999735,101.95056949999707,102.45214999999735,101.95056949999707,102.45214999999735,101.95056949999707,102.45214999999735,101.95056949999707,102.45214999999735,101.95056949999707,102.45214999999735,98.96358890000556,None,102.45214999999735,102.45214999999735,3.0000000000000027,102.46836339999572,None,103.21912249999878,None,,,,,,,0,0.5,0.6666666666666666,11004,002,2023_Dec_29_1950,MFTM_A_new1021,2021.2.3,59.994732460794,
,,,,,,,,stim/Instruction_adaptive.png,conditions/adaptive.xlsx,test,0.6,0.6,0.6,-0.6,-0.6,right,R,,,,,0,1,1,1,0,6,6,52,,,,,,,,,,,,,,,,,,,,,,,,,,,,,,,,,,,,,,,,,,,,103.71978800000215,None,right,1,1.3102898999932222,104.2210236999963,None,104.2210236999963,107.2259691000072,104.2210236999963,107.2259691000072,104.2210236999963,107.2259691000072,104.2210236999963,107.2259691000072,104.2210236999963,107.2259691000072,107.20829419999791,107.71001680000336,107.20829419999791,107.71001680000336,107.20829419999791,107.71001680000336,107.20829419999791,107.71001680000336,107.20829419999791,107.71001680000336,107.20829419999791,107.71001680000336,107.20829419999791,107.71001680000336,107.20829419999791,107.71001680000336,104.2210236999963,None,107.71001680000336,107.71001680000336,3.0000000000000027,107.72599819999596,None,108.47771980000834,None,,,,,,,0,0.8200000000000003,0.7142857142857143,11004,002,2023_Dec_29_1950,MFTM_A_new1021,2021.2.3,59.994732460794,
,,,,,,,,stim/Instruction_adaptive.png,conditions/adaptive.xlsx,test,0.6,0.6,0.6,-0.6,-0.6,right,R,,,,,0,1,1,1,0,7,7,66,,,,,,,,,,,,,,,,,,,,,,,,,,,,,,,,,,,,,,,,,,,,108.97850529999414,None,right,1,1.236520799997379,109.47899689999758,None,109.47899689999758,112.4829308000044,109.47899689999758,112.4829308000044,109.47899689999758,112.4829308000044,109.47899689999758,112.4829308000044,109.47899689999758,112.4829308000044,112.46646419999888,112.96753180000815,112.46646419999888,112.96753180000815,112.46646419999888,112.96753180000815,112.46646419999888,112.96753180000815,112.46646419999888,112.96753180000815,112.46646419999888,112.96753180000815,112.46646419999888,112.96753180000815,112.46646419999888,112.96753180000815,109.47899689999758,None,112.96753180000815,112.96753180000815,3.0000000000000027,112.98405369999819,None,113.73481039999751,None,,,,,,,0,1.1300000000000006,0.75,11004,002,2023_Dec_29_1950,MFTM_A_new1021,2021.2.3,59.994732460794,
,,,,,,,,stim/Instruction_adaptive.png,conditions/adaptive.xlsx,test,-0.6,-0.6,-0.6,0.6,0.6,left,L,,,,,0,1,1,1,0,8,8,31,,,,,,,,,,,,,,,,,,,,,,,,,,,,,,,,,,,,,,,,,,,,114.235631500007,None,left,1,2.0662332999927457,114.7365165999945,None,114.7365165999945,117.74138890000177,114.7365165999945,117.74138890000177,114.7365165999945,117.74138890000177,114.7365165999945,117.74138890000177,114.7365165999945,117.74138890000177,117.72479439999734,118.22551089999615,117.72479439999734,118.22551089999615,117.72479439999734,118.22551089999615,117.72479439999734,118.22551089999615,117.72479439999734,118.22551089999615,117.72479439999734,118.22551089999615,117.72479439999734,118.22551089999615,117.72479439999734,118.22551089999615,114.7365165999945,None,118.22551089999615,118.22551089999615,3.0000000000000027,118.24156700000458,None,118.99366940000618,None,,,,,,,0,1.3600000000000008,0.7777777777777778,11004,002,2023_Dec_29_1950,MFTM_A_new1021,2021.2.3,59.994732460794,
,,,,,,,,stim/Instruction_adaptive.png,conditions/adaptive.xlsx,test,-0.6,-0.6,-0.6,0.6,0.6,left,L,,,,,0,1,1,1,0,9,9,95,,,,,,,,,,,,,,,,,,,,,,,,,,,,,,,,,,,,,,,,,,,,119.49402860000555,None,None,0,0,119.99437299999408,123.06571710000571,119.99437299999408,122.56532110000262,119.99437299999408,122.56532110000262,119.99437299999408,122.56532110000262,119.99437299999408,122.56532110000262,119.99437299999408,122.56532110000262,122.53108489999431,123.0330774000031,122.53108489999431,123.0330774000031,122.53108489999431,123.0330774000031,122.53108489999431,123.0330774000031,122.53108489999431,123.0330774000031,122.53108489999431,123.0330774000031,122.53108489999431,123.0330774000031,122.53108489999431,123.0330774000031,119.99437299999408,None,123.0330774000031,123.48323539999546,2.5600000000000023,123.49940470000729,None,124.250884699999,None,,,,,,,[[0.44]],0.7900000000000003,0.7,11004,002,2023_Dec_29_1950,MFTM_A_new1021,2021.2.3,59.994732460794,
,,,,,,,,stim/Instruction_adaptive.png,conditions/adaptive.xlsx,test,0.6,0.6,0.6,-0.6,-0.6,right,R,,,,,0,1,1,1,0,10,10,46,,,,,,,,,,,,,,,,,,,,,,,,,,,,,,,,,,,,,,,,,,,,124.75177620000613,None,right,1,2.151141299997107,125.25184040000022,None,125.25184040000022,128.25707140000304,125.25184040000022,128.25707140000304,125.25184040000022,128.25707140000304,125.25184040000022,128.25707140000304,125.25184040000022,128.25707140000304,128.23997910000617,128.740864899999,128.23997910000617,128.740864899999,128.23997910000617,128.740864899999,128.23997910000617,128.740864899999,128.23997910000617,128.740864899999,128.23997910000617,128.740864899999,128.23997910000617,128.740864899999,128.23997910000617,128.740864899999,125.25184040000022,None,128.740864899999,128.740864899999,3.0000000000000027,128.7569397000043,None,129.5088628000085,None,,,,,,,0,1.0200000000000005,0.7272727272727273,11004,002,2023_Dec_29_1950,MFTM_A_new1021,2021.2.3,59.994732460794,
,,,,,,,,stim/Instruction_adaptive.png,conditions/adaptive.xlsx,test,-0.6,-0.6,-0.6,0.6,0.6,left,L,,,,,0,1,1,1,0,11,11,83,,,,,,,,,,,,,,,,,,,,,,,,,,,,,,,,,,,,,,,,,,,,130.00931370000762,None,left,1,1.5082078999985242,130.5104122000048,None,130.5104122000048,133.51430199999595,130.5104122000048,133.51430199999595,130.5104122000048,133.51430199999595,130.5104122000048,133.51430199999595,130.5104122000048,133.51430199999595,133.49863000000187,133.99897699999565,133.49863000000187,133.99897699999565,133.49863000000187,133.99897699999565,133.49863000000187,133.99897699999565,133.49863000000187,133.99897699999565,133.49863000000187,133.99897699999565,133.49863000000187,133.99897699999565,133.49863000000187,133.99897699999565,130.5104122000048,None,133.99897699999565,133.99897699999565,3.0000000000000027,134.0145038000046,None,134.76649759999418,None,,,,,,,0,1.2100000000000006,0.75,11004,002,2023_Dec_29_1950,MFTM_A_new1021,2021.2.3,59.994732460794,
,,,,,,,,stim/Instruction_adaptive.png,conditions/adaptive.xlsx,test,0.6,0.6,0.6,-0.6,-0.6,right,R,,,,,0,1,1,1,0,12,12,84,,,,,,,,,,,,,,,,,,,,,,,,,,,,,,,,,,,,,,,,,,,,135.26752080000006,None,right,1,1.699572099998477,135.7674010000046,None,135.7674010000046,138.62232850000146,135.7674010000046,138.62232850000146,135.7674010000046,138.62232850000146,135.7674010000046,138.62232850000146,135.7674010000046,138.62232850000146,138.58908649999648,139.0897096999979,138.58908649999648,139.0897096999979,138.58908649999648,139.0897096999979,138.58908649999648,139.0897096999979,138.58908649999648,139.0897096999979,138.58908649999648,139.0897096999979,138.58908649999648,139.0897096999979,138.58908649999648,139.0897096999979,135.7674010000046,None,139.0897096999979,139.0897096999979,2.8400000000000025,139.1225107000064,None,139.8737989000074,None,,,,,,,0,1.3600000000000008,0.7692307692307693,11004,002,2023_Dec_29_1950,MFTM_A_new1021,2021.2.3,59.994732460794,
,,,,,,,,stim/Instruction_adaptive.png,conditions/adaptive.xlsx,test,0.6,0.6,0.6,-0.6,-0.6,right,R,,,,,0,1,1,1,0,13,13,18,,,,,,,,,,,,,,,,,,,,,,,,,,,,,,,,,,,,,,,,,,,,140.37430759999552,None,right,1,1.847406199987745,140.87572530000762,None,140.87572530000762,143.44545030000154,140.87572530000762,143.44545030000154,140.87572530000762,143.44545030000154,140.87572530000762,143.44545030000154,140.87572530000762,143.44545030000154,143.41238360000716,143.91348699999799,143.41238360000716,143.91348699999799,143.41238360000716,143.91348699999799,143.41238360000716,143.91348699999799,143.41238360000716,143.91348699999799,143.41238360000716,143.91348699999799,143.41238360000716,143.91348699999799,143.41238360000716,143.91348699999799,140.87572530000762,None,143.91348699999799,143.91348699999799,2.5600000000000023,143.946497500001,None,144.69811559999653,None,,,,,,,0,1.4900000000000009,0.7857142857142857,11004,002,2023_Dec_29_1950,MFTM_A_new1021,2021.2.3,59.994732460794,
,,,,,,,,stim/Instruction_adaptive.png,conditions/adaptive.xlsx,test,0.6,0.6,0.6,-0.6,-0.6,right,R,,,,,0,1,1,1,0,14,14,54,,,,,,,,,,,,,,,,,,,,,,,,,,,,,,,,,,,,,,,,,,,,145.19938750000438,None,right,1,2.1678033000061987,145.6988665999961,None,145.6988665999961,148.05309560000023,145.6988665999961,148.05309560000023,145.6988665999961,148.05309560000023,145.6988665999961,148.05309560000023,145.6988665999961,148.05309560000023,148.01960189999954,148.5206210000033,148.01960189999954,148.5206210000033,148.01960189999954,148.5206210000033,148.01960189999954,148.5206210000033,148.01960189999954,148.5206210000033,148.01960189999954,148.5206210000033,148.01960189999954,148.5206210000033,148.01960189999954,148.5206210000033,145.6988665999961,None,148.5206210000033,148.5206210000033,2.3400000000000016,148.55297180000343,None,149.30478390000644,None,,,,,,,0,1.600000000000001,0.8,11004,002,2023_Dec_29_1950,MFTM_A_new1021,2021.2.3,59.994732460794,
,,,,,,,,stim/Instruction_adaptive.png,conditions/adaptive.xlsx,test,-0.6,-0.6,-0.6,0.6,0.6,left,L,,,,,0,1,1,1,0,15,15,61,,,,,,,,,,,,,,,,,,,,,,,,,,,,,,,,,,,,,,,,,,,,149.80554460000712,None,left,1,1.6410928999976022,150.30599770000845,None,150.30599770000845,152.47643589999643,150.30599770000845,152.47643589999643,150.30599770000845,152.47643589999643,150.30599770000845,152.47643589999643,150.30599770000845,152.47643589999643,152.4594386999961,152.96007670000836,152.4594386999961,152.96007670000836,152.4594386999961,152.96007670000836,152.4594386999961,152.96007670000836,152.4594386999961,152.96007670000836,152.4594386999961,152.96007670000836,152.4594386999961,152.96007670000836,152.4594386999961,152.96007670000836,150.30599770000845,None,152.96007670000836,152.96007670000836,2.1700000000000017,152.97611079999479,None,153.72794379999686,None,,,,,,,0,1.700000000000001,0.8125,11004,002,2023_Dec_29_1950,MFTM_A_new1021,2021.2.3,59.994732460794,
,,,,,,,,stim/Instruction_adaptive.png,conditions/adaptive.xlsx,test,0.6,0.6,0.6,-0.6,-0.6,right,R,,,,,0,1,1,1,0,16,16,88,,,,,,,,,,,,,,,,,,,,,,,,,,,,,,,,,,,,,,,,,,,,154.22868919999746,None,right,1,1.0899004000093555,154.72873160000017,None,154.72873160000017,156.74919620000583,154.72873160000017,156.74919620000583,154.72873160000017,156.74919620000583,154.72873160000017,156.74919620000583,154.72873160000017,156.74919620000583,156.73263379999844,157.2333684000041,156.73263379999844,157.2333684000041,156.73263379999844,157.2333684000041,156.73263379999844,157.2333684000041,156.73263379999844,157.2333684000041,156.73263379999844,157.2333684000041,156.73263379999844,157.2333684000041,156.73263379999844,157.2333684000041,154.72873160000017,None,157.2333684000041,157.2333684000041,2.0200000000000014,157.24941160000162,None,158.00110930000665,None,,,,,,,0,1.7900000000000011,0.8235294117647058,11004,002,2023_Dec_29_1950,MFTM_A_new1021,2021.2.3,59.994732460794,
,,,,,,,,stim/Instruction_adaptive.png,conditions/adaptive.xlsx,test,-0.6,-0.6,-0.6,0.6,0.6,left,L,,,,,0,1,1,1,0,17,17,99,,,,,,,,,,,,,,,,,,,,,,,,,,,,,,,,,,,,,,,,,,,,158.5015851000062,None,left,1,0.9601288000121713,159.00257700000657,None,159.00257700000657,160.90536520000023,159.00257700000657,160.90536520000023,159.00257700000657,160.90536520000023,159.00257700000657,160.90536520000023,159.00257700000657,160.90536520000023,160.8885350000055,161.38934860000154,160.8885350000055,161.38934860000154,160.8885350000055,161.38934860000154,160.8885350000055,161.38934860000154,160.8885350000055,161.38934860000154,160.8885350000055,161.38934860000154,160.8885350000055,161.38934860000154,160.8885350000055,161.38934860000154,159.00257700000657,None,161.38934860000154,161.38934860000154,1.9000000000000015,161.4056414999941,None,162.1572390000074,None,,,,,,,0,1.8800000000000012,0.8333333333333334,11004,002,2023_Dec_29_1950,MFTM_A_new1021,2021.2.3,59.994732460794,
,,,,,,,,stim/Instruction_adaptive.png,conditions/adaptive.xlsx,test,0.6,0.6,0.6,-0.6,-0.6,right,R,,,,,0,1,1,1,0,18,18,94,,,,,,,,,,,,,,,,,,,,,,,,,,,,,,,,,,,,,,,,,,,,162.65767480000795,None,right,1,1.356168800004525,163.15881969999464,None,163.15881969999464,164.96126900000672,163.15881969999464,164.96126900000672,163.15881969999464,164.96126900000672,163.15881969999464,164.96126900000672,163.15881969999464,164.96126900000672,164.92781829999876,165.42841310000222,164.92781829999876,165.42841310000222,164.92781829999876,165.42841310000222,164.92781829999876,165.42841310000222,164.92781829999876,165.42841310000222,164.92781829999876,165.42841310000222,164.92781829999876,165.42841310000222,164.92781829999876,165.42841310000222,163.15881969999464,None,165.42841310000222,165.42841310000222,1.7900000000000014,165.4634481999965,None,166.2132844000007,None,,,,,,,0,1.9500000000000013,0.8421052631578947,11004,002,2023_Dec_29_1950,MFTM_A_new1021,2021.2.3,59.994732460794,
,,,,,,,,stim/Instruction_adaptive.png,conditions/adaptive.xlsx,test,0.6,0.6,0.6,-0.6,-0.6,right,R,,,,,0,1,1,1,0,19,19,6,,,,,,,,,,,,,,,,,,,,,,,,,,,,,,,,,,,,,,,,,,,,166.71396609999647,None,right,1,1.4436612999998033,167.21495320000395,None,167.21495320000395,168.91689760000736,167.21495320000395,168.91689760000736,167.21495320000395,168.91689760000736,167.21495320000395,168.91689760000736,167.21495320000395,168.91689760000736,168.9011896000011,169.40175610000733,168.9011896000011,169.40175610000733,168.9011896000011,169.40175610000733,168.9011896000011,169.40175610000733,168.9011896000011,169.40175610000733,168.9011896000011,169.40175610000733,168.9011896000011,169.40175610000733,168.9011896000011,169.40175610000733,167.21495320000395,None,169.40175610000733,169.40175610000733,1.7000000000000013,169.41761810000753,None,170.1695888999966,None,,,,,,,0,2.0200000000000014,0.85,11004,002,2023_Dec_29_1950,MFTM_A_new1021,2021.2.3,59.994732460794,
,,,,,,,,stim/Instruction_adaptive.png,conditions/adaptive.xlsx,test,0.6,0.6,0.6,-0.6,-0.6,right,R,,,,,0,1,1,1,0,20,20,10,,,,,,,,,,,,,,,,,,,,,,,,,,,,,,,,,,,,,,,,,,,,170.66979270000593,None,left,0,1.105133899996872,171.1696573000081,None,171.1696573000081,172.78890339999634,171.1696573000081,172.78890339999634,171.1696573000081,172.78890339999634,171.1696573000081,172.78890339999634,171.1696573000081,172.78890339999634,172.77219719999994,173.27448229999573,172.77219719999994,173.27448229999573,172.77219719999994,173.27448229999573,172.77219719999994,173.27448229999573,172.77219719999994,173.27448229999573,172.77219719999994,173.27448229999573,172.77219719999994,173.27448229999573,172.77219719999994,173.27448229999573,171.1696573000081,None,173.27448229999573,173.27448229999573,1.6200000000000012,173.30811480000557,None,174.0586454000004,None,,,,,,,0,1.8200000000000012,0.8095238095238095,11004,002,2023_Dec_29_1950,MFTM_A_new1021,2021.2.3,59.994732460794,
,,,,,,,,stim/Instruction_adaptive.png,conditions/adaptive.xlsx,test,-0.6,-0.6,-0.6,0.6,0.6,left,L,,,,,0,1,1,1,0,21,21,43,,,,,,,,,,,,,,,,,,,,,,,,,,,,,,,,,,,,,,,,,,,,174.55902129999595,None,left,1,1.1591806000069482,175.05974369999603,None,175.05974369999603,176.92898300000525,175.05974369999603,176.92898300000525,175.05974369999603,176.92898300000525,175.05974369999603,176.92898300000525,175.05974369999603,176.92898300000525,176.89558900000702,177.39617510000244,176.89558900000702,177.39617510000244,176.89558900000702,177.39617510000244,176.89558900000702,177.39617510000244,176.89558900000702,177.39617510000244,176.89558900000702,177.39617510000244,176.89558900000702,177.39617510000244,176.89558900000702,177.39617510000244,175.05974369999603,None,177.39617510000244,177.39617510000244,1.8600000000000014,177.44749649999721,None,178.19816349999746,None,,,,,,,0,1.9000000000000012,0.8181818181818182,11004,002,2023_Dec_29_1950,MFTM_A_new1021,2021.2.3,59.994732460794,
,,,,,,,,stim/Instruction_adaptive.png,conditions/adaptive.xlsx,test,-0.6,-0.6,-0.6,0.6,0.6,left,L,,,,,0,1,1,1,0,22,22,7,,,,,,,,,,,,,,,,,,,,,,,,,,,,,,,,,,,,,,,,,,,,178.69857170000614,None,right,0,2.3561192999914056,179.19851430000563,181.46930530000827,179.19851430000563,180.96836610000173,179.19851430000563,180.96836610000173,179.19851430000563,180.96836610000173,179.19851430000563,180.96836610000173,179.19851430000563,180.96836610000173,180.9344667999976,181.43581090000225,180.9344667999976,181.43581090000225,180.9344667999976,181.43581090000225,180.9344667999976,181.43581090000225,180.9344667999976,181.43581090000225,180.9344667999976,181.43581090000225,180.9344667999976,181.43581090000225,180.9344667999976,181.43581090000225,179.19851430000563,None,181.43581090000225,181.58598040000652,1.7600000000000013,181.60179630000493,None,182.353935799998,None,,,,,,,0,1.700000000000001,0.782608695652174,11004,002,2023_Dec_29_1950,MFTM_A_new1021,2021.2.3,59.994732460794,
,,,,,,,,stim/Instruction_adaptive.png,conditions/adaptive.xlsx,test,-0.6,-0.6,-0.6,0.6,0.6,left,L,,,,,0,1,1,1,0,23,23,47,,,,,,,,,,,,,,,,,,,,,,,,,,,,,,,,,,,,,,,,,,,,182.85392700000375,None,left,1,1.9366681999963475,183.35453290000441,None,183.35453290000441,185.37422569999762,183.35453290000441,185.37422569999762,183.35453290000441,185.37422569999762,183.35453290000441,185.37422569999762,183.35453290000441,185.37422569999762,185.35831419999886,185.85964310000418,185.35831419999886,185.85964310000418,185.35831419999886,185.85964310000418,185.35831419999886,185.85964310000418,185.35831419999886,185.85964310000418,185.35831419999886,185.85964310000418,185.35831419999886,185.85964310000418,185.35831419999886,185.85964310000418,183.35453290000441,None,185.85964310000418,185.85964310000418,2.0200000000000014,185.89262890000828,None,186.64413040000363,None,,,,,,,0,1.7700000000000011,0.7916666666666666,11004,002,2023_Dec_29_1950,MFTM_A_new1021,2021.2.3,59.994732460794,
,,,,,,,,stim/Instruction_adaptive.png,conditions/adaptive.xlsx,test,0.6,0.6,0.6,-0.6,-0.6,right,R,,,,,0,1,1,1,0,24,24,22,,,,,,,,,,,,,,,,,,,,,,,,,,,,,,,,,,,,,,,,,,,,187.1443031999952,None,right,1,0.8459319999965373,187.64507880000747,190.08112420000543,187.64507880000747,189.58040210000763,187.64507880000747,189.58040210000763,187.64507880000747,189.58040210000763,187.64507880000747,189.58040210000763,187.64507880000747,189.58040210000763,189.54754119999416,190.04772930000036,189.54754119999416,190.04772930000036,189.54754119999416,190.04772930000036,189.54754119999416,190.04772930000036,189.54754119999416,190.04772930000036,189.54754119999416,190.04772930000036,189.54754119999416,190.04772930000036,189.54754119999416,190.04772930000036,187.64507880000747,None,190.04772930000036,190.06438520000665,1.9300000000000015,190.0977719000075,None,190.84989169999608,None,,,,,,,[0.0172],1.8400000000000012,0.8,11004,002,2023_Dec_29_1950,MFTM_A_new1021,2021.2.3,59.994732460794,
,,,,,,,,stim/Instruction_adaptive.png,conditions/adaptive.xlsx,test,-0.6,-0.6,-0.6,0.6,0.6,left,L,,,,,0,1,1,1,0,25,25,41,,,,,,,,,,,,,,,,,,,,,,,,,,,,,,,,,,,,,,,,,,,,191.3508034999977,None,left,1,1.2955412000010256,191.85130670000217,194.20473850000417,191.85130670000217,193.70418770000106,191.85130670000217,193.70418770000106,191.85130670000217,193.70418770000106,191.85130670000217,193.70418770000106,191.85130670000217,193.70418770000106,193.6704996000044,194.1713208000001,193.6704996000044,194.1713208000001,193.6704996000044,194.1713208000001,193.6704996000044,194.1713208000001,193.6704996000044,194.1713208000001,193.6704996000044,194.1713208000001,193.6704996000044,194.1713208000001,193.6704996000044,194.1713208000001,191.85130670000217,None,194.1713208000001,194.22114140000485,1.8400000000000014,194.24013649999688,None,194.98878010000044,None,,,,,,,[0.04192308],1.9000000000000012,0.8076923076923077,11004,002,2023_Dec_29_1950,MFTM_A_new1021,2021.2.3,59.994732460794,
,,,,,,,,stim/Instruction_adaptive.png,conditions/adaptive.xlsx,test,0.6,0.6,0.6,-0.6,-0.6,right,R,,,,,0,1,1,1,0,26,26,32,,,,,,,,,,,,,,,,,,,,,,,,,,,,,,,,,,,,,,,,,,,,195.48992370000633,None,right,1,1.1871652000118047,195.9914756000071,198.26049129999592,195.9914756000071,197.76005579999764,195.9914756000071,197.76005579999764,195.9914756000071,197.76005579999764,195.9914756000071,197.76005579999764,195.9914756000071,197.76005579999764,197.7263879999955,198.22733910000534,197.7263879999955,198.22733910000534,197.7263879999955,198.22733910000534,197.7263879999955,198.22733910000534,197.7263879999955,198.22733910000534,197.7263879999955,198.22733910000534,197.7263879999955,198.22733910000534,197.7263879999955,198.22733910000534,195.9914756000071,None,198.22733910000534,198.29432869999437,1.7600000000000013,198.3278907000058,None,199.07880839999416,None,,,,,,,[0.06777778],1.9600000000000013,0.8148148148148148,11004,002,2023_Dec_29_1950,MFTM_A_new1021,2021.2.3,59.994732460794,
,,,,,,,,stim/Instruction_adaptive.png,conditions/adaptive.xlsx,test,-0.6,-0.6,-0.6,0.6,0.6,left,L,,,,,0,1,1,1,0,27,27,5,,,,,,,,,,,,,,,,,,,,,,,,,,,,,,,,,,,,,,,,,,,,199.5794101000065,None,left,1,1.250884799999767,200.0801613000076,202.28338429999712,200.0801613000076,201.78281340000103,200.0801613000076,201.78281340000103,200.0801613000076,201.78281340000103,200.0801613000076,201.78281340000103,200.0801613000076,201.78281340000103,201.74930670000322,202.25070910000068,201.74930670000322,202.25070910000068,201.74930670000322,202.25070910000068,201.74930670000322,202.25070910000068,201.74930670000322,202.25070910000068,201.74930670000322,202.25070910000068,201.74930670000322,202.25070910000068,201.74930670000322,202.25070910000068,200.0801613000076,None,202.25070910000068,202.35078229999635,1.6900000000000013,202.36729890000424,None,203.1180355999968,None,,,,,,,[0.09428571],2.0100000000000016,0.8214285714285714,11004,002,2023_Dec_29_1950,MFTM_A_new1021,2021.2.3,59.994732460794,
,,,,,,,,stim/Instruction_adaptive.png,conditions/adaptive.xlsx,test,0.6,0.6,0.6,-0.6,-0.6,right,R,,,,,0,1,1,1,0,28,28,62,,,,,,,,,,,,,,,,,,,,,,,,,,,,,,,,,,,,,,,,,,,,203.61847020000278,None,right,1,1.1237465999874985,204.11942709999857,206.25619490000827,204.11942709999857,205.7551620000013,204.11942709999857,205.7551620000013,204.11942709999857,205.7551620000013,204.11942709999857,205.7551620000013,204.11942709999857,205.7551620000013,205.73842379999405,206.23936530000356,205.73842379999405,206.23936530000356,205.73842379999405,206.23936530000356,205.73842379999405,206.23936530000356,205.73842379999405,206.23936530000356,205.73842379999405,206.23936530000356,205.73842379999405,206.23936530000356,205.73842379999405,206.23936530000356,204.11942709999857,None,206.23936530000356,None,1.6300000000000012,206.37212460000592,None,207.12354060000507,None,,,,,,,[0.12103448],2.0600000000000014,0.8275862068965517,11004,002,2023_Dec_29_1950,MFTM_A_new1021,2021.2.3,59.994732460794,
,,,,,,,,stim/Instruction_adaptive.png,conditions/adaptive.xlsx,test,-0.6,-0.6,-0.6,0.6,0.6,left,L,,,,,0,1,1,1,0,29,29,73,,,,,,,,,,,,,,,,,,,,,,,,,,,,,,,,,,,,,,,,,,,,207.62468880000233,None,left,1,0.9985451999964425,208.12454259999504,210.21189380000578,208.12454259999504,209.7111048000079,208.12454259999504,209.7111048000079,208.12454259999504,209.7111048000079,208.12454259999504,209.7111048000079,208.12454259999504,209.7111048000079,209.6943859000021,210.19440180000674,209.6943859000021,210.19440180000674,209.6943859000021,210.19440180000674,209.6943859000021,210.19440180000674,209.6943859000021,210.19440180000674,209.6943859000021,210.19440180000674,209.6943859000021,210.19440180000674,209.6943859000021,210.19440180000674,208.12454259999504,None,210.19440180000674,210.34516179999628,1.5800000000000012,210.3616744000028,None,211.1128985999967,None,,,,,,,[0.14766667],2.110000000000001,0.8333333333333334,11004,002,2023_Dec_29_1950,MFTM_A_new1021,2021.2.3,59.994732460794,
,,,,,,,,stim/Instruction_adaptive.png,conditions/adaptive.xlsx,test,-0.6,-0.6,-0.6,0.6,0.6,left,L,,,,,0,1,1,1,0,30,30,59,,,,,,,,,,,,,,,,,,,,,,,,,,,,,,,,,,,,,,,,,,,,211.61381890000484,None,left,1,1.5037849999935133,212.11491869999736,214.1338182000036,212.11491869999736,213.64952439999615,212.11491869999736,213.64952439999615,212.11491869999736,213.64952439999615,212.11491869999736,213.64952439999615,212.11491869999736,213.64952439999615,213.61712150000676,214.11757940000098,213.61712150000676,214.11757940000098,213.61712150000676,214.11757940000098,213.61712150000676,214.11757940000098,213.61712150000676,214.11757940000098,213.61712150000676,214.11757940000098,213.61712150000676,214.11757940000098,213.61712150000676,214.11757940000098,212.11491869999736,None,214.11757940000098,214.30032540000684,1.5200000000000011,214.31703400000697,None,215.06888510000135,None,,,,,,,[0.17451613],2.1600000000000015,0.8387096774193549,11004,002,2023_Dec_29_1950,MFTM_A_new1021,2021.2.3,59.994732460794,
,,,,,,,,stim/Instruction_adaptive.png,conditions/adaptive.xlsx,test,-0.6,-0.6,-0.6,0.6,0.6,left,L,,,,,0,1,1,1,0,31,31,97,,,,,,,,,,,,,,,,,,,,,,,,,,,,,,,,,,,,,,,,,,,,215.56965190000483,None,left,1,1.1979205000097863,216.06971759999578,218.0393036000023,216.06971759999578,217.53930620000756,216.06971759999578,217.53930620000756,216.06971759999578,217.53930620000756,216.06971759999578,217.53930620000756,216.06971759999578,217.53930620000756,217.52265139999508,218.02260019999812,217.52265139999508,218.02260019999812,217.52265139999508,218.02260019999812,217.52265139999508,218.02260019999812,217.52265139999508,218.02260019999812,217.52265139999508,218.02260019999812,217.52265139999508,218.02260019999812,217.52265139999508,218.02260019999812,216.06971759999578,None,218.02260019999812,218.2236671999999,1.470000000000001,218.23991620000743,None,218.99076280000736,None,,,,,,,[0.20125],2.2000000000000015,0.84375,11004,002,2023_Dec_29_1950,MFTM_A_new1021,2021.2.3,59.994732460794,
,,,,,,,,stim/Instruction_adaptive.png,conditions/adaptive.xlsx,test,0.6,0.6,0.6,-0.6,-0.6,right,R,,,,,0,1,1,1,0,32,32,80,,,,,,,,,,,,,,,,,,,,,,,,,,,,,,,,,,,,,,,,,,,,219.4929540000012,None,left,0,1.0260409000038635,219.99305740000273,221.9289179000043,219.99305740000273,221.42846680000366,219.99305740000273,221.42846680000366,219.99305740000273,221.42846680000366,219.99305740000273,221.42846680000366,219.99305740000273,221.42846680000366,221.4118274000066,221.91182560000743,221.4118274000066,221.91182560000743,221.4118274000066,221.91182560000743,221.4118274000066,221.91182560000743,221.4118274000066,221.91182560000743,221.4118274000066,221.91182560000743,221.4118274000066,221.91182560000743,221.4118274000066,221.91182560000743,219.99305740000273,None,221.91182560000743,222.14616750000278,1.430000000000001,222.18031340000744,None,222.93118210000102,None,,,,,,,[0.22757576],2.070000000000001,0.8181818181818182,11004,002,2023_Dec_29_1950,MFTM_A_new1021,2021.2.3,59.994732460794,
,,,,,,,,stim/Instruction_adaptive.png,conditions/adaptive.xlsx,test,-0.6,-0.6,-0.6,0.6,0.6,left,L,,,,,0,1,1,1,0,33,33,9,,,,,,,,,,,,,,,,,,,,,,,,,,,,,,,,,,,,,,,,,,,,223.43152759999793,None,left,1,1.2466409000044223,223.93218139999954,226.0010151000024,223.93218139999954,225.50151489999553,223.93218139999954,225.50151489999553,223.93218139999954,225.50151489999553,223.93218139999954,225.50151489999553,223.93218139999954,225.50151489999553,225.48481629999878,225.98511860000144,225.48481629999878,225.98511860000144,225.48481629999878,225.98511860000144,225.48481629999878,225.98511860000144,225.48481629999878,225.98511860000144,225.48481629999878,225.98511860000144,225.48481629999878,225.98511860000144,225.48481629999878,225.98511860000144,223.93218139999954,None,225.98511860000144,226.23610680000274,1.5700000000000012,226.25122859999829,None,227.00311590000638,None,,,,,,,[0.24823529],2.1200000000000014,0.8235294117647058,11004,002,2023_Dec_29_1950,MFTM_A_new1021,2021.2.3,59.994732460794,
,,,,,,,,stim/Instruction_adaptive.png,conditions/adaptive.xlsx,test,0.6,0.6,0.6,-0.6,-0.6,right,R,,,,,0,1,1,1,0,34,34,16,,,,,,,,,,,,,,,,,,,,,,,,,,,,,,,,,,,,,,,,,,,,227.50441259999934,None,right,1,0.91886489999888,228.00486329999694,230.02669569999853,228.00486329999694,229.52416640000592,228.00486329999694,229.52416640000592,228.00486329999694,229.52416640000592,228.00486329999694,229.52416640000592,228.00486329999694,229.52416640000592,229.49036939999496,229.99043659999734,229.49036939999496,229.99043659999734,229.49036939999496,229.99043659999734,229.49036939999496,229.99043659999734,229.49036939999496,229.99043659999734,229.49036939999496,229.99043659999734,229.49036939999496,229.99043659999734,229.49036939999496,229.99043659999734,228.00486329999694,None,229.99043659999734,230.27531169999565,1.5100000000000011,230.30880670000624,None,231.0598628000007,None,,,,,,,[0.26942857],2.1600000000000015,0.8285714285714286,11004,002,2023_Dec_29_1950,MFTM_A_new1021,2021.2.3,59.994732460794,
,,,,,,,,stim/Instruction_adaptive.png,conditions/adaptive.xlsx,test,-0.6,-0.6,-0.6,0.6,0.6,left,L,,,,,0,1,1,1,0,35,35,1,,,,,,,,,,,,,,,,,,,,,,,,,,,,,,,,,,,,,,,,,,,,231.56018450000556,None,right,0,1.814185399998678,232.06062000000384,234.03020750000724,232.06062000000384,233.5457524000085,232.06062000000384,233.5457524000085,232.06062000000384,233.5457524000085,232.06062000000384,233.5457524000085,232.06062000000384,233.5457524000085,233.5128626000078,234.01319070000318,233.5128626000078,234.01319070000318,233.5128626000078,234.01319070000318,233.5128626000078,234.01319070000318,233.5128626000078,234.01319070000318,233.5128626000078,234.01319070000318,233.5128626000078,234.01319070000318,233.5128626000078,234.01319070000318,232.06062000000384,None,234.01319070000318,234.31332810000458,1.470000000000001,234.33101660000102,None,235.08206240000436,None,,,,,,,[0.29055556],2.0400000000000014,0.8055555555555556,11004,002,2023_Dec_29_1950,MFTM_A_new1021,2021.2.3,59.994732460794,
,,,,,,,,stim/Instruction_adaptive.png,conditions/adaptive.xlsx,test,-0.6,-0.6,-0.6,0.6,0.6,left,L,,,,,0,1,1,1,0,36,36,55,,,,,,,,,,,,,,,,,,,,,,,,,,,,,,,,,,,,,,,,,,,,235.58255069999723,None,left,1,1.135690800001612,236.08352190000005,238.18674479999754,236.08352190000005,237.68599680000625,236.08352190000005,237.68599680000625,236.08352190000005,237.68599680000625,236.08352190000005,237.68599680000625,236.08352190000005,237.68599680000625,237.66880660000606,238.16998190000595,237.66880660000606,238.16998190000595,237.66880660000606,238.16998190000595,237.66880660000606,238.16998190000595,237.66880660000606,238.16998190000595,237.66880660000606,238.16998190000595,237.66880660000606,238.16998190000595,237.66880660000606,238.16998190000595,236.08352190000005,None,238.16998190000595,238.48864290000347,1.6000000000000012,238.52097189999768,None,239.27068699999654,None,,,,,,,[0.30702703],2.0800000000000014,0.8108108108108109,11004,002,2023_Dec_29_1950,MFTM_A_new1021,2021.2.3,59.994732460794,
,,,,,,,,stim/Instruction_adaptive.png,conditions/adaptive.xlsx,test,-0.6,-0.6,-0.6,0.6,0.6,left,L,,,,,0,1,1,1,0,37,37,39,,,,,,,,,,,,,,,,,,,,,,,,,,,,,,,,,,,,,,,,,,,,239.77222179999808,None,left,1,2.258195500005968,240.2730212000024,242.3420741000009,240.2730212000024,241.84167039999738,240.2730212000024,241.84167039999738,240.2730212000024,241.84167039999738,240.2730212000024,241.84167039999738,240.2730212000024,241.84167039999738,241.80865489999996,242.30863739999768,241.80865489999996,242.30863739999768,241.80865489999996,242.30863739999768,241.80865489999996,242.30863739999768,241.80865489999996,242.30863739999768,241.80865489999996,242.30863739999768,241.80865489999996,242.30863739999768,241.80865489999996,242.30863739999768,240.2730212000024,None,242.30863739999768,242.6444843000063,1.5600000000000012,242.65895280000404,None,243.4108666999964,None,,,,,,,[0.32368421],2.1200000000000014,0.8157894736842105,11004,002,2023_Dec_29_1950,MFTM_A_new1021,2021.2.3,59.994732460794,
,,,,,,,,stim/Instruction_adaptive.png,conditions/adaptive.xlsx,test,-0.6,-0.6,-0.6,0.6,0.6,left,L,,,,,0,1,1,1,0,38,38,37,,,,,,,,,,,,,,,,,,,,,,,,,,,,,,,,,,,,,,,,,,,,243.9109976000036,None,left,1,1.4529375999991316,244.429856200004,246.44905939999444,244.429856200004,245.94811120000668,244.429856200004,245.94811120000668,244.429856200004,245.94811120000668,244.429856200004,245.94811120000668,244.429856200004,245.94811120000668,245.9139043000032,246.41530500000226,245.9139043000032,246.41530500000226,245.9139043000032,246.41530500000226,245.9139043000032,246.41530500000226,245.9139043000032,246.41530500000226,245.9139043000032,246.41530500000226,245.9139043000032,246.41530500000226,245.9139043000032,246.41530500000226,244.429856200004,None,246.41530500000226,246.76569359999849,1.5100000000000011,246.7826356000005,None,247.533860800002,None,,,,,,,[0.34076923],2.1600000000000015,0.8205128205128205,11004,002,2023_Dec_29_1950,MFTM_A_new1021,2021.2.3,59.994732460794,
,,,,,,,,stim/Instruction_adaptive.png,conditions/adaptive.xlsx,test,0.6,0.6,0.6,-0.6,-0.6,right,R,,,,,0,1,1,1,0,39,39,36,,,,,,,,,,,,,,,,,,,,,,,,,,,,,,,,,,,,,,,,,,,,248.03454069999862,None,right,1,1.163416600000346,248.535300500007,250.50535210000817,248.535300500007,250.02042299999448,248.535300500007,250.02042299999448,248.535300500007,250.02042299999448,248.535300500007,250.02042299999448,248.535300500007,250.02042299999448,249.9874628999969,250.48844950000057,249.9874628999969,250.48844950000057,249.9874628999969,250.48844950000057,249.9874628999969,250.48844950000057,249.9874628999969,250.48844950000057,249.9874628999969,250.48844950000057,249.9874628999969,250.48844950000057,249.9874628999969,250.48844950000057,248.535300500007,None,250.48844950000057,250.8555350999959,1.470000000000001,250.87204260000726,None,251.62329250000766,None,,,,,,,[0.358],2.2000000000000015,0.825,11004,002,2023_Dec_29_1950,MFTM_A_new1021,2021.2.3,59.994732460794,
,,,,,,,,stim/Instruction_adaptive.png,conditions/adaptive.xlsx,test,-0.6,-0.6,-0.6,0.6,0.6,left,L,,,,,0,1,1,1,0,40,40,25,,,,,,,,,,,,,,,,,,,,,,,,,,,,,,,,,,,,,,,,,,,,252.12310230000003,None,left,1,1.1304810000001453,252.62440410000272,254.56082610000158,252.62440410000272,254.0594667999976,252.62440410000272,254.0594667999976,252.62440410000272,254.0594667999976,252.62440410000272,254.0594667999976,252.62440410000272,254.0594667999976,254.04346960000112,254.54337210000085,254.04346960000112,254.54337210000085,254.04346960000112,254.54337210000085,254.04346960000112,254.54337210000085,254.04346960000112,254.54337210000085,254.04346960000112,254.54337210000085,254.04346960000112,254.54337210000085,254.04346960000112,254.54337210000085,252.62440410000272,None,254.54337210000085,254.92819999999483,1.430000000000001,254.94404570000188,None,255.6959249000065,None,,,,,,,[0.37536585],2.2400000000000015,0.8292682926829268,11004,002,2023_Dec_29_1950,MFTM_A_new1021,2021.2.3,59.994732460794,
,,,,,,,,stim/Instruction_adaptive.png,conditions/adaptive.xlsx,test,-0.6,-0.6,-0.6,0.6,0.6,left,L,,,,,0,1,1,1,0,41,41,27,,,,,,,,,,,,,,,,,,,,,,,,,,,,,,,,,,,,,,,,,,,,256.1971027999971,None,left,1,1.2738014999922598,256.6971254999953,258.59943109999585,256.6971254999953,258.09878339999705,256.6971254999953,258.09878339999705,256.6971254999953,258.09878339999705,256.6971254999953,258.09878339999705,256.6971254999953,258.09878339999705,258.06567189999623,258.56713630000013,258.06567189999623,258.56713630000013,258.06567189999623,258.56713630000013,258.06567189999623,258.56713630000013,258.06567189999623,258.56713630000013,258.06567189999623,258.56713630000013,258.06567189999623,258.56713630000013,258.06567189999623,258.56713630000013,256.6971254999953,None,258.56713630000013,258.9670355999988,1.390000000000001,258.98358949999965,None,259.7346433000057,None,,,,,,,[0.39285714],2.2700000000000014,0.8333333333333334,11004,002,2023_Dec_29_1950,MFTM_A_new1021,2021.2.3,59.994732460794,
,,,,,,,,stim/Instruction_adaptive.png,conditions/adaptive.xlsx,test,0.6,0.6,0.6,-0.6,-0.6,right,R,,,,,0,1,1,1,0,42,42,70,,,,,,,,,,,,,,,,,,,,,,,,,,,,,,,,,,,,,,,,,,,,260.2350815999962,None,right,1,1.2904645999951754,260.736782100008,262.6057187999977,260.736782100008,262.10514369999873,260.736782100008,262.10514369999873,260.736782100008,262.10514369999873,260.736782100008,262.10514369999873,260.736782100008,262.10514369999873,262.07266230000823,262.5728794000024,262.07266230000823,262.5728794000024,262.07266230000823,262.5728794000024,262.07266230000823,262.5728794000024,262.07266230000823,262.5728794000024,262.07266230000823,262.5728794000024,262.07266230000823,262.5728794000024,262.07266230000823,262.5728794000024,260.736782100008,None,262.5728794000024,262.9893143999943,1.360000000000001,263.0225070000015,None,263.7740536000056,None,,,,,,,[0.41023256],2.3100000000000014,0.8372093023255814,11004,002,2023_Dec_29_1950,MFTM_A_new1021,2021.2.3,59.994732460794,
,,,,,,,,stim/Instruction_adaptive.png,conditions/adaptive.xlsx,test,0.6,0.6,0.6,-0.6,-0.6,right,R,,,,,0,1,1,1,0,43,43,74,,,,,,,,,,,,,,,,,,,,,,,,,,,,,,,,,,,,,,,,,,,,264.27515790000325,None,left,0,0.8276966999983415,264.7758010999969,266.61204819999693,264.7758010999969,266.111988699995,264.7758010999969,266.111988699995,264.7758010999969,266.111988699995,264.7758010999969,266.111988699995,264.7758010999969,266.111988699995,266.09510910000245,266.5944948999968,266.09510910000245,266.5944948999968,266.09510910000245,266.5944948999968,266.09510910000245,266.5944948999968,266.09510910000245,266.5944948999968,266.09510910000245,266.5944948999968,266.09510910000245,266.5944948999968,266.09510910000245,266.5944948999968,264.7758010999969,None,266.5944948999968,267.02937449999445,1.330000000000001,267.045040099998,None,267.7970825000084,None,,,,,,,[0.4275],2.2100000000000017,0.8181818181818182,11004,002,2023_Dec_29_1950,MFTM_A_new1021,2021.2.3,59.994732460794,
,,,,,,,,stim/Instruction_adaptive.png,conditions/adaptive.xlsx,test,-0.6,-0.6,-0.6,0.6,0.6,left,L,,,,,0,1,1,1,0,44,44,85,,,,,,,,,,,,,,,,,,,,,,,,,,,,,,,,,,,,,,,,,,,,268.297066500003,None,left,1,0.7643036000081338,268.79884740000125,270.7179998000065,268.79884740000125,270.23344939999515,268.79884740000125,270.23344939999515,268.79884740000125,270.23344939999515,268.79884740000125,270.23344939999515,268.79884740000125,270.23344939999515,270.20062580000376,270.70138670000597,270.20062580000376,270.70138670000597,270.20062580000376,270.70138670000597,270.20062580000376,270.70138670000597,270.20062580000376,270.70138670000597,270.20062580000376,270.70138670000597,270.20062580000376,270.70138670000597,270.20062580000376,270.70138670000597,268.79884740000125,None,270.70138670000597,271.1521247000055,1.420000000000001,271.1858102999977,None,271.9370685000031,None,,,,,,,[0.442],2.2400000000000015,0.8222222222222222,11004,002,2023_Dec_29_1950,MFTM_A_new1021,2021.2.3,59.994732460794,
,,,,,,,,stim/Instruction_adaptive.png,conditions/adaptive.xlsx,test,-0.6,-0.6,-0.6,0.6,0.6,left,L,,,,,0,1,1,1,0,45,45,77,,,,,,,,,,,,,,,,,,,,,,,,,,,,,,,,,,,,,,,,,,,,272.43777520000003,None,left,1,2.0568558999948436,272.95432869999786,274.8570394999988,272.95432869999786,274.35643939999864,272.95432869999786,274.35643939999864,272.95432869999786,274.35643939999864,272.95432869999786,274.35643939999864,272.95432869999786,274.35643939999864,274.3066247999959,274.8067993000004,274.3066247999959,274.8067993000004,274.3066247999959,274.8067993000004,274.3066247999959,274.8067993000004,274.3066247999959,274.8067993000004,274.3066247999959,274.8067993000004,274.3066247999959,274.8067993000004,274.3066247999959,274.8067993000004,272.95432869999786,None,274.8067993000004,275.2756003999966,1.390000000000001,275.30755630000203,None,276.058944400007,None,,,,,,,[0.45652174],2.2800000000000016,0.8260869565217391,11004,002,2023_Dec_29_1950,MFTM_A_new1021,2021.2.3,59.994732460794,
,,,,,,,,stim/Instruction_adaptive.png,conditions/adaptive.xlsx,test,0.6,0.6,0.6,-0.6,-0.6,right,R,,,,,0,1,1,1,0,46,46,90,,,,,,,,,,,,,,,,,,,,,,,,,,,,,,,,,,,,,,,,,,,,276.56012989999726,None,right,1,1.406925000002957,277.05997200000274,278.9137432999996,277.05997200000274,278.4128653999942,277.05997200000274,278.4128653999942,277.05997200000274,278.4128653999942,277.05997200000274,278.4128653999942,277.05997200000274,278.4128653999942,278.3962021000043,278.8972100999963,278.3962021000043,278.8972100999963,278.3962021000043,278.8972100999963,278.3962021000043,278.8972100999963,278.3962021000043,278.8972100999963,278.3962021000043,278.8972100999963,278.3962021000043,278.8972100999963,278.3962021000043,278.8972100999963,277.05997200000274,None,278.8972100999963,None,1.350000000000001,279.3802482000028,None,280.13210220000474,None,,,,,,,[0.4712766],2.3100000000000014,0.8297872340425532,11004,002,2023_Dec_29_1950,MFTM_A_new1021,2021.2.3,59.994732460794,
,,,,,,,,stim/Instruction_adaptive.png,conditions/adaptive.xlsx,test,-0.6,-0.6,-0.6,0.6,0.6,left,L,,,,,0,1,1,1,0,47,47,21,,,,,,,,,,,,,,,,,,,,,,,,,,,,,,,,,,,,,,,,,,,,280.6326127000066,None,left,1,1.0139091000019107,281.13312500000757,282.96884509999654,281.13312500000757,282.46821819999604,281.13312500000757,282.46821819999604,281.13312500000757,282.46821819999604,281.13312500000757,282.46821819999604,281.13312500000757,282.46821819999604,282.45230950000405,282.95219379999617,282.45230950000405,282.95219379999617,282.45230950000405,282.95219379999617,282.45230950000405,282.95219379999617,282.45230950000405,282.95219379999617,282.45230950000405,282.95219379999617,282.45230950000405,282.95219379999617,282.45230950000405,282.95219379999617,281.13312500000757,None,282.95219379999617,None,1.330000000000001,283.4537808000023,None,284.2045222000015,None,,,,,,,[0.48583333],2.3400000000000016,0.8333333333333334,11004,002,2023_Dec_29_1950,MFTM_A_new1021,2021.2.3,59.994732460794,
,,,,,,,,stim/Instruction_adaptive.png,conditions/adaptive.xlsx,test,-0.6,-0.6,-0.6,0.6,0.6,left,L,,,,,0,1,1,1,0,48,48,91,,,,,,,,,,,,,,,,,,,,,,,,,,,,,,,,,,,,,,,,,,,,284.7055079999991,None,right,0,1.213317800007644,285.20552889999817,287.00851660000626,285.20552889999817,286.50818730000174,285.20552889999817,286.50818730000174,285.20552889999817,286.50818730000174,285.20552889999817,286.50818730000174,285.20552889999817,286.50818730000174,286.49155960000644,286.99143999999797,286.49155960000644,286.99143999999797,286.49155960000644,286.99143999999797,286.49155960000644,286.99143999999797,286.49155960000644,286.99143999999797,286.49155960000644,286.99143999999797,286.49155960000644,286.99143999999797,286.49155960000644,286.99143999999797,285.20552889999817,None,286.99143999999797,287.4927791999944,1.300000000000001,287.5087013000011,None,288.261241900007,None,,,,,,,[0.50040816],2.2500000000000018,0.8163265306122449,11004,002,2023_Dec_29_1950,MFTM_A_new1021,2021.2.3,59.994732460794,
,,,,,,,,stim/Instruction_adaptive.png,conditions/adaptive.xlsx,test,-0.6,-0.6,-0.6,0.6,0.6,left,L,,,,,0,1,1,1,0,49,49,3,,,,,,,,,,,,,,,,,,,,,,,,,,,,,,,,,,,,,,,,,,,,288.76161899999715,None,left,1,1.2848892000038177,289.26228890000493,291.1485609999945,289.26228890000493,290.6470666999958,289.26228890000493,290.6470666999958,289.26228890000493,290.6470666999958,289.26228890000493,290.6470666999958,289.26228890000493,290.6470666999958,290.6309406000073,291.1315636000072,290.6309406000073,291.1315636000072,290.6309406000073,291.1315636000072,290.6309406000073,291.1315636000072,290.6309406000073,291.1315636000072,290.6309406000073,291.1315636000072,290.6309406000073,291.1315636000072,290.6309406000073,291.1315636000072,289.26228890000493,None,291.1315636000072,291.649253399999,1.380000000000001,291.66489820000425,None,292.41695120000804,None,,,,,,,[0.5128],2.2800000000000016,0.82,11004,002,2023_Dec_29_1950,MFTM_A_new1021,2021.2.3,59.994732460794,
,,,,,,,,stim/Instruction_adaptive.png,conditions/adaptive.xlsx,test,0.6,0.6,0.6,-0.6,-0.6,right,R,,,,,0,1,1,1,0,50,50,30,,,,,,,,,,,,,,,,,,,,,,,,,,,,,,,,,,,,,,,,,,,,292.9175421999971,None,left,0,1.1358753999957116,293.41903839999577,295.27042240000446,293.41903839999577,294.76971259999846,293.41903839999577,294.76971259999846,293.41903839999577,294.76971259999846,293.41903839999577,294.76971259999846,293.41903839999577,294.76971259999846,294.753300700002,295.2539279000048,294.753300700002,295.2539279000048,294.753300700002,295.2539279000048,294.753300700002,295.2539279000048,294.753300700002,295.2539279000048,294.753300700002,295.2539279000048,294.753300700002,295.2539279000048,294.753300700002,295.2539279000048,293.41903839999577,None,295.2539279000048,295.7878328000079,1.350000000000001,295.8041882999969,None,296.5560433000064,None,,,,,,,[0.52529412],2.1900000000000013,0.803921568627451,11004,002,2023_Dec_29_1950,MFTM_A_new1021,2021.2.3,59.994732460794,
,,,,,,,,stim/Instruction_adaptive.png,conditions/adaptive.xlsx,test,0.6,0.6,0.6,-0.6,-0.6,right,R,,,,,0,1,1,1,0,51,51,28,,,,,,,,,,,,,,,,,,,,,,,,,,,,,,,,,,,,,,,,,,,,297.05712420000054,None,right,1,1.2613748000003397,297.5574818000023,299.51077059999807,297.5574818000023,299.0098855999968,297.5574818000023,299.0098855999968,297.5574818000023,299.0098855999968,297.5574818000023,299.0098855999968,297.5574818000023,299.0098855999968,298.97600360000797,299.47669910000695,298.97600360000797,299.47669910000695,298.97600360000797,299.47669910000695,298.97600360000797,299.47669910000695,298.97600360000797,299.47669910000695,298.97600360000797,299.47669910000695,298.97600360000797,299.47669910000695,298.97600360000797,299.47669910000695,297.5574818000023,None,299.47669910000695,300.0285421000008,1.440000000000001,300.06180949999543,None,300.81243040000845,None,,,,,,,[0.53557692],2.2200000000000015,0.8076923076923077,11004,002,2023_Dec_29_1950,MFTM_A_new1021,2021.2.3,59.994732460794,
,,,,,,,,stim/Instruction_adaptive.png,conditions/adaptive.xlsx,test,0.6,0.6,0.6,-0.6,-0.6,right,R,,,,,0,1,1,1,0,52,52,34,,,,,,,,,,,,,,,,,,,,,,,,,,,,,,,,,,,,,,,,,,,,301.3133625000046,None,right,1,2.028929499996593,301.81387440000253,303.7329085999954,301.81387440000253,303.23252740000316,301.81387440000253,303.23252740000316,301.81387440000253,303.23252740000316,301.81387440000253,303.23252740000316,301.81387440000253,303.23252740000316,303.19969480000145,303.70040050000534,303.19969480000145,303.70040050000534,303.19969480000145,303.70040050000534,303.19969480000145,303.70040050000534,303.19969480000145,303.70040050000534,303.19969480000145,303.70040050000534,303.19969480000145,303.70040050000534,303.19969480000145,303.70040050000534,301.81387440000253,None,303.70040050000534,304.25078240000585,1.410000000000001,304.2836843999976,None,305.03479869999865,None,,,,,,,[0.54603774],2.2500000000000018,0.8113207547169812,11004,002,2023_Dec_29_1950,MFTM_A_new1021,2021.2.3,59.994732460794,
,,,,,,,,stim/Instruction_adaptive.png,conditions/adaptive.xlsx,test,-0.6,-0.6,-0.6,0.6,0.6,left,L,,,,,0,1,1,1,0,53,53,23,,,,,,,,,,,,,,,,,,,,,,,,,,,,,,,,,,,,,,,,,,,,305.53648209999665,None,left,1,1.022098499990534,306.03661490000377,307.92329710000195,306.03661490000377,307.4225523000059,306.03661490000377,307.4225523000059,306.03661490000377,307.4225523000059,306.03661490000377,307.4225523000059,306.03661490000377,307.4225523000059,307.4049642000027,307.9066493999999,307.4049642000027,307.9066493999999,307.4049642000027,307.9066493999999,307.4049642000027,307.9066493999999,307.4049642000027,307.9066493999999,307.4049642000027,307.9066493999999,307.4049642000027,307.9066493999999,307.4049642000027,307.9066493999999,306.03661490000377,None,307.9066493999999,None,1.380000000000001,308.4736331000022,None,309.22430780000286,None,,,,,,,[0.55666667],2.2800000000000016,0.8148148148148148,11004,002,2023_Dec_29_1950,MFTM_A_new1021,2021.2.3,59.994732460794,
,,,,,,,,stim/Instruction_adaptive.png,conditions/adaptive.xlsx,test,-0.6,-0.6,-0.6,0.6,0.6,left,L,,,,,0,1,1,1,0,54,54,65,,,,,,,,,,,,,,,,,,,,,,,,,,,,,,,,,,,,,,,,,,,,309.72564790000615,None,left,1,1.6412799999961862,310.22591690000263,312.0786896000063,310.22591690000263,311.5810366000078,310.22591690000263,311.5810366000078,310.22591690000263,311.5810366000078,310.22591690000263,311.5810366000078,310.22591690000263,311.5810366000078,311.56148600000597,312.0619555000012,311.56148600000597,312.0619555000012,311.56148600000597,312.0619555000012,311.56148600000597,312.0619555000012,311.56148600000597,312.0619555000012,311.56148600000597,312.0619555000012,311.56148600000597,312.0619555000012,311.56148600000597,312.0619555000012,310.22591690000263,None,312.0619555000012,312.629551200007,1.350000000000001,312.64690540000447,None,313.3979959999997,None,,,,,,,[0.56745455],2.3100000000000014,0.8181818181818182,11004,002,2023_Dec_29_1950,MFTM_A_new1021,2021.2.3,59.994732460794,
,,,,,,,,stim/Instruction_adaptive.png,conditions/adaptive.xlsx,test,0.6,0.6,0.6,-0.6,-0.6,right,R,,,,,0,1,1,1,0,55,55,98,,,,,,,,,,,,,,,,,,,,,,,,,,,,,,,,,,,,,,,,,,,,313.8983412999951,None,right,1,1.178752899999381,314.40005690000544,316.2355869000021,314.40005690000544,315.7343419999961,314.40005690000544,315.7343419999961,314.40005690000544,315.7343419999961,314.40005690000544,315.7343419999961,314.40005690000544,315.7343419999961,315.7181453999947,316.2187879999983,315.7181453999947,316.2187879999983,315.7181453999947,316.2187879999983,315.7181453999947,316.2187879999983,315.7181453999947,316.2187879999983,315.7181453999947,316.2187879999983,315.7181453999947,316.2187879999983,315.7181453999947,316.2187879999983,314.40005690000544,None,316.202011500005,316.78686530000414,1.330000000000001,316.81907990000036,None,317.5709188000037,None,,,,,,,[0.57821429],2.3400000000000016,0.8214285714285714,11004,002,2023_Dec_29_1950,MFTM_A_new1021,2021.2.3,59.994732460794,
,,,,,,,,stim/Instruction_adaptive.png,conditions/adaptive.xlsx,test,0.6,0.6,0.6,-0.6,-0.6,right,R,,,,,0,1,1,1,0,56,56,4,,,,,,,,,,,,,,,,,,,,,,,,,,,,,,,,,,,,,,,,,,,,318.07167160000245,None,right,1,1.1426578999962658,318.5724947999988,320.3743794000038,318.5724947999988,319.87451110000256,318.5724947999988,319.87451110000256,318.5724947999988,319.87451110000256,318.5724947999988,319.87451110000256,318.5724947999988,319.87451110000256,319.85745640000096,320.3576614000049,319.85745640000096,320.3576614000049,319.85745640000096,320.3576614000049,319.85745640000096,320.3576614000049,319.85745640000096,320.3576614000049,319.85745640000096,320.3576614000049,319.85745640000096,320.3576614000049,319.85745640000096,320.3576614000049,318.5724947999988,None,320.3576614000049,320.95975370000815,1.300000000000001,320.9936460000026,None,321.74375940000755,None,,,,,,,[0.58912281],2.3600000000000017,0.8245614035087719,11004,002,2023_Dec_29_1950,MFTM_A_new1021,2021.2.3,59.994732460794,
,,,,,,,,stim/Instruction_adaptive.png,conditions/adaptive.xlsx,test,0.6,0.6,0.6,-0.6,-0.6,right,R,,,,,0,1,1,1,0,57,57,82,,,,,,,,,,,,,,,,,,,,,,,,,,,,,,,,,,,,,,,,,,,,322.24447590000636,None,right,1,1.1705848999990849,322.74477900000056,324.5318692000001,322.74477900000056,324.0304160999949,322.74477900000056,324.0304160999949,322.74477900000056,324.0304160999949,322.74477900000056,324.0304160999949,322.74477900000056,324.0304160999949,324.01290850000805,324.5145721000008,324.01290850000805,324.5145721000008,324.01290850000805,324.5145721000008,324.01290850000805,324.5145721000008,324.01290850000805,324.5145721000008,324.01290850000805,324.5145721000008,324.01290850000805,324.5145721000008,324.01290850000805,324.5145721000008,322.74477900000056,None,324.49784050000017,325.09853050000675,1.280000000000001,325.13100219999615,None,325.8831036000047,None,,,,,,,[0.6],2.3900000000000015,0.8275862068965517,11004,002,2023_Dec_29_1950,MFTM_A_new1021,2021.2.3,59.994732460794,
,,,,,,,,stim/Instruction_adaptive.png,conditions/adaptive.xlsx,test,-0.6,-0.6,-0.6,0.6,0.6,left,L,,,,,0,1,1,1,0,58,58,53,,,,,,,,,,,,,,,,,,,,,,,,,,,,,,,,,,,,,,,,,,,,326.3831124999997,None,left,1,1.1666597000003094,326.8844875000068,328.65406580000126,326.8844875000068,328.1531757000048,326.8844875000068,328.1531757000048,326.8844875000068,328.1531757000048,326.8844875000068,328.1531757000048,326.8844875000068,328.1531757000048,328.11988890000794,328.620201800004,328.11988890000794,328.620201800004,328.11988890000794,328.620201800004,328.11988890000794,328.620201800004,328.11988890000794,328.620201800004,328.11988890000794,328.620201800004,328.11988890000794,328.620201800004,328.11988890000794,328.620201800004,326.8844875000068,None,328.620201800004,329.23754159999953,1.260000000000001,329.2717244999949,None,330.02280130000145,None,,,,,,,[0.61084746],2.4200000000000017,0.8305084745762712,11004,002,2023_Dec_29_1950,MFTM_A_new1021,2021.2.3,59.994732460794,
,,,,,,,,stim/Instruction_adaptive.png,conditions/adaptive.xlsx,test,-0.6,-0.6,-0.6,0.6,0.6,left,L,,,,,0,1,1,1,0,59,59,17,,,,,,,,,,,,,,,,,,,,,,,,,,,,,,,,,,,,,,,,,,,,330.52328190000844,None,left,1,1.4275691000075312,331.023743800004,332.759879300007,331.023743800004,332.25940439999977,331.023743800004,332.25940439999977,331.023743800004,332.25940439999977,331.023743800004,332.25940439999977,331.023743800004,332.25940439999977,332.24264850000327,332.7435581000027,332.24264850000327,332.7435581000027,332.24264850000327,332.7435581000027,332.24264850000327,332.7435581000027,332.24264850000327,332.7435581000027,332.24264850000327,332.7435581000027,332.24264850000327,332.7435581000027,332.24264850000327,332.7435581000027,331.023743800004,None,332.7435581000027,None,1.2300000000000009,333.3769362000021,None,334.128008700005,None,,,,,,,[0.62183333],2.4400000000000017,0.8333333333333334,11004,002,2023_Dec_29_1950,MFTM_A_new1021,2021.2.3,59.994732460794,
,,,,,,,,stim/Instruction_adaptive.png,conditions/adaptive.xlsx,test,0.6,0.6,0.6,-0.6,-0.6,right,R,,,,,0,1,1,1,0,60,60,78,,,,,,,,,,,,,,,,,,,,,,,,,,,,,,,,,,,,,,,,,,,,334.62966629999573,None,right,1,1.4408936999971047,335.1301458999951,336.8495683000074,335.1301458999951,336.3483256000036,335.1301458999951,336.3483256000036,335.1301458999951,336.3483256000036,335.1301458999951,336.3483256000036,335.1301458999951,336.3483256000036,336.3327661000076,336.83284950000234,336.3327661000076,336.83284950000234,336.3327661000076,336.83284950000234,336.3327661000076,336.83284950000234,336.3327661000076,336.83284950000234,336.3327661000076,336.83284950000234,336.3327661000076,336.83284950000234,336.3327661000076,336.83284950000234,335.1301458999951,None,336.83284950000234,337.4669886000047,1.2100000000000009,337.48353140000836,None,338.23421640000015,None,,,,,,,[0.63278689],2.4700000000000015,0.8360655737704918,11004,002,2023_Dec_29_1950,MFTM_A_new1021,2021.2.3,59.994732460794,
,,,,,,,,stim/Instruction_adaptive.png,conditions/adaptive.xlsx,test,0.6,0.6,0.6,-0.6,-0.6,right,R,,,,,0,1,1,1,0,61,61,64,,,,,,,,,,,,,,,,,,,,,,,,,,,,,,,,,,,,,,,,,,,,338.7356387000036,None,right,1,1.174629000001005,339.23670239999774,340.9387549999956,339.23670239999774,340.43785149999894,339.23670239999774,340.43785149999894,339.23670239999774,340.43785149999894,339.23670239999774,340.43785149999894,339.23670239999774,340.43785149999894,340.4040126000036,340.90550110000186,340.4040126000036,340.90550110000186,340.4040126000036,340.90550110000186,340.4040126000036,340.90550110000186,340.4040126000036,340.90550110000186,340.4040126000036,340.90550110000186,340.4040126000036,340.90550110000186,340.4040126000036,340.90550110000186,339.23670239999774,None,340.90550110000186,341.5565451000002,1.1900000000000008,341.57251189999806,None,342.3242777999985,None,,,,,,,[0.64370968],2.490000000000002,0.8387096774193549,11004,002,2023_Dec_29_1950,MFTM_A_new1021,2021.2.3,59.994732460794,
,,,,,,,,stim/Instruction_adaptive.png,conditions/adaptive.xlsx,test,-0.6,-0.6,-0.6,0.6,0.6,left,L,,,,,0,1,1,1,0,62,62,93,,,,,,,,,,,,,,,,,,,,,,,,,,,,,,,,,,,,,,,,,,,,342.8251836999989,None,left,1,0.9336210000037681,343.32567330000165,345.0113376000081,343.32567330000165,344.5109366999968,343.32567330000165,344.5109366999968,343.32567330000165,344.5109366999968,343.32567330000165,344.5109366999968,343.32567330000165,344.5109366999968,344.4770118000015,344.97785880000447,344.4770118000015,344.97785880000447,344.4770118000015,344.97785880000447,344.4770118000015,344.97785880000447,344.4770118000015,344.97785880000447,344.4770118000015,344.97785880000447,344.4770118000015,344.97785880000447,344.4770118000015,344.97785880000447,343.32567330000165,None,344.97785880000447,345.64560030000575,1.1700000000000008,345.66219750000164,None,346.41330860000744,None,,,,,,,[0.65460317],2.5100000000000016,0.8412698412698413,11004,002,2023_Dec_29_1950,MFTM_A_new1021,2021.2.3,59.994732460794,
,,,,,,,,stim/Instruction_adaptive.png,conditions/adaptive.xlsx,test,0.6,0.6,0.6,-0.6,-0.6,right,R,,,,,0,1,1,1,0,63,63,96,,,,,,,,,,,,,,,,,,,,,,,,,,,,,,,,,,,,,,,,,,,,346.91434400000435,None,right,1,1.0436817000008887,347.4152804000041,349.06774090000545,347.4152804000041,348.5669309000077,347.4152804000041,348.5669309000077,347.4152804000041,348.5669309000077,347.4152804000041,348.5669309000077,347.4152804000041,348.5669309000077,348.55017479999515,349.05091010000615,348.55017479999515,349.05091010000615,348.55017479999515,349.05091010000615,348.55017479999515,349.05091010000615,348.55017479999515,349.05091010000615,348.55017479999515,349.05091010000615,348.55017479999515,349.05091010000615,348.55017479999515,349.05091010000615,347.4152804000041,None,349.05091010000615,349.71903649999877,1.1500000000000008,349.73443120000593,None,350.486335900001,None,,,,,,,[0.66546875],2.540000000000002,0.84375,11004,002,2023_Dec_29_1950,MFTM_A_new1021,2021.2.3,59.994732460794,
,,,,,,,,stim/Instruction_adaptive.png,conditions/adaptive.xlsx,test,-0.6,-0.6,-0.6,0.6,0.6,left,L,,,,,0,1,1,1,0,64,64,79,,,,,,,,,,,,,,,,,,,,,,,,,,,,,,,,,,,,,,,,,,,,350.98753630000283,None,right,0,1.1635616999992635,351.487798999995,353.1230796000018,351.487798999995,352.62312000000384,351.487798999995,352.62312000000384,351.487798999995,352.62312000000384,351.487798999995,352.62312000000384,351.487798999995,352.62312000000384,352.60658859999967,353.1068032000039,352.60658859999967,353.1068032000039,352.60658859999967,353.1068032000039,352.60658859999967,353.1068032000039,352.60658859999967,353.1068032000039,352.60658859999967,353.1068032000039,352.60658859999967,353.1068032000039,352.60658859999967,353.1068032000039,351.487798999995,None,353.1068032000039,353.79121229999873,1.1300000000000008,353.80690189999586,None,354.55907869999646,None,,,,,,,[0.67630769],2.4700000000000015,0.8307692307692308,11004,002,2023_Dec_29_1950,MFTM_A_new1021,2021.2.3,59.994732460794,
,,,,,,,,stim/Instruction_adaptive.png,conditions/adaptive.xlsx,test,-0.6,-0.6,-0.6,0.6,0.6,left,L,,,,,0,1,1,1,0,65,65,11,,,,,,,,,,,,,,,,,,,,,,,,,,,,,,,,,,,,,,,,,,,,355.05944759999693,None,left,1,1.5389082000037888,355.5601456000004,357.2627360000042,355.5601456000004,356.7623703999998,355.5601456000004,356.7623703999998,355.5601456000004,356.7623703999998,355.5601456000004,356.7623703999998,355.5601456000004,356.7623703999998,356.7289257000084,357.2301734000066,356.7289257000084,357.2301734000066,356.7289257000084,357.2301734000066,356.7289257000084,357.2301734000066,356.7289257000084,357.2301734000066,356.7289257000084,357.2301734000066,356.7289257000084,357.2301734000066,356.7289257000084,357.2301734000066,355.5601456000004,None,357.2301734000066,357.9298070000077,1.1900000000000008,357.947247300006,None,358.69902990000264,None,,,,,,,[0.68590909],2.490000000000002,0.8333333333333334,11004,002,2023_Dec_29_1950,MFTM_A_new1021,2021.2.3,59.994732460794,
,,,,,,,,stim/Instruction_adaptive.png,conditions/adaptive.xlsx,test,-0.6,-0.6,-0.6,0.6,0.6,left,L,,,,,0,1,1,1,0,66,66,87,,,,,,,,,,,,,,,,,,,,,,,,,,,,,,,,,,,,,,,,,,,,359.19916580000427,None,left,1,2.2394872000004398,359.69982389999495,361.36908279999625,359.69982389999495,360.8854812000063,359.69982389999495,360.8854812000063,359.69982389999495,360.8854812000063,359.69982389999495,360.8854812000063,359.69982389999495,360.8854812000063,360.85167509999883,361.3525886999996,360.85167509999883,361.3525886999996,360.85167509999883,361.3525886999996,360.85167509999883,361.3525886999996,360.85167509999883,361.3525886999996,360.85167509999883,361.3525886999996,360.85167509999883,361.3525886999996,360.85167509999883,361.3525886999996,359.69982389999495,None,361.3525886999996,362.05343050000374,1.1700000000000008,362.06994139999733,None,362.8213753000018,None,,,,,,,[0.69552239],2.5100000000000016,0.835820895522388,11004,002,2023_Dec_29_1950,MFTM_A_new1021,2021.2.3,59.994732460794,
,,,,,,,,stim/Instruction_adaptive.png,conditions/adaptive.xlsx,test,-0.6,-0.6,-0.6,0.6,0.6,left,L,,,,,0,1,1,1,0,67,67,13,,,,,,,,,,,,,,,,,,,,,,,,,,,,,,,,,,,,,,,,,,,,363.32126419999986,None,left,1,1.3015963999932865,363.82193669999833,365.47498830000404,363.82193669999833,364.97449849999975,363.82193669999833,364.97449849999975,363.82193669999833,364.97449849999975,363.82193669999833,364.97449849999975,363.82193669999833,364.97449849999975,364.95744510000804,365.4587221999973,364.95744510000804,365.4587221999973,364.95744510000804,365.4587221999973,364.95744510000804,365.4587221999973,364.95744510000804,365.4587221999973,364.95744510000804,365.4587221999973,364.95744510000804,365.4587221999973,364.95744510000804,365.4587221999973,363.82193669999833,None,365.4587221999973,366.1754154000082,1.1500000000000008,366.1931351999956,None,366.94359399999666,None,,,,,,,[0.70514706],2.540000000000002,0.8382352941176471,11004,002,2023_Dec_29_1950,MFTM_A_new1021,2021.2.3,59.994732460794,
,,,,,,,,stim/Instruction_adaptive.png,conditions/adaptive.xlsx,test,-0.6,-0.6,-0.6,0.6,0.6,left,L,,,,,0,1,1,1,0,68,68,35,,,,,,,,,,,,,,,,,,,,,,,,,,,,,,,,,,,,,,,,,,,,367.44518080000125,None,right,0,1.92178600000625,367.9453499000083,369.58092490000126,367.9453499000083,369.0797457000008,367.9453499000083,369.0797457000008,367.9453499000083,369.0797457000008,367.9453499000083,369.0797457000008,367.9453499000083,369.0797457000008,369.0639630000078,369.56444940000074,369.0639630000078,369.56444940000074,369.0639630000078,369.56444940000074,369.0639630000078,369.56444940000074,369.0639630000078,369.56444940000074,369.0639630000078,369.56444940000074,369.0639630000078,369.56444940000074,369.0639630000078,369.56444940000074,367.9453499000083,None,369.56444940000074,370.28245369999786,1.1300000000000008,370.2981068999943,None,371.0501632999949,None,,,,,,,[0.71478261],2.4700000000000015,0.8260869565217391,11004,002,2023_Dec_29_1950,MFTM_A_new1021,2021.2.3,59.994732460794,
,,,,,,,,stim/Instruction_adaptive.png,conditions/adaptive.xlsx,test,-0.6,-0.6,-0.6,0.6,0.6,left,L,,,,,0,1,1,1,0,69,69,51,,,,,,,,,,,,,,,,,,,,,,,,,,,,,,,,,,,,,,,,,,,,371.5507013000024,None,left,1,1.199523200004478,372.05133390000265,373.7542781999946,372.05133390000265,373.25268800000777,372.05133390000265,373.25268800000777,372.05133390000265,373.25268800000777,372.05133390000265,373.25268800000777,372.05133390000265,373.25268800000777,373.2192248000065,373.72099580000213,373.2192248000065,373.72099580000213,373.2192248000065,373.72099580000213,373.2192248000065,373.72099580000213,373.2192248000065,373.72099580000213,373.2192248000065,373.72099580000213,373.2192248000065,373.72099580000213,373.2192248000065,373.72099580000213,372.05133390000265,None,373.72099580000213,374.45552920000046,1.1900000000000008,374.4709406000038,None,375.22248850000324,None,,,,,,,[0.72328571],2.490000000000002,0.8285714285714286,11004,002,2023_Dec_29_1950,MFTM_A_new1021,2021.2.3,59.994732460794,
,,,,,,,,stim/Instruction_adaptive.png,conditions/adaptive.xlsx,test,-0.6,-0.6,-0.6,0.6,0.6,left,L,,,,,0,1,1,1,0,70,70,49,,,,,,,,,,,,,,,,,,,,,,,,,,,,,,,,,,,,,,,,,,,,375.72388380000484,None,left,1,1.586611599996104,376.22459450000315,377.91039220000675,376.22459450000315,377.41008339999826,376.22459450000315,377.41008339999826,376.22459450000315,377.41008339999826,376.22459450000315,377.41008339999826,376.22459450000315,377.41008339999826,377.37540940000326,377.87683839999954,377.37540940000326,377.87683839999954,377.37540940000326,377.87683839999954,377.37540940000326,377.87683839999954,377.37540940000326,377.87683839999954,377.37540940000326,377.87683839999954,377.37540940000326,377.87683839999954,377.37540940000326,377.87683839999954,376.22459450000315,None,377.87683839999954,378.61120250000386,1.1700000000000008,378.6280589999951,None,379.3782566000009,None,,,,,,,[0.73183099],2.520000000000002,0.8309859154929577,11004,002,2023_Dec_29_1950,MFTM_A_new1021,2021.2.3,59.994732460794,
,,,,,,,,stim/Instruction_adaptive.png,conditions/adaptive.xlsx,test,0.6,0.6,0.6,-0.6,-0.6,right,R,,,,,0,1,1,1,0,71,71,60,,,,,,,,,,,,,,,,,,,,,,,,,,,,,,,,,,,,,,,,,,,,379.8801181000017,None,right,1,1.0872130000061588,380.37991640000837,382.0323623000004,380.37991640000837,381.5325715000072,380.37991640000837,381.5325715000072,380.37991640000837,381.5325715000072,380.37991640000837,381.5325715000072,380.37991640000837,381.5325715000072,381.5157295999961,382.0158075000072,381.5157295999961,382.0158075000072,381.5157295999961,382.0158075000072,381.5157295999961,382.0158075000072,381.5157295999961,382.0158075000072,381.5157295999961,382.0158075000072,381.5157295999961,382.0158075000072,381.5157295999961,382.0158075000072,380.37991640000837,None,382.0158075000072,382.76756419999583,1.1500000000000008,382.7837913999974,None,383.5354277000006,None,,,,,,,[0.74041667],2.540000000000002,0.8333333333333334,11004,002,2023_Dec_29_1950,MFTM_A_new1021,2021.2.3,59.994732460794,
,,,,,,,,stim/Instruction_adaptive.png,conditions/adaptive.xlsx,test,0.6,0.6,0.6,-0.6,-0.6,right,R,,,,,0,1,1,1,0,72,72,58,,,,,,,,,,,,,,,,,,,,,,,,,,,,,,,,,,,,,,,,,,,,384.03531900000235,None,right,1,1.0760015999985626,384.53642269999546,386.17302260000724,384.53642269999546,385.6725282999978,384.53642269999546,385.6725282999978,384.53642269999546,385.6725282999978,384.53642269999546,385.6725282999978,384.53642269999546,385.6725282999978,385.65557800000533,386.15495999999985,385.65557800000533,386.15495999999985,385.65557800000533,386.15495999999985,385.65557800000533,386.15495999999985,385.65557800000533,386.15495999999985,385.65557800000533,386.15495999999985,385.65557800000533,386.15495999999985,385.65557800000533,386.15495999999985,384.53642269999546,None,386.15495999999985,386.9070694999973,1.1300000000000008,386.92329849999805,None,387.67523570000776,None,,,,,,,[0.7490411],2.560000000000002,0.8356164383561644,11004,002,2023_Dec_29_1950,MFTM_A_new1021,2021.2.3,59.994732460794,
,,,,,,,,stim/Instruction_adaptive.png,conditions/adaptive.xlsx,test,-0.6,-0.6,-0.6,0.6,0.6,left,L,,,,,0,1,1,1,0,73,73,33,,,,,,,,,,,,,,,,,,,,,,,,,,,,,,,,,,,,,,,,,,,,388.1756374999968,None,left,1,0.7195508000004338,388.67573899999843,390.2953453999944,388.67573899999843,389.8113260999962,388.67573899999843,389.8113260999962,388.67573899999843,389.8113260999962,388.67573899999843,389.8113260999962,388.67573899999843,389.8113260999962,389.7779350000055,390.27816919999896,389.7779350000055,390.27816919999896,389.7779350000055,390.27816919999896,389.7779350000055,390.27816919999896,389.7779350000055,390.27816919999896,389.7779350000055,390.27816919999896,389.7779350000055,390.27816919999896,389.7779350000055,390.27816919999896,388.67573899999843,None,390.27816919999896,391.0457141000079,1.1200000000000008,391.06252409999433,None,391.8143376999942,None,,,,,,,[0.75756757],2.580000000000002,0.8378378378378378,11004,002,2023_Dec_29_1950,MFTM_A_new1021,2021.2.3,59.994732460794,
,,,,,,,,stim/Instruction_adaptive.png,conditions/adaptive.xlsx,test,0.6,0.6,0.6,-0.6,-0.6,right,R,,,,,0,1,1,1,0,74,74,20,,,,,,,,,,,,,,,,,,,,,,,,,,,,,,,,,,,,,,,,,,,,392.31499440000334,None,right,1,1.1475196999963373,392.8158051000064,394.4182291000034,392.8158051000064,393.91791610000655,392.8158051000064,393.91791610000655,392.8158051000064,393.91791610000655,392.8158051000064,393.91791610000655,392.8158051000064,393.91791610000655,393.9003001999954,394.4014395999984,393.9003001999954,394.4014395999984,393.9003001999954,394.4014395999984,393.9003001999954,394.4014395999984,393.9003001999954,394.4014395999984,393.9003001999954,394.4014395999984,393.9003001999954,394.4014395999984,393.9003001999954,394.4014395999984,392.8158051000064,None,394.4014395999984,395.169390199997,1.1000000000000008,395.1858776000008,None,395.9370182999992,None,,,,,,,[0.76613333],2.600000000000002,0.84,11004,002,2023_Dec_29_1950,MFTM_A_new1021,2021.2.3,59.994732460794,
,,,,,,,,stim/Instruction_adaptive.png,conditions/adaptive.xlsx,test,0.6,0.6,0.6,-0.6,-0.6,right,R,,,,,0,1,1,1,0,75,75,56,,,,,,,,,,,,,,,,,,,,,,,,,,,,,,,,,,,,,,,,,,,,396.4378687999997,None,left,0,0.841238400011207,396.9385412999982,398.54091860000335,396.9385412999982,398.04034770000726,396.9385412999982,398.04034770000726,396.9385412999982,398.04034770000726,396.9385412999982,398.04034770000726,396.9385412999982,398.04034770000726,398.00685180000437,398.50807920000807,398.00685180000437,398.50807920000807,398.00685180000437,398.50807920000807,398.00685180000437,398.50807920000807,398.00685180000437,398.50807920000807,398.00685180000437,398.50807920000807,398.00685180000437,398.50807920000807,398.00685180000437,398.50807920000807,396.9385412999982,None,398.50807920000807,399.29181949999474,1.0900000000000007,399.30811630000244,None,400.0598855999997,None,,,,,,,[0.77460526],2.540000000000002,0.8289473684210527,11004,002,2023_Dec_29_1950,MFTM_A_new1021,2021.2.3,59.994732460794,
,,,,,,,,stim/Instruction_adaptive.png,conditions/adaptive.xlsx,test,-0.6,-0.6,-0.6,0.6,0.6,left,L,,,,,0,1,1,1,0,76,76,57,,,,,,,,,,,,,,,,,,,,,,,,,,,,,,,,,,,,,,,,,,,,400.5601258999959,None,left,1,1.0945317000005161,401.06043260000297,402.6967141000059,401.06043260000297,402.1961996000027,401.06043260000297,402.1961996000027,401.06043260000297,402.1961996000027,401.06043260000297,402.1961996000027,401.06043260000297,402.1961996000027,402.178840499997,402.68032010000024,402.178840499997,402.68032010000024,402.178840499997,402.68032010000024,402.178840499997,402.68032010000024,402.178840499997,402.68032010000024,402.178840499997,402.68032010000024,402.178840499997,402.68032010000024,402.178840499997,402.68032010000024,401.06043260000297,None,402.68032010000024,403.4654406000045,1.1300000000000008,403.4991442000028,None,404.24976869999955,None,,,,,,,[0.78233766],2.560000000000002,0.8311688311688312,11004,002,2023_Dec_29_1950,MFTM_A_new1021,2021.2.3,59.994732460794,
,,,,,,,,stim/Instruction_adaptive.png,conditions/adaptive.xlsx,test,0.6,0.6,0.6,-0.6,-0.6,right,R,,,,,0,1,1,1,0,77,77,12,,,,,,,,,,,,,,,,,,,,,,,,,,,,,,,,,,,,,,,,,,,,404.7502058999962,None,right,1,1.4163040999992518,405.25071399999433,406.88658730000316,405.25071399999433,406.3849803000048,405.25071399999433,406.3849803000048,405.25071399999433,406.3849803000048,405.25071399999433,406.3849803000048,405.25071399999433,406.3849803000048,406.3523675000033,406.85292710000067,406.3523675000033,406.85292710000067,406.3523675000033,406.85292710000067,406.3523675000033,406.85292710000067,406.3523675000033,406.85292710000067,406.3523675000033,406.85292710000067,406.3523675000033,406.85292710000067,406.3523675000033,406.85292710000067,405.25071399999433,None,406.85292710000067,407.6544509999949,1.1200000000000008,407.67097269999795,None,408.42223759999615,None,,,,,,,[0.79],2.580000000000002,0.8333333333333334,11004,002,2023_Dec_29_1950,MFTM_A_new1021,2021.2.3,59.994732460794,
,,,,,,,,stim/Instruction_adaptive.png,conditions/adaptive.xlsx,test,-0.6,-0.6,-0.6,0.6,0.6,left,L,,,,,0,1,1,1,0,78,78,29,,,,,,,,,,,,,,,,,,,,,,,,,,,,,,,,,,,,,,,,,,,,408.92283029999817,None,right,0,1.5791494000004604,409.423764399995,411.0256384999957,409.423764399995,410.5249882000062,409.423764399995,410.5249882000062,409.423764399995,410.5249882000062,409.423764399995,410.5249882000062,409.423764399995,410.5249882000062,410.5085109000065,411.0091916999954,410.5085109000065,411.0091916999954,410.5085109000065,411.0091916999954,410.5085109000065,411.0091916999954,410.5085109000065,411.0091916999954,410.5085109000065,411.0091916999954,410.5085109000065,411.0091916999954,410.5085109000065,411.0091916999954,409.423764399995,None,411.0091916999954,411.8105707000068,1.1000000000000008,411.8261399000039,None,412.5777423999971,None,,,,,,,[0.79772152],2.520000000000002,0.8227848101265823,11004,002,2023_Dec_29_1950,MFTM_A_new1021,2021.2.3,59.994732460794,
,,,,,,,,stim/Instruction_adaptive.png,conditions/adaptive.xlsx,test,0.6,0.6,0.6,-0.6,-0.6,right,R,,,,,0,1,1,1,0,79,79,92,,,,,,,,,,,,,,,,,,,,,,,,,,,,,,,,,,,,,,,,,,,,413.07907120000164,None,right,1,1.0236799999984214,413.57937390000734,415.23228150000796,413.57937390000734,414.73127649999515,413.57937390000734,414.73127649999515,413.57937390000734,414.73127649999515,413.57937390000734,414.73127649999515,413.57937390000734,414.73127649999515,414.71479779999936,415.2157375999959,414.71479779999936,415.2157375999959,414.71479779999936,415.2157375999959,414.71479779999936,415.2157375999959,414.71479779999936,415.2157375999959,414.71479779999936,415.2157375999959,414.71479779999936,415.2157375999959,414.71479779999936,415.2157375999959,413.57937390000734,None,415.2157375999959,None,1.1500000000000008,416.05074410000816,None,416.80177079999703,None,,,,,,,[0.804625],2.540000000000002,0.825,11004,002,2023_Dec_29_1950,MFTM_A_new1021,2021.2.3,59.994732460794,
,,,,,,,,stim/Instruction_adaptive.png,conditions/adaptive.xlsx,test,-0.6,-0.6,-0.6,0.6,0.6,left,L,,,,,0,1,1,1,0,80,80,19,,,,,,,,,,,,,,,,,,,,,,,,,,,,,,,,,,,,,,,,,,,,417.301956299998,None,left,1,1.0085863999993308,417.80240280000726,419.4384324999992,417.80240280000726,418.9378455999977,417.80240280000726,418.9378455999977,417.80240280000726,418.9378455999977,417.80240280000726,418.9378455999977,417.80240280000726,418.9378455999977,418.9212961000012,419.42111670000304,418.9212961000012,419.42111670000304,418.9212961000012,419.42111670000304,418.9212961000012,419.42111670000304,418.9212961000012,419.42111670000304,418.9212961000012,419.42111670000304,418.9212961000012,419.42111670000304,418.9212961000012,419.42111670000304,417.80240280000726,None,419.42111670000304,420.23983350000344,1.1300000000000008,420.255476499995,None,421.00750849999895,None,,,,,,,[0.81160494],2.560000000000002,0.8271604938271605,11004,002,2023_Dec_29_1950,MFTM_A_new1021,2021.2.3,59.994732460794,
,,,,,,,,stim/Instruction_adaptive.png,conditions/adaptive.xlsx,test,0.6,0.6,0.6,-0.6,-0.6,right,R,,,,,0,1,1,1,0,81,81,0,,,,,,,,,,,,,,,,,,,,,,,,,,,,,,,,,,,,,,,,,,,,421.50762410000607,None,right,1,1.347351799995522,422.0082686999958,423.62805220000155,422.0082686999958,423.1441202999995,422.0082686999958,423.1441202999995,422.0082686999958,423.1441202999995,422.0082686999958,423.1441202999995,422.0082686999958,423.1441202999995,423.1099499999982,423.61135300000024,423.1099499999982,423.61135300000024,423.1099499999982,423.61135300000024,423.1099499999982,423.61135300000024,423.1099499999982,423.61135300000024,423.1099499999982,423.61135300000024,423.1099499999982,423.61135300000024,423.1099499999982,423.61135300000024,422.0082686999958,None,423.61135300000024,424.42881510000734,1.1200000000000008,424.4620219000062,None,425.21392029999697,None,,,,,,,[0.81853659],2.580000000000002,0.8292682926829268,11004,002,2023_Dec_29_1950,MFTM_A_new1021,2021.2.3,59.994732460794,
,,,,,,,,stim/Instruction_adaptive.png,conditions/adaptive.xlsx,test,0.6,0.6,0.6,-0.6,-0.6,right,R,,,,,0,1,1,1,0,82,82,38,,,,,,,,,,,,,,,,,,,,,,,,,,,,,,,,,,,,,,,,,,,,425.7145024000056,None,right,1,0.8596776000049431,426.21528760000365,427.81769340000756,426.21528760000365,427.3168813999946,426.21528760000365,427.3168813999946,426.21528760000365,427.3168813999946,426.21528760000365,427.3168813999946,426.21528760000365,427.3168813999946,427.30015640000056,427.80127569999604,427.30015640000056,427.80127569999604,427.30015640000056,427.80127569999604,427.30015640000056,427.80127569999604,427.30015640000056,427.80127569999604,427.30015640000056,427.80127569999604,427.30015640000056,427.80127569999604,427.30015640000056,427.80127569999604,426.21528760000365,None,427.80127569999604,428.63524170000164,1.1000000000000008,428.65166150000005,None,429.4033810999972,None,,,,,,,[0.82554217],2.600000000000002,0.8313253012048193,11004,002,2023_Dec_29_1950,MFTM_A_new1021,2021.2.3,59.994732460794,
,,,,,,,,stim/Instruction_adaptive.png,conditions/adaptive.xlsx,test,0.6,0.6,0.6,-0.6,-0.6,right,R,,,,,0,1,1,1,0,83,83,8,,,,,,,,,,,,,,,,,,,,,,,,,,,,,,,,,,,,,,,,,,,,429.904082699999,None,left,0,0.911046900000656,430.40434110000206,432.0062600999954,430.40434110000206,431.50636010000017,430.40434110000206,431.50636010000017,430.40434110000206,431.50636010000017,430.40434110000206,431.50636010000017,430.40434110000206,431.50636010000017,431.47346429999743,431.9738573000068,431.47346429999743,431.9738573000068,431.47346429999743,431.9738573000068,431.47346429999743,431.9738573000068,431.47346429999743,431.9738573000068,431.47346429999743,431.9738573000068,431.47346429999743,431.9738573000068,431.47346429999743,431.9738573000068,430.40434110000206,None,431.9738573000068,432.80808499999694,1.0900000000000007,432.84090670000296,None,433.5926388999942,None,,,,,,,[0.8325],2.540000000000002,0.8214285714285714,11004,002,2023_Dec_29_1950,MFTM_A_new1021,2021.2.3,59.994732460794,
,,,,,,,,stim/Instruction_adaptive.png,conditions/adaptive.xlsx,test,0.6,0.6,0.6,-0.6,-0.6,right,R,,,,,0,1,1,1,0,84,84,40,,,,,,,,,,,,,,,,,,,,,,,,,,,,,,,,,,,,,,,,,,,,434.0935554000025,None,left,0,0.7290183000004617,434.5939919000084,436.22952619999705,434.5939919000084,435.7295254000055,434.5939919000084,435.7295254000055,434.5939919000084,435.7295254000055,434.5939919000084,435.7295254000055,434.5939919000084,435.7295254000055,435.71210340000107,436.21350719999464,435.71210340000107,436.21350719999464,435.71210340000107,436.21350719999464,435.71210340000107,436.21350719999464,435.71210340000107,436.21350719999464,435.71210340000107,436.21350719999464,435.71210340000107,436.21350719999464,435.71210340000107,436.21350719999464,434.5939919000084,None,436.21350719999464,None,1.1300000000000008,437.06396060000407,None,437.81572040000174,None,,,,,,,[0.83882353],2.490000000000002,0.8117647058823529,11004,002,2023_Dec_29_1950,MFTM_A_new1021,2021.2.3,59.994732460794,
,,,,,,,,stim/Instruction_adaptive.png,conditions/adaptive.xlsx,test,0.6,0.6,0.6,-0.6,-0.6,right,R,,,,,0,1,1,1,0,85,85,42,,,,,,,,,,,,,,,,,,,,,,,,,,,,,,,,,,,,,,,,,,,,438.31617999999435,None,right,1,0.9459265999903437,438.81705159999547,440.4855624000047,438.81705159999547,440.0022664999997,438.81705159999547,440.0022664999997,438.81705159999547,440.0022664999997,438.81705159999547,440.0022664999997,438.81705159999547,440.0022664999997,439.96828030000324,440.47014130000025,439.96828030000324,440.47014130000025,439.96828030000324,440.47014130000025,439.96828030000324,440.47014130000025,439.96828030000324,440.47014130000025,439.96828030000324,440.47014130000025,439.96828030000324,440.47014130000025,439.96828030000324,440.47014130000025,438.81705159999547,None,440.47014130000025,441.3208777999971,1.1700000000000008,441.3367408000049,None,442.08939769999415,None,,,,,,,[0.84453488],2.5100000000000016,0.813953488372093,11004,002,2023_Dec_29_1950,MFTM_A_new1021,2021.2.3,59.994732460794,
,,,,,,,,stim/Instruction_adaptive.png,conditions/adaptive.xlsx,test,-0.6,-0.6,-0.6,0.6,0.6,left,L,,,,,0,1,1,1,0,86,86,89,,,,,,,,,,,,,,,,,,,,,,,,,,,,,,,,,,,,,,,,,,,,442.5895376999979,None,left,1,1.2969350999919698,443.09032760000264,444.7420329000015,443.09032760000264,444.2420484000031,443.09032760000264,444.2420484000031,443.09032760000264,444.2420484000031,443.09032760000264,444.2420484000031,443.09032760000264,444.2420484000031,444.2251630999963,444.7256023999944,444.2251630999963,444.7256023999944,444.2251630999963,444.7256023999944,444.2251630999963,444.7256023999944,444.2251630999963,444.7256023999944,444.2251630999963,444.7256023999944,444.2251630999963,444.7256023999944,444.2251630999963,444.7256023999944,443.09032760000264,None,444.7256023999944,445.5764366000076,1.1500000000000008,445.5942888999998,None,446.34512290000566,None,,,,,,,[0.85034483],2.520000000000002,0.8160919540229885,11004,002,2023_Dec_29_1950,MFTM_A_new1021,2021.2.3,59.994732460794,
,,,,,,,,stim/Instruction_adaptive.png,conditions/adaptive.xlsx,test,0.6,0.6,0.6,-0.6,-0.6,right,R,,,,,0,1,1,1,0,87,87,72,,,,,,,,,,,,,,,,,,,,,,,,,,,,,,,,,,,,,,,,,,,,446.8459237000061,None,left,0,1.4647504999884404,447.3465298999945,448.998649000001,447.3465298999945,448.4981298000057,447.3465298999945,448.4981298000057,447.3465298999945,448.4981298000057,447.3465298999945,448.4981298000057,447.3465298999945,448.4981298000057,448.4807099000027,448.98248109999986,448.4807099000027,448.98248109999986,448.4807099000027,448.98248109999986,448.4807099000027,448.98248109999986,448.4807099000027,448.98248109999986,448.4807099000027,448.98248109999986,448.4807099000027,448.98248109999986,448.4807099000027,448.98248109999986,447.3465298999945,None,448.98248109999986,449.8493308000034,1.1500000000000008,449.8658778999961,None,450.6180151000008,None,,,,,,,[0.85602273],2.4700000000000015,0.8068181818181818,11004,002,2023_Dec_29_1950,MFTM_A_new1021,2021.2.3,59.994732460794,
,,,,,,,,stim/Instruction_adaptive.png,conditions/adaptive.xlsx,test,0.6,0.6,0.6,-0.6,-0.6,right,R,,,,,0,1,1,1,0,88,88,14,,,,,,,,,,,,,,,,,,,,,,,,,,,,,,,,,,,,,,,,,,,,451.1184297,None,right,1,1.295505400004913,451.6195901000028,453.32136719999835,451.6195901000028,452.82103690000076,451.6195901000028,452.82103690000076,451.6195901000028,452.82103690000076,451.6195901000028,452.82103690000076,451.6195901000028,452.82103690000076,452.7879154999973,453.28790379999555,452.7879154999973,453.28790379999555,452.7879154999973,453.28790379999555,452.7879154999973,453.28790379999555,452.7879154999973,453.28790379999555,452.7879154999973,453.28790379999555,452.7879154999973,453.28790379999555,452.7879154999973,453.28790379999555,451.6195901000028,None,453.28790379999555,454.1566928999964,1.1900000000000008,454.1905601000035,None,454.9403644999984,None,,,,,,,[0.8611236],2.490000000000002,0.8089887640449438,11004,002,2023_Dec_29_1950,MFTM_A_new1021,2021.2.3,59.994732460794,
,,,,,,,,stim/Instruction_adaptive.png,conditions/adaptive.xlsx,test,-0.6,-0.6,-0.6,0.6,0.6,left,L,,,,,0,1,1,1,0,89,89,75,,,,,,,,,,,,,,,,,,,,,,,,,,,,,,,,,,,,,,,,,,,,455.44198360000155,None,left,1,1.1403852999937953,455.9427762999985,457.6285577999952,455.9427762999985,457.1275888999953,455.9427762999985,457.1275888999953,455.9427762999985,457.1275888999953,455.9427762999985,457.1275888999953,455.9427762999985,457.1275888999953,457.09397909999825,457.59496060000674,457.09397909999825,457.59496060000674,457.09397909999825,457.59496060000674,457.09397909999825,457.59496060000674,457.09397909999825,457.59496060000674,457.09397909999825,457.59496060000674,457.09397909999825,457.59496060000674,457.09397909999825,457.59496060000674,455.9427762999985,None,457.59496060000674,458.4628961999988,1.1700000000000008,458.4794886000018,None,459.23037590000604,None,,,,,,,[0.86633333],2.5100000000000016,0.8111111111111111,11004,002,2023_Dec_29_1950,MFTM_A_new1021,2021.2.3,59.994732460794,
,,,,,,,,stim/Instruction_adaptive.png,conditions/adaptive.xlsx,test,0.6,0.6,0.6,-0.6,-0.6,right,R,,,,,0,1,1,1,0,90,90,76,,,,,,,,,,,,,,,,,,,,,,,,,,,,,,,,,,,,,,,,,,,,459.7315988000046,None,right,1,1.026537500001723,460.23254189999716,461.8849118000071,460.23254189999716,461.38328389999515,460.23254189999716,461.38328389999515,460.23254189999716,461.38328389999515,460.23254189999716,461.38328389999515,460.23254189999716,461.38328389999515,461.3673398999963,461.8672224000038,461.3673398999963,461.8672224000038,461.3673398999963,461.8672224000038,461.3673398999963,461.8672224000038,461.3673398999963,461.8672224000038,461.3673398999963,461.8672224000038,461.3673398999963,461.8672224000038,461.3673398999963,461.8672224000038,460.23254189999716,None,461.8672224000038,462.7527742999955,1.1500000000000008,462.76855170000636,None,463.5204400000075,None,,,,,,,[0.87164835],2.520000000000002,0.8131868131868132,11004,002,2023_Dec_29_1950,MFTM_A_new1021,2021.2.3,59.994732460794,
,,,,,,,,stim/Instruction_adaptive.png,conditions/adaptive.xlsx,test,-0.6,-0.6,-0.6,0.6,0.6,left,L,,,,,0,1,1,1,0,91,91,67,,,,,,,,,,,,,,,,,,,,,,,,,,,,,,,,,,,,,,,,,,,,464.0213997999963,None,left,1,0.969778699989547,464.52144379999663,466.17412350000814,464.52144379999663,465.67383430000336,464.52144379999663,465.67383430000336,464.52144379999663,465.67383430000336,464.52144379999663,465.67383430000336,464.52144379999663,465.67383430000336,465.6563399000006,466.1577304999955,465.6563399000006,466.1577304999955,465.6563399000006,466.1577304999955,465.6563399000006,466.1577304999955,465.6563399000006,466.1577304999955,465.6563399000006,466.1577304999955,465.6563399000006,466.1577304999955,465.6563399000006,466.1577304999955,464.52144379999663,None,466.1577304999955,467.0423890999955,1.1500000000000008,467.05966280000575,None,467.8101442000043,None,,,,,,,[0.87684783],2.540000000000002,0.8152173913043478,11004,002,2023_Dec_29_1950,MFTM_A_new1021,2021.2.3,59.994732460794,
,,,,,,,,stim/Instruction_adaptive.png,conditions/adaptive.xlsx,test,0.6,0.6,0.6,-0.6,-0.6,right,R,,,,,0,1,1,1,0,92,92,50,,,,,,,,,,,,,,,,,,,,,,,,,,,,,,,,,,,,,,,,,,,,468.310830500006,None,right,1,0.8473807999980636,468.81170730000304,470.4473430000071,468.81170730000304,469.94685530000424,468.81170730000304,469.94685530000424,468.81170730000304,469.94685530000424,468.81170730000304,469.94685530000424,468.81170730000304,469.94685530000424,469.93009140000504,470.43085150000115,469.93009140000504,470.43085150000115,469.93009140000504,470.43085150000115,469.93009140000504,470.43085150000115,469.93009140000504,470.43085150000115,469.93009140000504,470.43085150000115,469.93009140000504,470.43085150000115,469.93009140000504,470.43085150000115,468.81170730000304,None,470.43085150000115,471.31537769999704,1.1300000000000008,471.33183680000366,None,472.082899800007,None,,,,,,,[0.88215054],2.560000000000002,0.8172043010752689,11004,002,2023_Dec_29_1950,MFTM_A_new1021,2021.2.3,59.994732460794,
,,,,,,,,stim/Instruction_adaptive.png,conditions/adaptive.xlsx,test,0.6,0.6,0.6,-0.6,-0.6,right,R,,,,,0,1,1,1,0,93,93,48,,,,,,,,,,,,,,,,,,,,,,,,,,,,,,,,,,,,,,,,,,,,472.58393120000255,None,left,0,0.7750451000028988,473.083913399998,474.70382399999653,473.083913399998,474.20352520000597,473.083913399998,474.20352520000597,473.083913399998,474.20352520000597,473.083913399998,474.20352520000597,473.083913399998,474.20352520000597,474.1863052999979,474.6870287000056,474.1863052999979,474.6870287000056,474.1863052999979,474.6870287000056,474.1863052999979,474.6870287000056,474.1863052999979,474.6870287000056,474.1863052999979,474.6870287000056,474.1863052999979,474.6870287000056,474.1863052999979,474.6870287000056,473.083913399998,None,474.6870287000056,475.5883126999979,1.1200000000000008,475.6044447000022,None,476.35594340000534,None,,,,,,,[0.88744681],2.5100000000000016,0.8085106382978723,11004,002,2023_Dec_29_1950,MFTM_A_new1021,2021.2.3,59.994732460794,
