arrwidth1,arrwidth2,arrwidth3,arrwidth4,arrwidth5,keyb,type,orientation,instruction_image,block_filename,block_type,arrow11,arrow22,arrow33,arrow44,arrow55,keyb_3,orientation3,trials.thisRepN,trials.thisTrialN,trials.thisN,trials.thisIndex,trials_3.thisRepN,trials_3.thisTrialN,trials_3.thisN,trials_3.thisIndex,trials_2.thisRepN,trials_2.thisTrialN,trials_2.thisN,trials_2.thisIndex,welcome.started,welcome.stopped,key_resp.keys,key_resp.rt,key_resp.started,key_resp.stopped,instruction_example.started,instruction_example.stopped,key_resp_3.keys,key_resp_3.rt,key_resp_3.started,key_resp_3.stopped,instruction_task.started,instruction_task.stopped,key_resp_2.keys,key_resp_2.rt,key_resp_2.started,key_resp_2.stopped,text_2.started,text_2.stopped,A1.started,A1.stopped,A2.started,A2.stopped,A3.started,A3.stopped,A4.started,A4.stopped,A5.started,A5.stopped,key_resp_4.keys,key_resp_4.corr,key_resp_4.rt,key_resp_4.started,key_resp_4.stopped,fb.started,fb.stopped,instruction_block.started,instruction_block.stopped,key_resp_8.keys,key_resp_8.rt,key_resp_8.started,key_resp_8.stopped,text_8.started,text_8.stopped,key_resp_9.keys,key_resp_9.corr,key_resp_9.rt,text_5.started,text_5.stopped,A11_3.started,A11_3.stopped,A22_2.started,A22_2.stopped,A33_2.started,A33_2.stopped,A44_2.started,A44_2.stopped,A55_2.started,A55_2.stopped,M1_3.started,M1_3.stopped,M2_2.started,M2_2.stopped,M3_2.started,M3_2.stopped,M4_2.started,M4_2.stopped,M5_2.started,M5_2.stopped,M6_2.started,M6_2.stopped,M7_2.started,M7_2.stopped,M8_2.started,M8_2.stopped,key_resp_9.started,key_resp_9.stopped,fixation.started,fixation.stopped,ET,fb_3.started,fb_3.stopped,text_9.started,text_9.stopped,fb_4.started,fb_4.stopped,text_7.started,text_7.stopped,endtext.started,endtext.stopped,fixation_ITI,CCC,Acc,participant,session,date,expName,psychopyVersion,frameRate,
,,,,,,,,,,,,,,,,,,,,,,,,,,,,,,11.257844999956433,None,space,13.46783779998077,11.257844999956433,None,,,,,,,,,,,,,,,,,,,,,,,,,,,,,,,,,,,,,,,,,,,,,,,,,,,,,,,,,,,,,,,,,,,,,,,,,,,,,,,,,,,,,,,,,11005,001,2024_Jan_01_0905,MFTM_A_new1021,2021.2.3,59.61902252248365,
,,,,,,,,,,,,,,,,,,,,,,,,,,,,,,,,,,,,24.744692099979147,None,right,34.25235399999656,24.744692099979147,None,,,,,,,,,,,,,,,,,,,,,,,,,,,,,,,,,,,,,,,,,,,,,,,,,,,,,,,,,,,,,,,,,,,,,,,,,,,,,,,,,,,11005,001,2024_Jan_01_0905,MFTM_A_new1021,2021.2.3,59.61902252248365,
,,,,,,,,,,,,,,,,,,,,,,,,,,,,,,,,,,,,,,,,,,59.012151399976574,None,space,9.145576099981554,59.012151399976574,None,,,,,,,,,,,,,,,,,,,,,,,,,,,,,,,,,,,,,,,,,,,,,,,,,,,,,,,,,,,,,,,,,,,,,,,,,,,,,11005,001,2024_Jan_01_0905,MFTM_A_new1021,2021.2.3,59.61902252248365,
-0.6,-0.6,-0.6,0.6,0.6,left,3:2,L,,,,,,,,,,,0,0,0,1,,,,,,,,,,,,,,,,,,,,,,,,,,,68.1936951999669,None,68.1936951999669,None,68.1936951999669,None,68.1936951999669,None,68.1936951999669,None,68.1936951999669,None,right,0,1.7076078000245616,68.1936951999669,None,69.94569499994395,None,,,,,,,,,,,,,,,,,,,,,,,,,,,,,,,,,,,,,,,,,,,,,,,,,,,,,,,,,,11005,001,2024_Jan_01_0905,MFTM_A_new1021,2021.2.3,59.61902252248365,
0.6,0.6,0.6,-0.6,-0.6,right,3:2,R,,,,,,,,,,,0,1,1,0,,,,,,,,,,,,,,,,,,,,,,,,,,,70.6962945999694,None,70.6962945999694,None,70.6962945999694,None,70.6962945999694,None,70.6962945999694,None,70.6962945999694,None,right,1,1.141132100019604,70.6962945999694,None,71.86419199994998,None,,,,,,,,,,,,,,,,,,,,,,,,,,,,,,,,,,,,,,,,,,,,,,,,,,,,,,,,,,11005,001,2024_Jan_01_0905,MFTM_A_new1021,2021.2.3,59.61902252248365,
0.6,0.6,0.6,-0.6,-0.6,right,3:2,R,,,,,,,,,,,1,0,2,0,,,,,,,,,,,,,,,,,,,,,,,,,,,72.61570629995549,None,72.61570629995549,None,72.61570629995549,None,72.61570629995549,None,72.61570629995549,None,72.61570629995549,None,right,1,2.005767500028014,72.61570629995549,None,74.65204639994772,None,,,,,,,,,,,,,,,,,,,,,,,,,,,,,,,,,,,,,,,,,,,,,,,,,,,,,,,,,,11005,001,2024_Jan_01_0905,MFTM_A_new1021,2021.2.3,59.61902252248365,
-0.6,-0.6,-0.6,0.6,0.6,left,3:2,L,,,,,,,,,,,1,1,3,1,,,,,,,,,,,,,,,,,,,,,,,,,,,75.40327239996986,None,75.40327239996986,None,75.40327239996986,None,75.40327239996986,None,75.40327239996986,None,75.40327239996986,None,left,1,1.3542627000133507,75.40327239996986,None,76.78916739998385,None,,,,,,,,,,,,,,,,,,,,,,,,,,,,,,,,,,,,,,,,,,,,,,,,,,,,,,,,,,11005,001,2024_Jan_01_0905,MFTM_A_new1021,2021.2.3,59.61902252248365,
,,,,,,,,stim/Instruction_mask.png,conditions/adaptive.xlsx,practice,-0.6,-0.6,-0.6,0.6,0.6,left,L,,,,,0,0,0,0,0,0,0,41,,,,,,,,,,,,,,,,,,,,,,,,,,,,,,,,,,,,,,77.75722679996397,None,space,53.87985450000269,77.75722679996397,None,131.73702429997502,None,left,1,1.4741930000018328,132.171222999983,None,132.171222999983,135.17500989994733,132.171222999983,135.17500989994733,132.171222999983,135.17500989994733,132.171222999983,135.17500989994733,132.171222999983,135.17500989994733,135.15823189995717,135.65967919997638,135.15823189995717,135.65967919997638,135.15823189995717,135.65967919997638,135.15823189995717,135.65967919997638,135.15823189995717,135.65967919997638,135.15823189995717,135.65967919997638,135.15823189995717,135.65967919997638,135.15823189995717,135.65967919997638,132.171222999983,None,135.65967919997638,135.65967919997638,3,135.67631179996533,None,136.427425199945,None,,,,,,,,,,11005,001,2024_Jan_01_0905,MFTM_A_new1021,2021.2.3,59.61902252248365,
,,,,,,,,stim/Instruction_mask.png,conditions/adaptive.xlsx,practice,0.6,0.6,0.6,-0.6,-0.6,right,R,,,,,0,0,0,0,0,1,1,48,,,,,,,,,,,,,,,,,,,,,,,,,,,,,,,,,,,,,,,,,,,,136.92821439995896,None,right,1,1.5129727000021376,137.42831999994814,139.43160759995226,137.42831999994814,138.93059709999943,137.42831999994814,138.93059709999943,137.42831999994814,138.93059709999943,137.42831999994814,138.93059709999943,137.42831999994814,138.93059709999943,138.91455089999363,139.41529729997274,138.91455089999363,139.41529729997274,138.91455089999363,139.41529729997274,138.91455089999363,139.41529729997274,138.91455089999363,139.41529729997274,138.91455089999363,139.41529729997274,138.91455089999363,139.41529729997274,138.91455089999363,139.41529729997274,137.42831999994814,None,139.41529729997274,140.91793339996366,1.5,140.93425689998548,None,141.68580929999007,None,,,,,,,,,,11005,001,2024_Jan_01_0905,MFTM_A_new1021,2021.2.3,59.61902252248365,
,,,,,,,,stim/Instruction_mask.png,conditions/adaptive.xlsx,practice,0.6,0.6,0.6,-0.6,-0.6,right,R,,,,,0,0,0,0,0,2,2,38,,,,,,,,,,,,,,,,,,,,,,,,,,,,,,,,,,,,,,,,,,,,142.1855452999589,None,left,0,1.9994858999853022,142.68605799996294,143.9886162999901,142.68605799996294,143.48737089999486,142.68605799996294,143.48737089999486,142.68605799996294,143.48737089999486,142.68605799996294,143.48737089999486,142.68605799996294,143.48737089999486,143.47140689997468,143.97228329995414,143.47140689997468,143.97228329995414,143.47140689997468,143.97228329995414,143.47140689997468,143.97228329995414,143.47140689997468,143.97228329995414,143.47140689997468,143.97228329995414,143.47140689997468,143.97228329995414,143.47140689997468,143.97228329995414,142.68605799996294,None,143.97228329995414,146.1749923999887,0.8,146.19194199994672,None,146.94307439995464,None,,,,,,,,,,11005,001,2024_Jan_01_0905,MFTM_A_new1021,2021.2.3,59.61902252248365,
,,,,,,,,stim/Instruction_mask.png,conditions/adaptive.xlsx,practice,0.6,0.6,0.6,-0.6,-0.6,right,R,,,,,0,0,0,0,0,3,3,32,,,,,,,,,,,,,,,,,,,,,,,,,,,,,,,,,,,,,,,,,,,,147.4435352999717,None,left,0,1.3407974999863654,147.94457349996082,148.69564219994936,147.94457349996082,148.19434779998846,147.94457349996082,148.19434779998846,147.94457349996082,148.19434779998846,147.94457349996082,148.19434779998846,147.94457349996082,148.19434779998846,148.1783242999809,148.6786659999634,148.1783242999809,148.6786659999634,148.1783242999809,148.6786659999634,148.1783242999809,148.6786659999634,148.1783242999809,148.6786659999634,148.1783242999809,148.6786659999634,148.1783242999809,148.6786659999634,148.1783242999809,148.6786659999634,147.94457349996082,None,148.6786659999634,151.4333515999606,3,151.44982499995967,None,152.20029279997107,None,,,,,,,,,,11005,001,2024_Jan_01_0905,MFTM_A_new1021,2021.2.3,59.61902252248365,
,,,,,,,,stim/Instruction_mask.png,conditions/adaptive.xlsx,practice,,,,,,,,,,,,0,0,0,0,,,,,,,,,,,,,,,,,,,,,,,,,,,,,,,,,,,,,,,,,,,,,,,,,,,,,,,,,,,,,,,,,,,,,,,,,,,,,,,,,,,,,,,,,,152.7351945999544,153.73636339994846,153.72052599996096,153.72052599996096,153.72052599996096,None,,,,11005,001,2024_Jan_01_0905,MFTM_A_new1021,2021.2.3,59.61902252248365,
,,,,,,,,stim/Instruction_adaptive.png,conditions/adaptive.xlsx,test,0.6,0.6,0.6,-0.6,-0.6,right,R,,,,,0,1,1,1,0,0,0,74,,,,,,,,,,,,,,,,,,,,,,,,,,,,,,,,,,,,,,156.85682960000122,None,space,21.42832449998241,156.85682960000122,None,178.32186599995475,None,right,1,2.0142615999793634,178.82306259998586,None,178.82306259998586,181.82756629999494,178.82306259998586,181.82756629999494,178.82306259998586,181.82756629999494,178.82306259998586,181.82756629999494,178.82306259998586,181.82756629999494,181.81083829997806,182.3114011999569,181.81083829997806,182.3114011999569,181.81083829997806,182.3114011999569,181.81083829997806,182.3114011999569,181.81083829997806,182.3114011999569,181.81083829997806,182.3114011999569,181.81083829997806,182.3114011999569,181.81083829997806,182.3114011999569,178.82306259998586,None,182.3114011999569,182.3114011999569,3,182.32857589999912,None,183.0796736999764,None,,,,,,,0,6.000000000000005,1.0,11005,001,2024_Jan_01_0905,MFTM_A_new1021,2021.2.3,59.61902252248365,
,,,,,,,,stim/Instruction_adaptive.png,conditions/adaptive.xlsx,test,0.6,0.6,0.6,-0.6,-0.6,right,R,,,,,0,1,1,1,0,1,1,90,,,,,,,,,,,,,,,,,,,,,,,,,,,,,,,,,,,,,,,,,,,,183.58025449997513,None,right,1,1.180816699983552,184.08099159999983,184.83251669997117,184.08099159999983,184.33193279994885,184.08099159999983,184.33193279994885,184.08099159999983,184.33193279994885,184.08099159999983,184.33193279994885,184.08099159999983,184.33193279994885,184.31518829998095,184.8158535999828,184.31518829998095,184.8158535999828,184.31518829998095,184.8158535999828,184.31518829998095,184.8158535999828,184.31518829998095,184.8158535999828,184.31518829998095,184.8158535999828,184.31518829998095,184.8158535999828,184.31518829998095,184.8158535999828,184.08099159999983,None,184.8158535999828,185.7005819999613,0.25,185.71659109997563,None,186.46802019997267,None,,,,,,,[0.875],6.000000000000005,1.0,11005,001,2024_Jan_01_0905,MFTM_A_new1021,2021.2.3,59.61902252248365,
,,,,,,,,stim/Instruction_adaptive.png,conditions/adaptive.xlsx,test,0.6,0.6,0.6,-0.6,-0.6,right,R,,,,,0,1,1,1,0,2,2,48,,,,,,,,,,,,,,,,,,,,,,,,,,,,,,,,,,,,,,,,,,,,186.9684565999778,None,right,1,1.2008054999751039,187.46908589999657,188.22102359996643,187.46908589999657,187.72006229998078,187.46908589999657,187.72006229998078,187.46908589999657,187.72006229998078,187.46908589999657,187.72006229998078,187.46908589999657,187.72006229998078,187.70290769997519,188.2039958999958,187.70290769997519,188.2039958999958,187.70290769997519,188.2039958999958,187.70290769997519,188.2039958999958,187.70290769997519,188.2039958999958,187.70290769997519,188.2039958999958,187.70290769997519,188.2039958999958,187.70290769997519,188.2039958999958,187.46908589999657,None,188.2039958999958,189.53913609997835,0.25,189.55625319998944,None,190.3072048999602,None,,,,,,,[1.33333333],6.000000000000005,1.0,11005,001,2024_Jan_01_0905,MFTM_A_new1021,2021.2.3,59.61902252248365,
,,,,,,,,stim/Instruction_adaptive.png,conditions/adaptive.xlsx,test,0.6,0.6,0.6,-0.6,-0.6,right,R,,,,,0,1,1,1,0,3,3,34,,,,,,,,,,,,,,,,,,,,,,,,,,,,,,,,,,,,,,,,,,,,190.80741259997012,None,left,0,1.0813788999803364,191.30857339996146,192.060117099958,191.30857339996146,191.5593134999508,191.30857339996146,191.5593134999508,191.30857339996146,191.5593134999508,191.30857339996146,191.5593134999508,191.30857339996146,191.5593134999508,191.54278239997802,192.04350539995357,191.54278239997802,192.04350539995357,191.54278239997802,192.04350539995357,191.54278239997802,192.04350539995357,191.54278239997802,192.04350539995357,191.54278239997802,192.04350539995357,191.54278239997802,192.04350539995357,191.54278239997802,192.04350539995357,191.30857339996146,None,192.04350539995357,193.61361399997259,0.25,193.62771909998264,None,194.38020409998717,None,,,,,,,[1.5625],4.030000000000003,0.75,11005,001,2024_Jan_01_0905,MFTM_A_new1021,2021.2.3,59.61902252248365,
,,,,,,,,stim/Instruction_adaptive.png,conditions/adaptive.xlsx,test,-0.6,-0.6,-0.6,0.6,0.6,left,L,,,,,0,1,1,1,0,4,4,67,,,,,,,,,,,,,,,,,,,,,,,,,,,,,,,,,,,,,,,,,,,,194.8803216999513,None,left,1,1.001342699979432,195.38079559995094,196.28206459997455,195.38079559995094,195.7816455999855,195.38079559995094,195.7816455999855,195.38079559995094,195.7816455999855,195.38079559995094,195.7816455999855,195.38079559995094,195.7816455999855,195.76560419995803,196.2658642999595,195.76560419995803,196.2658642999595,195.76560419995803,196.2658642999595,195.76560419995803,196.2658642999595,195.76560419995803,196.2658642999595,195.76560419995803,196.2658642999595,195.76560419995803,196.2658642999595,195.76560419995803,196.2658642999595,195.38079559995094,None,196.2658642999595,197.9338961999747,0.40000000000000013,197.9517353999545,None,198.70314339996548,None,,,,,,,[1.67],4.700000000000004,0.8,11005,001,2024_Jan_01_0905,MFTM_A_new1021,2021.2.3,59.61902252248365,
,,,,,,,,stim/Instruction_adaptive.png,conditions/adaptive.xlsx,test,-0.6,-0.6,-0.6,0.6,0.6,left,L,,,,,0,1,1,1,0,5,5,93,,,,,,,,,,,,,,,,,,,,,,,,,,,,,,,,,,,,,,,,,,,,199.20395459997235,None,right,0,1.0928822999703698,199.7045968999737,200.45580219995463,199.7045968999737,199.95531619997928,199.7045968999737,199.95531619997928,199.7045968999737,199.95531619997928,199.7045968999737,199.95531619997928,199.7045968999737,199.95531619997928,199.93787339999108,200.43915389996255,199.93787339999108,200.43915389996255,199.93787339999108,200.43915389996255,199.93787339999108,200.43915389996255,199.93787339999108,200.43915389996255,199.93787339999108,200.43915389996255,199.93787339999108,200.43915389996255,199.93787339999108,200.43915389996255,199.7045968999737,None,200.43915389996255,202.20790329994634,0.25,202.22428469994338,None,202.97626459994353,None,,,,,,,[1.76666667],3.5600000000000027,0.6666666666666666,11005,001,2024_Jan_01_0905,MFTM_A_new1021,2021.2.3,59.61902252248365,
,,,,,,,,stim/Instruction_adaptive.png,conditions/adaptive.xlsx,test,-0.6,-0.6,-0.6,0.6,0.6,left,L,,,,,0,1,1,1,0,6,6,89,,,,,,,,,,,,,,,,,,,,,,,,,,,,,,,,,,,,,,,,,,,,203.4769994999515,None,left,1,2.1174635000061244,203.97687289997702,205.04615489998832,203.97687289997702,204.54588239995064,203.97687289997702,204.54588239995064,203.97687289997702,204.54588239995064,203.97687289997702,204.54588239995064,203.97687289997702,204.54588239995064,204.51094289997127,205.01244389999192,204.51094289997127,205.01244389999192,204.51094289997127,205.01244389999192,204.51094289997127,205.01244389999192,204.51094289997127,205.01244389999192,204.51094289997127,205.01244389999192,204.51094289997127,205.01244389999192,204.51094289997127,205.01244389999192,203.97687289997702,None,205.02921909996076,None,0.5600000000000003,206.83153479994508,None,207.58277569996426,None,,,,,,,[1.79142857],4.080000000000004,0.7142857142857143,11005,001,2024_Jan_01_0905,MFTM_A_new1021,2021.2.3,59.61902252248365,
,,,,,,,,stim/Instruction_adaptive.png,conditions/adaptive.xlsx,test,-0.6,-0.6,-0.6,0.6,0.6,left,L,,,,,0,1,1,1,0,7,7,91,,,,,,,,,,,,,,,,,,,,,,,,,,,,,,,,,,,,,,,,,,,,208.0830699999933,None,left,1,1.9185594000155106,208.58370499999728,209.48610959999496,208.58370499999728,208.9847736999509,208.58370499999728,208.9847736999509,208.58370499999728,208.9847736999509,208.58370499999728,208.9847736999509,208.58370499999728,208.9847736999509,208.9514323999756,209.45254739996744,208.9514323999756,209.45254739996744,208.9514323999756,209.45254739996744,208.9514323999756,209.45254739996744,208.9514323999756,209.45254739996744,208.9514323999756,209.45254739996744,208.9514323999756,209.45254739996744,208.9514323999756,209.45254739996744,208.58370499999728,None,209.45254739996744,211.28825509996386,0.3900000000000001,211.30422109999927,None,212.05662219994701,None,,,,,,,[1.83125],4.410000000000004,0.75,11005,001,2024_Jan_01_0905,MFTM_A_new1021,2021.2.3,59.61902252248365,
,,,,,,,,stim/Instruction_adaptive.png,conditions/adaptive.xlsx,test,-0.6,-0.6,-0.6,0.6,0.6,left,L,,,,,0,1,1,1,0,8,8,43,,,,,,,,,,,,,,,,,,,,,,,,,,,,,,,,,,,,,,,,,,,,212.55709999997634,None,right,0,1.163844499969855,213.05762939999113,213.87600759998895,213.05762939999113,213.37422049994348,213.05762939999113,213.37422049994348,213.05762939999113,213.37422049994348,213.05762939999113,213.37422049994348,213.05762939999113,213.37422049994348,213.35740069998428,213.85899449995486,213.35740069998428,213.85899449995486,213.35740069998428,213.85899449995486,213.35740069998428,213.85899449995486,213.35740069998428,213.85899449995486,213.35740069998428,213.85899449995486,213.35740069998428,213.85899449995486,213.35740069998428,213.85899449995486,213.05762939999113,None,213.85899449995486,None,0.31000000000000005,215.74529989995062,None,216.49658989999443,None,,,,,,,[1.87111111],3.6700000000000026,0.6666666666666666,11005,001,2024_Jan_01_0905,MFTM_A_new1021,2021.2.3,59.61902252248365,
,,,,,,,,stim/Instruction_adaptive.png,conditions/adaptive.xlsx,test,-0.6,-0.6,-0.6,0.6,0.6,left,L,,,,,0,1,1,1,0,9,9,97,,,,,,,,,,,,,,,,,,,,,,,,,,,,,,,,,,,,,,,,,,,,216.9969441999565,None,left,1,1.0848363999975845,217.4970548999845,218.53178279998247,217.4970548999845,218.0312980999588,217.4970548999845,218.0312980999588,217.4970548999845,218.0312980999588,217.4970548999845,218.0312980999588,217.4970548999845,218.0312980999588,217.99771089997375,218.4983650999493,217.99771089997375,218.4983650999493,217.99771089997375,218.4983650999493,217.99771089997375,218.4983650999493,217.99771089997375,218.4983650999493,217.99771089997375,218.4983650999493,217.99771089997375,218.4983650999493,217.99771089997375,218.4983650999493,217.4970548999845,None,218.4983650999493,220.38522679999005,0.5200000000000002,220.40134289994603,None,221.1531004999997,None,,,,,,,[1.882],3.980000000000003,0.7,11005,001,2024_Jan_01_0905,MFTM_A_new1021,2021.2.3,59.61902252248365,
,,,,,,,,stim/Instruction_adaptive.png,conditions/adaptive.xlsx,test,0.6,0.6,0.6,-0.6,-0.6,right,R,,,,,0,1,1,1,0,10,10,38,,,,,,,,,,,,,,,,,,,,,,,,,,,,,,,,,,,,,,,,,,,,221.6533669999917,None,right,1,1.5560239999904297,222.15387689997442,223.07284949999303,222.15387689997442,222.588378299959,222.15387689997442,222.588378299959,222.15387689997442,222.588378299959,222.15387689997442,222.588378299959,222.15387689997442,222.588378299959,222.55527549999533,223.05621299997438,222.55527549999533,223.05621299997438,222.55527549999533,223.05621299997438,222.55527549999533,223.05621299997438,222.55527549999533,223.05621299997438,222.55527549999533,223.05621299997438,222.55527549999533,223.05621299997438,222.55527549999533,223.05621299997438,222.15387689997442,None,223.05621299997438,224.95847529999446,0.42000000000000015,224.9750206999597,None,225.72628139995504,None,,,,,,,[1.9],4.2100000000000035,0.7272727272727273,11005,001,2024_Jan_01_0905,MFTM_A_new1021,2021.2.3,59.61902252248365,
,,,,,,,,stim/Instruction_adaptive.png,conditions/adaptive.xlsx,test,-0.6,-0.6,-0.6,0.6,0.6,left,L,,,,,0,1,1,1,0,11,11,77,,,,,,,,,,,,,,,,,,,,,,,,,,,,,,,,,,,,,,,,,,,,226.22686019999674,None,right,0,1.102487399999518,226.72728029999416,227.59607059997506,226.72728029999416,227.09555529995123,226.72728029999416,227.09555529995123,226.72728029999416,227.09555529995123,226.72728029999416,227.09555529995123,226.72728029999416,227.09555529995123,227.06196119997185,227.56248589995084,227.06196119997185,227.56248589995084,227.06196119997185,227.56248589995084,227.06196119997185,227.56248589995084,227.06196119997185,227.56248589995084,227.06196119997185,227.56248589995084,227.06196119997185,227.56248589995084,227.06196119997185,227.56248589995084,226.72728029999416,None,227.56248589995084,229.4819509999943,0.3600000000000001,229.51477909996174,None,230.26664519996848,None,,,,,,,[1.92],3.640000000000003,0.6666666666666666,11005,001,2024_Jan_01_0905,MFTM_A_new1021,2021.2.3,59.61902252248365,
,,,,,,,,stim/Instruction_adaptive.png,conditions/adaptive.xlsx,test,-0.6,-0.6,-0.6,0.6,0.6,left,L,,,,,0,1,1,1,0,12,12,37,,,,,,,,,,,,,,,,,,,,,,,,,,,,,,,,,,,,,,,,,,,,230.76774919999298,None,right,0,1.1612364999600686,231.26795889995992,232.30218759999843,231.26795889995992,231.80161059997045,231.26795889995992,231.80161059997045,231.26795889995992,231.80161059997045,231.26795889995992,231.80161059997045,231.26795889995992,231.80161059997045,231.78513999999268,232.28563139995094,231.78513999999268,232.28563139995094,231.78513999999268,232.28563139995094,231.78513999999268,232.28563139995094,231.78513999999268,232.28563139995094,231.78513999999268,232.28563139995094,231.78513999999268,232.28563139995094,231.78513999999268,232.28563139995094,231.26795889995992,None,232.28563139995094,None,0.5300000000000002,234.22242369997548,None,234.97341989999404,None,,,,,,,[1.92384615],2.920000000000002,0.6153846153846154,11005,001,2024_Jan_01_0905,MFTM_A_new1021,2021.2.3,59.61902252248365,
,,,,,,,,stim/Instruction_adaptive.png,conditions/adaptive.xlsx,test,0.6,0.6,0.6,-0.6,-0.6,right,R,,,,,0,1,1,1,0,13,13,22,,,,,,,,,,,,,,,,,,,,,,,,,,,,,,,,,,,,,,,,,,,,235.47446949995356,None,left,0,1.4386428999714553,235.97499309998238,237.3608380999649,235.97499309998238,236.8598005999811,235.97499309998238,236.8598005999811,235.97499309998238,236.8598005999811,235.97499309998238,236.8598005999811,235.97499309998238,236.8598005999811,236.8263454999542,237.3267094999901,236.8263454999542,237.3267094999901,236.8263454999542,237.3267094999901,236.8263454999542,237.3267094999901,236.8263454999542,237.3267094999901,236.8263454999542,237.3267094999901,236.8263454999542,237.3267094999901,236.8263454999542,237.3267094999901,235.97499309998238,None,237.3267094999901,238.96305009996286,0.8700000000000006,238.97887609997997,None,239.73056899994845,None,,,,,,,[[1.63]],1.9200000000000013,0.5714285714285714,11005,001,2024_Jan_01_0905,MFTM_A_new1021,2021.2.3,59.61902252248365,
,,,,,,,,stim/Instruction_adaptive.png,conditions/adaptive.xlsx,test,-0.6,-0.6,-0.6,0.6,0.6,left,L,,,,,0,1,1,1,0,14,14,41,,,,,,,,,,,,,,,,,,,,,,,,,,,,,,,,,,,,,,,,,,,,240.2312148999772,None,left,1,1.2263483999995515,240.73145389999263,242.98482509999303,240.73145389999263,242.48480099998415,240.73145389999263,242.48480099998415,240.73145389999263,242.48480099998415,240.73145389999263,242.48480099998415,240.73145389999263,242.48480099998415,242.45073559996672,242.95222999999532,242.45073559996672,242.95222999999532,242.45073559996672,242.95222999999532,242.45073559996672,242.95222999999532,242.45073559996672,242.95222999999532,242.45073559996672,242.95222999999532,242.45073559996672,242.95222999999532,242.45073559996672,242.95222999999532,240.73145389999263,None,242.95222999999532,243.72007539996412,1.7400000000000013,243.73652669996955,None,244.4872501999489,None,,,,,,,[[0.76]],2.3800000000000017,0.6,11005,001,2024_Jan_01_0905,MFTM_A_new1021,2021.2.3,59.61902252248365,
,,,,,,,,stim/Instruction_adaptive.png,conditions/adaptive.xlsx,test,0.6,0.6,0.6,-0.6,-0.6,right,R,,,,,0,1,1,1,0,15,15,50,,,,,,,,,,,,,,,,,,,,,,,,,,,,,,,,,,,,,,,,,,,,244.98857319995295,None,right,1,1.4607786000124179,245.48866329999873,247.25856549997116,245.48866329999873,246.75802369997837,245.48866329999873,246.75802369997837,245.48866329999873,246.75802369997837,245.48866329999873,246.75802369997837,245.48866329999873,246.75802369997837,246.72379609994823,247.2250142999692,246.72379609994823,247.2250142999692,246.72379609994823,247.2250142999692,246.72379609994823,247.2250142999692,246.72379609994823,247.2250142999692,246.72379609994823,247.2250142999692,246.72379609994823,247.2250142999692,246.72379609994823,247.2250142999692,245.48866329999873,None,247.2250142999692,248.4768881999771,1.260000000000001,248.49291569995694,None,249.24484739999752,None,,,,,,,[[1.24]],2.6700000000000017,0.625,11005,001,2024_Jan_01_0905,MFTM_A_new1021,2021.2.3,59.61902252248365,
,,,,,,,,stim/Instruction_adaptive.png,conditions/adaptive.xlsx,test,-0.6,-0.6,-0.6,0.6,0.6,left,L,,,,,0,1,1,1,0,16,16,83,,,,,,,,,,,,,,,,,,,,,,,,,,,,,,,,,,,,,,,,,,,,249.74527159996796,None,left,1,1.119978100003209,250.2461896999739,251.78184519999195,250.2461896999739,251.28103409998585,250.2461896999739,251.28103409998585,250.2461896999739,251.28103409998585,250.2461896999739,251.28103409998585,250.2461896999739,251.28103409998585,251.26423519995296,251.764720999985,251.26423519995296,251.764720999985,251.26423519995296,251.764720999985,251.26423519995296,251.764720999985,251.26423519995296,251.764720999985,251.26423519995296,251.764720999985,251.26423519995296,251.764720999985,251.26423519995296,251.764720999985,250.2461896999739,None,251.764720999985,253.23375929996837,1.0300000000000007,253.25004999997327,None,254.00181619997602,None,,,,,,,[[1.47]],2.8900000000000023,0.6470588235294118,11005,001,2024_Jan_01_0905,MFTM_A_new1021,2021.2.3,59.61902252248365,
,,,,,,,,stim/Instruction_adaptive.png,conditions/adaptive.xlsx,test,-0.6,-0.6,-0.6,0.6,0.6,left,L,,,,,0,1,1,1,0,17,17,33,,,,,,,,,,,,,,,,,,,,,,,,,,,,,,,,,,,,,,,,,,,,254.50218559999485,None,left,1,0.9393758000223897,255.002611599979,256.40557979996083,255.002611599979,255.90467959997477,255.002611599979,255.90467959997477,255.002611599979,255.90467959997477,255.002611599979,255.90467959997477,255.002611599979,255.90467959997477,255.87086639995687,256.37208839994855,255.87086639995687,256.37208839994855,255.87086639995687,256.37208839994855,255.87086639995687,256.37208839994855,255.87086639995687,256.37208839994855,255.87086639995687,256.37208839994855,255.87086639995687,256.37208839994855,255.87086639995687,256.37208839994855,255.002611599979,None,256.37208839994855,257.9912717999541,0.8900000000000006,258.0072316000005,None,258.7587916999473,None,,,,,,,[[1.61]],3.0600000000000023,0.6666666666666666,11005,001,2024_Jan_01_0905,MFTM_A_new1021,2021.2.3,59.61902252248365,
,,,,,,,,stim/Instruction_adaptive.png,conditions/adaptive.xlsx,test,0.6,0.6,0.6,-0.6,-0.6,right,R,,,,,0,1,1,1,0,18,18,82,,,,,,,,,,,,,,,,,,,,,,,,,,,,,,,,,,,,,,,,,,,,259.25967619998846,None,left,0,1.165846000018064,259.7596025999519,261.06150529999286,259.7596025999519,260.5614027999691,259.7596025999519,260.5614027999691,259.7596025999519,260.5614027999691,259.7596025999519,260.5614027999691,259.7596025999519,260.5614027999691,260.52768619998824,261.02796509995824,260.52768619998824,261.02796509995824,260.52768619998824,261.02796509995824,260.52768619998824,261.02796509995824,260.52768619998824,261.02796509995824,260.52768619998824,261.02796509995824,260.52768619998824,261.02796509995824,260.52768619998824,261.02796509995824,259.7596025999519,None,261.02796509995824,262.7479135999456,0.7900000000000005,262.76398369995877,None,263.5157190999598,None,,,,,,,[[1.71]],2.610000000000002,0.631578947368421,11005,001,2024_Jan_01_0905,MFTM_A_new1021,2021.2.3,59.61902252248365,
,,,,,,,,stim/Instruction_adaptive.png,conditions/adaptive.xlsx,test,-0.6,-0.6,-0.6,0.6,0.6,left,L,,,,,0,1,1,1,0,19,19,15,,,,,,,,,,,,,,,,,,,,,,,,,,,,,,,,,,,,,,,,,,,,264.0167426999542,None,left,1,2.480714600009378,264.51686599996174,266.1024387999787,264.51686599996174,265.60165629995754,264.51686599996174,265.60165629995754,264.51686599996174,265.60165629995754,264.51686599996174,265.60165629995754,264.51686599996174,265.60165629995754,265.5853511999594,266.0857974999817,265.5853511999594,266.0857974999817,265.5853511999594,266.0857974999817,265.5853511999594,266.0857974999817,265.5853511999594,266.0857974999817,265.5853511999594,266.0857974999817,265.5853511999594,266.0857974999817,265.5853511999594,266.0857974999817,264.51686599996174,None,266.0857974999817,None,1.0800000000000007,267.5216283999616,None,268.27228319999995,None,,,,,,,[[1.42]],2.790000000000002,0.65,11005,001,2024_Jan_01_0905,MFTM_A_new1021,2021.2.3,59.61902252248365,
,,,,,,,,stim/Instruction_adaptive.png,conditions/adaptive.xlsx,test,0.6,0.6,0.6,-0.6,-0.6,right,R,,,,,0,1,1,1,0,20,20,98,,,,,,,,,,,,,,,,,,,,,,,,,,,,,,,,,,,,,,,,,,,,268.77391649998026,None,left,0,1.6684219999588095,269.2735308999545,270.72651289997157,269.2735308999545,270.2257280999911,269.2735308999545,270.2257280999911,269.2735308999545,270.2257280999911,269.2735308999545,270.2257280999911,269.2735308999545,270.2257280999911,270.2097799999756,270.70936819998315,270.2097799999756,270.70936819998315,270.2097799999756,270.70936819998315,270.2097799999756,270.70936819998315,270.2097799999756,270.70936819998315,270.2097799999756,270.70936819998315,270.2097799999756,270.70936819998315,270.2097799999756,270.70936819998315,269.2735308999545,None,270.70936819998315,272.2621647999622,0.9500000000000006,272.2779961999622,None,273.02966649999144,None,,,,,,,[[1.55]],2.330000000000002,0.6190476190476191,11005,001,2024_Jan_01_0905,MFTM_A_new1021,2021.2.3,59.61902252248365,
,,,,,,,,stim/Instruction_adaptive.png,conditions/adaptive.xlsx,test,-0.6,-0.6,-0.6,0.6,0.6,left,L,,,,,0,1,1,1,0,21,21,95,,,,,,,,,,,,,,,,,,,,,,,,,,,,,,,,,,,,,,,,,,,,273.53079399996204,None,left,1,1.046740400022827,274.0305580999702,275.8504507999751,274.0305580999702,275.3494636999676,274.0305580999702,275.3494636999676,274.0305580999702,275.3494636999676,274.0305580999702,275.3494636999676,274.0305580999702,275.3494636999676,275.3168781999848,275.8173042999697,275.3168781999848,275.8173042999697,275.3168781999848,275.8173042999697,275.3168781999848,275.8173042999697,275.3168781999848,275.8173042999697,275.3168781999848,275.8173042999697,275.3168781999848,275.8173042999697,275.3168781999848,275.8173042999697,274.0305580999702,None,275.8173042999697,277.0190867999918,1.310000000000001,277.0349453999661,None,277.7870731999865,None,,,,,,,[[1.19]],2.5100000000000016,0.6363636363636364,11005,001,2024_Jan_01_0905,MFTM_A_new1021,2021.2.3,59.61902252248365,
,,,,,,,,stim/Instruction_adaptive.png,conditions/adaptive.xlsx,test,0.6,0.6,0.6,-0.6,-0.6,right,R,,,,,0,1,1,1,0,22,22,16,,,,,,,,,,,,,,,,,,,,,,,,,,,,,,,,,,,,,,,,,,,,278.28721759998007,None,right,1,1.5210900999954902,278.78858659998514,280.44074479996925,278.78858659998514,279.94014949997654,278.78858659998514,279.94014949997654,278.78858659998514,279.94014949997654,278.78858659998514,279.94014949997654,278.78858659998514,279.94014949997654,279.92278579995036,280.4244497999898,279.92278579995036,280.4244497999898,279.92278579995036,280.4244497999898,279.92278579995036,280.4244497999898,279.92278579995036,280.4244497999898,279.92278579995036,280.4244497999898,279.92278579995036,280.4244497999898,279.92278579995036,280.4244497999898,278.78858659998514,None,280.4244497999898,281.77610769995954,1.1500000000000008,281.7921563999844,None,282.54346589994384,None,,,,,,,[[1.35]],2.660000000000002,0.6521739130434783,11005,001,2024_Jan_01_0905,MFTM_A_new1021,2021.2.3,59.61902252248365,
,,,,,,,,stim/Instruction_adaptive.png,conditions/adaptive.xlsx,test,0.6,0.6,0.6,-0.6,-0.6,right,R,,,,,0,1,1,1,0,23,23,70,,,,,,,,,,,,,,,,,,,,,,,,,,,,,,,,,,,,,,,,,,,,283.04404519998934,None,right,1,1.2438720000209287,283.5455144000007,285.0971439999994,283.5455144000007,284.59660279995296,283.5455144000007,284.59660279995296,283.5455144000007,284.59660279995296,283.5455144000007,284.59660279995296,283.5455144000007,284.59660279995296,284.56321449996904,285.0647162999958,284.56321449996904,285.0647162999958,284.56321449996904,285.0647162999958,284.56321449996904,285.0647162999958,284.56321449996904,285.0647162999958,284.56321449996904,285.0647162999958,284.56321449996904,285.0647162999958,284.56321449996904,285.0647162999958,283.5455144000007,None,285.0647162999958,286.53282419999596,1.0400000000000007,286.55009469995275,None,287.30048559996067,None,,,,,,,[[1.46]],2.790000000000002,0.6666666666666666,11005,001,2024_Jan_01_0905,MFTM_A_new1021,2021.2.3,59.61902252248365,
,,,,,,,,stim/Instruction_adaptive.png,conditions/adaptive.xlsx,test,0.6,0.6,0.6,-0.6,-0.6,right,R,,,,,0,1,1,1,0,24,24,76,,,,,,,,,,,,,,,,,,,,,,,,,,,,,,,,,,,,,,,,,,,,287.8015501999762,None,right,1,1.7512636000174098,288.30264650000026,289.754854699946,288.30264650000026,289.25365849997615,288.30264650000026,289.25365849997615,288.30264650000026,289.25365849997615,288.30264650000026,289.25365849997615,288.30264650000026,289.25365849997615,289.23813779995544,289.7380113999825,289.23813779995544,289.7380113999825,289.23813779995544,289.7380113999825,289.23813779995544,289.7380113999825,289.23813779995544,289.7380113999825,289.23813779995544,289.7380113999825,289.23813779995544,289.7380113999825,289.23813779995544,289.7380113999825,288.30264650000026,None,289.7380113999825,291.2905783999595,0.9500000000000006,291.30721949995495,None,292.0583921999787,None,,,,,,,[[1.55]],2.900000000000002,0.68,11005,001,2024_Jan_01_0905,MFTM_A_new1021,2021.2.3,59.61902252248365,
,,,,,,,,stim/Instruction_adaptive.png,conditions/adaptive.xlsx,test,-0.6,-0.6,-0.6,0.6,0.6,left,L,,,,,0,1,1,1,0,25,25,57,,,,,,,,,,,,,,,,,,,,,,,,,,,,,,,,,,,,,,,,,,,,292.55910019995645,None,left,1,1.2512438999838196,293.0590350999846,294.44431599997915,293.0590350999846,293.94357919995673,293.0590350999846,293.94357919995673,293.0590350999846,293.94357919995673,293.0590350999846,293.94357919995673,293.0590350999846,293.94357919995673,293.9277288999874,294.4284520999645,293.9277288999874,294.4284520999645,293.9277288999874,294.4284520999645,293.9277288999874,294.4284520999645,293.9277288999874,294.4284520999645,293.9277288999874,294.4284520999645,293.9277288999874,294.4284520999645,293.9277288999874,294.4284520999645,293.0590350999846,None,294.4284520999645,296.04812479997054,0.8800000000000006,296.0632605999708,None,296.81564129999606,None,,,,,,,[[1.62]],3.000000000000002,0.6923076923076923,11005,001,2024_Jan_01_0905,MFTM_A_new1021,2021.2.3,59.61902252248365,
,,,,,,,,stim/Instruction_adaptive.png,conditions/adaptive.xlsx,test,0.6,0.6,0.6,-0.6,-0.6,right,R,,,,,0,1,1,1,0,26,26,12,,,,,,,,,,,,,,,,,,,,,,,,,,,,,,,,,,,,,,,,,,,,297.31619369995315,None,right,1,1.0697907999856398,297.815981999971,299.1352576999925,297.815981999971,298.65131309995195,297.815981999971,298.65131309995195,297.815981999971,298.65131309995195,297.815981999971,298.65131309995195,297.815981999971,298.65131309995195,298.61810969997896,299.1185814999626,298.61810969997896,299.1185814999626,298.61810969997896,299.1185814999626,298.61810969997896,299.1185814999626,298.61810969997896,299.1185814999626,298.61810969997896,299.1185814999626,298.61810969997896,299.1185814999626,298.61810969997896,299.1185814999626,297.815981999971,None,299.1185814999626,300.8048784999992,0.8200000000000005,300.82058349996805,None,301.5719090999919,None,,,,,,,[1.67592593],3.0900000000000025,0.7037037037037037,11005,001,2024_Jan_01_0905,MFTM_A_new1021,2021.2.3,59.61902252248365,
,,,,,,,,stim/Instruction_adaptive.png,conditions/adaptive.xlsx,test,0.6,0.6,0.6,-0.6,-0.6,right,R,,,,,0,1,1,1,0,27,27,32,,,,,,,,,,,,,,,,,,,,,,,,,,,,,,,,,,,,,,,,,,,,302.0726549999672,None,right,1,0.7697933000163175,302.57304549997207,303.8423015999724,302.57304549997207,303.35817329998827,302.57304549997207,303.35817329998827,302.57304549997207,303.35817329998827,302.57304549997207,303.35817329998827,302.57304549997207,303.35817329998827,303.32470189995365,303.82563619996654,303.32470189995365,303.82563619996654,303.32470189995365,303.82563619996654,303.32470189995365,303.82563619996654,303.32470189995365,303.82563619996654,303.32470189995365,303.82563619996654,303.32470189995365,303.82563619996654,303.32470189995365,303.82563619996654,302.57304549997207,None,303.82563619996654,305.51099439995596,0.7700000000000005,305.5282083999482,None,306.2797889999929,None,,,,,,,[1.67785714],3.1700000000000026,0.7142857142857143,11005,001,2024_Jan_01_0905,MFTM_A_new1021,2021.2.3,59.61902252248365,
,,,,,,,,stim/Instruction_adaptive.png,conditions/adaptive.xlsx,test,-0.6,-0.6,-0.6,0.6,0.6,left,L,,,,,0,1,1,1,0,28,28,19,,,,,,,,,,,,,,,,,,,,,,,,,,,,,,,,,,,,,,,,,,,,306.7800344999996,None,right,0,0.6856750999577343,307.2810724999872,308.516128999996,307.2810724999872,308.0144658999634,307.2810724999872,308.0144658999634,307.2810724999872,308.0144658999634,307.2810724999872,308.0144658999634,307.2810724999872,308.0144658999634,307.9982185999979,308.4991906999494,307.9982185999979,308.4991906999494,307.9982185999979,308.4991906999494,307.9982185999979,308.4991906999494,307.9982185999979,308.4991906999494,307.9982185999979,308.4991906999494,307.9982185999979,308.4991906999494,307.9982185999979,308.4991906999494,307.2810724999872,None,308.4991906999494,310.18478509999113,0.7300000000000004,310.20087469997816,None,310.9528509999509,None,,,,,,,[1.68103448],2.940000000000002,0.6896551724137931,11005,001,2024_Jan_01_0905,MFTM_A_new1021,2021.2.3,59.61902252248365,
,,,,,,,,stim/Instruction_adaptive.png,conditions/adaptive.xlsx,test,-0.6,-0.6,-0.6,0.6,0.6,left,L,,,,,0,1,1,1,0,29,29,17,,,,,,,,,,,,,,,,,,,,,,,,,,,,,,,,,,,,,,,,,,,,311.45322759996634,None,left,1,1.2431629999773577,311.9542778999894,313.3225403999677,311.9542778999894,312.82162459997926,311.9542778999894,312.82162459997926,311.9542778999894,312.82162459997926,311.9542778999894,312.82162459997926,311.9542778999894,312.82162459997926,312.8048683999805,313.30642629996873,312.8048683999805,313.30642629996873,312.8048683999805,313.30642629996873,312.8048683999805,313.30642629996873,312.8048683999805,313.30642629996873,312.8048683999805,313.30642629996873,312.8048683999805,313.30642629996873,312.8048683999805,313.30642629996873,311.9542778999894,None,313.28998729999876,314.9419873000006,0.8600000000000005,314.9587930999696,None,315.710156599991,None,,,,,,,[[1.64]],3.0200000000000022,0.7,11005,001,2024_Jan_01_0905,MFTM_A_new1021,2021.2.3,59.61902252248365,
,,,,,,,,stim/Instruction_adaptive.png,conditions/adaptive.xlsx,test,0.6,0.6,0.6,-0.6,-0.6,right,R,,,,,0,1,1,1,0,30,30,10,,,,,,,,,,,,,,,,,,,,,,,,,,,,,,,,,,,,,,,,,,,,316.2103033999447,None,right,1,1.1030449999962002,316.71077099995455,318.030464499956,316.71077099995455,317.5297081999597,316.71077099995455,317.5297081999597,316.71077099995455,317.5297081999597,316.71077099995455,317.5297081999597,316.71077099995455,317.5297081999597,317.4956980999559,317.99620179994963,317.4956980999559,317.99620179994963,317.4956980999559,317.99620179994963,317.4956980999559,317.99620179994963,317.4956980999559,317.99620179994963,317.4956980999559,317.99620179994963,317.4956980999559,317.99620179994963,317.4956980999559,317.99620179994963,316.71077099995455,None,317.99620179994963,319.6825171999517,0.8100000000000005,319.714925999986,None,320.4673752999515,None,,,,,,,[1.68],3.1000000000000023,0.7096774193548387,11005,001,2024_Jan_01_0905,MFTM_A_new1021,2021.2.3,59.61902252248365,
,,,,,,,,stim/Instruction_adaptive.png,conditions/adaptive.xlsx,test,0.6,0.6,0.6,-0.6,-0.6,right,R,,,,,0,1,1,1,0,31,31,42,,,,,,,,,,,,,,,,,,,,,,,,,,,,,,,,,,,,,,,,,,,,320.96785669995006,None,right,1,1.0023513000342064,321.46816979994765,322.7538728999789,321.46816979994765,322.252984199964,321.46816979994765,322.252984199964,321.46816979994765,322.252984199964,321.46816979994765,322.252984199964,321.46816979994765,322.252984199964,322.2195251999656,322.72030559997074,322.2195251999656,322.72030559997074,322.2195251999656,322.72030559997074,322.2195251999656,322.72030559997074,322.2195251999656,322.72030559997074,322.2195251999656,322.72030559997074,322.2195251999656,322.72030559997074,322.2195251999656,322.72030559997074,321.46816979994765,None,322.72030559997074,324.40602009999566,0.7700000000000005,324.4226808999665,None,325.1739008000004,None,,,,,,,[1.6815625],3.1700000000000026,0.71875,11005,001,2024_Jan_01_0905,MFTM_A_new1021,2021.2.3,59.61902252248365,
,,,,,,,,stim/Instruction_adaptive.png,conditions/adaptive.xlsx,test,0.6,0.6,0.6,-0.6,-0.6,right,R,,,,,0,1,1,1,0,32,32,46,,,,,,,,,,,,,,,,,,,,,,,,,,,,,,,,,,,,,,,,,,,,325.6747335999971,None,right,1,1.6875554000143893,326.17460799997207,327.41075489996,326.17460799997207,326.9092478999519,326.17460799997207,326.9092478999519,326.17460799997207,326.9092478999519,326.17460799997207,326.9092478999519,326.17460799997207,326.9092478999519,326.89261270000134,327.3940533999703,326.89261270000134,327.3940533999703,326.89261270000134,327.3940533999703,326.89261270000134,327.3940533999703,326.89261270000134,327.3940533999703,326.89261270000134,327.3940533999703,326.89261270000134,327.3940533999703,326.89261270000134,327.3940533999703,326.17460799997207,None,327.3940533999703,329.07985809998354,0.7300000000000004,329.0965232999879,None,329.84685459994944,None,,,,,,,[1.68424242],3.230000000000002,0.7272727272727273,11005,001,2024_Jan_01_0905,MFTM_A_new1021,2021.2.3,59.61902252248365,
,,,,,,,,stim/Instruction_adaptive.png,conditions/adaptive.xlsx,test,-0.6,-0.6,-0.6,0.6,0.6,left,L,,,,,0,1,1,1,0,33,33,73,,,,,,,,,,,,,,,,,,,,,,,,,,,,,,,,,,,,,,,,,,,,330.34819889999926,None,left,1,1.749676300038118,330.84829459997127,332.05000829999335,330.84829459997127,331.5498502999544,330.84829459997127,331.5498502999544,330.84829459997127,331.5498502999544,330.84829459997127,331.5498502999544,330.84829459997127,331.5498502999544,331.53294249996543,332.0335715999827,331.53294249996543,332.0335715999827,331.53294249996543,332.0335715999827,331.53294249996543,332.0335715999827,331.53294249996543,332.0335715999827,331.53294249996543,332.0335715999827,331.53294249996543,332.0335715999827,331.53294249996543,332.0335715999827,330.84829459997127,None,332.0335715999827,333.71999169996707,0.7000000000000004,333.73608529998455,None,334.4880752999452,None,,,,,,,[1.68764706],3.2900000000000027,0.7352941176470589,11005,001,2024_Jan_01_0905,MFTM_A_new1021,2021.2.3,59.61902252248365,
,,,,,,,,stim/Instruction_adaptive.png,conditions/adaptive.xlsx,test,0.6,0.6,0.6,-0.6,-0.6,right,R,,,,,0,1,1,1,0,34,34,88,,,,,,,,,,,,,,,,,,,,,,,,,,,,,,,,,,,,,,,,,,,,334.98843479994684,None,right,1,0.9172397999791428,335.48857089999365,336.67374489997746,335.48857089999365,336.1733651999966,335.48857089999365,336.1733651999966,335.48857089999365,336.1733651999966,335.48857089999365,336.1733651999966,335.48857089999365,336.1733651999966,336.13953200000105,336.6401980999508,336.13953200000105,336.6401980999508,336.13953200000105,336.6401980999508,336.13953200000105,336.6401980999508,336.13953200000105,336.6401980999508,336.13953200000105,336.6401980999508,336.13953200000105,336.6401980999508,336.13953200000105,336.6401980999508,335.48857089999365,None,336.6401980999508,338.34278589999303,0.6700000000000004,338.35952030000044,None,339.1107454999583,None,,,,,,,[1.69171429],3.3500000000000023,0.7428571428571429,11005,001,2024_Jan_01_0905,MFTM_A_new1021,2021.2.3,59.61902252248365,
,,,,,,,,stim/Instruction_adaptive.png,conditions/adaptive.xlsx,test,0.6,0.6,0.6,-0.6,-0.6,right,R,,,,,0,1,1,1,0,35,35,26,,,,,,,,,,,,,,,,,,,,,,,,,,,,,,,,,,,,,,,,,,,,339.61200769996503,None,right,1,1.0134161000023596,340.11211299995193,341.2656106999493,340.11211299995193,340.763729499944,340.11211299995193,340.763729499944,340.11211299995193,340.763729499944,340.11211299995193,340.763729499944,340.11211299995193,340.763729499944,340.747048499994,341.2470675999648,340.747048499994,341.2470675999648,340.747048499994,341.2470675999648,340.747048499994,341.2470675999648,340.747048499994,341.2470675999648,340.747048499994,341.2470675999648,340.747048499994,341.2470675999648,340.747048499994,341.2470675999648,340.11211299995193,None,341.2470675999648,342.9495444999775,0.6500000000000004,342.9662297999603,None,343.71812119998503,None,,,,,,,[1.69611111],3.4000000000000026,0.75,11005,001,2024_Jan_01_0905,MFTM_A_new1021,2021.2.3,59.61902252248365,
,,,,,,,,stim/Instruction_adaptive.png,conditions/adaptive.xlsx,test,-0.6,-0.6,-0.6,0.6,0.6,left,L,,,,,0,1,1,1,0,36,36,49,,,,,,,,,,,,,,,,,,,,,,,,,,,,,,,,,,,,,,,,,,,,344.21850589994574,None,left,1,0.9265976000460796,344.71896849997574,345.83795799996005,344.71896849997574,345.35369189997436,344.71896849997574,345.35369189997436,344.71896849997574,345.35369189997436,344.71896849997574,345.35369189997436,344.71896849997574,345.35369189997436,345.32051799999317,345.8217858999851,345.32051799999317,345.8217858999851,345.32051799999317,345.8217858999851,345.32051799999317,345.8217858999851,345.32051799999317,345.8217858999851,345.32051799999317,345.8217858999851,345.32051799999317,345.8217858999851,345.32051799999317,345.8217858999851,344.71896849997574,None,345.8217858999851,347.5237331999815,0.6200000000000003,347.5397514999495,None,348.2915581999696,None,,,,,,,[1.70108108],3.4600000000000026,0.7567567567567568,11005,001,2024_Jan_01_0905,MFTM_A_new1021,2021.2.3,59.61902252248365,
,,,,,,,,stim/Instruction_adaptive.png,conditions/adaptive.xlsx,test,-0.6,-0.6,-0.6,0.6,0.6,left,L,,,,,0,1,1,1,0,37,37,79,,,,,,,,,,,,,,,,,,,,,,,,,,,,,,,,,,,,,,,,,,,,348.7918209999916,None,left,1,1.2332813999964856,349.2925505999592,350.39451069995994,349.2925505999592,349.893750999996,349.2925505999592,349.893750999996,349.2925505999592,349.893750999996,349.2925505999592,349.893750999996,349.2925505999592,349.893750999996,349.87646579998545,350.3777131999959,349.87646579998545,350.3777131999959,349.87646579998545,350.3777131999959,349.87646579998545,350.3777131999959,349.87646579998545,350.3777131999959,349.87646579998545,350.3777131999959,349.87646579998545,350.3777131999959,349.87646579998545,350.3777131999959,349.2925505999592,None,350.3777131999959,352.09657749999315,0.6000000000000003,352.1137054999708,None,352.8648333999445,None,,,,,,,[1.70631579],3.5000000000000027,0.7631578947368421,11005,001,2024_Jan_01_0905,MFTM_A_new1021,2021.2.3,59.61902252248365,
,,,,,,,,stim/Instruction_adaptive.png,conditions/adaptive.xlsx,test,0.6,0.6,0.6,-0.6,-0.6,right,R,,,,,0,1,1,1,0,38,38,72,,,,,,,,,,,,,,,,,,,,,,,,,,,,,,,,,,,,,,,,,,,,353.36559819994727,None,right,1,0.795243600034155,353.8666506999871,354.9509112999658,353.8666506999871,354.4506018999964,353.8666506999871,354.4506018999964,353.8666506999871,354.4506018999964,353.8666506999871,354.4506018999964,353.8666506999871,354.4506018999964,354.4333637999953,354.93464479997056,354.4333637999953,354.93464479997056,354.4333637999953,354.93464479997056,354.4333637999953,354.93464479997056,354.4333637999953,354.93464479997056,354.4333637999953,354.93464479997056,354.4333637999953,354.93464479997056,354.4333637999953,354.93464479997056,353.8666506999871,None,354.93464479997056,356.65391559997806,0.5800000000000003,356.67007769999327,None,357.42114890000084,None,,,,,,,[1.71179487],3.5500000000000025,0.7692307692307693,11005,001,2024_Jan_01_0905,MFTM_A_new1021,2021.2.3,59.61902252248365,
,,,,,,,,stim/Instruction_adaptive.png,conditions/adaptive.xlsx,test,-0.6,-0.6,-0.6,0.6,0.6,left,L,,,,,0,1,1,1,0,39,39,87,,,,,,,,,,,,,,,,,,,,,,,,,,,,,,,,,,,,,,,,,,,,357.92314029997215,None,left,1,1.615734799997881,358.42244529997697,359.4915307999472,358.42244529997697,358.9899719999521,358.42244529997697,358.9899719999521,358.42244529997697,358.9899719999521,358.42244529997697,358.9899719999521,358.42244529997697,358.9899719999521,358.9731105999672,359.47419089998584,358.9731105999672,359.47419089998584,358.9731105999672,359.47419089998584,358.9731105999672,359.47419089998584,358.9731105999672,359.47419089998584,358.9731105999672,359.47419089998584,358.9731105999672,359.47419089998584,358.9731105999672,359.47419089998584,358.42244529997697,None,359.4584060999914,361.1774163999944,0.5600000000000003,361.21060639998177,None,361.9613403999829,None,,,,,,,[1.7175],3.6000000000000028,0.775,11005,001,2024_Jan_01_0905,MFTM_A_new1021,2021.2.3,59.61902252248365,
,,,,,,,,stim/Instruction_adaptive.png,conditions/adaptive.xlsx,test,0.6,0.6,0.6,-0.6,-0.6,right,R,,,,,0,1,1,1,0,40,40,24,,,,,,,,,,,,,,,,,,,,,,,,,,,,,,,,,,,,,,,,,,,,362.4618010999984,None,right,1,2.3944960000226274,362.96293779998086,364.0145268999622,362.96293779998086,363.5138246999704,362.96293779998086,363.5138246999704,362.96293779998086,363.5138246999704,362.96293779998086,363.5138246999704,362.96293779998086,363.5138246999704,363.4800793999457,363.9829252999625,363.4800793999457,363.9829252999625,363.4800793999457,363.9829252999625,363.4800793999457,363.9829252999625,363.4800793999457,363.9829252999625,363.4800793999457,363.9829252999625,363.4800793999457,363.9829252999625,363.4800793999457,363.9829252999625,362.96293779998086,None,363.9829252999625,365.7175139999599,0.5400000000000003,365.7333737000008,None,366.48538259998895,None,,,,,,,[1.72341463],3.640000000000003,0.7804878048780488,11005,001,2024_Jan_01_0905,MFTM_A_new1021,2021.2.3,59.61902252248365,
,,,,,,,,stim/Instruction_adaptive.png,conditions/adaptive.xlsx,test,0.6,0.6,0.6,-0.6,-0.6,right,R,,,,,0,1,1,1,0,41,41,0,,,,,,,,,,,,,,,,,,,,,,,,,,,,,,,,,,,,,,,,,,,,366.98585119994823,None,left,0,1.5909426000434905,367.48655489995144,368.5215267999447,367.48655489995144,368.02003719995264,367.48655489995144,368.02003719995264,367.48655489995144,368.02003719995264,367.48655489995144,368.02003719995264,367.48655489995144,368.02003719995264,368.00386009999784,368.50394719996257,368.00386009999784,368.50394719996257,368.00386009999784,368.50394719996257,368.00386009999784,368.50394719996257,368.00386009999784,368.50394719996257,368.00386009999784,368.50394719996257,368.00386009999784,368.50394719996257,368.00386009999784,368.50394719996257,367.48655489995144,None,368.50394719996257,370.24175429996103,0.5300000000000002,370.2565159999649,None,371.0085951999645,None,,,,,,,[1.72928571],3.5200000000000027,0.7619047619047619,11005,001,2024_Jan_01_0905,MFTM_A_new1021,2021.2.3,59.61902252248365,
,,,,,,,,stim/Instruction_adaptive.png,conditions/adaptive.xlsx,test,-0.6,-0.6,-0.6,0.6,0.6,left,L,,,,,0,1,1,1,0,42,42,31,,,,,,,,,,,,,,,,,,,,,,,,,,,,,,,,,,,,,,,,,,,,371.5087581999833,None,right,0,0.9968017000355758,372.0092613999732,373.09401089994935,372.0092613999732,372.59415269998135,372.0092613999732,372.59415269998135,372.0092613999732,372.59415269998135,372.0092613999732,372.59415269998135,372.0092613999732,372.59415269998135,372.56017829995835,373.06130429997575,372.56017829995835,373.06130429997575,372.56017829995835,373.06130429997575,372.56017829995835,373.06130429997575,372.56017829995835,373.06130429997575,372.56017829995835,373.06130429997575,372.56017829995835,373.06130429997575,372.56017829995835,373.06130429997575,372.0092613999732,None,373.06130429997575,374.7974252999993,0.5700000000000003,374.81335569999646,None,375.5651272999821,None,,,,,,,[1.73395349],3.3900000000000023,0.7441860465116279,11005,001,2024_Jan_01_0905,MFTM_A_new1021,2021.2.3,59.61902252248365,
,,,,,,,,stim/Instruction_adaptive.png,conditions/adaptive.xlsx,test,0.6,0.6,0.6,-0.6,-0.6,right,R,,,,,0,1,1,1,0,43,43,36,,,,,,,,,,,,,,,,,,,,,,,,,,,,,,,,,,,,,,,,,,,,376.06603589997394,None,right,1,0.9520231999922544,376.56595819996437,377.70203069999116,376.56595819996437,377.2010936999577,376.56595819996437,377.2010936999577,376.56595819996437,377.2010936999577,376.56595819996437,377.2010936999577,376.56595819996437,377.2010936999577,377.184338299965,377.68436619994463,377.184338299965,377.68436619994463,377.184338299965,377.68436619994463,377.184338299965,377.68436619994463,377.184338299965,377.68436619994463,377.184338299965,377.68436619994463,377.184338299965,377.68436619994463,377.184338299965,377.68436619994463,376.56595819996437,None,377.68436619994463,379.42079049994936,0.6300000000000003,379.43691459996626,None,380.1881071999669,None,,,,,,,[1.73704545],3.4300000000000024,0.75,11005,001,2024_Jan_01_0905,MFTM_A_new1021,2021.2.3,59.61902252248365,
,,,,,,,,stim/Instruction_adaptive.png,conditions/adaptive.xlsx,test,-0.6,-0.6,-0.6,0.6,0.6,left,L,,,,,0,1,1,1,0,44,44,47,,,,,,,,,,,,,,,,,,,,,,,,,,,,,,,,,,,,,,,,,,,,380.68913349998184,None,left,1,2.3358706000144593,381.1897250999464,382.30887689994415,381.1897250999464,381.8071117999498,381.1897250999464,381.8071117999498,381.1897250999464,381.8071117999498,381.1897250999464,381.8071117999498,381.1897250999464,381.8071117999498,381.7907744999975,382.2921340999892,381.7907744999975,382.2921340999892,381.7907744999975,382.2921340999892,381.7907744999975,382.2921340999892,381.7907744999975,382.2921340999892,381.7907744999975,382.2921340999892,381.7907744999975,382.2921340999892,381.7907744999975,382.2921340999892,381.1897250999464,None,382.2751900999574,384.02717359998496,0.6100000000000003,384.04452349996427,None,384.7955779999611,None,,,,,,,[1.74044444],3.4800000000000026,0.7555555555555555,11005,001,2024_Jan_01_0905,MFTM_A_new1021,2021.2.3,59.61902252248365,
,,,,,,,,stim/Instruction_adaptive.png,conditions/adaptive.xlsx,test,0.6,0.6,0.6,-0.6,-0.6,right,R,,,,,0,1,1,1,0,45,45,20,,,,,,,,,,,,,,,,,,,,,,,,,,,,,,,,,,,,,,,,,,,,385.2963548999978,None,right,1,1.1857106999959797,385.79636459995527,386.8987476999755,385.79636459995527,386.3977404999896,385.79636459995527,386.3977404999896,385.79636459995527,386.3977404999896,385.79636459995527,386.3977404999896,385.79636459995527,386.3977404999896,386.36443009995855,386.8651215999853,386.36443009995855,386.8651215999853,386.36443009995855,386.8651215999853,386.36443009995855,386.8651215999853,386.36443009995855,386.8651215999853,386.36443009995855,386.8651215999853,386.36443009995855,386.8651215999853,386.36443009995855,386.8651215999853,385.79636459995527,None,386.8651215999853,388.61786859994754,0.5900000000000003,388.6346726999618,None,389.3853551999782,None,,,,,,,[1.74413043],3.5200000000000027,0.7608695652173914,11005,001,2024_Jan_01_0905,MFTM_A_new1021,2021.2.3,59.61902252248365,
,,,,,,,,stim/Instruction_adaptive.png,conditions/adaptive.xlsx,test,0.6,0.6,0.6,-0.6,-0.6,right,R,,,,,0,1,1,1,0,46,46,14,,,,,,,,,,,,,,,,,,,,,,,,,,,,,,,,,,,,,,,,,,,,389.886398499948,None,left,0,0.779267699981574,390.3864446999505,391.4549983999459,390.3864446999505,390.97091259999434,390.3864446999505,390.97091259999434,390.3864446999505,390.97091259999434,390.3864446999505,390.97091259999434,390.3864446999505,390.97091259999434,390.93764679995365,391.43872699997155,390.93764679995365,391.43872699997155,390.93764679995365,391.43872699997155,390.93764679995365,391.43872699997155,390.93764679995365,391.43872699997155,390.93764679995365,391.43872699997155,390.93764679995365,391.43872699997155,390.93764679995365,391.43872699997155,390.3864446999505,None,391.43872699997155,393.1927492999821,0.5700000000000003,393.22525289998157,None,393.97673029999714,None,,,,,,,[1.74808511],3.4000000000000026,0.7446808510638298,11005,001,2024_Jan_01_0905,MFTM_A_new1021,2021.2.3,59.61902252248365,
,,,,,,,,stim/Instruction_adaptive.png,conditions/adaptive.xlsx,test,0.6,0.6,0.6,-0.6,-0.6,right,R,,,,,0,1,1,1,0,47,47,52,,,,,,,,,,,,,,,,,,,,,,,,,,,,,,,,,,,,,,,,,,,,394.47658999997657,None,right,1,0.8207375000347383,394.97661469999,396.0952719999477,394.97661469999,395.61168659996474,394.97661469999,395.61168659996474,394.97661469999,395.61168659996474,394.97661469999,395.61168659996474,394.97661469999,395.61168659996474,395.57814989995677,396.0792979999678,395.57814989995677,396.0792979999678,395.57814989995677,396.0792979999678,395.57814989995677,396.0792979999678,395.57814989995677,396.0792979999678,395.57814989995677,396.0792979999678,395.57814989995677,396.0792979999678,395.57814989995677,396.0792979999678,394.97661469999,None,396.0792979999678,397.83113509998657,0.6200000000000003,397.84739609999815,None,398.5993350999779,None,,,,,,,[1.75083333],3.4400000000000026,0.75,11005,001,2024_Jan_01_0905,MFTM_A_new1021,2021.2.3,59.61902252248365,
,,,,,,,,stim/Instruction_adaptive.png,conditions/adaptive.xlsx,test,-0.6,-0.6,-0.6,0.6,0.6,left,L,,,,,0,1,1,1,0,48,48,29,,,,,,,,,,,,,,,,,,,,,,,,,,,,,,,,,,,,,,,,,,,,399.10015569999814,None,left,1,1.9419459999771789,399.6000910999719,400.7191530999844,399.6000910999719,400.2184909999487,399.6000910999719,400.2184909999487,399.6000910999719,400.2184909999487,399.6000910999719,400.2184909999487,399.6000910999719,400.2184909999487,400.185775299964,400.6857670999598,400.185775299964,400.6857670999598,400.185775299964,400.6857670999598,400.185775299964,400.6857670999598,400.185775299964,400.6857670999598,400.185775299964,400.6857670999598,400.185775299964,400.6857670999598,400.185775299964,400.6857670999598,399.6000910999719,None,400.6857670999598,402.4547002999461,0.6100000000000003,402.471977899957,None,403.22299059998477,None,,,,,,,[1.75367347],3.4800000000000026,0.7551020408163265,11005,001,2024_Jan_01_0905,MFTM_A_new1021,2021.2.3,59.61902252248365,
,,,,,,,,stim/Instruction_adaptive.png,conditions/adaptive.xlsx,test,-0.6,-0.6,-0.6,0.6,0.6,left,L,,,,,0,1,1,1,0,49,49,71,,,,,,,,,,,,,,,,,,,,,,,,,,,,,,,,,,,,,,,,,,,,403.72363379999297,None,left,1,2.7094958999659866,404.2241099999519,405.32587259996217,404.2241099999519,404.82524649996776,404.2241099999519,404.82524649996776,404.2241099999519,404.82524649996776,404.2241099999519,404.82524649996776,404.2241099999519,404.82524649996776,404.7917161999503,405.2927920999937,404.7917161999503,405.2927920999937,404.7917161999503,405.2927920999937,404.7917161999503,405.2927920999937,404.7917161999503,405.2927920999937,404.7917161999503,405.2927920999937,404.7917161999503,405.2927920999937,404.7917161999503,405.2927920999937,404.2241099999519,None,405.2927920999937,407.0621247999952,0.5900000000000003,407.0785777999554,None,407.82974579994334,None,,,,,,,[1.7568],3.5200000000000027,0.76,11005,001,2024_Jan_01_0905,MFTM_A_new1021,2021.2.3,59.61902252248365,
,,,,,,,,stim/Instruction_adaptive.png,conditions/adaptive.xlsx,test,-0.6,-0.6,-0.6,0.6,0.6,left,L,,,,,0,1,1,1,0,50,50,69,,,,,,,,,,,,,,,,,,,,,,,,,,,,,,,,,,,,,,,,,,,,408.33069139998406,None,left,1,1.5270716000231914,408.83053129998734,409.8993461999926,408.83053129998734,409.41578189999564,408.83053129998734,409.41578189999564,408.83053129998734,409.41578189999564,408.83053129998734,409.41578189999564,408.83053129998734,409.41578189999564,409.3820703999954,409.8829224999645,409.3820703999954,409.8829224999645,409.3820703999954,409.8829224999645,409.3820703999954,409.8829224999645,409.3820703999954,409.8829224999645,409.3820703999954,409.8829224999645,409.3820703999954,409.8829224999645,409.3820703999954,409.8829224999645,408.83053129998734,None,409.8829224999645,411.65203079994535,0.5700000000000003,411.66884699999355,None,412.4199419999495,None,,,,,,,[1.76019608],3.5500000000000025,0.7647058823529411,11005,001,2024_Jan_01_0905,MFTM_A_new1021,2021.2.3,59.61902252248365,
,,,,,,,,stim/Instruction_adaptive.png,conditions/adaptive.xlsx,test,-0.6,-0.6,-0.6,0.6,0.6,left,L,,,,,0,1,1,1,0,51,51,99,,,,,,,,,,,,,,,,,,,,,,,,,,,,,,,,,,,,,,,,,,,,412.92012509994674,None,left,1,2.217793799994979,413.4202499999665,414.48973359999945,413.4202499999665,413.98924689996056,413.4202499999665,413.98924689996056,413.4202499999665,413.98924689996056,413.4202499999665,413.98924689996056,413.4202499999665,413.98924689996056,413.9716341999592,414.47247499995865,413.9716341999592,414.47247499995865,413.9716341999592,414.47247499995865,413.9716341999592,414.47247499995865,413.9716341999592,414.47247499995865,413.9716341999592,414.47247499995865,413.9716341999592,414.47247499995865,413.9716341999592,414.47247499995865,413.4202499999665,None,414.47247499995865,416.2425954999635,0.5600000000000003,416.25816399999894,None,417.0099239999545,None,,,,,,,[1.76365385],3.5900000000000025,0.7692307692307693,11005,001,2024_Jan_01_0905,MFTM_A_new1021,2021.2.3,59.61902252248365,
,,,,,,,,stim/Instruction_adaptive.png,conditions/adaptive.xlsx,test,-0.6,-0.6,-0.6,0.6,0.6,left,L,,,,,0,1,1,1,0,52,52,23,,,,,,,,,,,,,,,,,,,,,,,,,,,,,,,,,,,,,,,,,,,,417.51062599994475,None,right,0,2.931021200027317,418.0107694999897,419.06290219997754,418.0107694999897,418.5619472999824,418.0107694999897,418.5619472999824,418.0107694999897,418.5619472999824,418.0107694999897,418.5619472999824,418.0107694999897,418.5619472999824,418.54515239998,419.04641199996695,418.54515239998,419.04641199996695,418.54515239998,419.04641199996695,418.54515239998,419.04641199996695,418.54515239998,419.04641199996695,418.54515239998,419.04641199996695,418.54515239998,419.04641199996695,418.54515239998,419.04641199996695,418.0107694999897,None,419.04641199996695,420.96568269998534,0.5500000000000003,420.9816321999533,None,421.7340068999911,None,,,,,,,[1.76716981],3.490000000000003,0.7547169811320755,11005,001,2024_Jan_01_0905,MFTM_A_new1021,2021.2.3,59.61902252248365,
,,,,,,,,stim/Instruction_adaptive.png,conditions/adaptive.xlsx,test,0.6,0.6,0.6,-0.6,-0.6,right,R,,,,,0,1,1,1,0,53,53,86,,,,,,,,,,,,,,,,,,,,,,,,,,,,,,,,,,,,,,,,,,,,422.2348815999576,None,left,0,1.6548983000102453,422.7346558999852,423.83674949995475,422.7346558999852,423.3361552999704,422.7346558999852,423.3361552999704,422.7346558999852,423.3361552999704,422.7346558999852,423.3361552999704,422.7346558999852,423.3361552999704,423.30201959999977,423.8031156999641,423.30201959999977,423.8031156999641,423.30201959999977,423.8031156999641,423.30201959999977,423.8031156999641,423.30201959999977,423.8031156999641,423.30201959999977,423.8031156999641,423.30201959999977,423.8031156999641,423.30201959999977,423.8031156999641,422.7346558999852,None,423.8031156999641,425.5731149999774,0.5900000000000003,425.6054096999578,None,426.35650789999636,None,,,,,,,[1.76981481],3.3800000000000026,0.7407407407407407,11005,001,2024_Jan_01_0905,MFTM_A_new1021,2021.2.3,59.61902252248365,
,,,,,,,,stim/Instruction_adaptive.png,conditions/adaptive.xlsx,test,-0.6,-0.6,-0.6,0.6,0.6,left,L,,,,,0,1,1,1,0,54,54,35,,,,,,,,,,,,,,,,,,,,,,,,,,,,,,,,,,,,,,,,,,,,426.8582613999606,None,left,1,1.830859399982728,427.3586601999705,428.49285459995735,427.3586601999705,427.9925023999531,427.3586601999705,427.9925023999531,427.3586601999705,427.9925023999531,427.3586601999705,427.9925023999531,427.3586601999705,427.9925023999531,427.9757621999597,428.476668599993,427.9757621999597,428.476668599993,427.9757621999597,428.476668599993,427.9757621999597,428.476668599993,427.9757621999597,428.476668599993,427.9757621999597,428.476668599993,427.9757621999597,428.476668599993,427.9757621999597,428.476668599993,427.3586601999705,None,428.476668599993,None,0.6300000000000003,430.26220009999815,None,431.0139851999702,None,,,,,,,[1.77163636],3.4200000000000026,0.7454545454545455,11005,001,2024_Jan_01_0905,MFTM_A_new1021,2021.2.3,59.61902252248365,
,,,,,,,,stim/Instruction_adaptive.png,conditions/adaptive.xlsx,test,-0.6,-0.6,-0.6,0.6,0.6,left,L,,,,,0,1,1,1,0,55,55,53,,,,,,,,,,,,,,,,,,,,,,,,,,,,,,,,,,,,,,,,,,,,431.51461299997754,None,left,1,1.726177699980326,432.01554259995464,433.1340535999625,432.01554259995464,432.63293529994553,432.01554259995464,432.63293529994553,432.01554259995464,432.63293529994553,432.01554259995464,432.63293529994553,432.01554259995464,432.63293529994553,432.61630539997714,433.1175447999849,432.61630539997714,433.1175447999849,432.61630539997714,433.1175447999849,432.61630539997714,433.1175447999849,432.61630539997714,433.1175447999849,432.61630539997714,433.1175447999849,432.61630539997714,433.1175447999849,432.61630539997714,433.1175447999849,432.01554259995464,None,433.1175447999849,None,0.6100000000000003,434.9031354999752,None,435.65417569997953,None,,,,,,,[1.77375],3.450000000000003,0.75,11005,001,2024_Jan_01_0905,MFTM_A_new1021,2021.2.3,59.61902252248365,
,,,,,,,,stim/Instruction_adaptive.png,conditions/adaptive.xlsx,test,0.6,0.6,0.6,-0.6,-0.6,right,R,,,,,0,1,1,1,0,56,56,6,,,,,,,,,,,,,,,,,,,,,,,,,,,,,,,,,,,,,,,,,,,,436.15442789997905,None,right,1,0.8626247000065632,436.655079499993,437.7566629999783,436.655079499993,437.25681009999244,436.655079499993,437.25681009999244,436.655079499993,437.25681009999244,436.655079499993,437.25681009999244,436.655079499993,437.25681009999244,437.23997339996276,437.7404263999779,437.23997339996276,437.7404263999779,437.23997339996276,437.7404263999779,437.23997339996276,437.7404263999779,437.23997339996276,437.7404263999779,437.23997339996276,437.7404263999779,437.23997339996276,437.7404263999779,437.23997339996276,437.7404263999779,436.655079499993,None,437.7404263999779,439.526786399947,0.6000000000000003,439.5427376999869,None,440.29394499998307,None,,,,,,,[1.77596491],3.490000000000003,0.7543859649122807,11005,001,2024_Jan_01_0905,MFTM_A_new1021,2021.2.3,59.61902252248365,
,,,,,,,,stim/Instruction_adaptive.png,conditions/adaptive.xlsx,test,-0.6,-0.6,-0.6,0.6,0.6,left,L,,,,,0,1,1,1,0,57,57,59,,,,,,,,,,,,,,,,,,,,,,,,,,,,,,,,,,,,,,,,,,,,440.79562419996364,None,left,1,1.3101345999748446,441.2953517999849,442.3980364999734,441.2953517999849,441.89599189994624,441.2953517999849,441.89599189994624,441.2953517999849,441.89599189994624,441.2953517999849,441.89599189994624,441.2953517999849,441.89599189994624,441.8627569999662,442.364956699952,441.8627569999662,442.364956699952,441.8627569999662,442.364956699952,441.8627569999662,442.364956699952,441.8627569999662,442.364956699952,441.8627569999662,442.364956699952,441.8627569999662,442.364956699952,441.8627569999662,442.364956699952,441.2953517999849,None,442.364956699952,444.15013229998294,0.5900000000000003,444.16631969995797,None,444.91804129997035,None,,,,,,,[1.77827586],3.5200000000000027,0.7586206896551724,11005,001,2024_Jan_01_0905,MFTM_A_new1021,2021.2.3,59.61902252248365,
,,,,,,,,stim/Instruction_adaptive.png,conditions/adaptive.xlsx,test,-0.6,-0.6,-0.6,0.6,0.6,left,L,,,,,0,1,1,1,0,58,58,75,,,,,,,,,,,,,,,,,,,,,,,,,,,,,,,,,,,,,,,,,,,,445.41878209996503,None,left,1,1.2709431999828666,445.9186625999864,446.98813079996035,445.9186625999864,446.5031908999663,445.9186625999864,446.5031908999663,445.9186625999864,446.5031908999663,445.9186625999864,446.5031908999663,445.9186625999864,446.5031908999663,446.4706616999465,446.9713726999471,446.4706616999465,446.9713726999471,446.4706616999465,446.9713726999471,446.4706616999465,446.9713726999471,446.4706616999465,446.9713726999471,446.4706616999465,446.9713726999471,446.4706616999465,446.9713726999471,446.4706616999465,446.9713726999471,445.9186625999864,None,446.9713726999471,448.7571633999469,0.5700000000000003,448.7736907999497,None,449.524970199971,None,,,,,,,[1.78084746],3.5500000000000025,0.7627118644067796,11005,001,2024_Jan_01_0905,MFTM_A_new1021,2021.2.3,59.61902252248365,
,,,,,,,,stim/Instruction_adaptive.png,conditions/adaptive.xlsx,test,0.6,0.6,0.6,-0.6,-0.6,right,R,,,,,0,1,1,1,0,59,59,64,,,,,,,,,,,,,,,,,,,,,,,,,,,,,,,,,,,,,,,,,,,,450.0253980999696,None,right,1,1.8239357999991626,450.52564889995847,451.5945176999667,450.52564889995847,451.0938378999708,450.52564889995847,451.0938378999708,450.52564889995847,451.0938378999708,450.52564889995847,451.0938378999708,450.52564889995847,451.0938378999708,451.0773803999764,451.57782829995267,451.0773803999764,451.57782829995267,451.0773803999764,451.57782829995267,451.0773803999764,451.57782829995267,451.0773803999764,451.57782829995267,451.0773803999764,451.57782829995267,451.0773803999764,451.57782829995267,451.0773803999764,451.57782829995267,450.52564889995847,None,451.57782829995267,453.3636069999775,0.5600000000000003,453.38059839996276,None,454.13177179999184,None,,,,,,,[1.7835],3.5800000000000027,0.7666666666666667,11005,001,2024_Jan_01_0905,MFTM_A_new1021,2021.2.3,59.61902252248365,
,,,,,,,,stim/Instruction_adaptive.png,conditions/adaptive.xlsx,test,0.6,0.6,0.6,-0.6,-0.6,right,R,,,,,0,1,1,1,0,60,60,40,,,,,,,,,,,,,,,,,,,,,,,,,,,,,,,,,,,,,,,,,,,,454.631849999947,None,right,1,0.8014151999959722,455.1324590999866,456.185163099959,455.1324590999866,455.68330949998926,455.1324590999866,455.68330949998926,455.1324590999866,455.68330949998926,455.1324590999866,455.68330949998926,455.1324590999866,455.68330949998926,455.666536899982,456.1678414999624,455.666536899982,456.1678414999624,455.666536899982,456.1678414999624,455.666536899982,456.1678414999624,455.666536899982,456.1678414999624,455.666536899982,456.1678414999624,455.666536899982,456.1678414999624,455.666536899982,456.1678414999624,455.1324590999866,None,456.1678414999624,457.9538936999743,0.5500000000000003,457.9705571999657,None,458.72138859995175,None,,,,,,,[1.78622951],3.610000000000003,0.7704918032786885,11005,001,2024_Jan_01_0905,MFTM_A_new1021,2021.2.3,59.61902252248365,
,,,,,,,,stim/Instruction_adaptive.png,conditions/adaptive.xlsx,test,-0.6,-0.6,-0.6,0.6,0.6,left,L,,,,,0,1,1,1,0,61,61,27,,,,,,,,,,,,,,,,,,,,,,,,,,,,,,,,,,,,,,,,,,,,459.22191119997296,None,left,1,0.9555785999982618,459.72249909996754,460.77498639997793,459.72249909996754,460.27344509999966,459.72249909996754,460.27344509999966,459.72249909996754,460.27344509999966,459.72249909996754,460.27344509999966,459.72249909996754,460.27344509999966,460.25667789997533,460.75814919994446,460.25667789997533,460.75814919994446,460.25667789997533,460.75814919994446,460.25667789997533,460.75814919994446,460.25667789997533,460.75814919994446,460.25667789997533,460.75814919994446,460.25667789997533,460.75814919994446,460.25667789997533,460.75814919994446,459.72249909996754,None,460.75814919994446,None,0.5400000000000003,462.5602689999505,None,463.3119750999613,None,,,,,,,[1.78903226],3.640000000000003,0.7741935483870968,11005,001,2024_Jan_01_0905,MFTM_A_new1021,2021.2.3,59.61902252248365,
,,,,,,,,stim/Instruction_adaptive.png,conditions/adaptive.xlsx,test,-0.6,-0.6,-0.6,0.6,0.6,left,L,,,,,0,1,1,1,0,62,62,13,,,,,,,,,,,,,,,,,,,,,,,,,,,,,,,,,,,,,,,,,,,,463.81226959999185,None,right,0,0.932469499995932,464.3135754999821,465.3475619999808,464.3135754999821,464.8476782999933,464.3135754999821,464.8476782999933,464.3135754999821,464.8476782999933,464.3135754999821,464.8476782999933,464.3135754999821,464.8476782999933,464.8301544999704,465.3314441999537,464.8301544999704,465.3314441999537,464.8301544999704,465.3314441999537,464.8301544999704,465.3314441999537,464.8301544999704,465.3314441999537,464.8301544999704,465.3314441999537,464.8301544999704,465.3314441999537,464.8301544999704,465.3314441999537,464.3135754999821,None,465.3314441999537,467.13424159999704,0.5300000000000002,467.1502787999925,None,467.90213019994553,None,,,,,,,[1.79190476],3.5600000000000027,0.7619047619047619,11005,001,2024_Jan_01_0905,MFTM_A_new1021,2021.2.3,59.61902252248365,
,,,,,,,,stim/Instruction_adaptive.png,conditions/adaptive.xlsx,test,-0.6,-0.6,-0.6,0.6,0.6,left,L,,,,,0,1,1,1,0,63,63,85,,,,,,,,,,,,,,,,,,,,,,,,,,,,,,,,,,,,,,,,,,,,468.4027941999957,None,left,1,1.1101139000384137,468.90346829994814,469.9721394999651,468.90346829994814,469.47042409999995,468.90346829994814,469.47042409999995,468.90346829994814,469.47042409999995,468.90346829994814,469.47042409999995,468.90346829994814,469.47042409999995,469.43721189995995,469.9385412999545,469.43721189995995,469.9385412999545,469.43721189995995,469.9385412999545,469.43721189995995,469.9385412999545,469.43721189995995,469.9385412999545,469.43721189995995,469.9385412999545,469.43721189995995,469.9385412999545,469.43721189995995,469.9385412999545,468.90346829994814,None,469.9385412999545,471.74140909995185,0.5600000000000003,471.75679739995394,None,472.5090897999471,None,,,,,,,[1.79421875],3.5900000000000025,0.765625,11005,001,2024_Jan_01_0905,MFTM_A_new1021,2021.2.3,59.61902252248365,
,,,,,,,,stim/Instruction_adaptive.png,conditions/adaptive.xlsx,test,-0.6,-0.6,-0.6,0.6,0.6,left,L,,,,,0,1,1,1,0,64,64,81,,,,,,,,,,,,,,,,,,,,,,,,,,,,,,,,,,,,,,,,,,,,473.00983949995134,None,right,0,2.048028500052169,473.50994759995956,474.56204969994724,473.50994759995956,474.0612847000011,473.50994759995956,474.0612847000011,473.50994759995956,474.0612847000011,473.50994759995956,474.0612847000011,473.50994759995956,474.0612847000011,474.0439650999615,474.5457319999696,474.0439650999615,474.5457319999696,474.0439650999615,474.5457319999696,474.0439650999615,474.5457319999696,474.0439650999615,474.5457319999696,474.0439650999615,474.5457319999696,474.0439650999615,474.5457319999696,474.0439650999615,474.5457319999696,473.50994759995956,None,474.5457319999696,476.3473136999528,0.5500000000000003,476.3638465999975,None,477.1158267999999,None,,,,,,,[1.79661538],3.5000000000000027,0.7538461538461538,11005,001,2024_Jan_01_0905,MFTM_A_new1021,2021.2.3,59.61902252248365,
,,,,,,,,stim/Instruction_adaptive.png,conditions/adaptive.xlsx,test,-0.6,-0.6,-0.6,0.6,0.6,left,L,,,,,0,1,1,1,0,65,65,25,,,,,,,,,,,,,,,,,,,,,,,,,,,,,,,,,,,,,,,,,,,,477.616177399992,None,left,1,1.1450964999967255,478.1167057999992,479.2022220999934,478.1167057999992,478.70075099996757,478.1167057999992,478.70075099996757,478.1167057999992,478.70075099996757,478.1167057999992,478.70075099996757,478.1167057999992,478.70075099996757,478.68409299995983,479.1850806999719,478.68409299995983,479.1850806999719,478.68409299995983,479.1850806999719,478.68409299995983,479.1850806999719,478.68409299995983,479.1850806999719,478.68409299995983,479.1850806999719,478.68409299995983,479.1850806999719,478.68409299995983,479.1850806999719,478.1167057999992,None,479.1850806999719,480.9893478999729,0.5800000000000003,481.02117949997773,None,481.7721386999474,None,,,,,,,[1.79848485],3.530000000000003,0.7575757575757576,11005,001,2024_Jan_01_0905,MFTM_A_new1021,2021.2.3,59.61902252248365,
,,,,,,,,stim/Instruction_adaptive.png,conditions/adaptive.xlsx,test,0.6,0.6,0.6,-0.6,-0.6,right,R,,,,,0,1,1,1,0,66,66,84,,,,,,,,,,,,,,,,,,,,,,,,,,,,,,,,,,,,,,,,,,,,482.27267019997817,None,left,0,0.9923787000006996,482.77377499995055,483.8584619999747,482.77377499995055,483.3590773999458,482.77377499995055,483.3590773999458,482.77377499995055,483.3590773999458,482.77377499995055,483.3590773999458,482.77377499995055,483.3590773999458,483.3243281999603,483.8253048999468,483.3243281999603,483.8253048999468,483.3243281999603,483.8253048999468,483.3243281999603,483.8253048999468,483.3243281999603,483.8253048999468,483.3243281999603,483.8253048999468,483.3243281999603,483.8253048999468,483.3243281999603,483.8253048999468,482.77377499995055,None,483.8253048999468,485.63014819996897,0.5700000000000003,485.6623367999564,None,486.41299949999666,None,,,,,,,[1.80044776],3.4400000000000026,0.746268656716418,11005,001,2024_Jan_01_0905,MFTM_A_new1021,2021.2.3,59.61902252248365,
,,,,,,,,stim/Instruction_adaptive.png,conditions/adaptive.xlsx,test,-0.6,-0.6,-0.6,0.6,0.6,left,L,,,,,0,1,1,1,0,67,67,61,,,,,,,,,,,,,,,,,,,,,,,,,,,,,,,,,,,,,,,,,,,,486.91504089999944,None,right,0,1.5108768999925815,487.41478649998317,488.53274349996354,487.41478649998317,488.03162969998084,487.41478649998317,488.03162969998084,487.41478649998317,488.03162969998084,487.41478649998317,488.03162969998084,487.41478649998317,488.03162969998084,487.9981598999584,488.4987994999974,487.9981598999584,488.4987994999974,487.9981598999584,488.4987994999974,487.9981598999584,488.4987994999974,487.9981598999584,488.4987994999974,487.9981598999584,488.4987994999974,487.9981598999584,488.4987994999974,487.9981598999584,488.4987994999974,487.41478649998317,None,488.4987994999974,490.3009599999641,0.6100000000000003,490.33451329998206,None,491.08573319995776,None,,,,,,,[1.80176471],3.3600000000000025,0.7352941176470589,11005,001,2024_Jan_01_0905,MFTM_A_new1021,2021.2.3,59.61902252248365,
,,,,,,,,stim/Instruction_adaptive.png,conditions/adaptive.xlsx,test,-0.6,-0.6,-0.6,0.6,0.6,left,L,,,,,0,1,1,1,0,68,68,51,,,,,,,,,,,,,,,,,,,,,,,,,,,,,,,,,,,,,,,,,,,,491.58743669994874,None,left,1,1.5983127999934368,492.08801099995617,493.2400677999831,492.08801099995617,492.7398002999835,492.08801099995617,492.7398002999835,492.08801099995617,492.7398002999835,492.08801099995617,492.7398002999835,492.08801099995617,492.7398002999835,492.70557959994767,493.20658839994576,492.70557959994767,493.20658839994576,492.70557959994767,493.20658839994576,492.70557959994767,493.20658839994576,492.70557959994767,493.20658839994576,492.70557959994767,493.20658839994576,492.70557959994767,493.20658839994576,492.70557959994767,493.20658839994576,492.08801099995617,None,493.20658839994576,495.008909999975,0.6400000000000003,495.0411754999659,None,495.7929022999597,None,,,,,,,[1.8026087],3.3900000000000023,0.7391304347826086,11005,001,2024_Jan_01_0905,MFTM_A_new1021,2021.2.3,59.61902252248365,
,,,,,,,,stim/Instruction_adaptive.png,conditions/adaptive.xlsx,test,0.6,0.6,0.6,-0.6,-0.6,right,R,,,,,0,1,1,1,0,69,69,56,,,,,,,,,,,,,,,,,,,,,,,,,,,,,,,,,,,,,,,,,,,,496.2946372999577,None,left,0,2.499725900008343,496.79444669996155,497.92981229996076,496.79444669996155,497.4283645999967,496.79444669996155,497.4283645999967,496.79444669996155,497.4283645999967,496.79444669996155,497.4283645999967,496.79444669996155,497.4283645999967,497.4118844999466,497.9130837999983,497.4118844999466,497.9130837999983,497.4118844999466,497.9130837999983,497.4118844999466,497.9130837999983,497.4118844999466,497.9130837999983,497.4118844999466,497.9130837999983,497.4118844999466,497.9130837999983,497.4118844999466,497.9130837999983,496.79444669996155,None,497.9130837999983,499.7160235999618,0.6300000000000003,499.73167809995357,None,500.4828966999776,None,,,,,,,[1.80357143],3.3000000000000025,0.7285714285714285,11005,001,2024_Jan_01_0905,MFTM_A_new1021,2021.2.3,59.61902252248365,
,,,,,,,,stim/Instruction_adaptive.png,conditions/adaptive.xlsx,test,0.6,0.6,0.6,-0.6,-0.6,right,R,,,,,0,1,1,1,0,70,70,80,,,,,,,,,,,,,,,,,,,,,,,,,,,,,,,,,,,,,,,,,,,,500.9843675000011,None,right,1,1.5135302999988198,501.4842398999608,502.65373609995004,501.4842398999608,502.17034499999136,501.4842398999608,502.17034499999136,501.4842398999608,502.17034499999136,501.4842398999608,502.17034499999136,501.4842398999608,502.17034499999136,502.13548909995006,502.63685939996503,502.13548909995006,502.63685939996503,502.13548909995006,502.63685939996503,502.13548909995006,502.63685939996503,502.13548909995006,502.63685939996503,502.13548909995006,502.63685939996503,502.13548909995006,502.63685939996503,502.13548909995006,502.63685939996503,501.4842398999608,None,502.63685939996503,504.4395497999503,0.6700000000000004,504.472069899959,None,505.22401049995096,None,,,,,,,[1.80394366],3.3300000000000027,0.7323943661971831,11005,001,2024_Jan_01_0905,MFTM_A_new1021,2021.2.3,59.61902252248365,
,,,,,,,,stim/Instruction_adaptive.png,conditions/adaptive.xlsx,test,0.6,0.6,0.6,-0.6,-0.6,right,R,,,,,0,1,1,1,0,71,71,54,,,,,,,,,,,,,,,,,,,,,,,,,,,,,,,,,,,,,,,,,,,,505.72518569999374,None,right,1,1.548573200008832,506.22563169995556,507.3772242999985,506.22563169995556,506.8766009999672,506.22563169995556,506.8766009999672,506.22563169995556,506.8766009999672,506.22563169995556,506.8766009999672,506.22563169995556,506.8766009999672,506.8592882999801,507.36044929997297,506.8592882999801,507.36044929997297,506.8592882999801,507.36044929997297,506.8592882999801,507.36044929997297,506.8592882999801,507.36044929997297,506.8592882999801,507.36044929997297,506.8592882999801,507.36044929997297,506.8592882999801,507.36044929997297,506.22563169995556,None,507.36044929997297,None,0.6500000000000004,509.1799254999496,None,509.9316397999646,None,,,,,,,[1.80458333],3.3600000000000025,0.7361111111111112,11005,001,2024_Jan_01_0905,MFTM_A_new1021,2021.2.3,59.61902252248365,
,,,,,,,,stim/Instruction_adaptive.png,conditions/adaptive.xlsx,test,0.6,0.6,0.6,-0.6,-0.6,right,R,,,,,0,1,1,1,0,72,72,92,,,,,,,,,,,,,,,,,,,,,,,,,,,,,,,,,,,,,,,,,,,,510.4316664999933,None,right,1,1.6818987000151537,510.9317601999501,512.0846024999628,510.9317601999501,511.5836802999838,510.9317601999501,511.5836802999838,510.9317601999501,511.5836802999838,510.9317601999501,511.5836802999838,510.9317601999501,511.5836802999838,511.549505199946,512.0504733999842,511.549505199946,512.0504733999842,511.549505199946,512.0504733999842,511.549505199946,512.0504733999842,511.549505199946,512.0504733999842,511.549505199946,512.0504733999842,511.549505199946,512.0504733999842,511.549505199946,512.0504733999842,510.9317601999501,None,512.0504733999842,513.8699471,0.6400000000000003,513.886234399979,None,514.6376894999994,None,,,,,,,[1.80534247],3.3900000000000023,0.7397260273972602,11005,001,2024_Jan_01_0905,MFTM_A_new1021,2021.2.3,59.61902252248365,
,,,,,,,,stim/Instruction_adaptive.png,conditions/adaptive.xlsx,test,0.6,0.6,0.6,-0.6,-0.6,right,R,,,,,0,1,1,1,0,73,73,60,,,,,,,,,,,,,,,,,,,,,,,,,,,,,,,,,,,,,,,,,,,,515.1382929999963,None,right,1,1.1510522000025958,515.6396721999627,516.7745652999729,515.6396721999627,516.2741488999454,515.6396721999627,516.2741488999454,515.6396721999627,516.2741488999454,515.6396721999627,516.2741488999454,515.6396721999627,516.2741488999454,516.2564261999796,516.7579596999567,516.2564261999796,516.7579596999567,516.2564261999796,516.7579596999567,516.2564261999796,516.7579596999567,516.2564261999796,516.7579596999567,516.2564261999796,516.7579596999567,516.2564261999796,516.7579596999567,516.2564261999796,516.7579596999567,515.6396721999627,None,516.7579596999567,None,0.6300000000000003,518.5773781999596,None,519.3284108999651,None,,,,,,,[1.80621622],3.410000000000003,0.7432432432432432,11005,001,2024_Jan_01_0905,MFTM_A_new1021,2021.2.3,59.61902252248365,
,,,,,,,,stim/Instruction_adaptive.png,conditions/adaptive.xlsx,test,0.6,0.6,0.6,-0.6,-0.6,right,R,,,,,0,1,1,1,0,74,74,68,,,,,,,,,,,,,,,,,,,,,,,,,,,,,,,,,,,,,,,,,,,,519.8288387999637,None,right,1,1.4848010999849066,520.3290818999521,521.464948799985,520.3290818999521,520.9643787999521,520.3290818999521,520.9643787999521,520.3290818999521,520.9643787999521,520.3290818999521,520.9643787999521,520.3290818999521,520.9643787999521,520.9299894999713,521.4307196999434,520.9299894999713,521.4307196999434,520.9299894999713,521.4307196999434,520.9299894999713,521.4307196999434,520.9299894999713,521.4307196999434,520.9299894999713,521.4307196999434,520.9299894999713,521.4307196999434,520.9299894999713,521.4307196999434,520.3290818999521,None,521.4307196999434,523.2507107999991,0.6200000000000003,523.2668562999461,None,524.0187287999433,None,,,,,,,[1.8072],3.4400000000000026,0.7466666666666667,11005,001,2024_Jan_01_0905,MFTM_A_new1021,2021.2.3,59.61902252248365,
,,,,,,,,stim/Instruction_adaptive.png,conditions/adaptive.xlsx,test,0.6,0.6,0.6,-0.6,-0.6,right,R,,,,,0,1,1,1,0,75,75,18,,,,,,,,,,,,,,,,,,,,,,,,,,,,,,,,,,,,,,,,,,,,524.5186632999685,None,right,1,0.9541314999805763,525.0194187999587,526.1389979999512,525.0194187999587,525.6369425999583,525.0194187999587,525.6369425999583,525.0194187999587,525.6369425999583,525.0194187999587,525.6369425999583,525.0194187999587,525.6369425999583,525.6039105999516,526.1045166999684,525.6039105999516,526.1045166999684,525.6039105999516,526.1045166999684,525.6039105999516,526.1045166999684,525.6039105999516,526.1045166999684,525.6039105999516,526.1045166999684,525.6039105999516,526.1045166999684,525.6039105999516,526.1045166999684,525.0194187999587,None,526.1045166999684,527.9248394999886,0.6100000000000003,527.9412682999973,None,528.6920771999867,None,,,,,,,[1.80828947],3.4700000000000024,0.75,11005,001,2024_Jan_01_0905,MFTM_A_new1021,2021.2.3,59.61902252248365,
,,,,,,,,stim/Instruction_adaptive.png,conditions/adaptive.xlsx,test,-0.6,-0.6,-0.6,0.6,0.6,left,L,,,,,0,1,1,1,0,76,76,45,,,,,,,,,,,,,,,,,,,,,,,,,,,,,,,,,,,,,,,,,,,,529.1925986999995,None,left,1,1.2403073000023142,529.6937009999529,530.7951741999714,529.6937009999529,530.2944654999883,529.6937009999529,530.2944654999883,529.6937009999529,530.2944654999883,529.6937009999529,530.2944654999883,529.6937009999529,530.2944654999883,530.2606311999843,530.7616934999824,530.2606311999843,530.7616934999824,530.2606311999843,530.7616934999824,530.2606311999843,530.7616934999824,530.2606311999843,530.7616934999824,530.2606311999843,530.7616934999824,530.2606311999843,530.7616934999824,530.2606311999843,530.7616934999824,529.6937009999529,None,530.7616934999824,532.5810565999709,0.5900000000000003,532.5979022999527,None,533.3491204999737,None,,,,,,,[1.80961039],3.490000000000003,0.7532467532467533,11005,001,2024_Jan_01_0905,MFTM_A_new1021,2021.2.3,59.61902252248365,
,,,,,,,,stim/Instruction_adaptive.png,conditions/adaptive.xlsx,test,-0.6,-0.6,-0.6,0.6,0.6,left,L,,,,,0,1,1,1,0,77,77,1,,,,,,,,,,,,,,,,,,,,,,,,,,,,,,,,,,,,,,,,,,,,533.8500072999741,None,left,1,1.512021500035189,534.3497179999831,535.4527876999928,534.3497179999831,534.9517479999922,534.3497179999831,534.9517479999922,534.3497179999831,534.9517479999922,534.3497179999831,534.9517479999922,534.3497179999831,534.9517479999922,534.9184700999758,535.4187013999908,534.9184700999758,535.4187013999908,534.9184700999758,535.4187013999908,534.9184700999758,535.4187013999908,534.9184700999758,535.4187013999908,534.9184700999758,535.4187013999908,534.9184700999758,535.4187013999908,534.9184700999758,535.4187013999908,534.3497179999831,None,535.4187013999908,537.2385847999831,0.5900000000000003,537.2548468999448,None,538.0059191999608,None,,,,,,,[1.81089744],3.5200000000000027,0.7564102564102564,11005,001,2024_Jan_01_0905,MFTM_A_new1021,2021.2.3,59.61902252248365,
,,,,,,,,stim/Instruction_adaptive.png,conditions/adaptive.xlsx,test,0.6,0.6,0.6,-0.6,-0.6,right,R,,,,,0,1,1,1,0,78,78,2,,,,,,,,,,,,,,,,,,,,,,,,,,,,,,,,,,,,,,,,,,,,538.5063550999621,None,right,1,1.383429600042291,539.0068217999651,540.0916604999802,539.0068217999651,539.591129599954,539.0068217999651,539.591129599954,539.0068217999651,539.591129599954,539.0068217999651,539.591129599954,539.0068217999651,539.591129599954,539.5578767999541,540.0590855999617,539.5578767999541,540.0590855999617,539.5578767999541,540.0590855999617,539.5578767999541,540.0590855999617,539.5578767999541,540.0590855999617,539.5578767999541,540.0590855999617,539.5578767999541,540.0590855999617,539.5578767999541,540.0590855999617,539.0068217999651,None,540.0590855999617,541.8781287999591,0.5700000000000003,541.8943266999559,None,542.6463322999771,None,,,,,,,[1.81240506],3.5400000000000027,0.759493670886076,11005,001,2024_Jan_01_0905,MFTM_A_new1021,2021.2.3,59.61902252248365,
,,,,,,,,stim/Instruction_adaptive.png,conditions/adaptive.xlsx,test,-0.6,-0.6,-0.6,0.6,0.6,left,L,,,,,0,1,1,1,0,79,79,63,,,,,,,,,,,,,,,,,,,,,,,,,,,,,,,,,,,,,,,,,,,,543.1468332999502,None,left,1,1.4940242000157014,543.6477475999855,544.7325124999625,543.6477475999855,544.2318866999703,543.6477475999855,544.2318866999703,543.6477475999855,544.2318866999703,543.6477475999855,544.2318866999703,543.6477475999855,544.2318866999703,544.1979486999917,544.6990944999852,544.1979486999917,544.6990944999852,544.1979486999917,544.6990944999852,544.1979486999917,544.6990944999852,544.1979486999917,544.6990944999852,544.1979486999917,544.6990944999852,544.1979486999917,544.6990944999852,544.1979486999917,544.6990944999852,543.6477475999855,None,544.6990944999852,546.5186386999558,0.5700000000000003,546.535267499974,None,547.2860184999881,None,,,,,,,[1.813875],3.5600000000000027,0.7625,11005,001,2024_Jan_01_0905,MFTM_A_new1021,2021.2.3,59.61902252248365,
,,,,,,,,stim/Instruction_adaptive.png,conditions/adaptive.xlsx,test,-0.6,-0.6,-0.6,0.6,0.6,left,L,,,,,0,1,1,1,0,80,80,21,,,,,,,,,,,,,,,,,,,,,,,,,,,,,,,,,,,,,,,,,,,,547.7867267999682,None,left,1,1.1349383000051603,548.2873454999644,549.3559856999782,548.2873454999644,548.8555371999973,548.2873454999644,548.8555371999973,548.2873454999644,548.8555371999973,548.2873454999644,548.8555371999973,548.2873454999644,548.8555371999973,548.8213408999727,549.322594999976,548.8213408999727,549.322594999976,548.8213408999727,549.322594999976,548.8213408999727,549.322594999976,548.8213408999727,549.322594999976,548.8213408999727,549.322594999976,548.8213408999727,549.322594999976,548.8213408999727,549.322594999976,548.2873454999644,None,549.322594999976,551.1423890999868,0.5600000000000003,551.1754491999745,None,551.9264283999801,None,,,,,,,[1.8154321],3.5900000000000025,0.7654320987654321,11005,001,2024_Jan_01_0905,MFTM_A_new1021,2021.2.3,59.61902252248365,
,,,,,,,,stim/Instruction_adaptive.png,conditions/adaptive.xlsx,test,0.6,0.6,0.6,-0.6,-0.6,right,R,,,,,0,1,1,1,0,81,81,58,,,,,,,,,,,,,,,,,,,,,,,,,,,,,,,,,,,,,,,,,,,,552.427339899994,None,left,0,1.4460215999861248,552.9280301999534,553.9799479999929,552.9280301999534,553.4783048999961,552.9280301999534,553.4783048999961,552.9280301999534,553.4783048999961,552.9280301999534,553.4783048999961,552.9280301999534,553.4783048999961,553.4621707999613,553.9631769999978,553.4621707999613,553.9631769999978,553.4621707999613,553.9631769999978,553.4621707999613,553.9631769999978,553.4621707999613,553.9631769999978,553.4621707999613,553.9631769999978,553.4621707999613,553.9631769999978,553.4621707999613,553.9631769999978,552.9280301999534,None,553.9631769999978,555.7822828999488,0.5500000000000003,555.7990640999633,None,556.5503338999697,None,,,,,,,[1.81707317],3.5200000000000027,0.7560975609756098,11005,001,2024_Jan_01_0905,MFTM_A_new1021,2021.2.3,59.61902252248365,
,,,,,,,,stim/Instruction_adaptive.png,conditions/adaptive.xlsx,test,-0.6,-0.6,-0.6,0.6,0.6,left,L,,,,,0,1,1,1,0,82,82,55,,,,,,,,,,,,,,,,,,,,,,,,,,,,,,,,,,,,,,,,,,,,557.0511352999602,None,left,1,1.4387147000525147,557.5512536999886,558.6361214999924,557.5512536999886,558.1356252999976,557.5512536999886,558.1356252999976,557.5512536999886,558.1356252999976,557.5512536999886,558.1356252999976,557.5512536999886,558.1356252999976,558.1020342999836,558.6026375999791,558.1020342999836,558.6026375999791,558.1020342999836,558.6026375999791,558.1020342999836,558.6026375999791,558.1020342999836,558.6026375999791,558.1020342999836,558.6026375999791,558.1020342999836,558.6026375999791,558.1020342999836,558.6026375999791,557.5512536999886,None,558.6026375999791,560.4225243999972,0.5700000000000003,560.4383684999775,None,561.1899329999578,None,,,,,,,[1.81843373],3.5400000000000027,0.7590361445783133,11005,001,2024_Jan_01_0905,MFTM_A_new1021,2021.2.3,59.61902252248365,
,,,,,,,,stim/Instruction_adaptive.png,conditions/adaptive.xlsx,test,-0.6,-0.6,-0.6,0.6,0.6,left,L,,,,,0,1,1,1,0,83,83,5,,,,,,,,,,,,,,,,,,,,,,,,,,,,,,,,,,,,,,,,,,,,561.6913403999642,None,left,1,1.919235099980142,562.1917380999657,563.27616389998,562.1917380999657,562.7754527999787,562.1917380999657,562.7754527999787,562.1917380999657,562.7754527999787,562.1917380999657,562.7754527999787,562.1917380999657,562.7754527999787,562.7428101999685,563.2433957999456,562.7428101999685,563.2433957999456,562.7428101999685,563.2433957999456,562.7428101999685,563.2433957999456,562.7428101999685,563.2433957999456,562.7428101999685,563.2433957999456,562.7428101999685,563.2433957999456,562.7428101999685,563.2433957999456,562.1917380999657,None,563.2433957999456,565.06260569999,0.5700000000000003,565.0955396999489,None,565.8476430999581,None,,,,,,,[1.8197619],3.570000000000003,0.7619047619047619,11005,001,2024_Jan_01_0905,MFTM_A_new1021,2021.2.3,59.61902252248365,
,,,,,,,,stim/Instruction_adaptive.png,conditions/adaptive.xlsx,test,0.6,0.6,0.6,-0.6,-0.6,right,R,,,,,0,1,1,1,0,84,84,94,,,,,,,,,,,,,,,,,,,,,,,,,,,,,,,,,,,,,,,,,,,,566.348404999997,None,right,1,1.0463436999707483,566.8483307999559,567.899440899957,566.8483307999559,567.3988119999995,566.8483307999559,567.3988119999995,566.8483307999559,567.3988119999995,566.8483307999559,567.3988119999995,566.8483307999559,567.3988119999995,567.3826177999726,567.8827023999766,567.3826177999726,567.8827023999766,567.3826177999726,567.8827023999766,567.3826177999726,567.8827023999766,567.3826177999726,567.8827023999766,567.3826177999726,567.8827023999766,567.3826177999726,567.8827023999766,567.3826177999726,567.8827023999766,566.8483307999559,None,567.8827023999766,569.7033857999486,0.5500000000000003,569.7196551999659,None,570.4705178999575,None,,,,,,,[1.82129412],3.5900000000000025,0.7647058823529411,11005,001,2024_Jan_01_0905,MFTM_A_new1021,2021.2.3,59.61902252248365,
,,,,,,,,stim/Instruction_adaptive.png,conditions/adaptive.xlsx,test,0.6,0.6,0.6,-0.6,-0.6,right,R,,,,,0,1,1,1,0,85,85,4,,,,,,,,,,,,,,,,,,,,,,,,,,,,,,,,,,,,,,,,,,,,570.971084699966,None,right,1,0.9416244000312872,571.4720722999773,572.5237880999921,571.4720722999773,572.02295459999,571.4720722999773,572.02295459999,571.4720722999773,572.02295459999,571.4720722999773,572.02295459999,571.4720722999773,572.02295459999,572.0061811999767,572.5068757999688,572.0061811999767,572.5068757999688,572.0061811999767,572.5068757999688,572.0061811999767,572.5068757999688,572.0061811999767,572.5068757999688,572.0061811999767,572.5068757999688,572.0061811999767,572.5068757999688,572.0061811999767,572.5068757999688,571.4720722999773,None,572.5068757999688,574.3435719999834,0.5500000000000003,574.3594306999585,None,575.1113103999523,None,,,,,,,[1.8227907],3.610000000000003,0.7674418604651163,11005,001,2024_Jan_01_0905,MFTM_A_new1021,2021.2.3,59.61902252248365,
,,,,,,,,stim/Instruction_adaptive.png,conditions/adaptive.xlsx,test,-0.6,-0.6,-0.6,0.6,0.6,left,L,,,,,0,1,1,1,0,86,86,65,,,,,,,,,,,,,,,,,,,,,,,,,,,,,,,,,,,,,,,,,,,,575.6123975999653,None,right,0,1.3184481000062078,576.1118345999857,577.1638817999628,576.1118345999857,576.6627694999916,576.1118345999857,576.6627694999916,576.1118345999857,576.6627694999916,576.1118345999857,576.6627694999916,576.1118345999857,576.6627694999916,576.629683599982,577.1308617999894,576.629683599982,577.1308617999894,576.629683599982,577.1308617999894,576.629683599982,577.1308617999894,576.629683599982,577.1308617999894,576.629683599982,577.1308617999894,576.629683599982,577.1308617999894,576.629683599982,577.1308617999894,576.1118345999857,None,577.1308617999894,578.9676890999544,0.5400000000000003,578.9824975999654,None,579.7345024999813,None,,,,,,,[1.82436782],3.5500000000000025,0.7586206896551724,11005,001,2024_Jan_01_0905,MFTM_A_new1021,2021.2.3,59.61902252248365,
,,,,,,,,stim/Instruction_adaptive.png,conditions/adaptive.xlsx,test,0.6,0.6,0.6,-0.6,-0.6,right,R,,,,,0,1,1,1,0,87,87,78,,,,,,,,,,,,,,,,,,,,,,,,,,,,,,,,,,,,,,,,,,,,580.2348758999724,None,left,0,1.4540836000232957,580.7357085999683,581.8046065999661,580.7357085999683,581.3028275999823,580.7357085999683,581.3028275999823,580.7357085999683,581.3028275999823,580.7357085999683,581.3028275999823,580.7357085999683,581.3028275999823,581.2859071999555,581.7877052999684,581.2859071999555,581.7877052999684,581.2859071999555,581.7877052999684,581.2859071999555,581.7877052999684,581.2859071999555,581.7877052999684,581.2859071999555,581.7877052999684,581.2859071999555,581.7877052999684,581.2859071999555,581.7877052999684,580.7357085999683,None,581.7877052999684,None,0.5600000000000003,583.6228414999787,None,584.3752137999982,None,,,,,,,[1.82568182],3.4800000000000026,0.75,11005,001,2024_Jan_01_0905,MFTM_A_new1021,2021.2.3,59.61902252248365,
,,,,,,,,stim/Instruction_adaptive.png,conditions/adaptive.xlsx,test,0.6,0.6,0.6,-0.6,-0.6,right,R,,,,,0,1,1,1,0,88,88,30,,,,,,,,,,,,,,,,,,,,,,,,,,,,,,,,,,,,,,,,,,,,584.8755262999912,None,right,1,1.1514137999620289,585.3754970000009,586.4779265999678,585.3754970000009,585.976453899988,585.3754970000009,585.976453899988,585.3754970000009,585.976453899988,585.3754970000009,585.976453899988,585.3754970000009,585.976453899988,585.9429784999811,586.4445785999997,585.9429784999811,586.4445785999997,585.9429784999811,586.4445785999997,585.9429784999811,586.4445785999997,585.9429784999811,586.4445785999997,585.9429784999811,586.4445785999997,585.9429784999811,586.4445785999997,585.9429784999811,586.4445785999997,585.3754970000009,None,586.4445785999997,588.2809231999563,0.5900000000000003,588.2965549999499,None,589.0488755999831,None,,,,,,,[1.82662921],3.5000000000000027,0.7528089887640449,11005,001,2024_Jan_01_0905,MFTM_A_new1021,2021.2.3,59.61902252248365,
,,,,,,,,stim/Instruction_adaptive.png,conditions/adaptive.xlsx,test,-0.6,-0.6,-0.6,0.6,0.6,left,L,,,,,0,1,1,1,0,89,89,39,,,,,,,,,,,,,,,,,,,,,,,,,,,,,,,,,,,,,,,,,,,,589.5492367999977,None,left,1,1.3014222999918275,590.0491880999762,591.1347747999826,590.0491880999762,590.633393199998,590.0491880999762,590.633393199998,590.0491880999762,590.633393199998,590.0491880999762,590.633393199998,590.0491880999762,590.633393199998,590.6172636999981,591.1179225999513,590.6172636999981,591.1179225999513,590.6172636999981,591.1179225999513,590.6172636999981,591.1179225999513,590.6172636999981,591.1179225999513,590.6172636999981,591.1179225999513,590.6172636999981,591.1179225999513,590.6172636999981,591.1179225999513,590.0491880999762,None,591.1179225999513,592.9540290999576,0.5800000000000003,592.9701225999743,None,593.7215134999715,None,,,,,,,[1.82766667],3.530000000000003,0.7555555555555555,11005,001,2024_Jan_01_0905,MFTM_A_new1021,2021.2.3,59.61902252248365,
,,,,,,,,stim/Instruction_adaptive.png,conditions/adaptive.xlsx,test,0.6,0.6,0.6,-0.6,-0.6,right,R,,,,,0,1,1,1,0,90,90,8,,,,,,,,,,,,,,,,,,,,,,,,,,,,,,,,,,,,,,,,,,,,594.2222879999899,None,right,1,1.2591780999791808,594.7226415999467,595.808255299984,594.7226415999467,595.307268399978,594.7226415999467,595.307268399978,594.7226415999467,595.307268399978,594.7226415999467,595.307268399978,594.7226415999467,595.307268399978,595.2735954999807,595.7743478999473,595.2735954999807,595.7743478999473,595.2735954999807,595.7743478999473,595.2735954999807,595.7743478999473,595.2735954999807,595.7743478999473,595.2735954999807,595.7743478999473,595.2735954999807,595.7743478999473,595.2735954999807,595.7743478999473,594.7226415999467,None,595.7743478999473,597.6113377999864,0.5700000000000003,597.6268865999882,None,598.3790158999618,None,,,,,,,[1.82879121],3.5500000000000025,0.7582417582417582,11005,001,2024_Jan_01_0905,MFTM_A_new1021,2021.2.3,59.61902252248365,
,,,,,,,,stim/Instruction_adaptive.png,conditions/adaptive.xlsx,test,-0.6,-0.6,-0.6,0.6,0.6,left,L,,,,,0,1,1,1,0,91,91,3,,,,,,,,,,,,,,,,,,,,,,,,,,,,,,,,,,,,,,,,,,,,598.8794280999573,None,right,0,1.0745504000224173,599.3795711999992,600.4483962999657,599.3795711999992,599.9471562999533,599.3795711999992,599.9471562999533,599.3795711999992,599.9471562999533,599.3795711999992,599.9471562999533,599.3795711999992,599.9471562999533,599.9310093999957,600.4314167999546,599.9310093999957,600.4314167999546,599.9310093999957,600.4314167999546,599.9310093999957,600.4314167999546,599.9310093999957,600.4314167999546,599.9310093999957,600.4314167999546,599.9310093999957,600.4314167999546,599.9310093999957,600.4314167999546,599.3795711999992,None,600.4314167999546,602.2675484999781,0.5600000000000003,602.283286699967,None,603.0351259999443,None,,,,,,,[1.83],3.4800000000000026,0.75,11005,001,2024_Jan_01_0905,MFTM_A_new1021,2021.2.3,59.61902252248365,
,,,,,,,,stim/Instruction_adaptive.png,conditions/adaptive.xlsx,test,-0.6,-0.6,-0.6,0.6,0.6,left,L,,,,,0,1,1,1,0,92,92,7,,,,,,,,,,,,,,,,,,,,,,,,,,,,,,,,,,,,,,,,,,,,603.5363806999521,None,left,1,0.9455432000104338,604.0363989999751,605.1384643999627,604.0363989999751,604.6377914999612,604.0363989999751,604.6377914999612,604.0363989999751,604.6377914999612,604.0363989999751,604.6377914999612,604.0363989999751,604.6377914999612,604.6043767999508,605.1047158999718,604.6043767999508,605.1047158999718,604.6043767999508,605.1047158999718,604.6043767999508,605.1047158999718,604.6043767999508,605.1047158999718,604.6043767999508,605.1047158999718,604.6043767999508,605.1047158999718,604.6043767999508,605.1047158999718,604.0363989999751,None,605.1047158999718,606.9413499999791,0.5900000000000003,606.9583997999434,None,607.7094702999457,None,,,,,,,[1.83086022],3.5100000000000025,0.7526881720430108,11005,001,2024_Jan_01_0905,MFTM_A_new1021,2021.2.3,59.61902252248365,
,,,,,,,,stim/Instruction_adaptive.png,conditions/adaptive.xlsx,test,-0.6,-0.6,-0.6,0.6,0.6,left,L,,,,,0,1,1,1,0,93,93,11,,,,,,,,,,,,,,,,,,,,,,,,,,,,,,,,,,,,,,,,,,,,608.2099965999951,None,right,0,1.800578599970322,608.7100485999836,609.7952596999821,608.7100485999836,609.2949510999606,608.7100485999836,609.2949510999606,608.7100485999836,609.2949510999606,608.7100485999836,609.2949510999606,608.7100485999836,609.2949510999606,609.278006699984,609.778966599959,609.278006699984,609.778966599959,609.278006699984,609.778966599959,609.278006699984,609.778966599959,609.278006699984,609.778966599959,609.278006699984,609.778966599959,609.278006699984,609.778966599959,609.278006699984,609.778966599959,608.7100485999836,None,609.778966599959,611.6149863999453,0.5800000000000003,611.6304684999632,None,612.3827888999949,None,,,,,,,[1.83180851],3.4400000000000026,0.7446808510638298,11005,001,2024_Jan_01_0905,MFTM_A_new1021,2021.2.3,59.61902252248365,
