arrwidth1,arrwidth2,arrwidth3,arrwidth4,arrwidth5,keyb,type,orientation,instruction_image,block_filename,block_type,arrow11,arrow22,arrow33,arrow44,arrow55,keyb_3,orientation3,trials.thisRepN,trials.thisTrialN,trials.thisN,trials.thisIndex,trials_3.thisRepN,trials_3.thisTrialN,trials_3.thisN,trials_3.thisIndex,trials_2.thisRepN,trials_2.thisTrialN,trials_2.thisN,trials_2.thisIndex,welcome.started,welcome.stopped,key_resp.keys,key_resp.rt,key_resp.started,key_resp.stopped,instruction_example.started,instruction_example.stopped,key_resp_3.keys,key_resp_3.rt,key_resp_3.started,key_resp_3.stopped,instruction_task.started,instruction_task.stopped,key_resp_2.keys,key_resp_2.rt,key_resp_2.started,key_resp_2.stopped,text_2.started,text_2.stopped,A1.started,A1.stopped,A2.started,A2.stopped,A3.started,A3.stopped,A4.started,A4.stopped,A5.started,A5.stopped,key_resp_4.keys,key_resp_4.corr,key_resp_4.rt,key_resp_4.started,key_resp_4.stopped,fb.started,fb.stopped,instruction_block.started,instruction_block.stopped,key_resp_8.keys,key_resp_8.rt,key_resp_8.started,key_resp_8.stopped,text_8.started,text_8.stopped,key_resp_9.keys,key_resp_9.corr,key_resp_9.rt,text_5.started,text_5.stopped,A11_3.started,A11_3.stopped,A22_2.started,A22_2.stopped,A33_2.started,A33_2.stopped,A44_2.started,A44_2.stopped,A55_2.started,A55_2.stopped,M1_3.started,M1_3.stopped,M2_2.started,M2_2.stopped,M3_2.started,M3_2.stopped,M4_2.started,M4_2.stopped,M5_2.started,M5_2.stopped,M6_2.started,M6_2.stopped,M7_2.started,M7_2.stopped,M8_2.started,M8_2.stopped,key_resp_9.started,key_resp_9.stopped,fixation.started,fixation.stopped,ET,fb_3.started,fb_3.stopped,text_9.started,text_9.stopped,fb_4.started,fb_4.stopped,text_7.started,text_7.stopped,endtext.started,endtext.stopped,fixation_ITI,CCC,Acc,participant,session,date,expName,psychopyVersion,frameRate,
,,,,,,,,,,,,,,,,,,,,,,,,,,,,,,9.495806499995524,None,space,2.206691999999748,9.495806499995524,None,,,,,,,,,,,,,,,,,,,,,,,,,,,,,,,,,,,,,,,,,,,,,,,,,,,,,,,,,,,,,,,,,,,,,,,,,,,,,,,,,,,,,,,,,11003,001,2023_Dec_29_1126,MFTM_A_new1021,2021.2.3,59.8238904318824,
,,,,,,,,,,,,,,,,,,,,,,,,,,,,,,,,,,,,11.716420099997777,None,space,1.0500421000033384,11.716420099997777,None,,,,,,,,,,,,,,,,,,,,,,,,,,,,,,,,,,,,,,,,,,,,,,,,,,,,,,,,,,,,,,,,,,,,,,,,,,,,,,,,,,,11003,001,2023_Dec_29_1126,MFTM_A_new1021,2021.2.3,59.8238904318824,
,,,,,,,,,,,,,,,,,,,,,,,,,,,,,,,,,,,,,,,,,,12.784544199996162,None,space,0.5016500999990967,12.784544199996162,None,,,,,,,,,,,,,,,,,,,,,,,,,,,,,,,,,,,,,,,,,,,,,,,,,,,,,,,,,,,,,,,,,,,,,,,,,,,,,11003,001,2023_Dec_29_1126,MFTM_A_new1021,2021.2.3,59.8238904318824,
-0.6,-0.6,-0.6,0.6,0.6,left,3:2,L,,,,,,,,,,,0,0,0,1,,,,,,,,,,,,,,,,,,,,,,,,,,,13.319081199995708,None,13.319081199995708,None,13.319081199995708,None,13.319081199995708,None,13.319081199995708,None,13.319081199995708,None,left,1,3.663110499997856,13.319081199995708,None,17.025215699999535,None,,,,,,,,,,,,,,,,,,,,,,,,,,,,,,,,,,,,,,,,,,,,,,,,,,,,,,,,,,11003,001,2023_Dec_29_1126,MFTM_A_new1021,2021.2.3,59.8238904318824,
0.6,0.6,0.6,-0.6,-0.6,right,3:2,R,,,,,,,,,,,0,1,1,0,,,,,,,,,,,,,,,,,,,,,,,,,,,17.775386000001163,None,17.775386000001163,None,17.775386000001163,None,17.775386000001163,None,17.775386000001163,None,17.775386000001163,None,right,1,1.6708748999953968,17.775386000001163,None,19.461220099998172,None,,,,,,,,,,,,,,,,,,,,,,,,,,,,,,,,,,,,,,,,,,,,,,,,,,,,,,,,,,11003,001,2023_Dec_29_1126,MFTM_A_new1021,2021.2.3,59.8238904318824,
0.6,0.6,0.6,-0.6,-0.6,right,3:2,R,,,,,,,,,,,1,0,2,0,,,,,,,,,,,,,,,,,,,,,,,,,,,20.212365799998224,None,20.212365799998224,None,20.212365799998224,None,20.212365799998224,None,20.212365799998224,None,20.212365799998224,None,right,1,2.2982191999981296,20.212365799998224,None,22.53237249999802,None,,,,,,,,,,,,,,,,,,,,,,,,,,,,,,,,,,,,,,,,,,,,,,,,,,,,,,,,,,11003,001,2023_Dec_29_1126,MFTM_A_new1021,2021.2.3,59.8238904318824,
-0.6,-0.6,-0.6,0.6,0.6,left,3:2,L,,,,,,,,,,,1,1,3,1,,,,,,,,,,,,,,,,,,,,,,,,,,,23.28429049999977,None,23.28429049999977,None,23.28429049999977,None,23.28429049999977,None,23.28429049999977,None,23.28429049999977,None,left,1,1.5702701000045636,23.28429049999977,None,24.86915339999541,None,,,,,,,,,,,,,,,,,,,,,,,,,,,,,,,,,,,,,,,,,,,,,,,,,,,,,,,,,,11003,001,2023_Dec_29_1126,MFTM_A_new1021,2021.2.3,59.8238904318824,
,,,,,,,,stim/Instruction_mask.png,conditions/adaptive.xlsx,practice,0.6,0.6,0.6,-0.6,-0.6,right,R,,,,,0,0,0,0,0,0,0,16,,,,,,,,,,,,,,,,,,,,,,,,,,,,,,,,,,,,,,25.870595200001844,None,space,58.39992830000119,25.870595200001844,None,84.3742654000016,None,right,1,2.4383450000023004,84.80890969999746,None,84.80890969999746,87.81250169999839,84.80890969999746,87.81250169999839,84.80890969999746,87.81250169999839,84.80890969999746,87.81250169999839,84.80890969999746,87.81250169999839,87.79617850000068,88.29727229999844,87.79617850000068,88.29727229999844,87.79617850000068,88.29727229999844,87.79617850000068,88.29727229999844,87.79617850000068,88.29727229999844,87.79617850000068,88.29727229999844,87.79617850000068,88.29727229999844,87.79617850000068,88.29727229999844,84.80890969999746,None,88.29727229999844,88.29727229999844,3,88.31309879999753,None,89.06542339999578,None,,,,,,,,,,11003,001,2023_Dec_29_1126,MFTM_A_new1021,2021.2.3,59.8238904318824,
,,,,,,,,stim/Instruction_mask.png,conditions/adaptive.xlsx,practice,-0.6,-0.6,-0.6,0.6,0.6,left,L,,,,,0,0,0,0,0,1,1,85,,,,,,,,,,,,,,,,,,,,,,,,,,,,,,,,,,,,,,,,,,,,89.56577149999794,None,None,0,0,90.06594760000007,92.06894649999595,90.06594760000007,91.56864759999735,90.06594760000007,91.56864759999735,90.06594760000007,91.56864759999735,90.06594760000007,91.56864759999735,90.06594760000007,91.56864759999735,91.55169680000108,92.05275699999765,91.55169680000108,92.05275699999765,91.55169680000108,92.05275699999765,91.55169680000108,92.05275699999765,91.55169680000108,92.05275699999765,91.55169680000108,92.05275699999765,91.55169680000108,92.05275699999765,91.55169680000108,92.05275699999765,90.06594760000007,None,92.05275699999765,93.55494489999546,1.5,93.57111330000043,None,94.32291319999786,None,,,,,,,,,,11003,001,2023_Dec_29_1126,MFTM_A_new1021,2021.2.3,59.8238904318824,
,,,,,,,,stim/Instruction_mask.png,conditions/adaptive.xlsx,practice,-0.6,-0.6,-0.6,0.6,0.6,left,L,,,,,0,0,0,0,0,2,2,77,,,,,,,,,,,,,,,,,,,,,,,,,,,,,,,,,,,,,,,,,,,,94.82357939999929,None,left,1,2.058812500006752,95.32379429999855,96.62627509999584,95.32379429999855,96.12568459999602,95.32379429999855,96.12568459999602,95.32379429999855,96.12568459999602,95.32379429999855,96.12568459999602,95.32379429999855,96.12568459999602,96.10818339999969,96.60890859999927,96.10818339999969,96.60890859999927,96.10818339999969,96.60890859999927,96.10818339999969,96.60890859999927,96.10818339999969,96.60890859999927,96.10818339999969,96.60890859999927,96.10818339999969,96.60890859999927,96.10818339999969,96.60890859999927,95.32379429999855,None,96.60890859999927,98.81272489999537,0.8,98.82941829999618,None,99.58072220000031,None,,,,,,,,,,11003,001,2023_Dec_29_1126,MFTM_A_new1021,2021.2.3,59.8238904318824,
,,,,,,,,stim/Instruction_mask.png,conditions/adaptive.xlsx,practice,0.6,0.6,0.6,-0.6,-0.6,right,R,,,,,0,0,0,0,0,3,3,48,,,,,,,,,,,,,,,,,,,,,,,,,,,,,,,,,,,,,,,,,,,,100.08176439999806,None,right,1,0.79237870000361,100.58213509999769,101.33347340000182,100.58213509999769,100.83181969999714,100.58213509999769,100.83181969999714,100.58213509999769,100.83181969999714,100.58213509999769,100.83181969999714,100.58213509999769,100.83181969999714,100.81524039999931,101.31717470000149,100.81524039999931,101.31717470000149,100.81524039999931,101.31717470000149,100.81524039999931,101.31717470000149,100.81524039999931,101.31717470000149,100.81524039999931,101.31717470000149,100.81524039999931,101.31717470000149,100.81524039999931,101.31717470000149,100.58213509999769,None,101.31717470000149,104.07044129999849,3,104.08768710000004,None,104.83892509999714,None,,,,,,,,,,11003,001,2023_Dec_29_1126,MFTM_A_new1021,2021.2.3,59.8238904318824,
,,,,,,,,stim/Instruction_mask.png,conditions/adaptive.xlsx,practice,,,,,,,,,,,,0,0,0,0,,,,,,,,,,,,,,,,,,,,,,,,,,,,,,,,,,,,,,,,,,,,,,,,,,,,,,,,,,,,,,,,,,,,,,,,,,,,,,,,,,,,,,,,,,105.35509530000127,106.35674160000053,106.34129759999632,106.34129759999632,106.34129759999632,None,,,,11003,001,2023_Dec_29_1126,MFTM_A_new1021,2021.2.3,59.8238904318824,
,,,,,,,,stim/Instruction_adaptive.png,conditions/adaptive.xlsx,test,-0.6,-0.6,-0.6,0.6,0.6,left,L,,,,,0,1,1,1,0,0,0,45,,,,,,,,,,,,,,,,,,,,,,,,,,,,,,,,,,,,,,109.51141659999848,None,space,23.542719500001112,109.51141659999848,None,133.11399130000063,None,left,1,2.8258840999988024,133.59687860000122,None,133.59687860000122,136.60162239999772,133.59687860000122,136.60162239999772,133.59687860000122,136.60162239999772,133.59687860000122,136.60162239999772,133.59687860000122,136.60162239999772,136.58476829999563,137.08676019999984,136.58476829999563,137.08676019999984,136.58476829999563,137.08676019999984,136.58476829999563,137.08676019999984,136.58476829999563,137.08676019999984,136.58476829999563,137.08676019999984,136.58476829999563,137.08676019999984,136.58476829999563,137.08676019999984,133.59687860000122,None,137.08676019999984,137.08676019999984,3,137.10227009999653,None,137.85342420000234,None,,,,,,,0,6.000000000000005,1.0,11003,001,2023_Dec_29_1126,MFTM_A_new1021,2021.2.3,59.8238904318824,
,,,,,,,,stim/Instruction_adaptive.png,conditions/adaptive.xlsx,test,-0.6,-0.6,-0.6,0.6,0.6,left,L,,,,,0,1,1,1,0,1,1,7,,,,,,,,,,,,,,,,,,,,,,,,,,,,,,,,,,,,,,,,,,,,138.35438820000127,None,left,1,3.0153755999999703,138.8554726000002,139.60597649999545,138.8554726000002,139.10573479999584,138.8554726000002,139.10573479999584,138.8554726000002,139.10573479999584,138.8554726000002,139.10573479999584,138.8554726000002,139.10573479999584,139.0896025999973,139.58933989999787,139.0896025999973,139.58933989999787,139.0896025999973,139.58933989999787,139.0896025999973,139.58933989999787,139.0896025999973,139.58933989999787,139.0896025999973,139.58933989999787,139.0896025999973,139.58933989999787,139.0896025999973,139.58933989999787,138.8554726000002,None,139.58933989999787,141.89269970000169,0.25,141.90937309999572,None,142.66041620000033,None,,,,,,,[0.875],6.000000000000005,1.0,11003,001,2023_Dec_29_1126,MFTM_A_new1021,2021.2.3,59.8238904318824,
,,,,,,,,stim/Instruction_adaptive.png,conditions/adaptive.xlsx,test,-0.6,-0.6,-0.6,0.6,0.6,left,L,,,,,0,1,1,1,0,2,2,77,,,,,,,,,,,,,,,,,,,,,,,,,,,,,,,,,,,,,,,,,,,,143.1611069999999,None,right,0,1.2567823999997927,143.6619075999988,144.4130251999959,143.6619075999988,143.91238299999532,143.6619075999988,143.91238299999532,143.6619075999988,143.91238299999532,143.6619075999988,143.91238299999532,143.6619075999988,143.91238299999532,143.89666330000182,144.39727409999614,143.89666330000182,144.39727409999614,143.89666330000182,144.39727409999614,143.89666330000182,144.39727409999614,143.89666330000182,144.39727409999614,143.89666330000182,144.39727409999614,143.89666330000182,144.39727409999614,143.89666330000182,144.39727409999614,143.6619075999988,None,144.39727409999614,145.7318054999996,0.25,145.74822039999708,None,146.49977570000192,None,,,,,,,[1.33333333],3.1800000000000024,0.6666666666666666,11003,001,2023_Dec_29_1126,MFTM_A_new1021,2021.2.3,59.8238904318824,
,,,,,,,,stim/Instruction_adaptive.png,conditions/adaptive.xlsx,test,-0.6,-0.6,-0.6,0.6,0.6,left,L,,,,,0,1,1,1,0,3,3,43,,,,,,,,,,,,,,,,,,,,,,,,,,,,,,,,,,,,,,,,,,,,147.00012749999587,None,left,1,2.4817210999972303,147.50101259999792,148.73690720000013,147.50101259999792,148.2361116999964,147.50101259999792,148.2361116999964,147.50101259999792,148.2361116999964,147.50101259999792,148.2361116999964,147.50101259999792,148.2361116999964,148.21916000000056,148.7195716999995,148.21916000000056,148.7195716999995,148.21916000000056,148.7195716999995,148.21916000000056,148.7195716999995,148.21916000000056,148.7195716999995,148.21916000000056,148.7195716999995,148.21916000000056,148.7195716999995,148.21916000000056,148.7195716999995,147.50101259999792,None,148.7195716999995,150.1735888999974,0.7300000000000004,150.18821229999594,None,150.93947320000007,None,,,,,,,[1.4425],4.030000000000003,0.75,11003,001,2023_Dec_29_1126,MFTM_A_new1021,2021.2.3,59.8238904318824,
,,,,,,,,stim/Instruction_adaptive.png,conditions/adaptive.xlsx,test,-0.6,-0.6,-0.6,0.6,0.6,left,L,,,,,0,1,1,1,0,4,4,1,,,,,,,,,,,,,,,,,,,,,,,,,,,,,,,,,,,,,,,,,,,,151.4403319999983,None,left,1,0.7855764999985695,151.94080759999633,152.84298560000025,151.94080759999633,152.34155969999847,151.94080759999633,152.34155969999847,151.94080759999633,152.34155969999847,151.94080759999633,152.34155969999847,151.94080759999633,152.34155969999847,152.32562759999564,152.8258074999976,152.32562759999564,152.8258074999976,152.32562759999564,152.8258074999976,152.32562759999564,152.8258074999976,152.32562759999564,152.8258074999976,152.32562759999564,152.8258074999976,152.32562759999564,152.8258074999976,152.32562759999564,152.8258074999976,151.94080759999633,None,152.8258074999976,154.41130729999713,0.40000000000000013,154.4287073000014,None,155.17969659999653,None,,,,,,,[1.574],4.550000000000003,0.8,11003,001,2023_Dec_29_1126,MFTM_A_new1021,2021.2.3,59.8238904318824,
,,,,,,,,stim/Instruction_adaptive.png,conditions/adaptive.xlsx,test,0.6,0.6,0.6,-0.6,-0.6,right,R,,,,,0,1,1,1,0,5,5,10,,,,,,,,,,,,,,,,,,,,,,,,,,,,,,,,,,,,,,,,,,,,155.680343,None,right,1,0.6740547000008519,156.18048779999663,156.96577299999626,156.18048779999663,156.46423440000217,156.18048779999663,156.46423440000217,156.18048779999663,156.46423440000217,156.18048779999663,156.46423440000217,156.18048779999663,156.46423440000217,156.4487214999972,156.94848230000207,156.4487214999972,156.94848230000207,156.4487214999972,156.94848230000207,156.4487214999972,156.94848230000207,156.4487214999972,156.94848230000207,156.4487214999972,156.94848230000207,156.4487214999972,156.94848230000207,156.4487214999972,156.94848230000207,156.18048779999663,None,156.94848230000207,158.6342222999956,0.28,158.65079279999918,None,159.4025685000015,None,,,,,,,[1.68166667],4.910000000000004,0.8333333333333334,11003,001,2023_Dec_29_1126,MFTM_A_new1021,2021.2.3,59.8238904318824,
,,,,,,,,stim/Instruction_adaptive.png,conditions/adaptive.xlsx,test,0.6,0.6,0.6,-0.6,-0.6,right,R,,,,,0,1,1,1,0,6,6,42,,,,,,,,,,,,,,,,,,,,,,,,,,,,,,,,,,,,,,,,,,,,159.90262190000067,None,left,0,0.8110049000024446,160.40333549999923,161.15453459999844,160.40333549999923,160.65379060000123,160.40333549999923,160.65379060000123,160.40333549999923,160.65379060000123,160.40333549999923,160.65379060000123,160.40333549999923,160.65379060000123,160.63783249999688,161.13757079999777,160.63783249999688,161.13757079999777,160.63783249999688,161.13757079999777,160.63783249999688,161.13757079999777,160.63783249999688,161.13757079999777,160.63783249999688,161.13757079999777,160.63783249999688,161.13757079999777,160.63783249999688,161.13757079999777,160.40333549999923,None,161.13757079999777,162.90856409999833,0.25,162.92374169999675,None,163.67563589999918,None,,,,,,,[1.76285714],4.060000000000003,0.7142857142857143,11003,001,2023_Dec_29_1126,MFTM_A_new1021,2021.2.3,59.8238904318824,
,,,,,,,,stim/Instruction_adaptive.png,conditions/adaptive.xlsx,test,0.6,0.6,0.6,-0.6,-0.6,right,R,,,,,0,1,1,1,0,7,7,12,,,,,,,,,,,,,,,,,,,,,,,,,,,,,,,,,,,,,,,,,,,,164.17654629999743,None,left,0,1.3304759999955422,164.67648770000233,165.577821400002,164.67648770000233,165.07781519999844,164.67648770000233,165.07781519999844,164.67648770000233,165.07781519999844,164.67648770000233,165.07781519999844,164.67648770000233,165.07781519999844,165.04380529999617,165.54433949999657,165.04380529999617,165.54433949999657,165.04380529999617,165.54433949999657,165.04380529999617,165.54433949999657,165.04380529999617,165.54433949999657,165.04380529999617,165.54433949999657,165.04380529999617,165.54433949999657,165.04380529999617,165.54433949999657,164.67648770000233,None,165.54433949999657,167.3647062999953,0.3900000000000001,167.38067189999856,None,168.1326704000021,None,,,,,,,[1.80625],3.150000000000002,0.625,11003,001,2023_Dec_29_1126,MFTM_A_new1021,2021.2.3,59.8238904318824,
,,,,,,,,stim/Instruction_adaptive.png,conditions/adaptive.xlsx,test,0.6,0.6,0.6,-0.6,-0.6,right,R,,,,,0,1,1,1,0,8,8,0,,,,,,,,,,,,,,,,,,,,,,,,,,,,,,,,,,,,,,,,,,,,168.63225339999917,None,right,1,3.2410533000002033,169.13372320000053,170.3856381000005,169.13372320000053,169.884083799996,169.13372320000053,169.884083799996,169.13372320000053,169.884083799996,169.13372320000053,169.884083799996,169.13372320000053,169.884083799996,169.85137749999558,170.3514081999965,169.85137749999558,170.3514081999965,169.85137749999558,170.3514081999965,169.85137749999558,170.3514081999965,169.85137749999558,170.3514081999965,169.85137749999558,170.3514081999965,169.85137749999558,170.3514081999965,169.85137749999558,170.3514081999965,169.13372320000053,None,170.3514081999965,172.4046492999987,0.7400000000000004,172.42125130000204,None,173.17259919999924,None,,,,,,,[[1.76]],3.5400000000000027,0.6666666666666666,11003,001,2023_Dec_29_1126,MFTM_A_new1021,2021.2.3,59.8238904318824,
,,,,,,,,stim/Instruction_adaptive.png,conditions/adaptive.xlsx,test,0.6,0.6,0.6,-0.6,-0.6,right,R,,,,,0,1,1,1,0,9,9,36,,,,,,,,,,,,,,,,,,,,,,,,,,,,,,,,,,,,,,,,,,,,173.67336929999874,None,right,1,1.0570335000011255,174.17382820000057,175.24316059999546,174.17382820000057,174.75879480000003,174.17382820000057,174.75879480000003,174.17382820000057,174.75879480000003,174.17382820000057,174.75879480000003,174.17382820000057,174.75879480000003,174.72471239999868,175.22637039999972,174.72471239999868,175.22637039999972,174.72471239999868,175.22637039999972,174.72471239999868,175.22637039999972,174.72471239999868,175.22637039999972,174.72471239999868,175.22637039999972,174.72471239999868,175.22637039999972,174.72471239999868,175.22637039999972,174.17382820000057,None,175.22637039999972,177.04482289999578,0.5700000000000003,177.06189219999942,None,177.81238360000134,None,,,,,,,[1.814],3.820000000000003,0.7,11003,001,2023_Dec_29_1126,MFTM_A_new1021,2021.2.3,59.8238904318824,
,,,,,,,,stim/Instruction_adaptive.png,conditions/adaptive.xlsx,test,0.6,0.6,0.6,-0.6,-0.6,right,R,,,,,0,1,1,1,0,10,10,44,,,,,,,,,,,,,,,,,,,,,,,,,,,,,,,,,,,,,,,,,,,,178.3135209999964,None,left,0,0.8084984000015538,178.81410360000154,179.80032219999703,178.81410360000154,179.29887459999736,178.81410360000154,179.29887459999736,178.81410360000154,179.29887459999736,178.81410360000154,179.29887459999736,178.81410360000154,179.29887459999736,179.265851199998,179.765828399999,179.265851199998,179.765828399999,179.265851199998,179.765828399999,179.265851199998,179.765828399999,179.265851199998,179.765828399999,179.265851199998,179.765828399999,179.265851199998,179.765828399999,179.265851199998,179.765828399999,178.81410360000154,None,179.765828399999,181.60161119999975,0.4700000000000002,181.61817090000113,None,182.36981489999744,None,,,,,,,[1.83363636],3.1700000000000026,0.6363636363636364,11003,001,2023_Dec_29_1126,MFTM_A_new1021,2021.2.3,59.8238904318824,
,,,,,,,,stim/Instruction_adaptive.png,conditions/adaptive.xlsx,test,-0.6,-0.6,-0.6,0.6,0.6,left,L,,,,,0,1,1,1,0,11,11,3,,,,,,,,,,,,,,,,,,,,,,,,,,,,,,,,,,,,,,,,,,,,182.8702701000002,None,left,1,0.9870872999963467,183.37133860000176,184.60670099999697,183.37133860000176,184.10530129999825,183.37133860000176,184.10530129999825,183.37133860000176,184.10530129999825,183.37133860000176,184.10530129999825,183.37133860000176,184.10530129999825,184.0897879999975,184.5892087999964,184.0897879999975,184.5892087999964,184.0897879999975,184.5892087999964,184.0897879999975,184.5892087999964,184.0897879999975,184.5892087999964,184.0897879999975,184.5892087999964,184.0897879999975,184.5892087999964,184.0897879999975,184.5892087999964,183.37133860000176,None,184.5892087999964,186.3590314999965,0.7300000000000004,186.37537709999742,None,187.12708489999932,None,,,,,,,[[1.77]],3.4300000000000024,0.6666666666666666,11003,001,2023_Dec_29_1126,MFTM_A_new1021,2021.2.3,59.8238904318824,
,,,,,,,,stim/Instruction_adaptive.png,conditions/adaptive.xlsx,test,0.6,0.6,0.6,-0.6,-0.6,right,R,,,,,0,1,1,1,0,12,12,24,,,,,,,,,,,,,,,,,,,,,,,,,,,,,,,,,,,,,,,,,,,,187.62789619999967,None,right,1,0.99865879999561,188.12786359999882,189.24630919999618,188.12786359999882,188.7462310999981,188.12786359999882,188.7462310999981,188.12786359999882,188.7462310999981,188.12786359999882,188.7462310999981,188.12786359999882,188.7462310999981,188.71230809999543,189.21397579999757,188.71230809999543,189.21397579999757,188.71230809999543,189.21397579999757,188.71230809999543,189.21397579999757,188.71230809999543,189.21397579999757,188.71230809999543,189.21397579999757,188.71230809999543,189.21397579999757,188.71230809999543,189.21397579999757,188.12786359999882,None,189.21397579999757,191.04889700000058,0.6100000000000003,191.08245100000204,None,191.83400429999892,None,,,,,,,[1.83307692],3.640000000000003,0.6923076923076923,11003,001,2023_Dec_29_1126,MFTM_A_new1021,2021.2.3,59.8238904318824,
,,,,,,,,stim/Instruction_adaptive.png,conditions/adaptive.xlsx,test,0.6,0.6,0.6,-0.6,-0.6,right,R,,,,,0,1,1,1,0,13,13,92,,,,,,,,,,,,,,,,,,,,,,,,,,,,,,,,,,,,,,,,,,,,192.33484979999776,None,left,0,1.650702300001285,192.83592679999856,193.87034950000088,192.83592679999856,193.36875309999596,192.83592679999856,193.36875309999596,192.83592679999856,193.36875309999596,192.83592679999856,193.36875309999596,192.83592679999856,193.36875309999596,193.35242129999824,193.85352609999973,193.35242129999824,193.85352609999973,193.35242129999824,193.85352609999973,193.35242129999824,193.85352609999973,193.35242129999824,193.85352609999973,193.35242129999824,193.85352609999973,193.35242129999824,193.85352609999973,193.35242129999824,193.85352609999973,192.83592679999856,None,193.85352609999973,195.7067582000018,0.5300000000000002,195.7224103999979,None,196.47433150000143,None,,,,,,,[1.84285714],3.1200000000000023,0.6428571428571429,11003,001,2023_Dec_29_1126,MFTM_A_new1021,2021.2.3,59.8238904318824,
,,,,,,,,stim/Instruction_adaptive.png,conditions/adaptive.xlsx,test,-0.6,-0.6,-0.6,0.6,0.6,left,L,,,,,0,1,1,1,0,14,14,31,,,,,,,,,,,,,,,,,,,,,,,,,,,,,,,,,,,,,,,,,,,,196.97494279999955,None,left,1,0.9546406000008574,197.4761249000003,198.74360829999932,197.4761249000003,198.2427914,197.4761249000003,198.2427914,197.4761249000003,198.2427914,197.4761249000003,198.2427914,197.4761249000003,198.2427914,198.2262724999964,198.7268632999985,198.2262724999964,198.7268632999985,198.2262724999964,198.7268632999985,198.2262724999964,198.7268632999985,198.2262724999964,198.7268632999985,198.2262724999964,198.7268632999985,198.2262724999964,198.7268632999985,198.2262724999964,198.7268632999985,197.4761249000003,None,198.71144289999938,200.46325719999732,0.7600000000000005,200.47950670000137,None,201.23063810000167,None,,,,,,,[[1.74]],3.3300000000000027,0.6666666666666666,11003,001,2023_Dec_29_1126,MFTM_A_new1021,2021.2.3,59.8238904318824,
,,,,,,,,stim/Instruction_adaptive.png,conditions/adaptive.xlsx,test,-0.6,-0.6,-0.6,0.6,0.6,left,L,,,,,0,1,1,1,0,15,15,97,,,,,,,,,,,,,,,,,,,,,,,,,,,,,,,,,,,,,,,,,,,,201.73138469999685,None,right,0,0.7425511000037659,202.23211889999948,203.3845666999987,202.23211889999948,202.88317999999708,202.23211889999948,202.88317999999708,202.23211889999948,202.88317999999708,202.23211889999948,202.88317999999708,202.23211889999948,202.88317999999708,202.86633989999973,203.36763139999675,202.86633989999973,203.36763139999675,202.86633989999973,203.36763139999675,202.86633989999973,203.36763139999675,202.86633989999973,203.36763139999675,202.86633989999973,203.36763139999675,202.86633989999973,203.36763139999675,202.86633989999973,203.36763139999675,202.23211889999948,None,203.36763139999675,None,0.6500000000000004,205.21998789999634,None,205.97164689999772,None,,,,,,,[1.836875],2.820000000000002,0.625,11003,001,2023_Dec_29_1126,MFTM_A_new1021,2021.2.3,59.8238904318824,
,,,,,,,,stim/Instruction_adaptive.png,conditions/adaptive.xlsx,test,0.6,0.6,0.6,-0.6,-0.6,right,R,,,,,0,1,1,1,0,16,16,4,,,,,,,,,,,,,,,,,,,,,,,,,,,,,,,,,,,,,,,,,,,,206.47240779999993,None,None,0,0,206.9731313000011,208.40873979999742,206.9731313000011,207.90706939999654,206.9731313000011,207.90706939999654,206.9731313000011,207.90706939999654,206.9731313000011,207.90706939999654,206.9731313000011,207.90706939999654,207.89029709999886,208.3912651999999,207.89029709999886,208.3912651999999,207.89029709999886,208.3912651999999,207.89029709999886,208.3912651999999,207.89029709999886,208.3912651999999,207.89029709999886,208.3912651999999,207.89029709999886,208.3912651999999,207.89029709999886,208.3912651999999,206.9731313000011,None,208.3912651999999,210.46094689999882,0.9300000000000006,210.47762749999674,None,211.2294585999989,None,,,,,,,[[2.07]],2.1500000000000012,0.5882352941176471,11003,001,2023_Dec_29_1126,MFTM_A_new1021,2021.2.3,59.8238904318824,
,,,,,,,,stim/Instruction_adaptive.png,conditions/adaptive.xlsx,test,-0.6,-0.6,-0.6,0.6,0.6,left,L,,,,,0,1,1,1,0,17,17,79,,,,,,,,,,,,,,,,,,,,,,,,,,,,,,,,,,,,,,,,,,,,211.73032370000146,None,left,1,1.9595483999946737,212.23091649999697,214.2172769999961,212.23091649999697,213.71581689999584,212.23091649999697,213.71581689999584,212.23091649999697,213.71581689999584,212.23091649999697,213.71581689999584,212.23091649999697,213.71581689999584,213.69910849999724,214.20005089999904,213.69910849999724,214.20005089999904,213.69910849999724,214.20005089999904,213.69910849999724,214.20005089999904,213.69910849999724,214.20005089999904,213.69910849999724,214.20005089999904,213.69910849999724,214.20005089999904,213.69910849999724,214.20005089999904,212.23091649999697,None,214.20005089999904,None,1.480000000000001,215.2344688000012,None,215.98695829999633,None,,,,,,,[[1.02]],2.4300000000000015,0.6111111111111112,11003,001,2023_Dec_29_1126,MFTM_A_new1021,2021.2.3,59.8238904318824,
,,,,,,,,stim/Instruction_adaptive.png,conditions/adaptive.xlsx,test,-0.6,-0.6,-0.6,0.6,0.6,left,L,,,,,0,1,1,1,0,18,18,55,,,,,,,,,,,,,,,,,,,,,,,,,,,,,,,,,,,,,,,,,,,,216.48660749999544,None,left,1,0.891545500002394,216.98731669999688,218.70703060000233,216.98731669999688,218.22250650000205,216.98731669999688,218.22250650000205,216.98731669999688,218.22250650000205,216.98731669999688,218.22250650000205,216.98731669999688,218.22250650000205,218.18910750000214,218.69027919999644,218.18910750000214,218.69027919999644,218.18910750000214,218.69027919999644,218.18910750000214,218.69027919999644,218.18910750000214,218.69027919999644,218.18910750000214,218.69027919999644,218.18910750000214,218.69027919999644,218.18910750000214,218.69027919999644,216.98731669999688,None,218.69027919999644,219.97576390000177,1.2200000000000009,219.99151529999654,None,220.74269339999591,None,,,,,,,[[1.28]],2.640000000000002,0.631578947368421,11003,001,2023_Dec_29_1126,MFTM_A_new1021,2021.2.3,59.8238904318824,
,,,,,,,,stim/Instruction_adaptive.png,conditions/adaptive.xlsx,test,-0.6,-0.6,-0.6,0.6,0.6,left,L,,,,,0,1,1,1,0,19,19,33,,,,,,,,,,,,,,,,,,,,,,,,,,,,,,,,,,,,,,,,,,,,221.24371029999747,None,right,0,1.8061677000005147,221.74430700000084,223.31546459999663,221.74430700000084,222.81250780000119,221.74430700000084,222.81250780000119,221.74430700000084,222.81250780000119,221.74430700000084,222.81250780000119,221.74430700000084,222.81250780000119,222.7792455000017,223.27986460000102,222.7792455000017,223.27986460000102,222.7792455000017,223.27986460000102,222.7792455000017,223.27986460000102,222.7792455000017,223.27986460000102,222.7792455000017,223.27986460000102,222.7792455000017,223.27986460000102,222.7792455000017,223.27986460000102,221.74430700000084,None,223.27986460000102,224.73414110000158,1.0600000000000007,224.7484282000005,None,225.5003233000025,None,,,,,,,[[1.44]],2.1000000000000014,0.6,11003,001,2023_Dec_29_1126,MFTM_A_new1021,2021.2.3,59.8238904318824,
,,,,,,,,stim/Instruction_adaptive.png,conditions/adaptive.xlsx,test,-0.6,-0.6,-0.6,0.6,0.6,left,L,,,,,0,1,1,1,0,20,20,13,,,,,,,,,,,,,,,,,,,,,,,,,,,,,,,,,,,,,,,,,,,,226.00125780000235,None,left,1,2.0887499999953434,226.5019983999955,228.5385146999979,226.5019983999955,228.03704189999553,226.5019983999955,228.03704189999553,226.5019983999955,228.03704189999553,226.5019983999955,228.03704189999553,226.5019983999955,228.03704189999553,228.0202405999953,228.52142569999705,228.0202405999953,228.52142569999705,228.0202405999953,228.52142569999705,228.0202405999953,228.52142569999705,228.0202405999953,228.52142569999705,228.0202405999953,228.52142569999705,228.0202405999953,228.52142569999705,228.0202405999953,228.52142569999705,226.5019983999955,None,228.52142569999705,None,1.5300000000000011,229.50572580000153,None,230.25771019999956,None,,,,,,,[[0.97]],2.3200000000000016,0.6190476190476191,11003,001,2023_Dec_29_1126,MFTM_A_new1021,2021.2.3,59.8238904318824,
,,,,,,,,stim/Instruction_adaptive.png,conditions/adaptive.xlsx,test,0.6,0.6,0.6,-0.6,-0.6,right,R,,,,,0,1,1,1,0,21,21,40,,,,,,,,,,,,,,,,,,,,,,,,,,,,,,,,,,,,,,,,,,,,230.7577969999984,None,right,1,1.6840628999998444,231.25894849999895,233.07787490000192,231.25894849999895,232.57777679999708,231.25894849999895,232.57777679999708,231.25894849999895,232.57777679999708,231.25894849999895,232.57777679999708,231.25894849999895,232.57777679999708,232.56136759999936,233.0621495000014,232.56136759999936,233.0621495000014,232.56136759999936,233.0621495000014,232.56136759999936,233.0621495000014,232.56136759999936,233.0621495000014,232.56136759999936,233.0621495000014,232.56136759999936,233.0621495000014,232.56136759999936,233.0621495000014,231.25894849999895,None,233.0621495000014,234.2464478999973,1.320000000000001,234.26293430000078,None,235.01399390000006,None,,,,,,,[[1.18]],2.5000000000000018,0.6363636363636364,11003,001,2023_Dec_29_1126,MFTM_A_new1021,2021.2.3,59.8238904318824,
,,,,,,,,stim/Instruction_adaptive.png,conditions/adaptive.xlsx,test,-0.6,-0.6,-0.6,0.6,0.6,left,L,,,,,0,1,1,1,0,22,22,17,,,,,,,,,,,,,,,,,,,,,,,,,,,,,,,,,,,,,,,,,,,,235.51521769999817,None,right,0,2.5431853999980376,236.015481800001,237.68509829999675,236.015481800001,237.1839938999983,236.015481800001,237.1839938999983,236.015481800001,237.1839938999983,236.015481800001,237.1839938999983,236.015481800001,237.1839938999983,237.15050589999737,237.65116780000244,237.15050589999737,237.65116780000244,237.15050589999737,237.65116780000244,237.15050589999737,237.65116780000244,237.15050589999737,237.65116780000244,237.15050589999737,237.65116780000244,237.15050589999737,237.65116780000244,237.15050589999737,237.65116780000244,236.015481800001,None,237.65116780000244,239.00387549999868,1.1600000000000008,239.0199771999978,None,239.7717016999959,None,,,,,,,[[1.34]],2.0500000000000016,0.6086956521739131,11003,001,2023_Dec_29_1126,MFTM_A_new1021,2021.2.3,59.8238904318824,
,,,,,,,,stim/Instruction_adaptive.png,conditions/adaptive.xlsx,test,0.6,0.6,0.6,-0.6,-0.6,right,R,,,,,0,1,1,1,0,23,23,68,,,,,,,,,,,,,,,,,,,,,,,,,,,,,,,,,,,,,,,,,,,,240.27176899999904,None,right,1,2.216444199999387,240.77406979999796,242.87623149999854,240.77406979999796,242.37586039999587,240.77406979999796,242.37586039999587,240.77406979999796,242.37586039999587,240.77406979999796,242.37586039999587,240.77406979999796,242.37586039999587,242.34177030000137,242.84286469999643,242.34177030000137,242.84286469999643,242.34177030000137,242.84286469999643,242.34177030000137,242.84286469999643,242.34177030000137,242.84286469999643,242.34177030000137,242.84286469999643,242.34177030000137,242.84286469999643,242.34177030000137,242.84286469999643,240.77406979999796,None,242.84286469999643,243.7606992000001,1.5900000000000012,243.77705969999806,None,244.5281601999959,None,,,,,,,[[0.91]],2.2300000000000013,0.625,11003,001,2023_Dec_29_1126,MFTM_A_new1021,2021.2.3,59.8238904318824,
,,,,,,,,stim/Instruction_adaptive.png,conditions/adaptive.xlsx,test,0.6,0.6,0.6,-0.6,-0.6,right,R,,,,,0,1,1,1,0,24,24,20,,,,,,,,,,,,,,,,,,,,,,,,,,,,,,,,,,,,,,,,,,,,245.02888269999676,None,right,1,1.9095734000002267,245.52957009999955,247.43316539999796,245.52957009999955,246.9323996000021,245.52957009999955,246.9323996000021,245.52957009999955,246.9323996000021,245.52957009999955,246.9323996000021,245.52957009999955,246.9323996000021,246.91569409999647,247.416690799997,246.91569409999647,247.416690799997,246.91569409999647,247.416690799997,246.91569409999647,247.416690799997,246.91569409999647,247.416690799997,246.91569409999647,247.416690799997,246.91569409999647,247.416690799997,246.91569409999647,247.416690799997,245.52957009999955,None,247.416690799997,248.51767149999796,1.400000000000001,248.53404559999763,None,249.28615369999898,None,,,,,,,[[1.1]],2.370000000000002,0.64,11003,001,2023_Dec_29_1126,MFTM_A_new1021,2021.2.3,59.8238904318824,
,,,,,,,,stim/Instruction_adaptive.png,conditions/adaptive.xlsx,test,-0.6,-0.6,-0.6,0.6,0.6,left,L,,,,,0,1,1,1,0,25,25,51,,,,,,,,,,,,,,,,,,,,,,,,,,,,,,,,,,,,,,,,,,,,249.78628770000068,None,left,1,2.480183899999247,250.28654180000012,252.05667379999795,250.28654180000012,251.55585920000158,250.28654180000012,251.55585920000158,250.28654180000012,251.55585920000158,250.28654180000012,251.55585920000158,250.28654180000012,251.55585920000158,251.53917479999654,252.0403174000021,251.53917479999654,252.0403174000021,251.53917479999654,252.0403174000021,251.53917479999654,252.0403174000021,251.53917479999654,252.0403174000021,251.53917479999654,252.0403174000021,251.53917479999654,252.0403174000021,251.53917479999654,252.0403174000021,250.28654180000012,None,252.0403174000021,253.27439800000138,1.270000000000001,253.29115849999653,None,254.0431316999966,None,,,,,,,[[1.23]],2.5000000000000018,0.6538461538461539,11003,001,2023_Dec_29_1126,MFTM_A_new1021,2021.2.3,59.8238904318824,
,,,,,,,,stim/Instruction_adaptive.png,conditions/adaptive.xlsx,test,0.6,0.6,0.6,-0.6,-0.6,right,R,,,,,0,1,1,1,0,26,26,14,,,,,,,,,,,,,,,,,,,,,,,,,,,,,,,,,,,,,,,,,,,,254.54374390000157,None,right,1,1.5859171000047354,255.04508499999793,256.7140240000008,255.04508499999793,256.21215449999727,255.04508499999793,256.21215449999727,255.04508499999793,256.21215449999727,255.04508499999793,256.21215449999727,255.04508499999793,256.21215449999727,256.1790103999956,256.68004259999725,256.1790103999956,256.68004259999725,256.1790103999956,256.68004259999725,256.1790103999956,256.68004259999725,256.1790103999956,256.68004259999725,256.1790103999956,256.68004259999725,256.1790103999956,256.68004259999725,256.1790103999956,256.68004259999725,255.04508499999793,None,256.68004259999725,258.0317251000015,1.1600000000000008,258.04873889999726,None,258.80030550000083,None,,,,,,,[[1.34]],2.600000000000002,0.6666666666666666,11003,001,2023_Dec_29_1126,MFTM_A_new1021,2021.2.3,59.8238904318824,
,,,,,,,,stim/Instruction_adaptive.png,conditions/adaptive.xlsx,test,0.6,0.6,0.6,-0.6,-0.6,right,R,,,,,0,1,1,1,0,27,27,52,,,,,,,,,,,,,,,,,,,,,,,,,,,,,,,,,,,,,,,,,,,,259.3013776000007,None,right,1,0.949596800004656,259.8014583999975,261.40376000000106,259.8014583999975,260.9023092999996,259.8014583999975,260.9023092999996,259.8014583999975,260.9023092999996,259.8014583999975,260.9023092999996,259.8014583999975,260.9023092999996,260.869122899996,261.37049529999786,260.869122899996,261.37049529999786,260.869122899996,261.37049529999786,260.869122899996,261.37049529999786,260.869122899996,261.37049529999786,260.869122899996,261.37049529999786,260.869122899996,261.37049529999786,260.869122899996,261.37049529999786,259.8014583999975,None,261.37049529999786,262.7899477999963,1.0900000000000007,262.8058302999998,None,263.5567924999996,None,,,,,,,[[1.41]],2.700000000000002,0.6785714285714286,11003,001,2023_Dec_29_1126,MFTM_A_new1021,2021.2.3,59.8238904318824,
,,,,,,,,stim/Instruction_adaptive.png,conditions/adaptive.xlsx,test,-0.6,-0.6,-0.6,0.6,0.6,left,L,,,,,0,1,1,1,0,28,28,21,,,,,,,,,,,,,,,,,,,,,,,,,,,,,,,,,,,,,,,,,,,,264.0571267999985,None,right,0,1.8962137999988045,264.5585155000008,266.0773315999977,264.5585155000008,265.5759012999988,264.5585155000008,265.5759012999988,264.5585155000008,265.5759012999988,264.5585155000008,265.5759012999988,264.5585155000008,265.5759012999988,265.55939209999633,266.06078739999793,265.55939209999633,266.06078739999793,265.55939209999633,266.06078739999793,265.55939209999633,266.06078739999793,265.55939209999633,266.06078739999793,265.55939209999633,266.06078739999793,265.55939209999633,266.06078739999793,265.55939209999633,266.06078739999793,264.5585155000008,None,266.0445041999992,267.5456589999958,1.0100000000000007,267.5629112000024,None,268.3140238999986,None,,,,,,,[[1.49]],2.4400000000000017,0.6551724137931034,11003,001,2023_Dec_29_1126,MFTM_A_new1021,2021.2.3,59.8238904318824,
,,,,,,,,stim/Instruction_adaptive.png,conditions/adaptive.xlsx,test,-0.6,-0.6,-0.6,0.6,0.6,left,L,,,,,0,1,1,1,0,29,29,23,,,,,,,,,,,,,,,,,,,,,,,,,,,,,,,,,,,,,,,,,,,,268.81516340000235,None,left,1,2.5150405000022147,269.31562940000003,271.0339096000025,269.31562940000003,270.5333391000022,269.31562940000003,270.5333391000022,269.31562940000003,270.5333391000022,269.31562940000003,270.5333391000022,269.31562940000003,270.5333391000022,270.4999911999985,271.00051939999685,270.4999911999985,271.00051939999685,270.4999911999985,271.00051939999685,270.4999911999985,271.00051939999685,270.4999911999985,271.00051939999685,270.4999911999985,271.00051939999685,270.4999911999985,271.00051939999685,270.4999911999985,271.00051939999685,269.31562940000003,None,271.00051939999685,272.30257659999916,1.2100000000000009,272.3193306999965,None,273.071125399998,None,,,,,,,[[1.29]],2.530000000000002,0.6666666666666666,11003,001,2023_Dec_29_1126,MFTM_A_new1021,2021.2.3,59.8238904318824,
,,,,,,,,stim/Instruction_adaptive.png,conditions/adaptive.xlsx,test,0.6,0.6,0.6,-0.6,-0.6,right,R,,,,,0,1,1,1,0,30,30,30,,,,,,,,,,,,,,,,,,,,,,,,,,,,,,,,,,,,,,,,,,,,273.57223669999803,None,right,1,2.7026127000062843,274.0727293999953,275.72506740000244,274.0727293999953,275.2245250999986,274.0727293999953,275.2245250999986,274.0727293999953,275.2245250999986,274.0727293999953,275.2245250999986,274.0727293999953,275.2245250999986,275.19019809999736,275.6910835000017,275.19019809999736,275.6910835000017,275.19019809999736,275.6910835000017,275.19019809999736,275.6910835000017,275.19019809999736,275.6910835000017,275.19019809999736,275.6910835000017,275.19019809999736,275.6910835000017,275.19019809999736,275.6910835000017,274.0727293999953,None,275.6910835000017,277.0612906000024,1.1400000000000008,277.07627630000206,None,277.82751709999866,None,,,,,,,[[1.36]],2.620000000000002,0.6774193548387096,11003,001,2023_Dec_29_1126,MFTM_A_new1021,2021.2.3,59.8238904318824,
,,,,,,,,stim/Instruction_adaptive.png,conditions/adaptive.xlsx,test,0.6,0.6,0.6,-0.6,-0.6,right,R,,,,,0,1,1,1,0,31,31,22,,,,,,,,,,,,,,,,,,,,,,,,,,,,,,,,,,,,,,,,,,,,278.32801800000016,None,right,1,2.9055196000044816,278.8290818999958,280.4152518999981,278.8290818999958,279.9148451000001,278.8290818999958,279.9148451000001,278.8290818999958,279.9148451000001,278.8290818999958,279.9148451000001,278.8290818999958,279.9148451000001,279.88093559999834,280.3812098999988,279.88093559999834,280.3812098999988,279.88093559999834,280.3812098999988,279.88093559999834,280.3812098999988,279.88093559999834,280.3812098999988,279.88093559999834,280.3812098999988,279.88093559999834,280.3812098999988,279.88093559999834,280.3812098999988,278.8290818999958,None,280.3812098999988,281.8178812999977,1.0700000000000007,281.83330900000146,None,282.5847485999984,None,,,,,,,[[1.43]],2.700000000000002,0.6875,11003,001,2023_Dec_29_1126,MFTM_A_new1021,2021.2.3,59.8238904318824,
,,,,,,,,stim/Instruction_adaptive.png,conditions/adaptive.xlsx,test,-0.6,-0.6,-0.6,0.6,0.6,left,L,,,,,0,1,1,1,0,32,32,25,,,,,,,,,,,,,,,,,,,,,,,,,,,,,,,,,,,,,,,,,,,,283.085242299996,None,right,0,1.5412329000027967,283.5859773999982,285.1055722999954,283.5859773999982,284.60415790000116,283.5859773999982,284.60415790000116,283.5859773999982,284.60415790000116,283.5859773999982,284.60415790000116,283.5859773999982,284.60415790000116,284.5874274000016,285.0896921999956,284.5874274000016,285.0896921999956,284.5874274000016,285.0896921999956,284.5874274000016,285.0896921999956,284.5874274000016,285.0896921999956,284.5874274000016,285.0896921999956,284.5874274000016,285.0896921999956,284.5874274000016,285.0896921999956,283.5859773999982,None,285.0725794999962,286.5739414999989,1.0100000000000007,286.5913051000025,None,287.3414223,None,,,,,,,[[1.49]],2.4800000000000018,0.6666666666666666,11003,001,2023_Dec_29_1126,MFTM_A_new1021,2021.2.3,59.8238904318824,
,,,,,,,,stim/Instruction_adaptive.png,conditions/adaptive.xlsx,test,-0.6,-0.6,-0.6,0.6,0.6,left,L,,,,,0,1,1,1,0,33,33,61,,,,,,,,,,,,,,,,,,,,,,,,,,,,,,,,,,,,,,,,,,,,287.8436455999981,None,left,1,2.0878582000004826,288.34307799999806,290.02918630000204,288.34307799999806,289.52792970000155,288.34307799999806,289.52792970000155,288.34307799999806,289.52792970000155,288.34307799999806,289.52792970000155,288.34307799999806,289.52792970000155,289.51195749999897,290.0125337999998,289.51195749999897,290.0125337999998,289.51195749999897,290.0125337999998,289.51195749999897,290.0125337999998,289.51195749999897,290.0125337999998,289.51195749999897,290.0125337999998,289.51195749999897,290.0125337999998,289.51195749999897,290.0125337999998,288.34307799999806,None,290.0125337999998,None,1.1800000000000008,291.34729089999746,None,292.0996105000013,None,,,,,,,[[1.32]],2.560000000000002,0.6764705882352942,11003,001,2023_Dec_29_1126,MFTM_A_new1021,2021.2.3,59.8238904318824,
,,,,,,,,stim/Instruction_adaptive.png,conditions/adaptive.xlsx,test,0.6,0.6,0.6,-0.6,-0.6,right,R,,,,,0,1,1,1,0,34,34,46,,,,,,,,,,,,,,,,,,,,,,,,,,,,,,,,,,,,,,,,,,,,292.6000215000022,None,left,0,2.282956800001557,293.10011459999805,294.7199762999953,293.10011459999805,294.2353101999979,293.10011459999805,294.2353101999979,293.10011459999805,294.2353101999979,293.10011459999805,294.2353101999979,293.10011459999805,294.2353101999979,294.2019591999997,294.70247440000094,294.2019591999997,294.70247440000094,294.2019591999997,294.70247440000094,294.2019591999997,294.70247440000094,294.2019591999997,294.70247440000094,294.2019591999997,294.70247440000094,294.2019591999997,294.70247440000094,294.2019591999997,294.70247440000094,293.10011459999805,None,294.70247440000094,296.08862509999744,1.1200000000000008,296.1044638000021,None,296.8561048999982,None,,,,,,,[[1.38]],2.330000000000002,0.6571428571428571,11003,001,2023_Dec_29_1126,MFTM_A_new1021,2021.2.3,59.8238904318824,
,,,,,,,,stim/Instruction_adaptive.png,conditions/adaptive.xlsx,test,-0.6,-0.6,-0.6,0.6,0.6,left,L,,,,,0,1,1,1,0,35,35,65,,,,,,,,,,,,,,,,,,,,,,,,,,,,,,,,,,,,,,,,,,,,297.3566969999956,None,right,0,1.6294729000001098,297.85719719999906,299.6764259999982,297.85719719999906,299.1757983999996,297.85719719999906,299.1757983999996,297.85719719999906,299.1757983999996,297.85719719999906,299.1757983999996,297.85719719999906,299.1757983999996,299.1590867999985,299.65990020000027,299.1590867999985,299.65990020000027,299.1590867999985,299.65990020000027,299.1590867999985,299.65990020000027,299.1590867999985,299.65990020000027,299.1590867999985,299.65990020000027,299.1590867999985,299.65990020000027,299.1590867999985,299.65990020000027,297.85719719999906,None,299.64309420000063,300.8456660000011,1.310000000000001,300.86166159999993,None,301.6134810000003,None,,,,,,,[[1.19]],2.070000000000001,0.6388888888888888,11003,001,2023_Dec_29_1126,MFTM_A_new1021,2021.2.3,59.8238904318824,
,,,,,,,,stim/Instruction_adaptive.png,conditions/adaptive.xlsx,test,0.6,0.6,0.6,-0.6,-0.6,right,R,,,,,0,1,1,1,0,36,36,76,,,,,,,,,,,,,,,,,,,,,,,,,,,,,,,,,,,,,,,,,,,,302.114000900001,None,right,1,2.1122592000028817,302.6145070999992,304.68455249999533,302.6145070999992,304.1831449999954,302.6145070999992,304.1831449999954,302.6145070999992,304.1831449999954,302.6145070999992,304.1831449999954,302.6145070999992,304.1831449999954,304.167217000002,304.6673537999959,304.167217000002,304.6673537999959,304.167217000002,304.6673537999959,304.167217000002,304.6673537999959,304.167217000002,304.6673537999959,304.167217000002,304.6673537999959,304.167217000002,304.6673537999959,304.167217000002,304.6673537999959,302.6145070999992,None,304.6673537999959,305.603022700001,1.5700000000000012,305.61855970000033,None,306.3706985999961,None,,,,,,,[[0.93]],2.1700000000000017,0.6486486486486487,11003,001,2023_Dec_29_1126,MFTM_A_new1021,2021.2.3,59.8238904318824,
,,,,,,,,stim/Instruction_adaptive.png,conditions/adaptive.xlsx,test,-0.6,-0.6,-0.6,0.6,0.6,left,L,,,,,0,1,1,1,0,37,37,93,,,,,,,,,,,,,,,,,,,,,,,,,,,,,,,,,,,,,,,,,,,,306.8705564999982,None,right,0,1.9799277999991318,307.37111970000115,309.3412614999979,307.37111970000115,308.8407021999956,307.37111970000115,308.8407021999956,307.37111970000115,308.8407021999956,307.37111970000115,308.8407021999956,307.37111970000115,308.8407021999956,308.82474999999977,309.32391140000254,308.82474999999977,309.32391140000254,308.82474999999977,309.32391140000254,308.82474999999977,309.32391140000254,308.82474999999977,309.32391140000254,308.82474999999977,309.32391140000254,308.82474999999977,309.32391140000254,308.82474999999977,309.32391140000254,307.37111970000115,None,309.3073543999999,310.35957300000155,1.460000000000001,310.3757356999995,None,311.1273994000003,None,,,,,,,[[1.04]],1.8900000000000012,0.631578947368421,11003,001,2023_Dec_29_1126,MFTM_A_new1021,2021.2.3,59.8238904318824,
,,,,,,,,stim/Instruction_adaptive.png,conditions/adaptive.xlsx,test,0.6,0.6,0.6,-0.6,-0.6,right,R,,,,,0,1,1,1,0,38,38,6,,,,,,,,,,,,,,,,,,,,,,,,,,,,,,,,,,,,,,,,,,,,311.6279368999967,None,right,1,2.5343436999974074,312.1283198000019,314.41543629999796,312.1283198000019,313.9140703000012,312.1283198000019,313.9140703000012,312.1283198000019,313.9140703000012,312.1283198000019,313.9140703000012,312.1283198000019,313.9140703000012,313.8976371999961,314.39912470000127,313.8976371999961,314.39912470000127,313.8976371999961,314.39912470000127,313.8976371999961,314.39912470000127,313.8976371999961,314.39912470000127,313.8976371999961,314.39912470000127,313.8976371999961,314.39912470000127,313.8976371999961,314.39912470000127,312.1283198000019,None,314.39912470000127,None,1.7800000000000014,315.13340909999533,None,315.8845339999971,None,,,,,,,[[0.72]],2.0000000000000013,0.6410256410256411,11003,001,2023_Dec_29_1126,MFTM_A_new1021,2021.2.3,59.8238904318824,
,,,,,,,,stim/Instruction_adaptive.png,conditions/adaptive.xlsx,test,0.6,0.6,0.6,-0.6,-0.6,right,R,,,,,0,1,1,1,0,39,39,96,,,,,,,,,,,,,,,,,,,,,,,,,,,,,,,,,,,,,,,,,,,,316.38546920000226,None,left,0,1.9766117000035592,316.8860848999975,319.0390167000005,316.8860848999975,318.538902399996,316.8860848999975,318.538902399996,316.8860848999975,318.538902399996,316.8860848999975,318.538902399996,316.8860848999975,318.538902399996,318.50422160000016,319.00521709999884,318.50422160000016,319.00521709999884,318.50422160000016,319.00521709999884,318.50422160000016,319.00521709999884,318.50422160000016,319.00521709999884,318.50422160000016,319.00521709999884,318.50422160000016,319.00521709999884,318.50422160000016,319.00521709999884,316.8860848999975,None,319.00521709999884,319.8738076000009,1.6400000000000012,319.88974679999956,None,320.64042999999947,None,,,,,,,[[0.86]],1.710000000000001,0.625,11003,001,2023_Dec_29_1126,MFTM_A_new1021,2021.2.3,59.8238904318824,
,,,,,,,,stim/Instruction_adaptive.png,conditions/adaptive.xlsx,test,0.6,0.6,0.6,-0.6,-0.6,right,R,,,,,0,1,1,1,0,40,40,98,,,,,,,,,,,,,,,,,,,,,,,,,,,,,,,,,,,,,,,,,,,,321.1424288999988,None,left,0,2.500984899998002,321.64220199999545,324.16274899999553,321.64220199999545,323.6620060999994,321.64220199999545,323.6620060999994,321.64220199999545,323.6620060999994,321.64220199999545,323.6620060999994,321.64220199999545,323.6620060999994,323.64593729999615,324.14605989999836,323.64593729999615,324.14605989999836,323.64593729999615,324.14605989999836,323.64593729999615,324.14605989999836,323.64593729999615,324.14605989999836,323.64593729999615,324.14605989999836,323.64593729999615,324.14605989999836,323.64593729999615,324.14605989999836,321.64220199999545,None,324.1294197000025,324.630857199998,2.0100000000000016,324.64651109999977,None,325.3986898000003,None,,,,,,,[[0.49]],1.3500000000000008,0.6097560975609756,11003,001,2023_Dec_29_1126,MFTM_A_new1021,2021.2.3,59.8238904318824,
,,,,,,,,stim/Instruction_adaptive.png,conditions/adaptive.xlsx,test,-0.6,-0.6,-0.6,0.6,0.6,left,L,,,,,0,1,1,1,0,41,41,91,,,,,,,,,,,,,,,,,,,,,,,,,,,,,,,,,,,,,,,,,,,,325.8988936999958,None,left,1,1.9192819000018062,326.3996344999978,None,326.3996344999978,328.986456599996,326.3996344999978,328.986456599996,326.3996344999978,328.986456599996,326.3996344999978,328.986456599996,326.3996344999978,328.986456599996,328.9707120000021,329.4712918000005,328.9707120000021,329.4712918000005,328.9707120000021,329.4712918000005,328.9707120000021,329.4712918000005,328.9707120000021,329.4712918000005,328.9707120000021,329.4712918000005,328.9707120000021,329.4712918000005,328.9707120000021,329.4712918000005,326.3996344999978,None,329.4712918000005,329.4712918000005,2.580000000000002,329.48662550000154,None,330.2393374999956,None,,,,,,,0,1.4900000000000009,0.6190476190476191,11003,001,2023_Dec_29_1126,MFTM_A_new1021,2021.2.3,59.8238904318824,
,,,,,,,,stim/Instruction_adaptive.png,conditions/adaptive.xlsx,test,-0.6,-0.6,-0.6,0.6,0.6,left,L,,,,,0,1,1,1,0,42,42,29,,,,,,,,,,,,,,,,,,,,,,,,,,,,,,,,,,,,,,,,,,,,330.73938810000254,None,left,1,1.6627135000017006,331.24014049999823,334.0939952999979,331.24014049999823,333.5933512999982,331.24014049999823,333.5933512999982,331.24014049999823,333.5933512999982,331.24014049999823,333.5933512999982,331.24014049999823,333.5933512999982,333.5604202999966,334.0613142000002,333.5604202999966,334.0613142000002,333.5604202999966,334.0613142000002,333.5604202999966,334.0613142000002,333.5604202999966,334.0613142000002,333.5604202999966,334.0613142000002,333.5604202999966,334.0613142000002,333.5604202999966,334.0613142000002,331.24014049999823,None,334.0613142000002,334.2284024999972,2.3400000000000016,334.2443353999988,None,334.9959402999957,None,,,,,,,[[0.16]],1.610000000000001,0.627906976744186,11003,001,2023_Dec_29_1126,MFTM_A_new1021,2021.2.3,59.8238904318824,
,,,,,,,,stim/Instruction_adaptive.png,conditions/adaptive.xlsx,test,-0.6,-0.6,-0.6,0.6,0.6,left,L,,,,,0,1,1,1,0,43,43,81,,,,,,,,,,,,,,,,,,,,,,,,,,,,,,,,,,,,,,,,,,,,335.49699410000176,None,left,1,1.6823671000020113,335.9969401999988,338.66739660000167,335.9969401999988,338.16675530000066,335.9969401999988,338.16675530000066,335.9969401999988,338.16675530000066,335.9969401999988,338.16675530000066,335.9969401999988,338.16675530000066,338.13340759999846,338.6345121999984,338.13340759999846,338.6345121999984,338.13340759999846,338.6345121999984,338.13340759999846,338.6345121999984,338.13340759999846,338.6345121999984,338.13340759999846,338.6345121999984,338.13340759999846,338.6345121999984,338.13340759999846,338.6345121999984,335.9969401999988,None,338.6345121999984,338.98516219999874,2.160000000000002,339.0021054999961,None,339.75328810000065,None,,,,,,,[[0.34]],1.710000000000001,0.6363636363636364,11003,001,2023_Dec_29_1126,MFTM_A_new1021,2021.2.3,59.8238904318824,
,,,,,,,,stim/Instruction_adaptive.png,conditions/adaptive.xlsx,test,0.6,0.6,0.6,-0.6,-0.6,right,R,,,,,0,1,1,1,0,44,44,58,,,,,,,,,,,,,,,,,,,,,,,,,,,,,,,,,,,,,,,,,,,,340.253993899998,None,right,1,1.3654471000045305,340.7539372999963,343.27553140000236,340.7539372999963,342.7735305000024,340.7539372999963,342.7735305000024,340.7539372999963,342.7735305000024,340.7539372999963,342.7735305000024,340.7539372999963,342.7735305000024,342.74032029999944,343.2419021999958,342.74032029999944,343.2419021999958,342.74032029999944,343.2419021999958,342.74032029999944,343.2419021999958,342.74032029999944,343.2419021999958,342.74032029999944,343.2419021999958,342.74032029999944,343.2419021999958,342.74032029999944,343.2419021999958,340.7539372999963,None,343.2419021999958,343.74265939999896,2.0100000000000016,343.7592528000023,None,344.51030360000004,None,,,,,,,[[0.49]],1.8000000000000012,0.6444444444444445,11003,001,2023_Dec_29_1126,MFTM_A_new1021,2021.2.3,59.8238904318824,
,,,,,,,,stim/Instruction_adaptive.png,conditions/adaptive.xlsx,test,-0.6,-0.6,-0.6,0.6,0.6,left,L,,,,,0,1,1,1,0,45,45,11,,,,,,,,,,,,,,,,,,,,,,,,,,,,,,,,,,,,,,,,,,,,345.01060490000236,None,None,0,0,345.5110921000014,347.9154209999979,345.5110921000014,347.4139525999999,345.5110921000014,347.4139525999999,345.5110921000014,347.4139525999999,345.5110921000014,347.4139525999999,345.5110921000014,347.4139525999999,347.3803770000013,347.8823943000025,347.3803770000013,347.8823943000025,347.3803770000013,347.8823943000025,347.3803770000013,347.8823943000025,347.3803770000013,347.8823943000025,347.3803770000013,347.8823943000025,347.3803770000013,347.8823943000025,347.3803770000013,347.8823943000025,345.5110921000014,None,347.8823943000025,348.99988499999745,1.8900000000000015,349.01627229999576,None,349.76741709999624,None,,,,,,,[[1.11]],1.550000000000001,0.6304347826086957,11003,001,2023_Dec_29_1126,MFTM_A_new1021,2021.2.3,59.8238904318824,
,,,,,,,,stim/Instruction_adaptive.png,conditions/adaptive.xlsx,test,0.6,0.6,0.6,-0.6,-0.6,right,R,,,,,0,1,1,1,0,46,46,48,,,,,,,,,,,,,,,,,,,,,,,,,,,,,,,,,,,,,,,,,,,,350.2680831999969,None,right,1,1.9810855000032461,350.76966929999617,353.5235356999983,350.76966929999617,353.0221698999958,350.76966929999617,353.0221698999958,350.76966929999617,353.0221698999958,350.76966929999617,353.0221698999958,350.76966929999617,353.0221698999958,353.0055552999984,353.5062342000019,353.0055552999984,353.5062342000019,353.0055552999984,353.5062342000019,353.0055552999984,353.5062342000019,353.0055552999984,353.5062342000019,353.0055552999984,353.5062342000019,353.0055552999984,353.5062342000019,353.0055552999984,353.5062342000019,350.76966929999617,None,353.5062342000019,353.75748079999903,2.2500000000000018,353.77333519999956,None,354.5252701999998,None,,,,,,,[[0.25]],1.640000000000001,0.6382978723404256,11003,001,2023_Dec_29_1126,MFTM_A_new1021,2021.2.3,59.8238904318824,
,,,,,,,,stim/Instruction_adaptive.png,conditions/adaptive.xlsx,test,0.6,0.6,0.6,-0.6,-0.6,right,R,,,,,0,1,1,1,0,47,47,26,,,,,,,,,,,,,,,,,,,,,,,,,,,,,,,,,,,,,,,,,,,,355.0253198999999,None,left,0,3.312983900003019,355.52587259999564,358.14662519999547,355.52587259999564,357.6453268999976,355.52587259999564,357.6453268999976,355.52587259999564,357.6453268999976,355.52587259999564,357.6453268999976,355.52587259999564,357.6453268999976,357.61233150000044,358.11321419999877,357.61233150000044,358.11321419999877,357.61233150000044,358.11321419999877,357.61233150000044,358.11321419999877,357.61233150000044,358.11321419999877,357.61233150000044,358.11321419999877,357.61233150000044,358.11321419999877,357.61233150000044,358.11321419999877,355.52587259999564,None,358.11321419999877,358.8641887999984,2.1100000000000017,358.88092029999825,None,359.6324067999958,None,,,,,,,[[0.39]],1.3800000000000008,0.625,11003,001,2023_Dec_29_1126,MFTM_A_new1021,2021.2.3,59.8238904318824,
,,,,,,,,stim/Instruction_adaptive.png,conditions/adaptive.xlsx,test,-0.6,-0.6,-0.6,0.6,0.6,left,L,,,,,0,1,1,1,0,48,48,69,,,,,,,,,,,,,,,,,,,,,,,,,,,,,,,,,,,,,,,,,,,,360.1335182999974,None,left,1,3.1323582000040915,360.63451319999876,363.6714304999987,360.63451319999876,363.1711241000012,360.63451319999876,363.1711241000012,360.63451319999876,363.1711241000012,360.63451319999876,363.1711241000012,360.63451319999876,363.1711241000012,363.15450430000055,363.65466580000066,363.15450430000055,363.65466580000066,363.15450430000055,363.65466580000066,363.15450430000055,363.65466580000066,363.15450430000055,363.65466580000066,363.15450430000055,363.65466580000066,363.15450430000055,363.65466580000066,363.15450430000055,363.65466580000066,360.63451319999876,None,363.65466580000066,363.78811549999955,2.530000000000002,363.80502339999657,None,364.55703730000096,None,,,,,,,0,1.4800000000000009,0.6326530612244898,11003,001,2023_Dec_29_1126,MFTM_A_new1021,2021.2.3,59.8238904318824,
,,,,,,,,stim/Instruction_adaptive.png,conditions/adaptive.xlsx,test,-0.6,-0.6,-0.6,0.6,0.6,left,L,,,,,0,1,1,1,0,49,49,67,,,,,,,,,,,,,,,,,,,,,,,,,,,,,,,,,,,,,,,,,,,,365.0578153999959,None,left,1,1.5445980000004056,365.55826810000144,368.4294330999983,365.55826810000144,367.9277809999985,365.55826810000144,367.9277809999985,365.55826810000144,367.9277809999985,365.55826810000144,367.9277809999985,365.55826810000144,367.9277809999985,367.8948187999995,368.3959174999982,367.8948187999995,368.3959174999982,367.8948187999995,368.3959174999982,367.8948187999995,368.3959174999982,367.8948187999995,368.3959174999982,367.8948187999995,368.3959174999982,367.8948187999995,368.3959174999982,367.8948187999995,368.3959174999982,365.55826810000144,None,368.3959174999982,368.5467110999962,2.360000000000002,368.5631185999955,None,369.3130487000017,None,,,,,,,[[0.14]],1.560000000000001,0.64,11003,001,2023_Dec_29_1126,MFTM_A_new1021,2021.2.3,59.8238904318824,
,,,,,,,,stim/Instruction_adaptive.png,conditions/adaptive.xlsx,test,-0.6,-0.6,-0.6,0.6,0.6,left,L,,,,,0,1,1,1,0,50,50,47,,,,,,,,,,,,,,,,,,,,,,,,,,,,,,,,,,,,,,,,,,,,369.814472500002,None,None,0,0,370.3151407999976,373.05251110000245,370.3151407999976,372.5512421000021,370.3151407999976,372.5512421000021,370.3151407999976,372.5512421000021,370.3151407999976,372.5512421000021,370.3151407999976,372.5512421000021,372.5345176999981,373.03766950000136,372.5345176999981,373.03766950000136,372.5345176999981,373.03766950000136,372.5345176999981,373.03766950000136,372.5345176999981,373.03766950000136,372.5345176999981,373.03766950000136,372.5345176999981,373.03766950000136,372.5345176999981,373.03766950000136,370.3151407999976,None,373.03766950000136,None,2.2300000000000018,373.8197322999986,None,374.5716659999962,None,,,,,,,[[0.77]],1.3200000000000007,0.6274509803921569,11003,001,2023_Dec_29_1126,MFTM_A_new1021,2021.2.3,59.8238904318824,
,,,,,,,,stim/Instruction_adaptive.png,conditions/adaptive.xlsx,test,0.6,0.6,0.6,-0.6,-0.6,right,R,,,,,0,1,1,1,0,51,51,32,,,,,,,,,,,,,,,,,,,,,,,,,,,,,,,,,,,,,,,,,,,,375.0721537999998,None,right,1,2.601981200001319,375.5736376999994,None,375.5736376999994,378.22700189999887,375.5736376999994,378.22700189999887,375.5736376999994,378.22700189999887,375.5736376999994,378.22700189999887,375.5736376999994,378.22700189999887,378.19299650000175,378.6935239000013,378.19299650000175,378.6935239000013,378.19299650000175,378.6935239000013,378.19299650000175,378.6935239000013,378.19299650000175,378.6935239000013,378.19299650000175,378.6935239000013,378.19299650000175,378.6935239000013,378.19299650000175,378.6935239000013,375.5736376999994,None,378.6935239000013,378.6935239000013,2.6400000000000023,378.72719530000177,None,379.47878160000255,None,,,,,,,0,1.4100000000000008,0.6346153846153846,11003,001,2023_Dec_29_1126,MFTM_A_new1021,2021.2.3,59.8238904318824,
,,,,,,,,stim/Instruction_adaptive.png,conditions/adaptive.xlsx,test,-0.6,-0.6,-0.6,0.6,0.6,left,L,,,,,0,1,1,1,0,52,52,9,,,,,,,,,,,,,,,,,,,,,,,,,,,,,,,,,,,,,,,,,,,,379.97876779999933,None,right,0,2.31112729999586,380.4796970000025,383.4685085999954,380.4796970000025,382.9672903999963,380.4796970000025,382.9672903999963,380.4796970000025,382.9672903999963,380.4796970000025,382.9672903999963,380.4796970000025,382.9672903999963,382.93395159999636,383.43511050000234,382.93395159999636,383.43511050000234,382.93395159999636,383.43511050000234,382.93395159999636,383.43511050000234,382.93395159999636,383.43511050000234,382.93395159999636,383.43511050000234,382.93395159999636,383.43511050000234,382.93395159999636,383.43511050000234,380.4796970000025,None,383.43511050000234,383.4685085999954,2.480000000000002,383.48374429999967,None,384.23555399999896,None,,,,,,,[[0.02]],1.1500000000000006,0.6226415094339622,11003,001,2023_Dec_29_1126,MFTM_A_new1021,2021.2.3,59.8238904318824,
,,,,,,,,stim/Instruction_adaptive.png,conditions/adaptive.xlsx,test,-0.6,-0.6,-0.6,0.6,0.6,left,L,,,,,0,1,1,1,0,53,53,87,,,,,,,,,,,,,,,,,,,,,,,,,,,,,,,,,,,,,,,,,,,,384.73605490000045,None,left,1,1.8582939999978407,385.23666579999554,None,385.23666579999554,388.207650700002,385.23666579999554,388.207650700002,385.23666579999554,388.207650700002,385.23666579999554,388.207650700002,385.23666579999554,388.207650700002,388.1753080999988,388.67516059999616,388.1753080999988,388.67516059999616,388.1753080999988,388.67516059999616,388.1753080999988,388.67516059999616,388.1753080999988,388.67516059999616,388.1753080999988,388.67516059999616,388.1753080999988,388.67516059999616,388.1753080999988,388.67516059999616,385.23666579999554,None,388.67516059999616,388.67516059999616,2.9600000000000026,388.7084599000009,None,389.4602947000021,None,,,,,,,0,1.2500000000000007,0.6296296296296297,11003,001,2023_Dec_29_1126,MFTM_A_new1021,2021.2.3,59.8238904318824,
,,,,,,,,stim/Instruction_adaptive.png,conditions/adaptive.xlsx,test,0.6,0.6,0.6,-0.6,-0.6,right,R,,,,,0,1,1,1,0,54,54,84,,,,,,,,,,,,,,,,,,,,,,,,,,,,,,,,,,,,,,,,,,,,389.9612255999964,None,right,1,3.1775683000014396,390.4610935000019,None,390.4610935000019,393.2319922000024,390.4610935000019,393.2319922000024,390.4610935000019,393.2319922000024,390.4610935000019,393.2319922000024,390.4610935000019,393.2319922000024,393.2151221000022,393.7156204999992,393.2151221000022,393.7156204999992,393.2151221000022,393.7156204999992,393.2151221000022,393.7156204999992,393.2151221000022,393.7156204999992,393.2151221000022,393.7156204999992,393.2151221000022,393.7156204999992,393.2151221000022,393.7156204999992,390.4610935000019,None,393.7156204999992,393.7156204999992,2.7700000000000022,393.73240539999824,None,394.48444010000094,None,,,,,,,0,1.3300000000000007,0.6363636363636364,11003,001,2023_Dec_29_1126,MFTM_A_new1021,2021.2.3,59.8238904318824,
,,,,,,,,stim/Instruction_adaptive.png,conditions/adaptive.xlsx,test,-0.6,-0.6,-0.6,0.6,0.6,left,L,,,,,0,1,1,1,0,55,55,5,,,,,,,,,,,,,,,,,,,,,,,,,,,,,,,,,,,,,,,,,,,,394.9851043000017,None,left,1,1.273585599999933,395.48521269999765,None,395.48521269999765,398.10560099999566,395.48521269999765,398.10560099999566,395.48521269999765,398.10560099999566,395.48521269999765,398.10560099999566,395.48521269999765,398.10560099999566,398.08893009999883,398.5896250000005,398.08893009999883,398.5896250000005,398.08893009999883,398.5896250000005,398.08893009999883,398.5896250000005,398.08893009999883,398.5896250000005,398.08893009999883,398.5896250000005,398.08893009999883,398.5896250000005,398.08893009999883,398.5896250000005,395.48521269999765,None,398.5896250000005,398.5896250000005,2.620000000000002,398.60655260000203,None,399.35827289999725,None,,,,,,,0,1.4100000000000008,0.6428571428571429,11003,001,2023_Dec_29_1126,MFTM_A_new1021,2021.2.3,59.8238904318824,
,,,,,,,,stim/Instruction_adaptive.png,conditions/adaptive.xlsx,test,-0.6,-0.6,-0.6,0.6,0.6,left,L,,,,,0,1,1,1,0,56,56,19,,,,,,,,,,,,,,,,,,,,,,,,,,,,,,,,,,,,,,,,,,,,399.85845269999845,None,left,1,1.7436970000053407,400.35904379999556,403.3474361999979,400.35904379999556,402.8467487000016,400.35904379999556,402.8467487000016,400.35904379999556,402.8467487000016,400.35904379999556,402.8467487000016,400.35904379999556,402.8467487000016,402.81279820000054,403.31381999999576,402.81279820000054,403.31381999999576,402.81279820000054,403.31381999999576,402.81279820000054,403.31381999999576,402.81279820000054,403.31381999999576,402.81279820000054,403.31381999999576,402.81279820000054,403.31381999999576,402.81279820000054,403.31381999999576,400.35904379999556,None,403.31381999999576,403.3474361999979,2.480000000000002,403.3636047999971,None,404.11520899999596,None,,,,,,,[[0.02]],1.4800000000000009,0.6491228070175439,11003,001,2023_Dec_29_1126,MFTM_A_new1021,2021.2.3,59.8238904318824,
,,,,,,,,stim/Instruction_adaptive.png,conditions/adaptive.xlsx,test,0.6,0.6,0.6,-0.6,-0.6,right,R,,,,,0,1,1,1,0,57,57,50,,,,,,,,,,,,,,,,,,,,,,,,,,,,,,,,,,,,,,,,,,,,404.6152998999969,None,right,1,2.843149699998321,405.1160697000014,407.9880443000002,405.1160697000014,407.487460999997,405.1160697000014,407.487460999997,405.1160697000014,407.487460999997,405.1160697000014,407.487460999997,405.1160697000014,407.487460999997,407.4528350999972,407.95436640000116,407.4528350999972,407.95436640000116,407.4528350999972,407.95436640000116,407.4528350999972,407.95436640000116,407.4528350999972,407.95436640000116,407.4528350999972,407.95436640000116,407.4528350999972,407.95436640000116,407.4528350999972,407.95436640000116,405.1160697000014,None,407.95436640000116,408.10433589999593,2.360000000000002,408.120588400001,None,408.87178539999877,None,,,,,,,[[0.14]],1.540000000000001,0.6551724137931034,11003,001,2023_Dec_29_1126,MFTM_A_new1021,2021.2.3,59.8238904318824,
,,,,,,,,stim/Instruction_adaptive.png,conditions/adaptive.xlsx,test,-0.6,-0.6,-0.6,0.6,0.6,left,L,,,,,0,1,1,1,0,58,58,57,,,,,,,,,,,,,,,,,,,,,,,,,,,,,,,,,,,,,,,,,,,,409.37246679999953,None,left,1,2.8699087999993935,409.873362899998,412.64448170000105,409.873362899998,412.14329120000184,409.873362899998,412.14329120000184,409.873362899998,412.14329120000184,409.873362899998,412.14329120000184,409.873362899998,412.14329120000184,412.1097751999987,412.61117450000165,412.1097751999987,412.61117450000165,412.1097751999987,412.61117450000165,412.1097751999987,412.61117450000165,412.1097751999987,412.61117450000165,412.1097751999987,412.61117450000165,412.1097751999987,412.61117450000165,412.1097751999987,412.61117450000165,409.873362899998,None,412.61117450000165,412.8609800999984,2.2600000000000016,412.8775569999998,None,413.6288435000024,None,,,,,,,[[0.24]],1.600000000000001,0.6610169491525424,11003,001,2023_Dec_29_1126,MFTM_A_new1021,2021.2.3,59.8238904318824,
,,,,,,,,stim/Instruction_adaptive.png,conditions/adaptive.xlsx,test,-0.6,-0.6,-0.6,0.6,0.6,left,L,,,,,0,1,1,1,0,59,59,53,,,,,,,,,,,,,,,,,,,,,,,,,,,,,,,,,,,,,,,,,,,,414.12965650000115,None,left,1,1.8328563999966718,414.63025290000223,417.30161670000234,414.63025290000223,416.8008531000014,414.63025290000223,416.8008531000014,414.63025290000223,416.8008531000014,414.63025290000223,416.8008531000014,414.63025290000223,416.8008531000014,416.7844572999966,417.28422509999655,416.7844572999966,417.28422509999655,416.7844572999966,417.28422509999655,416.7844572999966,417.28422509999655,416.7844572999966,417.28422509999655,416.7844572999966,417.28422509999655,416.7844572999966,417.28422509999655,416.7844572999966,417.28422509999655,414.63025290000223,None,417.28422509999655,417.61868420000246,2.1700000000000017,417.63529720000224,None,418.38627679999627,None,,,,,,,[[0.33]],1.660000000000001,0.6666666666666666,11003,001,2023_Dec_29_1126,MFTM_A_new1021,2021.2.3,59.8238904318824,
,,,,,,,,stim/Instruction_adaptive.png,conditions/adaptive.xlsx,test,0.6,0.6,0.6,-0.6,-0.6,right,R,,,,,0,1,1,1,0,60,60,38,,,,,,,,,,,,,,,,,,,,,,,,,,,,,,,,,,,,,,,,,,,,418.88724640000146,None,right,1,1.7947467000049073,419.3880102999974,421.9744516999999,419.3880102999974,421.4741107000009,419.3880102999974,421.4741107000009,419.3880102999974,421.4741107000009,419.3880102999974,421.4741107000009,419.3880102999974,421.4741107000009,421.4569560000018,421.9589156000002,421.4569560000018,421.9589156000002,421.4569560000018,421.9589156000002,421.4569560000018,421.9589156000002,421.4569560000018,421.9589156000002,421.4569560000018,421.9589156000002,421.4569560000018,421.9589156000002,421.4569560000018,421.9589156000002,419.3880102999974,None,421.9589156000002,None,2.080000000000002,422.3916795999976,None,423.1434433999966,None,,,,,,,[[0.42]],1.710000000000001,0.6721311475409836,11003,001,2023_Dec_29_1126,MFTM_A_new1021,2021.2.3,59.8238904318824,
,,,,,,,,stim/Instruction_adaptive.png,conditions/adaptive.xlsx,test,-0.6,-0.6,-0.6,0.6,0.6,left,L,,,,,0,1,1,1,0,61,61,83,,,,,,,,,,,,,,,,,,,,,,,,,,,,,,,,,,,,,,,,,,,,423.6434062999979,None,left,1,1.7029569999940577,424.1441354999988,426.6652011999977,424.1441354999988,426.16517770000064,424.1441354999988,426.16517770000064,424.1441354999988,426.16517770000064,424.1441354999988,426.16517770000064,424.1441354999988,426.16517770000064,426.13064779999695,426.63130570000067,426.13064779999695,426.63130570000067,426.13064779999695,426.63130570000067,426.13064779999695,426.63130570000067,426.13064779999695,426.63130570000067,426.13064779999695,426.63130570000067,426.13064779999695,426.63130570000067,426.13064779999695,426.63130570000067,424.1441354999988,None,426.63130570000067,427.13190880000184,2.0100000000000016,427.1494900999969,None,427.90051819999644,None,,,,,,,[[0.49]],1.7600000000000011,0.6774193548387096,11003,001,2023_Dec_29_1126,MFTM_A_new1021,2021.2.3,59.8238904318824,
,,,,,,,,stim/Instruction_adaptive.png,conditions/adaptive.xlsx,test,-0.6,-0.6,-0.6,0.6,0.6,left,L,,,,,0,1,1,1,0,62,62,41,,,,,,,,,,,,,,,,,,,,,,,,,,,,,,,,,,,,,,,,,,,,428.4014763000014,None,left,1,1.480951899997308,428.90229929999623,431.35500599999796,428.90229929999623,430.85456390000036,428.90229929999623,430.85456390000036,428.90229929999623,430.85456390000036,428.90229929999623,430.85456390000036,428.90229929999623,430.85456390000036,430.8208661999961,431.3226185999956,430.8208661999961,431.3226185999956,430.8208661999961,431.3226185999956,430.8208661999961,431.3226185999956,430.8208661999961,431.3226185999956,430.8208661999961,431.3226185999956,430.8208661999961,431.3226185999956,430.8208661999961,431.3226185999956,428.90229929999623,None,431.3226185999956,431.8891489000016,1.9400000000000015,431.90585859999555,None,432.65733879999607,None,,,,,,,[[0.56]],1.8000000000000012,0.6825396825396826,11003,001,2023_Dec_29_1126,MFTM_A_new1021,2021.2.3,59.8238904318824,
,,,,,,,,stim/Instruction_adaptive.png,conditions/adaptive.xlsx,test,0.6,0.6,0.6,-0.6,-0.6,right,R,,,,,0,1,1,1,0,63,63,78,,,,,,,,,,,,,,,,,,,,,,,,,,,,,,,,,,,,,,,,,,,,433.1576089000009,None,right,1,2.86728050000238,433.65952809999726,436.0630261999977,433.65952809999726,435.56229619999795,433.65952809999726,435.56229619999795,433.65952809999726,435.56229619999795,433.65952809999726,435.56229619999795,433.65952809999726,435.56229619999795,435.5277916999985,436.02932899999723,435.5277916999985,436.02932899999723,435.5277916999985,436.02932899999723,435.5277916999985,436.02932899999723,435.5277916999985,436.02932899999723,435.5277916999985,436.02932899999723,435.5277916999985,436.02932899999723,435.5277916999985,436.02932899999723,433.65952809999726,None,436.02932899999723,436.6467141999965,1.8900000000000015,436.66279380000196,None,437.4141324000011,None,,,,,,,[[0.61]],1.8400000000000012,0.6875,11003,001,2023_Dec_29_1126,MFTM_A_new1021,2021.2.3,59.8238904318824,
,,,,,,,,stim/Instruction_adaptive.png,conditions/adaptive.xlsx,test,-0.6,-0.6,-0.6,0.6,0.6,left,L,,,,,0,1,1,1,0,64,64,59,,,,,,,,,,,,,,,,,,,,,,,,,,,,,,,,,,,,,,,,,,,,437.91530500000226,None,left,1,1.3433925999997882,438.4154144999993,440.76954249999835,438.4154144999993,440.26819969999633,438.4154144999993,440.26819969999633,438.4154144999993,440.26819969999633,438.4154144999993,440.26819969999633,438.4154144999993,440.26819969999633,440.23519579999993,440.7356376000025,440.23519579999993,440.7356376000025,440.23519579999993,440.7356376000025,440.23519579999993,440.7356376000025,440.23519579999993,440.7356376000025,440.23519579999993,440.7356376000025,440.23519579999993,440.7356376000025,440.23519579999993,440.7356376000025,438.4154144999993,None,440.7356376000025,441.4040812000021,1.8400000000000014,441.41960129999643,None,442.17118169999594,None,,,,,,,[[0.66]],1.8900000000000012,0.6923076923076923,11003,001,2023_Dec_29_1126,MFTM_A_new1021,2021.2.3,59.8238904318824,
,,,,,,,,stim/Instruction_adaptive.png,conditions/adaptive.xlsx,test,-0.6,-0.6,-0.6,0.6,0.6,left,L,,,,,0,1,1,1,0,65,65,71,,,,,,,,,,,,,,,,,,,,,,,,,,,,,,,,,,,,,,,,,,,,442.67158489999565,None,left,1,2.266452699994261,443.1725372000001,445.4605164999957,443.1725372000001,444.95870199999626,443.1725372000001,444.95870199999626,443.1725372000001,444.95870199999626,443.1725372000001,444.95870199999626,443.1725372000001,444.95870199999626,444.9423536999966,445.44238719999703,444.9423536999966,445.44238719999703,444.9423536999966,445.44238719999703,444.9423536999966,445.44238719999703,444.9423536999966,445.44238719999703,444.9423536999966,445.44238719999703,444.9423536999966,445.44238719999703,444.9423536999966,445.44238719999703,443.1725372000001,None,445.44238719999703,None,1.7800000000000014,446.1767671999987,None,446.92795599999954,None,,,,,,,[[0.72]],1.9200000000000013,0.696969696969697,11003,001,2023_Dec_29_1126,MFTM_A_new1021,2021.2.3,59.8238904318824,
,,,,,,,,stim/Instruction_adaptive.png,conditions/adaptive.xlsx,test,-0.6,-0.6,-0.6,0.6,0.6,left,L,,,,,0,1,1,1,0,66,66,73,,,,,,,,,,,,,,,,,,,,,,,,,,,,,,,,,,,,,,,,,,,,447.42862449999666,None,left,1,2.4220085999986622,447.92955139999685,450.1834583999953,447.92955139999685,449.6821806000007,447.92955139999685,449.6821806000007,447.92955139999685,449.6821806000007,447.92955139999685,449.6821806000007,447.92955139999685,449.6821806000007,449.6487887999974,450.1496496999971,449.6487887999974,450.1496496999971,449.6487887999974,450.1496496999971,449.6487887999974,450.1496496999971,449.6487887999974,450.1496496999971,449.6487887999974,450.1496496999971,449.6487887999974,450.1496496999971,449.6487887999974,450.1496496999971,447.92955139999685,None,450.1496496999971,450.9181873999987,1.7400000000000013,450.9338285999984,None,451.6851225999999,None,,,,,,,[[0.76]],1.9600000000000013,0.7014925373134329,11003,001,2023_Dec_29_1126,MFTM_A_new1021,2021.2.3,59.8238904318824,
,,,,,,,,stim/Instruction_adaptive.png,conditions/adaptive.xlsx,test,-0.6,-0.6,-0.6,0.6,0.6,left,L,,,,,0,1,1,1,0,67,67,27,,,,,,,,,,,,,,,,,,,,,,,,,,,,,,,,,,,,,,,,,,,,452.18640120000055,None,left,1,1.208368799998425,452.686489599997,454.8905947000021,452.686489599997,454.3891108000025,452.686489599997,454.3891108000025,452.686489599997,454.3891108000025,452.686489599997,454.3891108000025,452.686489599997,454.3891108000025,454.3560734999992,454.8570153999972,454.3560734999992,454.8570153999972,454.3560734999992,454.8570153999972,454.3560734999992,454.8570153999972,454.3560734999992,454.8570153999972,454.3560734999992,454.8570153999972,454.3560734999992,454.8570153999972,454.3560734999992,454.8570153999972,452.686489599997,None,454.8570153999972,455.6759737999964,1.6900000000000013,455.69106720000127,None,456.4433721000023,None,,,,,,,[[0.81]],2.0000000000000013,0.7058823529411765,11003,001,2023_Dec_29_1126,MFTM_A_new1021,2021.2.3,59.8238904318824,
,,,,,,,,stim/Instruction_adaptive.png,conditions/adaptive.xlsx,test,0.6,0.6,0.6,-0.6,-0.6,right,R,,,,,0,1,1,1,0,68,68,72,,,,,,,,,,,,,,,,,,,,,,,,,,,,,,,,,,,,,,,,,,,,456.9439100000018,None,right,1,0.9869342000019969,457.4438214999973,459.59768079999776,457.4438214999973,459.0970507999955,457.4438214999973,459.0970507999955,457.4438214999973,459.0970507999955,457.4438214999973,459.0970507999955,457.4438214999973,459.0970507999955,459.0629601999972,459.5634226999973,459.0629601999972,459.5634226999973,459.0629601999972,459.5634226999973,459.0629601999972,459.5634226999973,459.0629601999972,459.5634226999973,459.0629601999972,459.5634226999973,459.0629601999972,459.5634226999973,459.0629601999972,459.5634226999973,457.4438214999973,None,459.5634226999973,460.4326166999963,1.6400000000000012,460.44803469999897,None,461.1993067000003,None,,,,,,,[[0.86]],2.030000000000001,0.7101449275362319,11003,001,2023_Dec_29_1126,MFTM_A_new1021,2021.2.3,59.8238904318824,
,,,,,,,,stim/Instruction_adaptive.png,conditions/adaptive.xlsx,test,-0.6,-0.6,-0.6,0.6,0.6,left,L,,,,,0,1,1,1,0,69,69,75,,,,,,,,,,,,,,,,,,,,,,,,,,,,,,,,,,,,,,,,,,,,461.7007528999966,None,left,1,1.9976053000063985,462.2011934999973,464.3210892999996,462.2011934999973,463.82004349999625,462.2011934999973,463.82004349999625,462.2011934999973,463.82004349999625,462.2011934999973,463.82004349999625,462.2011934999973,463.82004349999625,463.7864038999978,464.2871670999957,463.7864038999978,464.2871670999957,463.7864038999978,464.2871670999957,463.7864038999978,464.2871670999957,463.7864038999978,464.2871670999957,463.7864038999978,464.2871670999957,463.7864038999978,464.2871670999957,463.7864038999978,464.2871670999957,462.2011934999973,None,464.2871670999957,465.1885658999963,1.6100000000000012,465.20515629999863,None,465.95608099999663,None,,,,,,,[[0.89]],2.070000000000001,0.7142857142857143,11003,001,2023_Dec_29_1126,MFTM_A_new1021,2021.2.3,59.8238904318824,
,,,,,,,,stim/Instruction_adaptive.png,conditions/adaptive.xlsx,test,0.6,0.6,0.6,-0.6,-0.6,right,R,,,,,0,1,1,1,0,70,70,62,,,,,,,,,,,,,,,,,,,,,,,,,,,,,,,,,,,,,,,,,,,,466.45718569999735,None,right,1,2.728942299996561,466.9578857000015,469.02840399999695,466.9578857000015,468.52719290000095,466.9578857000015,468.52719290000095,466.9578857000015,468.52719290000095,466.9578857000015,468.52719290000095,466.9578857000015,468.52719290000095,468.51086280000163,469.01135369999975,468.51086280000163,469.01135369999975,468.51086280000163,469.01135369999975,468.51086280000163,469.01135369999975,468.51086280000163,469.01135369999975,468.51086280000163,469.01135369999975,468.51086280000163,469.01135369999975,468.51086280000163,469.01135369999975,466.9578857000015,None,469.01135369999975,469.9475403999968,1.5700000000000012,469.9621410999971,None,470.71377819999907,None,,,,,,,[[0.93]],2.1000000000000014,0.7183098591549296,11003,001,2023_Dec_29_1126,MFTM_A_new1021,2021.2.3,59.8238904318824,
,,,,,,,,stim/Instruction_adaptive.png,conditions/adaptive.xlsx,test,0.6,0.6,0.6,-0.6,-0.6,right,R,,,,,0,1,1,1,0,71,71,54,,,,,,,,,,,,,,,,,,,,,,,,,,,,,,,,,,,,,,,,,,,,471.21416170000157,None,right,1,1.7628086999975494,471.7161332999967,473.75185500000225,471.7161332999967,473.25114380000014,471.7161332999967,473.25114380000014,471.7161332999967,473.25114380000014,471.7161332999967,473.25114380000014,471.7161332999967,473.25114380000014,473.2337531000012,473.7351034999956,473.2337531000012,473.7351034999956,473.2337531000012,473.7351034999956,473.2337531000012,473.7351034999956,473.2337531000012,473.7351034999956,473.2337531000012,473.7351034999956,473.2337531000012,473.7351034999956,473.2337531000012,473.7351034999956,471.7161332999967,None,473.7351034999956,None,1.5300000000000011,474.7193660999983,None,475.47095779999654,None,,,,,,,[[0.97]],2.1300000000000017,0.7222222222222222,11003,001,2023_Dec_29_1126,MFTM_A_new1021,2021.2.3,59.8238904318824,
,,,,,,,,stim/Instruction_adaptive.png,conditions/adaptive.xlsx,test,0.6,0.6,0.6,-0.6,-0.6,right,R,,,,,0,1,1,1,0,72,72,8,,,,,,,,,,,,,,,,,,,,,,,,,,,,,,,,,,,,,,,,,,,,475.9718850999998,None,right,1,1.9179491000031703,476.4730023000011,478.47611779999716,476.4730023000011,477.9750888999988,476.4730023000011,477.9750888999988,476.4730023000011,477.9750888999988,476.4730023000011,477.9750888999988,476.4730023000011,477.9750888999988,477.95730309999635,478.4581509999989,477.95730309999635,478.4581509999989,477.95730309999635,478.4581509999989,477.95730309999635,478.4581509999989,477.95730309999635,478.4581509999989,477.95730309999635,478.4581509999989,477.95730309999635,478.4581509999989,477.95730309999635,478.4581509999989,476.4730023000011,None,478.4581509999989,479.44298759999947,1.500000000000001,479.4595871999991,None,480.2108694999988,None,,,,,,,[0.97465753],2.1600000000000015,0.726027397260274,11003,001,2023_Dec_29_1126,MFTM_A_new1021,2021.2.3,59.8238904318824,
,,,,,,,,stim/Instruction_adaptive.png,conditions/adaptive.xlsx,test,0.6,0.6,0.6,-0.6,-0.6,right,R,,,,,0,1,1,1,0,73,73,88,,,,,,,,,,,,,,,,,,,,,,,,,,,,,,,,,,,,,,,,,,,,480.7121935999967,None,right,1,1.5148617000013473,481.21211539999786,483.1823149999982,481.21211539999786,482.6982429999989,481.21211539999786,482.6982429999989,481.21211539999786,482.6982429999989,481.21211539999786,482.6982429999989,481.21211539999786,482.6982429999989,482.66408989999763,483.1662131999983,482.66408989999763,483.1662131999983,482.66408989999763,483.1662131999983,482.66408989999763,483.1662131999983,482.66408989999763,483.1662131999983,482.66408989999763,483.1662131999983,482.66408989999763,483.1662131999983,482.66408989999763,483.1662131999983,481.21211539999786,None,483.1662131999983,484.15068489999976,1.470000000000001,484.1676617999983,None,484.9179676999993,None,,,,,,,[0.97540541],2.1900000000000013,0.7297297297297297,11003,001,2023_Dec_29_1126,MFTM_A_new1021,2021.2.3,59.8238904318824,
,,,,,,,,stim/Instruction_adaptive.png,conditions/adaptive.xlsx,test,0.6,0.6,0.6,-0.6,-0.6,right,R,,,,,0,1,1,1,0,74,74,60,,,,,,,,,,,,,,,,,,,,,,,,,,,,,,,,,,,,,,,,,,,,485.41823029999796,None,right,1,1.8474826000019675,485.91983459999756,487.8720155999981,485.91983459999756,487.37223139999696,485.91983459999756,487.37223139999696,485.91983459999756,487.37223139999696,485.91983459999756,487.37223139999696,485.91983459999756,487.37223139999696,487.3379223000011,487.8386906000014,487.3379223000011,487.8386906000014,487.3379223000011,487.8386906000014,487.3379223000011,487.8386906000014,487.3379223000011,487.8386906000014,487.3379223000011,487.8386906000014,487.3379223000011,487.8386906000014,487.3379223000011,487.8386906000014,485.91983459999756,None,487.8386906000014,488.8235676999975,1.440000000000001,488.84010419999686,None,489.5914002999998,None,,,,,,,[0.97653333],2.2100000000000017,0.7333333333333333,11003,001,2023_Dec_29_1126,MFTM_A_new1021,2021.2.3,59.8238904318824,
,,,,,,,,stim/Instruction_adaptive.png,conditions/adaptive.xlsx,test,-0.6,-0.6,-0.6,0.6,0.6,left,L,,,,,0,1,1,1,0,75,75,63,,,,,,,,,,,,,,,,,,,,,,,,,,,,,,,,,,,,,,,,,,,,490.0919756000003,None,left,1,2.270764799999597,490.5928805000003,492.51333039999736,490.5928805000003,492.0281407000002,490.5928805000003,492.0281407000002,490.5928805000003,492.0281407000002,490.5928805000003,492.0281407000002,490.5928805000003,492.0281407000002,491.99489589999575,492.4961962000016,491.99489589999575,492.4961962000016,491.99489589999575,492.4961962000016,491.99489589999575,492.4961962000016,491.99489589999575,492.4961962000016,491.99489589999575,492.4961962000016,491.99489589999575,492.4961962000016,491.99489589999575,492.4961962000016,490.5928805000003,None,492.4961962000016,493.4807288000011,1.420000000000001,493.4968512999985,None,494.2488272999981,None,,,,,,,[0.97789474],2.2400000000000015,0.7368421052631579,11003,001,2023_Dec_29_1126,MFTM_A_new1021,2021.2.3,59.8238904318824,
,,,,,,,,stim/Instruction_adaptive.png,conditions/adaptive.xlsx,test,0.6,0.6,0.6,-0.6,-0.6,right,R,,,,,0,1,1,1,0,76,76,66,,,,,,,,,,,,,,,,,,,,,,,,,,,,,,,,,,,,,,,,,,,,494.7488639000003,None,left,0,2.1172991000057664,495.2497055999993,497.1530851999996,495.2497055999993,496.6516952999955,495.2497055999993,496.6516952999955,495.2497055999993,496.6516952999955,495.2497055999993,496.6516952999955,495.2497055999993,496.6516952999955,496.61840259999735,497.11901509999734,496.61840259999735,497.11901509999734,496.61840259999735,497.11901509999734,496.61840259999735,497.11901509999734,496.61840259999735,497.11901509999734,496.61840259999735,497.11901509999734,496.61840259999735,497.11901509999734,496.61840259999735,497.11901509999734,495.2497055999993,None,497.11901509999734,498.103972799996,1.390000000000001,498.1204804000008,None,498.8721564000007,None,,,,,,,[0.97961039],2.1600000000000015,0.7272727272727273,11003,001,2023_Dec_29_1126,MFTM_A_new1021,2021.2.3,59.8238904318824,
,,,,,,,,stim/Instruction_adaptive.png,conditions/adaptive.xlsx,test,-0.6,-0.6,-0.6,0.6,0.6,left,L,,,,,0,1,1,1,0,77,77,35,,,,,,,,,,,,,,,,,,,,,,,,,,,,,,,,,,,,,,,,,,,,499.3716263999959,None,left,1,2.182176000002073,499.8731209999969,501.84348619999946,499.8731209999969,501.34273859999666,499.8731209999969,501.34273859999666,499.8731209999969,501.34273859999666,499.8731209999969,501.34273859999666,499.8731209999969,501.34273859999666,501.3262803999969,501.8260286000004,501.3262803999969,501.8260286000004,501.3262803999969,501.8260286000004,501.3262803999969,501.8260286000004,501.3262803999969,501.8260286000004,501.3262803999969,501.8260286000004,501.3262803999969,501.8260286000004,501.3262803999969,501.8260286000004,499.8731209999969,None,501.8260286000004,502.81140949999826,1.470000000000001,502.8273365999994,None,503.578657799997,None,,,,,,,[0.98025641],2.1900000000000013,0.7307692307692307,11003,001,2023_Dec_29_1126,MFTM_A_new1021,2021.2.3,59.8238904318824,
,,,,,,,,stim/Instruction_adaptive.png,conditions/adaptive.xlsx,test,-0.6,-0.6,-0.6,0.6,0.6,left,L,,,,,0,1,1,1,0,78,78,39,,,,,,,,,,,,,,,,,,,,,,,,,,,,,,,,,,,,,,,,,,,,504.08028059999924,None,right,0,1.9627894000004744,504.58010600000125,506.5330677999955,504.58010600000125,506.03250090000074,504.58010600000125,506.03250090000074,504.58010600000125,506.03250090000074,504.58010600000125,506.03250090000074,504.58010600000125,506.03250090000074,505.99959529999614,506.50076219999755,505.99959529999614,506.50076219999755,505.99959529999614,506.50076219999755,505.99959529999614,506.50076219999755,505.99959529999614,506.50076219999755,505.99959529999614,506.50076219999755,505.99959529999614,506.50076219999755,505.99959529999614,506.50076219999755,504.58010600000125,None,506.50076219999755,507.4851271000007,1.440000000000001,507.5011525000009,None,508.25263429999904,None,,,,,,,[0.98126582],2.110000000000001,0.7215189873417721,11003,001,2023_Dec_29_1126,MFTM_A_new1021,2021.2.3,59.8238904318824,
,,,,,,,,stim/Instruction_adaptive.png,conditions/adaptive.xlsx,test,-0.6,-0.6,-0.6,0.6,0.6,left,L,,,,,0,1,1,1,0,79,79,49,,,,,,,,,,,,,,,,,,,,,,,,,,,,,,,,,,,,,,,,,,,,508.75416889999906,None,left,1,2.2498414000001503,509.25356839999586,511.27441749999707,509.25356839999586,510.7738219000021,509.25356839999586,510.7738219000021,509.25356839999586,510.7738219000021,509.25356839999586,510.7738219000021,509.25356839999586,510.7738219000021,510.7570246999967,511.25741520000156,510.7570246999967,511.25741520000156,510.7570246999967,511.25741520000156,510.7570246999967,511.25741520000156,510.7570246999967,511.25741520000156,510.7570246999967,511.25741520000156,510.7570246999967,511.25741520000156,510.7570246999967,511.25741520000156,509.25356839999586,None,511.25741520000156,512.2416109999976,1.5200000000000011,512.2583401000011,None,513.0095671000017,None,,,,,,,[[0.98]],2.1400000000000015,0.725,11003,001,2023_Dec_29_1126,MFTM_A_new1021,2021.2.3,59.8238904318824,
,,,,,,,,stim/Instruction_adaptive.png,conditions/adaptive.xlsx,test,0.6,0.6,0.6,-0.6,-0.6,right,R,,,,,0,1,1,1,0,80,80,94,,,,,,,,,,,,,,,,,,,,,,,,,,,,,,,,,,,,,,,,,,,,513.5101527000006,None,right,1,1.6127267999981996,514.010720899998,516.0137404999987,514.010720899998,515.5129540999988,514.010720899998,515.5129540999988,514.010720899998,515.5129540999988,514.010720899998,515.5129540999988,514.010720899998,515.5129540999988,515.4793432000006,515.9804096000007,515.4793432000006,515.9804096000007,515.4793432000006,515.9804096000007,515.4793432000006,515.9804096000007,515.4793432000006,515.9804096000007,515.4793432000006,515.9804096000007,515.4793432000006,515.9804096000007,515.4793432000006,515.9804096000007,514.010720899998,None,515.9804096000007,516.9653661999982,1.490000000000001,516.9819989000025,None,517.7333091999972,None,,,,,,,[0.98160494],2.1600000000000015,0.7283950617283951,11003,001,2023_Dec_29_1126,MFTM_A_new1021,2021.2.3,59.8238904318824,
,,,,,,,,stim/Instruction_adaptive.png,conditions/adaptive.xlsx,test,0.6,0.6,0.6,-0.6,-0.6,right,R,,,,,0,1,1,1,0,81,81,82,,,,,,,,,,,,,,,,,,,,,,,,,,,,,,,,,,,,,,,,,,,,518.2338091999991,None,left,0,1.9602453999978025,518.7346160000016,520.7060378000024,518.7346160000016,520.2033579999988,518.7346160000016,520.2033579999988,518.7346160000016,520.2033579999988,518.7346160000016,520.2033579999988,518.7346160000016,520.2033579999988,520.1870482000013,520.6872851000007,520.1870482000013,520.6872851000007,520.1870482000013,520.6872851000007,520.1870482000013,520.6872851000007,520.1870482000013,520.6872851000007,520.1870482000013,520.6872851000007,520.1870482000013,520.6872851000007,520.1870482000013,520.6872851000007,518.7346160000016,None,520.6872851000007,521.6723907999985,1.470000000000001,521.6901529999959,None,522.4403766999967,None,,,,,,,[0.98219512],2.0900000000000016,0.7195121951219512,11003,001,2023_Dec_29_1126,MFTM_A_new1021,2021.2.3,59.8238904318824,
,,,,,,,,stim/Instruction_adaptive.png,conditions/adaptive.xlsx,test,0.6,0.6,0.6,-0.6,-0.6,right,R,,,,,0,1,1,1,0,82,82,90,,,,,,,,,,,,,,,,,,,,,,,,,,,,,,,,,,,,,,,,,,,,522.9410153999997,None,None,0,0,523.4414283000006,525.4945771999992,523.4414283000006,524.9936783000012,523.4414283000006,524.9936783000012,523.4414283000006,524.9936783000012,523.4414283000006,524.9936783000012,523.4414283000006,524.9936783000012,524.9772116999957,525.4782911000002,524.9772116999957,525.4782911000002,524.9772116999957,525.4782911000002,524.9772116999957,525.4782911000002,524.9772116999957,525.4782911000002,524.9772116999957,525.4782911000002,524.9772116999957,525.4782911000002,524.9772116999957,525.4782911000002,523.4414283000006,None,525.4782911000002,526.9299790000005,1.5500000000000012,526.9465492000018,None,527.6980324999968,None,,,,,,,[[1.45]],2.0000000000000013,0.7108433734939759,11003,001,2023_Dec_29_1126,MFTM_A_new1021,2021.2.3,59.8238904318824,
,,,,,,,,stim/Instruction_adaptive.png,conditions/adaptive.xlsx,test,0.6,0.6,0.6,-0.6,-0.6,right,R,,,,,0,1,1,1,0,83,83,28,,,,,,,,,,,,,,,,,,,,,,,,,,,,,,,,,,,,,,,,,,,,528.1986449999968,None,right,1,2.100233899996965,528.6990031000023,530.8532980000018,528.6990031000023,530.3523607000025,528.6990031000023,530.3523607000025,528.6990031000023,530.3523607000025,528.6990031000023,530.3523607000025,528.6990031000023,530.3523607000025,530.318331399998,530.8196619000009,530.318331399998,530.8196619000009,530.318331399998,530.8196619000009,530.318331399998,530.8196619000009,530.318331399998,530.8196619000009,530.318331399998,530.8196619000009,530.318331399998,530.8196619000009,530.318331399998,530.8196619000009,528.6990031000023,None,530.8196619000009,531.6870474000025,1.6400000000000012,531.7035811000023,None,532.4548531999972,None,,,,,,,[[0.86]],2.030000000000001,0.7142857142857143,11003,001,2023_Dec_29_1126,MFTM_A_new1021,2021.2.3,59.8238904318824,
,,,,,,,,stim/Instruction_adaptive.png,conditions/adaptive.xlsx,test,0.6,0.6,0.6,-0.6,-0.6,right,R,,,,,0,1,1,1,0,84,84,16,,,,,,,,,,,,,,,,,,,,,,,,,,,,,,,,,,,,,,,,,,,,532.9562793000005,None,right,1,1.7106046999979299,533.456382299999,535.5768314000015,533.456382299999,535.0755033999958,533.456382299999,535.0755033999958,533.456382299999,535.0755033999958,533.456382299999,535.0755033999958,533.456382299999,535.0755033999958,535.0419159000012,535.5429949999962,535.0419159000012,535.5429949999962,535.0419159000012,535.5429949999962,535.0419159000012,535.5429949999962,535.0419159000012,535.5429949999962,535.0419159000012,535.5429949999962,535.0419159000012,535.5429949999962,535.0419159000012,535.5429949999962,533.456382299999,None,535.5429949999962,536.4442206999956,1.6100000000000012,536.4607730999996,None,537.2117291999966,None,,,,,,,[[0.89]],2.0600000000000014,0.7176470588235294,11003,001,2023_Dec_29_1126,MFTM_A_new1021,2021.2.3,59.8238904318824,
,,,,,,,,stim/Instruction_adaptive.png,conditions/adaptive.xlsx,test,0.6,0.6,0.6,-0.6,-0.6,right,R,,,,,0,1,1,1,0,85,85,64,,,,,,,,,,,,,,,,,,,,,,,,,,,,,,,,,,,,,,,,,,,,537.7127476000023,None,right,1,1.0487783999997191,538.2141508999994,540.299726899997,538.2141508999994,539.7996999999959,538.2141508999994,539.7996999999959,538.2141508999994,539.7996999999959,538.2141508999994,539.7996999999959,538.2141508999994,539.7996999999959,539.7830049999975,540.2831273999982,539.7830049999975,540.2831273999982,539.7830049999975,540.2831273999982,539.7830049999975,540.2831273999982,539.7830049999975,540.2831273999982,539.7830049999975,540.2831273999982,539.7830049999975,540.2831273999982,539.7830049999975,540.2831273999982,538.2141508999994,None,540.2831273999982,None,1.5800000000000012,541.2176895000011,None,541.9692500999954,None,,,,,,,[[0.92]],2.0900000000000016,0.7209302325581395,11003,001,2023_Dec_29_1126,MFTM_A_new1021,2021.2.3,59.8238904318824,
,,,,,,,,stim/Instruction_adaptive.png,conditions/adaptive.xlsx,test,-0.6,-0.6,-0.6,0.6,0.6,left,L,,,,,0,1,1,1,0,86,86,95,,,,,,,,,,,,,,,,,,,,,,,,,,,,,,,,,,,,,,,,,,,,542.4695898999998,None,right,0,3.2371960999953444,542.9706212000019,545.0244382999954,542.9706212000019,544.5238363999961,542.9706212000019,544.5238363999961,542.9706212000019,544.5238363999961,542.9706212000019,544.5238363999961,542.9706212000019,544.5238363999961,544.5065777999989,545.0073821999977,544.5065777999989,545.0073821999977,544.5065777999989,545.0073821999977,544.5065777999989,545.0073821999977,544.5065777999989,545.0073821999977,544.5065777999989,545.0073821999977,544.5065777999989,545.0073821999977,544.5065777999989,545.0073821999977,542.9706212000019,None,545.0073821999977,546.2252126000021,1.5500000000000012,546.2419655999984,None,546.9939632000023,None,,,,,,,[[0.95]],2.0100000000000016,0.7126436781609196,11003,001,2023_Dec_29_1126,MFTM_A_new1021,2021.2.3,59.8238904318824,
,,,,,,,,stim/Instruction_adaptive.png,conditions/adaptive.xlsx,test,-0.6,-0.6,-0.6,0.6,0.6,left,L,,,,,0,1,1,1,0,87,87,37,,,,,,,,,,,,,,,,,,,,,,,,,,,,,,,,,,,,,,,,,,,,547.494074000002,None,right,0,3.237163599995256,547.9945227999997,550.1313260000024,547.9945227999997,549.6301941999991,547.9945227999997,549.6301941999991,547.9945227999997,549.6301941999991,547.9945227999997,549.6301941999991,547.9945227999997,549.6301941999991,549.6135384000008,550.1152825999961,549.6135384000008,550.1152825999961,549.6135384000008,550.1152825999961,549.6135384000008,550.1152825999961,549.6135384000008,550.1152825999961,549.6135384000008,550.1152825999961,549.6135384000008,550.1152825999961,549.6135384000008,550.1152825999961,547.9945227999997,None,550.0982397999978,551.2492255999969,1.6300000000000012,551.2674195,None,552.0174785999989,None,,,,,,,[[0.87]],1.9300000000000013,0.7045454545454546,11003,001,2023_Dec_29_1126,MFTM_A_new1021,2021.2.3,59.8238904318824,
,,,,,,,,stim/Instruction_adaptive.png,conditions/adaptive.xlsx,test,-0.6,-0.6,-0.6,0.6,0.6,left,L,,,,,0,1,1,1,0,88,88,99,,,,,,,,,,,,,,,,,,,,,,,,,,,,,,,,,,,,,,,,,,,,552.5179734999983,None,None,0,0,553.0194257999974,555.2566910000023,553.0194257999974,554.7543783000001,553.0194257999974,554.7543783000001,553.0194257999974,554.7543783000001,553.0194257999974,554.7543783000001,553.0194257999974,554.7543783000001,554.7375545999967,555.2393178999992,554.7375545999967,555.2393178999992,554.7375545999967,555.2393178999992,554.7375545999967,555.2393178999992,554.7375545999967,555.2393178999992,554.7375545999967,555.2393178999992,554.7375545999967,555.2393178999992,554.7375545999967,555.2393178999992,553.0194257999974,None,555.2224296999993,556.5081395000016,1.7300000000000013,556.5233205999975,None,557.275020299996,None,,,,,,,[[1.27]],1.8500000000000012,0.6966292134831461,11003,001,2023_Dec_29_1126,MFTM_A_new1021,2021.2.3,59.8238904318824,
,,,,,,,,stim/Instruction_adaptive.png,conditions/adaptive.xlsx,test,-0.6,-0.6,-0.6,0.6,0.6,left,L,,,,,0,1,1,1,0,89,89,85,,,,,,,,,,,,,,,,,,,,,,,,,,,,,,,,,,,,,,,,,,,,557.7763534999976,None,left,1,1.4512347000054433,558.2762550999978,560.5971032000016,558.2762550999978,560.0966830999969,558.2762550999978,560.0966830999969,558.2762550999978,560.0966830999969,558.2762550999978,560.0966830999969,558.2762550999978,560.0966830999969,560.0791305999956,560.5805478999973,560.0791305999956,560.5805478999973,560.0791305999956,560.5805478999973,560.0791305999956,560.5805478999973,560.0791305999956,560.5805478999973,560.0791305999956,560.5805478999973,560.0791305999956,560.5805478999973,560.0791305999956,560.5805478999973,558.2762550999978,None,560.5805478999973,561.2650076999998,1.8200000000000014,561.2802685999995,None,562.0320758000016,None,,,,,,,[[0.68]],1.8700000000000012,0.7,11003,001,2023_Dec_29_1126,MFTM_A_new1021,2021.2.3,59.8238904318824,
,,,,,,,,stim/Instruction_adaptive.png,conditions/adaptive.xlsx,test,0.6,0.6,0.6,-0.6,-0.6,right,R,,,,,0,1,1,1,0,90,90,80,,,,,,,,,,,,,,,,,,,,,,,,,,,,,,,,,,,,,,,,,,,,562.5329988000012,None,right,1,2.389771900001506,563.0334098000021,565.3380136999986,563.0334098000021,564.8369206999996,563.0334098000021,564.8369206999996,563.0334098000021,564.8369206999996,563.0334098000021,564.8369206999996,563.0334098000021,564.8369206999996,564.8201303000023,565.3204781999957,564.8201303000023,565.3204781999957,564.8201303000023,565.3204781999957,564.8201303000023,565.3204781999957,564.8201303000023,565.3204781999957,564.8201303000023,565.3204781999957,564.8201303000023,565.3204781999957,564.8201303000023,565.3204781999957,563.0334098000021,None,565.3204781999957,566.0219845999964,1.8000000000000014,566.0385998999991,None,566.7898866999967,None,,,,,,,[[0.7]],1.9000000000000012,0.7032967032967034,11003,001,2023_Dec_29_1126,MFTM_A_new1021,2021.2.3,59.8238904318824,
,,,,,,,,stim/Instruction_adaptive.png,conditions/adaptive.xlsx,test,0.6,0.6,0.6,-0.6,-0.6,right,R,,,,,0,1,1,1,0,91,91,18,,,,,,,,,,,,,,,,,,,,,,,,,,,,,,,,,,,,,,,,,,,,567.2898295999985,None,right,1,2.3051376000003074,567.7904022000002,570.0614608999967,567.7904022000002,569.5607980999994,567.7904022000002,569.5607980999994,567.7904022000002,569.5607980999994,567.7904022000002,569.5607980999994,567.7904022000002,569.5607980999994,569.526323500002,570.0277684999965,569.526323500002,570.0277684999965,569.526323500002,570.0277684999965,569.526323500002,570.0277684999965,569.526323500002,570.0277684999965,569.526323500002,570.0277684999965,569.526323500002,570.0277684999965,569.526323500002,570.0277684999965,567.7904022000002,None,570.0277684999965,570.7789793999982,1.7600000000000013,570.7955369999981,None,571.5465665000011,None,,,,,,,[[0.74]],1.9300000000000013,0.7065217391304348,11003,001,2023_Dec_29_1126,MFTM_A_new1021,2021.2.3,59.8238904318824,
,,,,,,,,stim/Instruction_adaptive.png,conditions/adaptive.xlsx,test,-0.6,-0.6,-0.6,0.6,0.6,left,L,,,,,0,1,1,1,0,92,92,15,,,,,,,,,,,,,,,,,,,,,,,,,,,,,,,,,,,,,,,,,,,,572.047009599999,None,left,1,1.5155064999999013,572.5473616000018,574.7848958999966,572.5473616000018,574.2833201999965,572.5473616000018,574.2833201999965,572.5473616000018,574.2833201999965,572.5473616000018,574.2833201999965,572.5473616000018,574.2833201999965,574.266747499998,574.7676849999989,574.266747499998,574.7676849999989,574.266747499998,574.7676849999989,574.266747499998,574.7676849999989,574.266747499998,574.7676849999989,574.266747499998,574.7676849999989,574.266747499998,574.7676849999989,574.266747499998,574.7676849999989,572.5473616000018,None,574.7676849999989,None,1.7300000000000013,575.5523289999983,None,576.303055299999,None,,,,,,,[[0.77]],1.9600000000000013,0.7096774193548387,11003,001,2023_Dec_29_1126,MFTM_A_new1021,2021.2.3,59.8238904318824,
,,,,,,,,stim/Instruction_adaptive.png,conditions/adaptive.xlsx,test,0.6,0.6,0.6,-0.6,-0.6,right,R,,,,,0,1,1,1,0,93,93,86,,,,,,,,,,,,,,,,,,,,,,,,,,,,,,,,,,,,,,,,,,,,576.8040162999969,None,right,1,0.7739817999972729,577.3050503999984,579.5089451000022,577.3050503999984,579.0073950000005,577.3050503999984,579.0073950000005,577.3050503999984,579.0073950000005,577.3050503999984,579.0073950000005,577.3050503999984,579.0073950000005,578.9737574999963,579.4754159000004,578.9737574999963,579.4754159000004,578.9737574999963,579.4754159000004,578.9737574999963,579.4754159000004,578.9737574999963,579.4754159000004,578.9737574999963,579.4754159000004,578.9737574999963,579.4754159000004,578.9737574999963,579.4754159000004,577.3050503999984,None,579.4754159000004,580.2935357000024,1.6900000000000013,580.3096081999975,None,581.0603780999954,None,,,,,,,[[0.81]],1.9800000000000013,0.7127659574468085,11003,001,2023_Dec_29_1126,MFTM_A_new1021,2021.2.3,59.8238904318824,
