arrwidth1,arrwidth2,arrwidth3,arrwidth4,arrwidth5,keyb,type,orientation,instruction_image,block_filename,block_type,arrow11,arrow22,arrow33,arrow44,arrow55,keyb_3,orientation3,trials.thisRepN,trials.thisTrialN,trials.thisN,trials.thisIndex,trials_3.thisRepN,trials_3.thisTrialN,trials_3.thisN,trials_3.thisIndex,trials_2.thisRepN,trials_2.thisTrialN,trials_2.thisN,trials_2.thisIndex,welcome.started,welcome.stopped,key_resp.keys,key_resp.rt,key_resp.started,key_resp.stopped,instruction_example.started,instruction_example.stopped,key_resp_3.keys,key_resp_3.rt,key_resp_3.started,key_resp_3.stopped,instruction_task.started,instruction_task.stopped,key_resp_2.keys,key_resp_2.rt,key_resp_2.started,key_resp_2.stopped,text_2.started,text_2.stopped,A1.started,A1.stopped,A2.started,A2.stopped,A3.started,A3.stopped,A4.started,A4.stopped,A5.started,A5.stopped,key_resp_4.keys,key_resp_4.corr,key_resp_4.rt,key_resp_4.started,key_resp_4.stopped,fb.started,fb.stopped,instruction_block.started,instruction_block.stopped,key_resp_8.keys,key_resp_8.rt,key_resp_8.started,key_resp_8.stopped,text_8.started,text_8.stopped,key_resp_9.keys,key_resp_9.corr,key_resp_9.rt,text_5.started,text_5.stopped,A11_3.started,A11_3.stopped,A22_2.started,A22_2.stopped,A33_2.started,A33_2.stopped,A44_2.started,A44_2.stopped,A55_2.started,A55_2.stopped,M1_3.started,M1_3.stopped,M2_2.started,M2_2.stopped,M3_2.started,M3_2.stopped,M4_2.started,M4_2.stopped,M5_2.started,M5_2.stopped,M6_2.started,M6_2.stopped,M7_2.started,M7_2.stopped,M8_2.started,M8_2.stopped,key_resp_9.started,key_resp_9.stopped,fixation.started,fixation.stopped,ET,fb_3.started,fb_3.stopped,text_9.started,text_9.stopped,fb_4.started,fb_4.stopped,text_7.started,text_7.stopped,endtext.started,endtext.stopped,fixation_ITI,CCC,Acc,participant,session,date,expName,psychopyVersion,frameRate,
,,,,,,,,,,,,,,,,,,,,,,,,,,,,,,12.51094439998269,None,space,2.0076542000169866,12.51094439998269,None,,,,,,,,,,,,,,,,,,,,,,,,,,,,,,,,,,,,,,,,,,,,,,,,,,,,,,,,,,,,,,,,,,,,,,,,,,,,,,,,,,,,,,,,,11008,002,2024_Jan_01_2039,MFTM_A_new1021,2021.2.3,59.700351991229574,
,,,,,,,,,,,,,,,,,,,,,,,,,,,,,,,,,,,,14.548195199982729,None,space,2.0979843999957666,14.548195199982729,None,,,,,,,,,,,,,,,,,,,,,,,,,,,,,,,,,,,,,,,,,,,,,,,,,,,,,,,,,,,,,,,,,,,,,,,,,,,,,,,,,,,11008,002,2024_Jan_01_2039,MFTM_A_new1021,2021.2.3,59.700351991229574,
,,,,,,,,,,,,,,,,,,,,,,,,,,,,,,,,,,,,,,,,,,16.66720769996755,None,space,2.243114200013224,16.66720769996755,None,,,,,,,,,,,,,,,,,,,,,,,,,,,,,,,,,,,,,,,,,,,,,,,,,,,,,,,,,,,,,,,,,,,,,,,,,,,,,11008,002,2024_Jan_01_2039,MFTM_A_new1021,2021.2.3,59.700351991229574,
-0.6,-0.6,-0.6,0.6,0.6,left,3:2,L,,,,,,,,,,,0,0,0,1,,,,,,,,,,,,,,,,,,,,,,,,,,,18.955426200001966,None,18.955426200001966,None,18.955426200001966,None,18.955426200001966,None,18.955426200001966,None,18.955426200001966,None,left,1,2.906649600015953,18.955426200001966,None,21.909463199961465,None,,,,,,,,,,,,,,,,,,,,,,,,,,,,,,,,,,,,,,,,,,,,,,,,,,,,,,,,,,11008,002,2024_Jan_01_2039,MFTM_A_new1021,2021.2.3,59.700351991229574,
0.6,0.6,0.6,-0.6,-0.6,right,3:2,R,,,,,,,,,,,0,1,1,0,,,,,,,,,,,,,,,,,,,,,,,,,,,22.66028060001554,None,22.66028060001554,None,22.66028060001554,None,22.66028060001554,None,22.66028060001554,None,22.66028060001554,None,right,1,1.218979400000535,22.66028060001554,None,23.894637799996417,None,,,,,,,,,,,,,,,,,,,,,,,,,,,,,,,,,,,,,,,,,,,,,,,,,,,,,,,,,,11008,002,2024_Jan_01_2039,MFTM_A_new1021,2021.2.3,59.700351991229574,
-0.6,-0.6,-0.6,0.6,0.6,left,3:2,L,,,,,,,,,,,1,0,2,1,,,,,,,,,,,,,,,,,,,,,,,,,,,24.64570019999519,None,24.64570019999519,None,24.64570019999519,None,24.64570019999519,None,24.64570019999519,None,24.64570019999519,None,left,1,1.2246587999979965,24.64570019999519,None,25.897610699990764,None,,,,,,,,,,,,,,,,,,,,,,,,,,,,,,,,,,,,,,,,,,,,,,,,,,,,,,,,,,11008,002,2024_Jan_01_2039,MFTM_A_new1021,2021.2.3,59.700351991229574,
0.6,0.6,0.6,-0.6,-0.6,right,3:2,R,,,,,,,,,,,1,1,3,0,,,,,,,,,,,,,,,,,,,,,,,,,,,26.648503499978688,None,26.648503499978688,None,26.648503499978688,None,26.648503499978688,None,26.648503499978688,None,26.648503499978688,None,right,1,0.8139899000525475,26.648503499978688,None,27.483278699975926,None,,,,,,,,,,,,,,,,,,,,,,,,,,,,,,,,,,,,,,,,,,,,,,,,,,,,,,,,,,11008,002,2024_Jan_01_2039,MFTM_A_new1021,2021.2.3,59.700351991229574,
,,,,,,,,stim/Instruction_mask.png,conditions/adaptive.xlsx,practice,-0.6,-0.6,-0.6,0.6,0.6,left,L,,,,,0,0,0,0,0,0,0,91,,,,,,,,,,,,,,,,,,,,,,,,,,,,,,,,,,,,,,28.46720999997342,None,space,1.4591556999948807,28.46720999997342,None,30.03769490000559,None,left,1,1.5360800999915227,30.47085889999289,None,30.47085889999289,33.475765499984846,30.47085889999289,33.475765499984846,30.47085889999289,33.475765499984846,30.47085889999289,33.475765499984846,30.47085889999289,33.475765499984846,33.458660000003874,33.960583699983545,33.458660000003874,33.960583699983545,33.458660000003874,33.960583699983545,33.458660000003874,33.960583699983545,33.458660000003874,33.960583699983545,33.458660000003874,33.960583699983545,33.458660000003874,33.960583699983545,33.458660000003874,33.960583699983545,30.47085889999289,None,33.960583699983545,33.960583699983545,3,33.97661589999916,None,34.72723229997791,None,,,,,,,,,,11008,002,2024_Jan_01_2039,MFTM_A_new1021,2021.2.3,59.700351991229574,
,,,,,,,,stim/Instruction_mask.png,conditions/adaptive.xlsx,practice,0.6,0.6,0.6,-0.6,-0.6,right,R,,,,,0,0,0,0,0,1,1,58,,,,,,,,,,,,,,,,,,,,,,,,,,,,,,,,,,,,,,,,,,,,35.22825719998218,None,left,0,1.9982962999492884,35.72886739997193,37.73173359996872,35.72886739997193,37.23207699996419,35.72886739997193,37.23207699996419,35.72886739997193,37.23207699996419,35.72886739997193,37.23207699996419,35.72886739997193,37.23207699996419,37.21528219996253,37.71505870000692,37.21528219996253,37.71505870000692,37.21528219996253,37.71505870000692,37.21528219996253,37.71505870000692,37.21528219996253,37.71505870000692,37.21528219996253,37.71505870000692,37.21528219996253,37.71505870000692,37.21528219996253,37.71505870000692,35.72886739997193,None,37.71505870000692,39.217971300007775,1.5,39.23406129999785,None,39.98573939997004,None,,,,,,,,,,11008,002,2024_Jan_01_2039,MFTM_A_new1021,2021.2.3,59.700351991229574,
,,,,,,,,stim/Instruction_mask.png,conditions/adaptive.xlsx,practice,-0.6,-0.6,-0.6,0.6,0.6,left,L,,,,,0,0,0,0,0,2,2,43,,,,,,,,,,,,,,,,,,,,,,,,,,,,,,,,,,,,,,,,,,,,40.48611840000376,None,left,1,1.4845681000151671,40.98652530001709,42.288958699966315,40.98652530001709,41.78845619998174,40.98652530001709,41.78845619998174,40.98652530001709,41.78845619998174,40.98652530001709,41.78845619998174,40.98652530001709,41.78845619998174,41.77132790000178,42.27259760000743,41.77132790000178,42.27259760000743,41.77132790000178,42.27259760000743,41.77132790000178,42.27259760000743,41.77132790000178,42.27259760000743,41.77132790000178,42.27259760000743,41.77132790000178,42.27259760000743,41.77132790000178,42.27259760000743,40.98652530001709,None,42.27259760000743,44.47620049997931,0.8,44.491697199991904,None,45.24336719996063,None,,,,,,,,,,11008,002,2024_Jan_01_2039,MFTM_A_new1021,2021.2.3,59.700351991229574,
,,,,,,,,stim/Instruction_mask.png,conditions/adaptive.xlsx,practice,0.6,0.6,0.6,-0.6,-0.6,right,R,,,,,0,0,0,0,0,3,3,0,,,,,,,,,,,,,,,,,,,,,,,,,,,,,,,,,,,,,,,,,,,,45.74364639999112,None,right,1,0.7774093999760225,46.244783199974336,46.99607669998659,46.244783199974336,46.494598699966446,46.244783199974336,46.494598699966446,46.244783199974336,46.494598699966446,46.244783199974336,46.494598699966446,46.244783199974336,46.494598699966446,46.478044599993154,46.98020389996236,46.478044599993154,46.98020389996236,46.478044599993154,46.98020389996236,46.478044599993154,46.98020389996236,46.478044599993154,46.98020389996236,46.478044599993154,46.98020389996236,46.478044599993154,46.98020389996236,46.478044599993154,46.98020389996236,46.244783199974336,None,46.98020389996236,49.73381419997895,3,49.75085660000332,None,50.50124249997316,None,,,,,,,,,,11008,002,2024_Jan_01_2039,MFTM_A_new1021,2021.2.3,59.700351991229574,
,,,,,,,,stim/Instruction_mask.png,conditions/adaptive.xlsx,practice,,,,,,,,,,,,0,0,0,0,,,,,,,,,,,,,,,,,,,,,,,,,,,,,,,,,,,,,,,,,,,,,,,,,,,,,,,,,,,,,,,,,,,,,,,,,,,,,,,,,,,,,,,,,,51.01820459996816,52.02187449997291,51.98715030000312,51.98715030000312,51.98715030000312,None,,,,11008,002,2024_Jan_01_2039,MFTM_A_new1021,2021.2.3,59.700351991229574,
,,,,,,,,stim/Instruction_adaptive.png,conditions/adaptive.xlsx,test,-0.6,-0.6,-0.6,0.6,0.6,left,L,,,,,0,1,1,1,0,0,0,91,,,,,,,,,,,,,,,,,,,,,,,,,,,,,,,,,,,,,,55.15749379998306,None,space,1.8563973999698646,55.15749379998306,None,57.0605227999622,None,right,0,2.533304299984593,57.56121539999731,None,57.56121539999731,60.566416699963156,57.56121539999731,60.566416699963156,57.56121539999731,60.566416699963156,57.56121539999731,60.566416699963156,57.56121539999731,60.566416699963156,60.55023849999998,61.05034149996936,60.55023849999998,61.05034149996936,60.55023849999998,61.05034149996936,60.55023849999998,61.05034149996936,60.55023849999998,61.05034149996936,60.55023849999998,61.05034149996936,60.55023849999998,61.05034149996936,60.55023849999998,61.05034149996936,57.56121539999731,None,61.05034149996936,61.05034149996936,3,61.06635360000655,None,61.81786640000064,None,,,,,,,0,0.5,0.0,11008,002,2024_Jan_01_2039,MFTM_A_new1021,2021.2.3,59.700351991229574,
,,,,,,,,stim/Instruction_adaptive.png,conditions/adaptive.xlsx,test,-0.6,-0.6,-0.6,0.6,0.6,left,L,,,,,0,1,1,1,0,1,1,59,,,,,,,,,,,,,,,,,,,,,,,,,,,,,,,,,,,,,,,,,,,,62.319059500005096,None,left,1,0.9310301999794319,62.81928619998507,None,62.81928619998507,65.82389970001532,62.81928619998507,65.82389970001532,62.81928619998507,65.82389970001532,62.81928619998507,65.82389970001532,62.81928619998507,65.82389970001532,65.80737579998095,66.30791339999996,65.80737579998095,66.30791339999996,65.80737579998095,66.30791339999996,65.80737579998095,66.30791339999996,65.80737579998095,66.30791339999996,65.80737579998095,66.30791339999996,65.80737579998095,66.30791339999996,65.80737579998095,66.30791339999996,62.81928619998507,None,66.30791339999996,66.30791339999996,3.0000000000000027,66.32422070001485,None,67.07560280000325,None,,,,,,,0,0.5,0.5,11008,002,2024_Jan_01_2039,MFTM_A_new1021,2021.2.3,59.700351991229574,
,,,,,,,,stim/Instruction_adaptive.png,conditions/adaptive.xlsx,test,-0.6,-0.6,-0.6,0.6,0.6,left,L,,,,,0,1,1,1,0,2,2,81,,,,,,,,,,,,,,,,,,,,,,,,,,,,,,,,,,,,,,,,,,,,67.5764015999739,None,right,0,1.1455138000310399,68.07667209999636,None,68.07667209999636,71.08157380000921,68.07667209999636,71.08157380000921,68.07667209999636,71.08157380000921,68.07667209999636,71.08157380000921,68.07667209999636,71.08157380000921,71.06540809996659,71.56596029998036,71.06540809996659,71.56596029998036,71.06540809996659,71.56596029998036,71.06540809996659,71.56596029998036,71.06540809996659,71.56596029998036,71.06540809996659,71.56596029998036,71.06540809996659,71.56596029998036,71.06540809996659,71.56596029998036,68.07667209999636,None,71.56596029998036,71.56596029998036,3.0000000000000027,71.58134079998126,None,72.33294140000362,None,,,,,,,0,0.5,0.3333333333333333,11008,002,2024_Jan_01_2039,MFTM_A_new1021,2021.2.3,59.700351991229574,
,,,,,,,,stim/Instruction_adaptive.png,conditions/adaptive.xlsx,test,-0.6,-0.6,-0.6,0.6,0.6,left,L,,,,,0,1,1,1,0,3,3,5,,,,,,,,,,,,,,,,,,,,,,,,,,,,,,,,,,,,,,,,,,,,72.83452249999391,None,left,1,1.3039142999914475,73.33467499999097,None,73.33467499999097,76.33895860001212,73.33467499999097,76.33895860001212,73.33467499999097,76.33895860001212,73.33467499999097,76.33895860001212,73.33467499999097,76.33895860001212,76.3223316000076,76.82367499999236,76.3223316000076,76.82367499999236,76.3223316000076,76.82367499999236,76.3223316000076,76.82367499999236,76.3223316000076,76.82367499999236,76.3223316000076,76.82367499999236,76.3223316000076,76.82367499999236,76.3223316000076,76.82367499999236,73.33467499999097,None,76.82367499999236,76.82367499999236,3.0000000000000027,76.83977979997871,None,77.59108430001652,None,,,,,,,0,0.5,0.5,11008,002,2024_Jan_01_2039,MFTM_A_new1021,2021.2.3,59.700351991229574,
,,,,,,,,stim/Instruction_adaptive.png,conditions/adaptive.xlsx,test,-0.6,-0.6,-0.6,0.6,0.6,left,L,,,,,0,1,1,1,0,4,4,99,,,,,,,,,,,,,,,,,,,,,,,,,,,,,,,,,,,,,,,,,,,,78.09195109998109,None,left,1,1.0218838000437245,78.59255100000883,None,78.59255100000883,81.59699449996697,78.59255100000883,81.59699449996697,78.59255100000883,81.59699449996697,78.59255100000883,81.59699449996697,78.59255100000883,81.59699449996697,81.58017309999559,82.08106569998199,81.58017309999559,82.08106569998199,81.58017309999559,82.08106569998199,81.58017309999559,82.08106569998199,81.58017309999559,82.08106569998199,81.58017309999559,82.08106569998199,81.58017309999559,82.08106569998199,81.58017309999559,82.08106569998199,78.59255100000883,None,82.08106569998199,82.08106569998199,3.0000000000000027,82.09834470000351,None,82.84939290001057,None,,,,,,,0,0.5,0.6,11008,002,2024_Jan_01_2039,MFTM_A_new1021,2021.2.3,59.700351991229574,
,,,,,,,,stim/Instruction_adaptive.png,conditions/adaptive.xlsx,test,-0.6,-0.6,-0.6,0.6,0.6,left,L,,,,,0,1,1,1,0,5,5,37,,,,,,,,,,,,,,,,,,,,,,,,,,,,,,,,,,,,,,,,,,,,83.34983309998643,None,left,1,1.4050311999744736,83.8500398999895,None,83.8500398999895,86.8553825999843,83.8500398999895,86.8553825999843,83.8500398999895,86.8553825999843,83.8500398999895,86.8553825999843,83.8500398999895,86.8553825999843,86.83792229997925,87.33968739997363,86.83792229997925,87.33968739997363,86.83792229997925,87.33968739997363,86.83792229997925,87.33968739997363,86.83792229997925,87.33968739997363,86.83792229997925,87.33968739997363,86.83792229997925,87.33968739997363,86.83792229997925,87.33968739997363,83.8500398999895,None,87.33968739997363,87.33968739997363,3.0000000000000027,87.35597099998267,None,88.10627769998973,None,,,,,,,0,0.5,0.6666666666666666,11008,002,2024_Jan_01_2039,MFTM_A_new1021,2021.2.3,59.700351991229574,
,,,,,,,,stim/Instruction_adaptive.png,conditions/adaptive.xlsx,test,-0.6,-0.6,-0.6,0.6,0.6,left,L,,,,,0,1,1,1,0,6,6,69,,,,,,,,,,,,,,,,,,,,,,,,,,,,,,,,,,,,,,,,,,,,88.60820789996069,None,left,1,1.8822363000363111,89.10814859997481,None,89.10814859997481,92.11280890001217,89.10814859997481,92.11280890001217,89.10814859997481,92.11280890001217,89.10814859997481,92.11280890001217,89.10814859997481,92.11280890001217,92.09651830000803,92.59990219998872,92.09651830000803,92.59990219998872,92.09651830000803,92.59990219998872,92.09651830000803,92.59990219998872,92.09651830000803,92.59990219998872,92.09651830000803,92.59990219998872,92.09651830000803,92.59990219998872,92.09651830000803,92.59990219998872,89.10814859997481,None,92.59990219998872,92.59990219998872,3.0000000000000027,92.61288239998976,None,93.36437049997039,None,,,,,,,0,0.8200000000000003,0.7142857142857143,11008,002,2024_Jan_01_2039,MFTM_A_new1021,2021.2.3,59.700351991229574,
,,,,,,,,stim/Instruction_adaptive.png,conditions/adaptive.xlsx,test,0.6,0.6,0.6,-0.6,-0.6,right,R,,,,,0,1,1,1,0,7,7,82,,,,,,,,,,,,,,,,,,,,,,,,,,,,,,,,,,,,,,,,,,,,93.86512019997463,None,right,1,1.463807700027246,94.36675919999834,None,94.36675919999834,97.37017289997311,94.36675919999834,97.37017289997311,94.36675919999834,97.37017289997311,94.36675919999834,97.37017289997311,94.36675919999834,97.37017289997311,97.35402929998236,97.8544257999747,97.35402929998236,97.8544257999747,97.35402929998236,97.8544257999747,97.35402929998236,97.8544257999747,97.35402929998236,97.8544257999747,97.35402929998236,97.8544257999747,97.35402929998236,97.8544257999747,97.35402929998236,97.8544257999747,94.36675919999834,None,97.8544257999747,97.8544257999747,3.0000000000000027,97.87100709998049,None,98.62286479998147,None,,,,,,,0,1.1300000000000006,0.75,11008,002,2024_Jan_01_2039,MFTM_A_new1021,2021.2.3,59.700351991229574,
,,,,,,,,stim/Instruction_adaptive.png,conditions/adaptive.xlsx,test,-0.6,-0.6,-0.6,0.6,0.6,left,L,,,,,0,1,1,1,0,8,8,55,,,,,,,,,,,,,,,,,,,,,,,,,,,,,,,,,,,,,,,,,,,,99.12358519999543,None,left,1,1.4069836999988183,99.62355819996446,None,99.62355819996446,102.62862460000906,99.62355819996446,102.62862460000906,99.62355819996446,102.62862460000906,99.62355819996446,102.62862460000906,99.62355819996446,102.62862460000906,102.61133320000954,103.11324229999445,102.61133320000954,103.11324229999445,102.61133320000954,103.11324229999445,102.61133320000954,103.11324229999445,102.61133320000954,103.11324229999445,102.61133320000954,103.11324229999445,102.61133320000954,103.11324229999445,102.61133320000954,103.11324229999445,99.62355819996446,None,103.11324229999445,103.11324229999445,3.0000000000000027,103.12878899998032,None,103.8800492999726,None,,,,,,,0,1.3600000000000008,0.7777777777777778,11008,002,2024_Jan_01_2039,MFTM_A_new1021,2021.2.3,59.700351991229574,
,,,,,,,,stim/Instruction_adaptive.png,conditions/adaptive.xlsx,test,0.6,0.6,0.6,-0.6,-0.6,right,R,,,,,0,1,1,1,0,9,9,78,,,,,,,,,,,,,,,,,,,,,,,,,,,,,,,,,,,,,,,,,,,,104.38168629998108,None,left,0,2.580942899978254,104.8812673999928,None,104.8812673999928,107.4528285000124,104.8812673999928,107.4528285000124,104.8812673999928,107.4528285000124,104.8812673999928,107.4528285000124,104.8812673999928,107.4528285000124,107.43510989996139,107.937029099965,107.43510989996139,107.937029099965,107.43510989996139,107.937029099965,107.43510989996139,107.937029099965,107.43510989996139,107.937029099965,107.43510989996139,107.937029099965,107.43510989996139,107.937029099965,107.43510989996139,107.937029099965,104.8812673999928,None,107.92030429997249,107.92030429997249,2.5600000000000023,107.95195329998387,None,108.70366609998746,None,,,,,,,0,0.7900000000000003,0.7,11008,002,2024_Jan_01_2039,MFTM_A_new1021,2021.2.3,59.700351991229574,
,,,,,,,,stim/Instruction_adaptive.png,conditions/adaptive.xlsx,test,-0.6,-0.6,-0.6,0.6,0.6,left,L,,,,,0,1,1,1,0,10,10,1,,,,,,,,,,,,,,,,,,,,,,,,,,,,,,,,,,,,,,,,,,,,109.20433310000226,None,right,0,1.709460099984426,109.70505210000556,None,109.70505210000556,112.70964020001702,109.70505210000556,112.70964020001702,109.70505210000556,112.70964020001702,109.70505210000556,112.70964020001702,109.70505210000556,112.70964020001702,112.69375099998433,113.19447380001657,112.69375099998433,113.19447380001657,112.69375099998433,113.19447380001657,112.69375099998433,113.19447380001657,112.69375099998433,113.19447380001657,112.69375099998433,113.19447380001657,112.69375099998433,113.19447380001657,112.69375099998433,113.19447380001657,109.70505210000556,None,113.19447380001657,113.19447380001657,3.0000000000000027,113.21021549997386,None,113.96203240001341,None,,,,,,,0,0.5,0.6363636363636364,11008,002,2024_Jan_01_2039,MFTM_A_new1021,2021.2.3,59.700351991229574,
,,,,,,,,stim/Instruction_adaptive.png,conditions/adaptive.xlsx,test,-0.6,-0.6,-0.6,0.6,0.6,left,L,,,,,0,1,1,1,0,11,11,27,,,,,,,,,,,,,,,,,,,,,,,,,,,,,,,,,,,,,,,,,,,,114.46219739998924,None,left,1,1.1790232999483123,114.96315029996913,None,114.96315029996913,117.96862739999779,114.96315029996913,117.96862739999779,114.96315029996913,117.96862739999779,114.96315029996913,117.96862739999779,114.96315029996913,117.96862739999779,117.9508394000004,118.45182939997176,117.9508394000004,118.45182939997176,117.9508394000004,118.45182939997176,117.9508394000004,118.45182939997176,117.9508394000004,118.45182939997176,117.9508394000004,118.45182939997176,117.9508394000004,118.45182939997176,117.9508394000004,118.45182939997176,114.96315029996913,None,118.45182939997176,118.45182939997176,3.0000000000000027,118.46809859998757,None,119.22022650000872,None,,,,,,,0,0.5,0.6666666666666666,11008,002,2024_Jan_01_2039,MFTM_A_new1021,2021.2.3,59.700351991229574,
,,,,,,,,stim/Instruction_adaptive.png,conditions/adaptive.xlsx,test,-0.6,-0.6,-0.6,0.6,0.6,left,L,,,,,0,1,1,1,0,12,12,19,,,,,,,,,,,,,,,,,,,,,,,,,,,,,,,,,,,,,,,,,,,,119.72082609997597,None,left,1,1.4817166000138968,120.22076110000489,None,120.22076110000489,123.22587739996379,120.22076110000489,123.22587739996379,120.22076110000489,123.22587739996379,120.22076110000489,123.22587739996379,120.22076110000489,123.22587739996379,123.20871510001598,123.70998859999236,123.20871510001598,123.70998859999236,123.20871510001598,123.70998859999236,123.20871510001598,123.70998859999236,123.20871510001598,123.70998859999236,123.20871510001598,123.70998859999236,123.20871510001598,123.70998859999236,123.20871510001598,123.70998859999236,120.22076110000489,None,123.70998859999236,123.70998859999236,3.0000000000000027,123.72657669999171,None,124.47746500000358,None,,,,,,,0,0.6900000000000002,0.6923076923076923,11008,002,2024_Jan_01_2039,MFTM_A_new1021,2021.2.3,59.700351991229574,
,,,,,,,,stim/Instruction_adaptive.png,conditions/adaptive.xlsx,test,0.6,0.6,0.6,-0.6,-0.6,right,R,,,,,0,1,1,1,0,13,13,30,,,,,,,,,,,,,,,,,,,,,,,,,,,,,,,,,,,,,,,,,,,,124.97796150000067,None,right,1,1.8637637000065297,125.47851419996005,None,125.47851419996005,128.48360109998612,125.47851419996005,128.48360109998612,125.47851419996005,128.48360109998612,125.47851419996005,128.48360109998612,125.47851419996005,128.48360109998612,128.46615880000172,128.96715739998035,128.46615880000172,128.96715739998035,128.46615880000172,128.96715739998035,128.46615880000172,128.96715739998035,128.46615880000172,128.96715739998035,128.46615880000172,128.96715739998035,128.46615880000172,128.96715739998035,128.46615880000172,128.96715739998035,125.47851419996005,None,128.96715739998035,128.96715739998035,3.0000000000000027,128.98375969997142,None,129.735970299982,None,,,,,,,0,0.8900000000000003,0.7142857142857143,11008,002,2024_Jan_01_2039,MFTM_A_new1021,2021.2.3,59.700351991229574,
,,,,,,,,stim/Instruction_adaptive.png,conditions/adaptive.xlsx,test,-0.6,-0.6,-0.6,0.6,0.6,left,L,,,,,0,1,1,1,0,14,14,93,,,,,,,,,,,,,,,,,,,,,,,,,,,,,,,,,,,,,,,,,,,,130.2364201999735,None,left,1,0.8460682999575511,130.73629470000742,None,130.73629470000742,133.74149949999992,130.73629470000742,133.74149949999992,130.73629470000742,133.74149949999992,130.73629470000742,133.74149949999992,130.73629470000742,133.74149949999992,133.72441729996353,134.2253347999649,133.72441729996353,134.2253347999649,133.72441729996353,134.2253347999649,133.72441729996353,134.2253347999649,133.72441729996353,134.2253347999649,133.72441729996353,134.2253347999649,133.72441729996353,134.2253347999649,133.72441729996353,134.2253347999649,130.73629470000742,None,134.2253347999649,134.2253347999649,3.0000000000000027,134.2418922999641,None,134.9932734000031,None,,,,,,,0,1.0500000000000005,0.7333333333333333,11008,002,2024_Jan_01_2039,MFTM_A_new1021,2021.2.3,59.700351991229574,
,,,,,,,,stim/Instruction_adaptive.png,conditions/adaptive.xlsx,test,0.6,0.6,0.6,-0.6,-0.6,right,R,,,,,0,1,1,1,0,15,15,64,,,,,,,,,,,,,,,,,,,,,,,,,,,,,,,,,,,,,,,,,,,,135.49356440000702,None,right,1,0.9879565999726765,135.99419539998053,None,135.99419539998053,138.99849620001623,135.99419539998053,138.99849620001623,135.99419539998053,138.99849620001623,135.99419539998053,138.99849620001623,135.99419539998053,138.99849620001623,138.98180840001442,139.48276809998788,138.98180840001442,139.48276809998788,138.98180840001442,139.48276809998788,138.98180840001442,139.48276809998788,138.98180840001442,139.48276809998788,138.98180840001442,139.48276809998788,138.98180840001442,139.48276809998788,138.98180840001442,139.48276809998788,135.99419539998053,None,139.48276809998788,139.48276809998788,3.0000000000000027,139.4992178999819,None,140.2517085999716,None,,,,,,,0,1.1900000000000006,0.75,11008,002,2024_Jan_01_2039,MFTM_A_new1021,2021.2.3,59.700351991229574,
,,,,,,,,stim/Instruction_adaptive.png,conditions/adaptive.xlsx,test,0.6,0.6,0.6,-0.6,-0.6,right,R,,,,,0,1,1,1,0,16,16,58,,,,,,,,,,,,,,,,,,,,,,,,,,,,,,,,,,,,,,,,,,,,140.75193269999,None,right,1,1.2416035999776796,141.25266739999643,None,141.25266739999643,144.13996269996278,141.25266739999643,144.13996269996278,141.25266739999643,144.13996269996278,141.25266739999643,144.13996269996278,141.25266739999643,144.13996269996278,144.10611210000934,144.60767299996223,144.10611210000934,144.60767299996223,144.10611210000934,144.60767299996223,144.10611210000934,144.60767299996223,144.10611210000934,144.60767299996223,144.10611210000934,144.60767299996223,144.10611210000934,144.60767299996223,144.10611210000934,144.60767299996223,141.25266739999643,None,144.60767299996223,144.60767299996223,2.8800000000000026,144.64047919999575,None,145.39199199998984,None,,,,,,,0,1.3100000000000007,0.7647058823529411,11008,002,2024_Jan_01_2039,MFTM_A_new1021,2021.2.3,59.700351991229574,
,,,,,,,,stim/Instruction_adaptive.png,conditions/adaptive.xlsx,test,0.6,0.6,0.6,-0.6,-0.6,right,R,,,,,0,1,1,1,0,17,17,70,,,,,,,,,,,,,,,,,,,,,,,,,,,,,,,,,,,,,,,,,,,,145.89310939999996,None,right,1,0.7571207000291906,146.39339380001184,None,146.39339380001184,149.04671179997968,146.39339380001184,149.04671179997968,146.39339380001184,149.04671179997968,146.39339380001184,149.04671179997968,146.39339380001184,149.04671179997968,149.03067179996287,149.53082549996907,149.03067179996287,149.53082549996907,149.03067179996287,149.53082549996907,149.03067179996287,149.53082549996907,149.03067179996287,149.53082549996907,149.03067179996287,149.53082549996907,149.03067179996287,149.53082549996907,149.03067179996287,149.53082549996907,146.39339380001184,None,149.53082549996907,149.53082549996907,2.650000000000002,149.54745329997968,None,150.29951380001148,None,,,,,,,0,1.4100000000000008,0.7777777777777778,11008,002,2024_Jan_01_2039,MFTM_A_new1021,2021.2.3,59.700351991229574,
,,,,,,,,stim/Instruction_adaptive.png,conditions/adaptive.xlsx,test,-0.6,-0.6,-0.6,0.6,0.6,left,L,,,,,0,1,1,1,0,18,18,29,,,,,,,,,,,,,,,,,,,,,,,,,,,,,,,,,,,,,,,,,,,,150.79985860001761,None,left,1,0.9699199000024237,151.30038079997757,None,151.30038079997757,153.7880443999893,151.30038079997757,153.7880443999893,151.30038079997757,153.7880443999893,151.30038079997757,153.7880443999893,151.30038079997757,153.7880443999893,153.77068829996279,154.27223180001602,153.77068829996279,154.27223180001602,153.77068829996279,154.27223180001602,153.77068829996279,154.27223180001602,153.77068829996279,154.27223180001602,153.77068829996279,154.27223180001602,153.77068829996279,154.27223180001602,153.77068829996279,154.27223180001602,151.30038079997757,None,154.27223180001602,154.27223180001602,2.480000000000002,154.28852469997946,None,155.04035909997765,None,,,,,,,0,1.5000000000000009,0.7894736842105263,11008,002,2024_Jan_01_2039,MFTM_A_new1021,2021.2.3,59.700351991229574,
,,,,,,,,stim/Instruction_adaptive.png,conditions/adaptive.xlsx,test,-0.6,-0.6,-0.6,0.6,0.6,left,L,,,,,0,1,1,1,0,19,19,3,,,,,,,,,,,,,,,,,,,,,,,,,,,,,,,,,,,,,,,,,,,,155.5397678000154,None,left,1,2.6056507999892347,156.0405208999873,None,156.0405208999873,158.3774315000046,156.0405208999873,158.3774315000046,156.0405208999873,158.3774315000046,156.0405208999873,158.3774315000046,156.0405208999873,158.3774315000046,158.360409899964,158.8622898000176,158.360409899964,158.8622898000176,158.360409899964,158.8622898000176,158.360409899964,158.8622898000176,158.360409899964,158.8622898000176,158.360409899964,158.8622898000176,158.360409899964,158.8622898000176,158.360409899964,158.8622898000176,156.0405208999873,None,158.8622898000176,158.8622898000176,2.330000000000002,158.8779465999687,None,159.62981419998687,None,,,,,,,0,1.590000000000001,0.8,11008,002,2024_Jan_01_2039,MFTM_A_new1021,2021.2.3,59.700351991229574,
,,,,,,,,stim/Instruction_adaptive.png,conditions/adaptive.xlsx,test,-0.6,-0.6,-0.6,0.6,0.6,left,L,,,,,0,1,1,1,0,20,20,11,,,,,,,,,,,,,,,,,,,,,,,,,,,,,,,,,,,,,,,,,,,,160.1310236999998,None,left,1,1.343598400009796,160.63068820000626,None,160.63068820000626,162.83403749996796,160.63068820000626,162.83403749996796,160.63068820000626,162.83403749996796,160.63068820000626,162.83403749996796,160.63068820000626,162.83403749996796,162.80091749998974,163.30102949996945,162.80091749998974,163.30102949996945,162.80091749998974,163.30102949996945,162.80091749998974,163.30102949996945,162.80091749998974,163.30102949996945,162.80091749998974,163.30102949996945,162.80091749998974,163.30102949996945,162.80091749998974,163.30102949996945,160.63068820000626,None,163.30102949996945,163.30102949996945,2.1900000000000017,163.33450279996032,None,164.08659279998392,None,,,,,,,0,1.660000000000001,0.8095238095238095,11008,002,2024_Jan_01_2039,MFTM_A_new1021,2021.2.3,59.700351991229574,
,,,,,,,,stim/Instruction_adaptive.png,conditions/adaptive.xlsx,test,-0.6,-0.6,-0.6,0.6,0.6,left,L,,,,,0,1,1,1,0,21,21,63,,,,,,,,,,,,,,,,,,,,,,,,,,,,,,,,,,,,,,,,,,,,164.58649389998754,None,left,1,1.3674322000006214,165.08732859999873,None,165.08732859999873,167.17454959999304,165.08732859999873,167.17454959999304,165.08732859999873,167.17454959999304,165.08732859999873,167.17454959999304,165.08732859999873,167.17454959999304,167.1569045999786,167.65853809996042,167.1569045999786,167.65853809996042,167.1569045999786,167.65853809996042,167.1569045999786,167.65853809996042,167.1569045999786,167.65853809996042,167.1569045999786,167.65853809996042,167.1569045999786,167.65853809996042,167.1569045999786,167.65853809996042,165.08732859999873,None,167.65853809996042,167.65853809996042,2.080000000000002,167.6743946999777,None,168.42617260001134,None,,,,,,,0,1.730000000000001,0.8181818181818182,11008,002,2024_Jan_01_2039,MFTM_A_new1021,2021.2.3,59.700351991229574,
,,,,,,,,stim/Instruction_adaptive.png,conditions/adaptive.xlsx,test,0.6,0.6,0.6,-0.6,-0.6,right,R,,,,,0,1,1,1,0,22,22,32,,,,,,,,,,,,,,,,,,,,,,,,,,,,,,,,,,,,,,,,,,,,168.92700749996584,None,right,1,2.1793554999749176,169.42696449998766,None,169.42696449998766,171.41478340001777,169.42696449998766,171.41478340001777,169.42696449998766,171.41478340001777,169.42696449998766,171.41478340001777,169.42696449998766,171.41478340001777,171.39660109998658,171.8981340000173,171.39660109998658,171.8981340000173,171.39660109998658,171.8981340000173,171.39660109998658,171.8981340000173,171.39660109998658,171.8981340000173,171.39660109998658,171.8981340000173,171.39660109998658,171.8981340000173,171.39660109998658,171.8981340000173,169.42696449998766,None,171.8981340000173,171.8981340000173,1.9800000000000015,171.9146921999636,None,172.66532829997595,None,,,,,,,0,1.8000000000000012,0.8260869565217391,11008,002,2024_Jan_01_2039,MFTM_A_new1021,2021.2.3,59.700351991229574,
,,,,,,,,stim/Instruction_adaptive.png,conditions/adaptive.xlsx,test,0.6,0.6,0.6,-0.6,-0.6,right,R,,,,,0,1,1,1,0,23,23,8,,,,,,,,,,,,,,,,,,,,,,,,,,,,,,,,,,,,,,,,,,,,173.16588719998254,None,right,1,2.1553889000206254,173.666988699988,None,173.666988699988,175.5697295999853,173.666988699988,175.5697295999853,173.666988699988,175.5697295999853,173.666988699988,175.5697295999853,173.666988699988,175.5697295999853,175.53617109998595,176.03734979999717,175.53617109998595,176.03734979999717,175.53617109998595,176.03734979999717,175.53617109998595,176.03734979999717,175.53617109998595,176.03734979999717,175.53617109998595,176.03734979999717,175.53617109998595,176.03734979999717,175.53617109998595,176.03734979999717,173.666988699988,None,176.03734979999717,176.03734979999717,1.8900000000000015,176.07024789997377,None,176.82140129996696,None,,,,,,,0,1.8600000000000012,0.8333333333333334,11008,002,2024_Jan_01_2039,MFTM_A_new1021,2021.2.3,59.700351991229574,
,,,,,,,,stim/Instruction_adaptive.png,conditions/adaptive.xlsx,test,-0.6,-0.6,-0.6,0.6,0.6,left,L,,,,,0,1,1,1,0,24,24,71,,,,,,,,,,,,,,,,,,,,,,,,,,,,,,,,,,,,,,,,,,,,177.3222606999916,None,right,0,2.095413799979724,177.8227370000095,None,177.8227370000095,179.6423158000107,177.8227370000095,179.6423158000107,177.8227370000095,179.6423158000107,177.8227370000095,179.6423158000107,177.8227370000095,179.6423158000107,179.60960119997617,180.11010619997978,179.60960119997617,180.11010619997978,179.60960119997617,180.11010619997978,179.60960119997617,180.11010619997978,179.60960119997617,180.11010619997978,179.60960119997617,180.11010619997978,179.60960119997617,180.11010619997978,179.60960119997617,180.11010619997978,177.8227370000095,None,180.11010619997978,180.11010619997978,1.8100000000000014,180.14290569996228,None,180.89470959996106,None,,,,,,,0,1.690000000000001,0.8,11008,002,2024_Jan_01_2039,MFTM_A_new1021,2021.2.3,59.700351991229574,
,,,,,,,,stim/Instruction_adaptive.png,conditions/adaptive.xlsx,test,0.6,0.6,0.6,-0.6,-0.6,right,R,,,,,0,1,1,1,0,25,25,76,,,,,,,,,,,,,,,,,,,,,,,,,,,,,,,,,,,,,,,,,,,,181.395644299977,None,right,1,1.2140723000047728,181.89603120001266,None,181.89603120001266,183.94838339998387,181.89603120001266,183.94838339998387,181.89603120001266,183.94838339998387,181.89603120001266,183.94838339998387,181.89603120001266,183.94838339998387,183.91564739996102,184.4161437000148,183.91564739996102,184.4161437000148,183.91564739996102,184.4161437000148,183.91564739996102,184.4161437000148,183.91564739996102,184.4161437000148,183.91564739996102,184.4161437000148,183.91564739996102,184.4161437000148,183.91564739996102,184.4161437000148,181.89603120001266,None,184.4161437000148,184.4161437000148,2.040000000000002,184.44985299999826,None,185.20077080000192,None,,,,,,,0,1.750000000000001,0.8076923076923077,11008,002,2024_Jan_01_2039,MFTM_A_new1021,2021.2.3,59.700351991229574,
,,,,,,,,stim/Instruction_adaptive.png,conditions/adaptive.xlsx,test,0.6,0.6,0.6,-0.6,-0.6,right,R,,,,,0,1,1,1,0,26,26,48,,,,,,,,,,,,,,,,,,,,,,,,,,,,,,,,,,,,,,,,,,,,185.7013361999998,None,right,1,1.5003803999861702,186.20194539998192,None,186.20194539998192,188.171399999992,186.20194539998192,188.171399999992,186.20194539998192,188.171399999992,186.20194539998192,188.171399999992,186.20194539998192,188.171399999992,188.13797649997286,188.63868309999816,188.13797649997286,188.63868309999816,188.13797649997286,188.63868309999816,188.13797649997286,188.63868309999816,188.13797649997286,188.63868309999816,188.13797649997286,188.63868309999816,188.13797649997286,188.63868309999816,188.13797649997286,188.63868309999816,186.20194539998192,None,188.63868309999816,188.63868309999816,1.9600000000000015,188.67223699996248,None,189.42374160001054,None,,,,,,,0,1.8100000000000012,0.8148148148148148,11008,002,2024_Jan_01_2039,MFTM_A_new1021,2021.2.3,59.700351991229574,
,,,,,,,,stim/Instruction_adaptive.png,conditions/adaptive.xlsx,test,0.6,0.6,0.6,-0.6,-0.6,right,R,,,,,0,1,1,1,0,27,27,66,,,,,,,,,,,,,,,,,,,,,,,,,,,,,,,,,,,,,,,,,,,,189.92504639999242,None,right,1,0.9346144000301138,190.42549860000145,None,190.42549860000145,192.31084190000547,190.42549860000145,192.31084190000547,190.42549860000145,192.31084190000547,190.42549860000145,192.31084190000547,190.42549860000145,192.31084190000547,192.2774096999783,192.77922689996194,192.2774096999783,192.77922689996194,192.2774096999783,192.77922689996194,192.2774096999783,192.77922689996194,192.2774096999783,192.77922689996194,192.2774096999783,192.77922689996194,192.2774096999783,192.77922689996194,192.2774096999783,192.77922689996194,190.42549860000145,None,192.77922689996194,192.77922689996194,1.8800000000000014,192.81172439997317,None,193.56331719999434,None,,,,,,,0,1.8600000000000012,0.8214285714285714,11008,002,2024_Jan_01_2039,MFTM_A_new1021,2021.2.3,59.700351991229574,
,,,,,,,,stim/Instruction_adaptive.png,conditions/adaptive.xlsx,test,0.6,0.6,0.6,-0.6,-0.6,right,R,,,,,0,1,1,1,0,28,28,6,,,,,,,,,,,,,,,,,,,,,,,,,,,,,,,,,,,,,,,,,,,,194.06382380001014,None,right,1,0.9707724999752827,194.5641586999991,None,194.5641586999991,196.38428090000525,194.5641586999991,196.38428090000525,194.5641586999991,196.38428090000525,194.5641586999991,196.38428090000525,194.5641586999991,196.38428090000525,196.35121599998092,196.85165470000356,196.35121599998092,196.85165470000356,196.35121599998092,196.85165470000356,196.35121599998092,196.85165470000356,196.35121599998092,196.85165470000356,196.35121599998092,196.85165470000356,196.35121599998092,196.85165470000356,196.35121599998092,196.85165470000356,194.5641586999991,None,196.85165470000356,196.85165470000356,1.8100000000000014,196.88434980000602,None,197.63613489997806,None,,,,,,,0,1.9100000000000013,0.8275862068965517,11008,002,2024_Jan_01_2039,MFTM_A_new1021,2021.2.3,59.700351991229574,
,,,,,,,,stim/Instruction_adaptive.png,conditions/adaptive.xlsx,test,0.6,0.6,0.6,-0.6,-0.6,right,R,,,,,0,1,1,1,0,29,29,94,,,,,,,,,,,,,,,,,,,,,,,,,,,,,,,,,,,,,,,,,,,,198.13683899998432,None,right,1,1.0168035000097007,198.63775280001573,None,198.63775280001573,200.39055730000837,198.63775280001573,200.39055730000837,198.63775280001573,200.39055730000837,198.63775280001573,200.39055730000837,198.63775280001573,200.39055730000837,200.3727257999708,200.873662900005,200.3727257999708,200.873662900005,200.3727257999708,200.873662900005,200.3727257999708,200.873662900005,200.3727257999708,200.873662900005,200.3727257999708,200.873662900005,200.3727257999708,200.873662900005,200.3727257999708,200.873662900005,198.63775280001573,None,200.873662900005,200.873662900005,1.7500000000000013,200.8902051000041,None,201.6418113000109,None,,,,,,,0,1.9600000000000013,0.8333333333333334,11008,002,2024_Jan_01_2039,MFTM_A_new1021,2021.2.3,59.700351991229574,
,,,,,,,,stim/Instruction_adaptive.png,conditions/adaptive.xlsx,test,0.6,0.6,0.6,-0.6,-0.6,right,R,,,,,0,1,1,1,0,30,30,46,,,,,,,,,,,,,,,,,,,,,,,,,,,,,,,,,,,,,,,,,,,,202.14307079999708,None,right,1,2.1467804000130855,202.64350169996032,None,202.64350169996032,204.34540099999867,202.64350169996032,204.34540099999867,202.64350169996032,204.34540099999867,202.64350169996032,204.34540099999867,202.64350169996032,204.34540099999867,204.31257419998292,204.81309499999043,204.31257419998292,204.81309499999043,204.31257419998292,204.81309499999043,204.31257419998292,204.81309499999043,204.31257419998292,204.81309499999043,204.31257419998292,204.81309499999043,204.31257419998292,204.81309499999043,204.31257419998292,204.81309499999043,202.64350169996032,None,204.81309499999043,204.81309499999043,1.6900000000000013,204.84619439998642,None,205.59716820000904,None,,,,,,,0,2.0100000000000016,0.8387096774193549,11008,002,2024_Jan_01_2039,MFTM_A_new1021,2021.2.3,59.700351991229574,
,,,,,,,,stim/Instruction_adaptive.png,conditions/adaptive.xlsx,test,0.6,0.6,0.6,-0.6,-0.6,right,R,,,,,0,1,1,1,0,31,31,54,,,,,,,,,,,,,,,,,,,,,,,,,,,,,,,,,,,,,,,,,,,,206.09849419997772,None,right,1,1.439719099958893,206.59853109996766,None,206.59853109996766,208.23481719999108,206.59853109996766,208.23481719999108,206.59853109996766,208.23481719999108,206.59853109996766,208.23481719999108,206.59853109996766,208.23481719999108,208.21827969996957,208.71914910001215,208.21827969996957,208.71914910001215,208.21827969996957,208.71914910001215,208.21827969996957,208.71914910001215,208.21827969996957,208.71914910001215,208.21827969996957,208.71914910001215,208.21827969996957,208.71914910001215,208.21827969996957,208.71914910001215,206.59853109996766,None,208.71914910001215,208.71914910001215,1.6300000000000012,208.7359239999787,None,209.4874727000133,None,,,,,,,0,2.0600000000000014,0.84375,11008,002,2024_Jan_01_2039,MFTM_A_new1021,2021.2.3,59.700351991229574,
,,,,,,,,stim/Instruction_adaptive.png,conditions/adaptive.xlsx,test,0.6,0.6,0.6,-0.6,-0.6,right,R,,,,,0,1,1,1,0,32,32,90,,,,,,,,,,,,,,,,,,,,,,,,,,,,,,,,,,,,,,,,,,,,209.9874002999859,None,right,1,0.9989855000167154,210.4885942999972,212.57466109999223,210.4885942999972,212.07406179996906,210.4885942999972,212.07406179996906,210.4885942999972,212.07406179996906,210.4885942999972,212.07406179996906,210.4885942999972,212.07406179996906,212.0578310000128,212.55806060001487,212.0578310000128,212.55806060001487,212.0578310000128,212.55806060001487,212.0578310000128,212.55806060001487,212.0578310000128,212.55806060001487,212.0578310000128,212.55806060001487,212.0578310000128,212.55806060001487,212.0578310000128,212.55806060001487,210.4885942999972,None,212.54127380001592,212.55806060001487,1.5800000000000012,212.5910983000067,None,213.34212589997333,None,,,,,,,[0.00939394],2.1000000000000014,0.8484848484848485,11008,002,2024_Jan_01_2039,MFTM_A_new1021,2021.2.3,59.700351991229574,
,,,,,,,,stim/Instruction_adaptive.png,conditions/adaptive.xlsx,test,-0.6,-0.6,-0.6,0.6,0.6,left,L,,,,,0,1,1,1,0,33,33,23,,,,,,,,,,,,,,,,,,,,,,,,,,,,,,,,,,,,,,,,,,,,213.84302339999704,None,left,1,1.0698810000321828,214.34448510000948,216.38000930001726,214.34448510000948,215.8796122999629,214.34448510000948,215.8796122999629,214.34448510000948,215.8796122999629,214.34448510000948,215.8796122999629,214.34448510000948,215.8796122999629,215.86310359998606,216.36335439997492,215.86310359998606,216.36335439997492,215.86310359998606,216.36335439997492,215.86310359998606,216.36335439997492,215.86310359998606,216.36335439997492,215.86310359998606,216.36335439997492,215.86310359998606,216.36335439997492,215.86310359998606,216.36335439997492,214.34448510000948,None,216.36335439997492,None,1.5300000000000011,216.4131822999916,None,217.1650696999859,None,,,,,,,[0.03764706],2.1400000000000015,0.8529411764705882,11008,002,2024_Jan_01_2039,MFTM_A_new1021,2021.2.3,59.700351991229574,
,,,,,,,,stim/Instruction_adaptive.png,conditions/adaptive.xlsx,test,-0.6,-0.6,-0.6,0.6,0.6,left,L,,,,,0,1,1,1,0,34,34,87,,,,,,,,,,,,,,,,,,,,,,,,,,,,,,,,,,,,,,,,,,,,217.66590480000013,None,left,1,1.3683224000269547,218.16610629996285,220.16931119997753,218.16610629996285,219.66894060000777,218.16610629996285,219.66894060000777,218.16610629996285,219.66894060000777,218.16610629996285,219.66894060000777,218.16610629996285,219.66894060000777,219.63561309996294,220.13582699996186,219.63561309996294,220.13582699996186,219.63561309996294,220.13582699996186,219.63561309996294,220.13582699996186,219.63561309996294,220.13582699996186,219.63561309996294,220.13582699996186,219.63561309996294,220.13582699996186,219.63561309996294,220.13582699996186,218.16610629996285,None,220.13582699996186,220.20308629999636,1.490000000000001,220.23611269996036,None,220.98718900000677,None,,,,,,,[0.06542857],2.1800000000000015,0.8571428571428571,11008,002,2024_Jan_01_2039,MFTM_A_new1021,2021.2.3,59.700351991229574,
,,,,,,,,stim/Instruction_adaptive.png,conditions/adaptive.xlsx,test,0.6,0.6,0.6,-0.6,-0.6,right,R,,,,,0,1,1,1,0,35,35,98,,,,,,,,,,,,,,,,,,,,,,,,,,,,,,,,,,,,,,,,,,,,221.4884170999867,None,right,1,0.9214947000145912,221.98888489999808,223.9417803999968,221.98888489999808,223.4412328999606,221.98888489999808,223.4412328999606,221.98888489999808,223.4412328999606,221.98888489999808,223.4412328999606,221.98888489999808,223.4412328999606,223.42435809999006,223.9251101000118,223.42435809999006,223.9251101000118,223.42435809999006,223.9251101000118,223.42435809999006,223.9251101000118,223.42435809999006,223.9251101000118,223.42435809999006,223.9251101000118,223.42435809999006,223.9251101000118,223.42435809999006,223.9251101000118,221.98888489999808,None,223.9251101000118,224.02639209997142,1.450000000000001,224.04161549999844,None,224.79380579997087,None,,,,,,,[0.09277778],2.2200000000000015,0.8611111111111112,11008,002,2024_Jan_01_2039,MFTM_A_new1021,2021.2.3,59.700351991229574,
,,,,,,,,stim/Instruction_adaptive.png,conditions/adaptive.xlsx,test,0.6,0.6,0.6,-0.6,-0.6,right,R,,,,,0,1,1,1,0,36,36,44,,,,,,,,,,,,,,,,,,,,,,,,,,,,,,,,,,,,,,,,,,,,225.2939197999658,None,right,1,1.716369699977804,225.79429879999952,227.7142514999723,225.79429879999952,227.21311979996972,225.79429879999952,227.21311979996972,225.79429879999952,227.21311979996972,225.79429879999952,227.21311979996972,225.79429879999952,227.21311979996972,227.17918689997168,227.6810647000093,227.17918689997168,227.6810647000093,227.17918689997168,227.6810647000093,227.17918689997168,227.6810647000093,227.17918689997168,227.6810647000093,227.17918689997168,227.6810647000093,227.17918689997168,227.6810647000093,227.17918689997168,227.6810647000093,225.79429879999952,None,227.6810647000093,227.8134471999947,1.410000000000001,227.83047689998057,None,228.58169109997107,None,,,,,,,[0.11972973],2.2600000000000016,0.8648648648648649,11008,002,2024_Jan_01_2039,MFTM_A_new1021,2021.2.3,59.700351991229574,
,,,,,,,,stim/Instruction_adaptive.png,conditions/adaptive.xlsx,test,0.6,0.6,0.6,-0.6,-0.6,right,R,,,,,0,1,1,1,0,37,37,92,,,,,,,,,,,,,,,,,,,,,,,,,,,,,,,,,,,,,,,,,,,,229.0827072999673,None,left,0,1.7269172999658622,229.58338799997,231.4529536999762,229.58338799997,230.96830790000968,229.58338799997,230.96830790000968,229.58338799997,230.96830790000968,229.58338799997,230.96830790000968,229.58338799997,230.96830790000968,230.93485309998505,231.43605999997817,230.93485309998505,231.43605999997817,230.93485309998505,231.43605999997817,230.93485309998505,231.43605999997817,230.93485309998505,231.43605999997817,230.93485309998505,231.43605999997817,230.93485309998505,231.43605999997817,230.93485309998505,231.43605999997817,229.58338799997,None,231.43605999997817,231.58579859999008,1.370000000000001,231.60166350001236,None,232.35417259996757,None,,,,,,,[0.14631579],2.1500000000000012,0.8421052631578947,11008,002,2024_Jan_01_2039,MFTM_A_new1021,2021.2.3,59.700351991229574,
,,,,,,,,stim/Instruction_adaptive.png,conditions/adaptive.xlsx,test,-0.6,-0.6,-0.6,0.6,0.6,left,L,,,,,0,1,1,1,0,38,38,17,,,,,,,,,,,,,,,,,,,,,,,,,,,,,,,,,,,,,,,,,,,,232.85539879999124,None,right,0,1.8355271000182256,233.354815699975,235.3419785000151,233.354815699975,234.8414066999685,233.354815699975,234.8414066999685,233.354815699975,234.8414066999685,233.354815699975,234.8414066999685,233.354815699975,234.8414066999685,234.8243162999861,235.3252449000138,234.8243162999861,235.3252449000138,234.8243162999861,235.3252449000138,234.8243162999861,235.3252449000138,234.8243162999861,235.3252449000138,234.8243162999861,235.3252449000138,234.8243162999861,235.3252449000138,234.8243162999861,235.3252449000138,233.354815699975,None,235.30861659999937,235.4922204000177,1.480000000000001,235.50823129998753,None,236.25988009996945,None,,,,,,,[0.16871795],2.0400000000000014,0.8205128205128205,11008,002,2024_Jan_01_2039,MFTM_A_new1021,2021.2.3,59.700351991229574,
,,,,,,,,stim/Instruction_adaptive.png,conditions/adaptive.xlsx,test,0.6,0.6,0.6,-0.6,-0.6,right,R,,,,,0,1,1,1,0,39,39,28,,,,,,,,,,,,,,,,,,,,,,,,,,,,,,,,,,,,,,,,,,,,236.76067109999713,None,right,1,1.9705191999673843,237.26068840001244,239.36390120000578,237.26068840001244,238.86287670000456,237.26068840001244,238.86287670000456,237.26068840001244,238.86287670000456,237.26068840001244,238.86287670000456,237.26068840001244,238.86287670000456,238.84642580000218,239.3471930999658,238.84642580000218,239.3471930999658,238.84642580000218,239.3471930999658,238.84642580000218,239.3471930999658,238.84642580000218,239.3471930999658,238.84642580000218,239.3471930999658,238.84642580000218,239.3471930999658,238.84642580000218,239.3471930999658,237.26068840001244,None,239.3471930999658,None,1.6000000000000012,239.5475993999862,None,240.29967979999492,None,,,,,,,[0.187],2.0800000000000014,0.825,11008,002,2024_Jan_01_2039,MFTM_A_new1021,2021.2.3,59.700351991229574,
,,,,,,,,stim/Instruction_adaptive.png,conditions/adaptive.xlsx,test,-0.6,-0.6,-0.6,0.6,0.6,left,L,,,,,0,1,1,1,0,40,40,33,,,,,,,,,,,,,,,,,,,,,,,,,,,,,,,,,,,,,,,,,,,,240.80013270000927,None,left,1,1.9289243000093848,241.30127389996778,243.37037769996095,241.30127389996778,242.86913900001673,241.30127389996778,242.86913900001673,241.30127389996778,242.86913900001673,241.30127389996778,242.86913900001673,241.30127389996778,242.86913900001673,242.83575369999744,243.33680350001669,242.83575369999744,243.33680350001669,242.83575369999744,243.33680350001669,242.83575369999744,243.33680350001669,242.83575369999744,243.33680350001669,242.83575369999744,243.33680350001669,242.83575369999744,243.33680350001669,242.83575369999744,243.33680350001669,241.30127389996778,None,243.33680350001669,243.55416689999402,1.5600000000000012,243.5708293999778,None,244.32205590000376,None,,,,,,,[0.20536585],2.110000000000001,0.8292682926829268,11008,002,2024_Jan_01_2039,MFTM_A_new1021,2021.2.3,59.700351991229574,
,,,,,,,,stim/Instruction_adaptive.png,conditions/adaptive.xlsx,test,-0.6,-0.6,-0.6,0.6,0.6,left,L,,,,,0,1,1,1,0,41,41,25,,,,,,,,,,,,,,,,,,,,,,,,,,,,,,,,,,,,,,,,,,,,244.8225065000006,None,right,0,2.1073165999841876,245.3229815000086,247.34229659999255,245.3229815000086,246.84211550001055,245.3229815000086,246.84211550001055,245.3229815000086,246.84211550001055,245.3229815000086,246.84211550001055,245.3229815000086,246.84211550001055,246.8252264999901,247.3259173000115,246.8252264999901,247.3259173000115,246.8252264999901,247.3259173000115,246.8252264999901,247.3259173000115,246.8252264999901,247.3259173000115,246.8252264999901,247.3259173000115,246.8252264999901,247.3259173000115,246.8252264999901,247.3259173000115,245.3229815000086,None,247.3259173000115,247.55964769999264,1.5200000000000011,247.5760767000029,None,248.32732079998823,None,,,,,,,[0.22380952],2.0100000000000016,0.8095238095238095,11008,002,2024_Jan_01_2039,MFTM_A_new1021,2021.2.3,59.700351991229574,
,,,,,,,,stim/Instruction_adaptive.png,conditions/adaptive.xlsx,test,0.6,0.6,0.6,-0.6,-0.6,right,R,,,,,0,1,1,1,0,42,42,84,,,,,,,,,,,,,,,,,,,,,,,,,,,,,,,,,,,,,,,,,,,,248.82875250000507,None,right,1,0.941266399982851,249.3291876000003,251.4657159000053,249.3291876000003,250.96452689997386,249.3291876000003,250.96452689997386,249.3291876000003,250.96452689997386,249.3291876000003,250.96452689997386,249.3291876000003,250.96452689997386,250.93164209998213,251.431766099995,250.93164209998213,251.431766099995,250.93164209998213,251.431766099995,250.93164209998213,251.431766099995,250.93164209998213,251.431766099995,250.93164209998213,251.431766099995,250.93164209998213,251.431766099995,250.93164209998213,251.431766099995,249.3291876000003,None,251.431766099995,251.68257219996303,1.6300000000000012,251.69868339999812,None,252.4502931999741,None,,,,,,,[0.23883721],2.0400000000000014,0.813953488372093,11008,002,2024_Jan_01_2039,MFTM_A_new1021,2021.2.3,59.700351991229574,
,,,,,,,,stim/Instruction_adaptive.png,conditions/adaptive.xlsx,test,-0.6,-0.6,-0.6,0.6,0.6,left,L,,,,,0,1,1,1,0,43,43,9,,,,,,,,,,,,,,,,,,,,,,,,,,,,,,,,,,,,,,,,,,,,252.95074960001511,None,left,1,1.4110579999978654,253.4514143000124,255.5555800999864,253.4514143000124,255.0538820999791,253.4514143000124,255.0538820999791,253.4514143000124,255.0538820999791,253.4514143000124,255.0538820999791,253.4514143000124,255.0538820999791,255.03816230001394,255.53838649997488,255.03816230001394,255.53838649997488,255.03816230001394,255.53838649997488,255.03816230001394,255.53838649997488,255.03816230001394,255.53838649997488,255.03816230001394,255.53838649997488,255.03816230001394,255.53838649997488,255.03816230001394,255.53838649997488,253.4514143000124,None,255.53838649997488,None,1.6000000000000012,255.80557249998674,None,256.556035000016,None,,,,,,,[0.25386364],2.0800000000000014,0.8181818181818182,11008,002,2024_Jan_01_2039,MFTM_A_new1021,2021.2.3,59.700351991229574,
,,,,,,,,stim/Instruction_adaptive.png,conditions/adaptive.xlsx,test,-0.6,-0.6,-0.6,0.6,0.6,left,L,,,,,0,1,1,1,0,44,44,79,,,,,,,,,,,,,,,,,,,,,,,,,,,,,,,,,,,,,,,,,,,,257.05789270001696,None,left,1,1.1853816999937408,257.55791319999844,259.62734239996644,257.55791319999844,259.1265774999629,257.55791319999844,259.1265774999629,257.55791319999844,259.1265774999629,257.55791319999844,259.1265774999629,257.55791319999844,259.1265774999629,259.09323140000924,259.59532759996364,259.09323140000924,259.59532759996364,259.09323140000924,259.59532759996364,259.09323140000924,259.59532759996364,259.09323140000924,259.59532759996364,259.09323140000924,259.59532759996364,259.09323140000924,259.59532759996364,259.09323140000924,259.59532759996364,257.55791319999844,None,259.59532759996364,259.8783235999872,1.5600000000000012,259.8952871999936,None,260.6459182999679,None,,,,,,,[0.26911111],2.110000000000001,0.8222222222222222,11008,002,2024_Jan_01_2039,MFTM_A_new1021,2021.2.3,59.700351991229574,
,,,,,,,,stim/Instruction_adaptive.png,conditions/adaptive.xlsx,test,-0.6,-0.6,-0.6,0.6,0.6,left,L,,,,,0,1,1,1,0,45,45,41,,,,,,,,,,,,,,,,,,,,,,,,,,,,,,,,,,,,,,,,,,,,261.14670099999057,None,left,1,0.9515714999870397,261.6470103000174,263.66688759997487,261.6470103000174,263.1665684999898,261.6470103000174,263.1665684999898,261.6470103000174,263.1665684999898,261.6470103000174,263.1665684999898,261.6470103000174,263.1665684999898,263.1502917999751,263.6502842999762,263.1502917999751,263.6502842999762,263.1502917999751,263.6502842999762,263.1502917999751,263.6502842999762,263.1502917999751,263.6502842999762,263.1502917999751,263.6502842999762,263.1502917999751,263.6502842999762,263.1502917999751,263.6502842999762,261.6470103000174,None,263.6502842999762,263.9342555999756,1.5200000000000011,263.95047549996525,None,264.7019818999688,None,,,,,,,[0.28456522],2.1500000000000012,0.8260869565217391,11008,002,2024_Jan_01_2039,MFTM_A_new1021,2021.2.3,59.700351991229574,
,,,,,,,,stim/Instruction_adaptive.png,conditions/adaptive.xlsx,test,-0.6,-0.6,-0.6,0.6,0.6,left,L,,,,,0,1,1,1,0,46,46,53,,,,,,,,,,,,,,,,,,,,,,,,,,,,,,,,,,,,,,,,,,,,265.2021943000145,None,left,1,0.9995112000033259,265.70306359999813,267.68927859998075,265.70306359999813,267.1885724000167,265.70306359999813,267.1885724000167,265.70306359999813,267.1885724000167,265.70306359999813,267.1885724000167,265.70306359999813,267.1885724000167,267.17297700000927,267.6738451999845,267.17297700000927,267.6738451999845,267.17297700000927,267.6738451999845,267.17297700000927,267.6738451999845,267.17297700000927,267.6738451999845,267.17297700000927,267.6738451999845,267.17297700000927,267.6738451999845,267.17297700000927,267.6738451999845,265.70306359999813,None,267.6738451999845,267.97303150000516,1.480000000000001,267.98973899998236,None,268.7415079000057,None,,,,,,,[0.30021277],2.1800000000000015,0.8297872340425532,11008,002,2024_Jan_01_2039,MFTM_A_new1021,2021.2.3,59.700351991229574,
,,,,,,,,stim/Instruction_adaptive.png,conditions/adaptive.xlsx,test,0.6,0.6,0.6,-0.6,-0.6,right,R,,,,,0,1,1,1,0,47,47,62,,,,,,,,,,,,,,,,,,,,,,,,,,,,,,,,,,,,,,,,,,,,269.24215679999907,None,right,1,1.0639500999823213,269.7424035000149,271.69501249998575,269.7424035000149,271.19437969999854,269.7424035000149,271.19437969999854,269.7424035000149,271.19437969999854,269.7424035000149,271.19437969999854,269.7424035000149,271.19437969999854,271.1775907999836,271.6792735999916,271.1775907999836,271.6792735999916,271.1775907999836,271.6792735999916,271.1775907999836,271.6792735999916,271.1775907999836,271.6792735999916,271.1775907999836,271.6792735999916,271.1775907999836,271.6792735999916,271.1775907999836,271.6792735999916,269.7424035000149,None,271.6792735999916,271.99593109998386,1.450000000000001,272.0130571000045,None,272.7641403999878,None,,,,,,,[0.31583333],2.2100000000000017,0.8333333333333334,11008,002,2024_Jan_01_2039,MFTM_A_new1021,2021.2.3,59.700351991229574,
,,,,,,,,stim/Instruction_adaptive.png,conditions/adaptive.xlsx,test,-0.6,-0.6,-0.6,0.6,0.6,left,L,,,,,0,1,1,1,0,48,48,77,,,,,,,,,,,,,,,,,,,,,,,,,,,,,,,,,,,,,,,,,,,,273.2644261000096,None,left,1,1.2022277999785729,273.76488470000913,275.6848939000047,273.76488470000913,275.200219499995,273.76488470000913,275.200219499995,273.76488470000913,275.200219499995,273.76488470000913,275.200219499995,273.76488470000913,275.200219499995,275.1668394000153,275.66785679996246,275.1668394000153,275.66785679996246,275.1668394000153,275.66785679996246,275.1668394000153,275.66785679996246,275.1668394000153,275.66785679996246,275.1668394000153,275.66785679996246,275.1668394000153,275.66785679996246,275.1668394000153,275.66785679996246,273.76488470000913,None,275.66785679996246,276.00194240000565,1.420000000000001,276.01824189996114,None,276.7696975999861,None,,,,,,,[0.33142857],2.2400000000000015,0.8367346938775511,11008,002,2024_Jan_01_2039,MFTM_A_new1021,2021.2.3,59.700351991229574,
,,,,,,,,stim/Instruction_adaptive.png,conditions/adaptive.xlsx,test,0.6,0.6,0.6,-0.6,-0.6,right,R,,,,,0,1,1,1,0,49,49,36,,,,,,,,,,,,,,,,,,,,,,,,,,,,,,,,,,,,,,,,,,,,277.27069619996473,None,right,1,1.8033018999849446,277.7710458000074,279.6742806999828,277.7710458000074,279.17337829997996,277.7710458000074,279.17337829997996,277.7710458000074,279.17337829997996,277.7710458000074,279.17337829997996,277.7710458000074,279.17337829997996,279.1402011999744,279.64056279999204,279.1402011999744,279.64056279999204,279.1402011999744,279.64056279999204,279.1402011999744,279.64056279999204,279.1402011999744,279.64056279999204,279.1402011999744,279.64056279999204,279.1402011999744,279.64056279999204,279.1402011999744,279.64056279999204,277.7710458000074,None,279.64056279999204,279.9911359999678,1.390000000000001,280.0073090000078,None,280.75919060001615,None,,,,,,,[0.347],2.2700000000000014,0.84,11008,002,2024_Jan_01_2039,MFTM_A_new1021,2021.2.3,59.700351991229574,
,,,,,,,,stim/Instruction_adaptive.png,conditions/adaptive.xlsx,test,0.6,0.6,0.6,-0.6,-0.6,right,R,,,,,0,1,1,1,0,50,50,18,,,,,,,,,,,,,,,,,,,,,,,,,,,,,,,,,,,,,,,,,,,,281.259568199981,None,left,0,0.8222311999998055,281.7601112999837,283.62985149997985,281.7601112999837,283.12900499999523,281.7601112999837,283.12900499999523,281.7601112999837,283.12900499999523,281.7601112999837,283.12900499999523,281.7601112999837,283.12900499999523,283.0955892999773,283.59622559999116,283.0955892999773,283.59622559999116,283.0955892999773,283.59622559999116,283.0955892999773,283.59622559999116,283.0955892999773,283.59622559999116,283.0955892999773,283.59622559999116,283.0955892999773,283.59622559999116,283.0955892999773,283.59622559999116,281.7601112999837,None,283.59622559999116,283.9641396999941,1.360000000000001,283.9965550999623,None,284.7486915999907,None,,,,,,,[0.36254902],2.1800000000000015,0.8235294117647058,11008,002,2024_Jan_01_2039,MFTM_A_new1021,2021.2.3,59.700351991229574,
,,,,,,,,stim/Instruction_adaptive.png,conditions/adaptive.xlsx,test,0.6,0.6,0.6,-0.6,-0.6,right,R,,,,,0,1,1,1,0,51,51,38,,,,,,,,,,,,,,,,,,,,,,,,,,,,,,,,,,,,,,,,,,,,285.24930029996904,None,right,1,1.809528500016313,285.74937350000255,287.70376130001387,285.74937350000255,287.20148639997933,285.74937350000255,287.20148639997933,285.74937350000255,287.20148639997933,285.74937350000255,287.20148639997933,285.74937350000255,287.20148639997933,287.1850061999867,287.68575140001485,287.1850061999867,287.68575140001485,287.1850061999867,287.68575140001485,287.1850061999867,287.68575140001485,287.1850061999867,287.68575140001485,287.1850061999867,287.68575140001485,287.1850061999867,287.68575140001485,287.1850061999867,287.68575140001485,285.74937350000255,None,287.68575140001485,288.0704785999842,1.450000000000001,288.0859195999801,None,288.8373452000087,None,,,,,,,[0.37576923],2.2100000000000017,0.8269230769230769,11008,002,2024_Jan_01_2039,MFTM_A_new1021,2021.2.3,59.700351991229574,
,,,,,,,,stim/Instruction_adaptive.png,conditions/adaptive.xlsx,test,0.6,0.6,0.6,-0.6,-0.6,right,R,,,,,0,1,1,1,0,52,52,42,,,,,,,,,,,,,,,,,,,,,,,,,,,,,,,,,,,,,,,,,,,,289.33790569996927,None,right,1,0.9758359999977984,289.83883719996084,291.75840180000523,289.83883719996084,291.27429169998504,289.83883719996084,291.27429169998504,289.83883719996084,291.27429169998504,289.83883719996084,291.27429169998504,289.83883719996084,291.27429169998504,291.2408889000071,291.7416872999747,291.2408889000071,291.7416872999747,291.2408889000071,291.7416872999747,291.2408889000071,291.7416872999747,291.2408889000071,291.7416872999747,291.2408889000071,291.7416872999747,291.2408889000071,291.7416872999747,291.2408889000071,291.7416872999747,289.83883719996084,None,291.7416872999747,292.14268819999415,1.420000000000001,292.15949350001756,None,292.910681999987,None,,,,,,,[0.3890566],2.2400000000000015,0.8301886792452831,11008,002,2024_Jan_01_2039,MFTM_A_new1021,2021.2.3,59.700351991229574,
,,,,,,,,stim/Instruction_adaptive.png,conditions/adaptive.xlsx,test,0.6,0.6,0.6,-0.6,-0.6,right,R,,,,,0,1,1,1,0,53,53,24,,,,,,,,,,,,,,,,,,,,,,,,,,,,,,,,,,,,,,,,,,,,293.4106130999862,None,right,1,1.1347374999895692,293.91231360001257,295.8142898000078,293.91231360001257,295.3136802999652,293.91231360001257,295.3136802999652,293.91231360001257,295.3136802999652,293.91231360001257,295.3136802999652,293.91231360001257,295.3136802999652,295.28047080000397,295.78168479999295,295.28047080000397,295.78168479999295,295.28047080000397,295.78168479999295,295.28047080000397,295.78168479999295,295.28047080000397,295.78168479999295,295.28047080000397,295.78168479999295,295.28047080000397,295.78168479999295,295.28047080000397,295.78168479999295,293.91231360001257,None,295.78168479999295,296.19836969999596,1.390000000000001,296.2154018000001,None,296.96684100001585,None,,,,,,,[0.40240741],2.2700000000000014,0.8333333333333334,11008,002,2024_Jan_01_2039,MFTM_A_new1021,2021.2.3,59.700351991229574,
,,,,,,,,stim/Instruction_adaptive.png,conditions/adaptive.xlsx,test,-0.6,-0.6,-0.6,0.6,0.6,left,L,,,,,0,1,1,1,0,54,54,97,,,,,,,,,,,,,,,,,,,,,,,,,,,,,,,,,,,,,,,,,,,,297.466887699964,None,left,1,1.581842500017956,297.9685912000132,299.83714919997146,297.9685912000132,299.3368879999616,297.9685912000132,299.3368879999616,297.9685912000132,299.3368879999616,297.9685912000132,299.3368879999616,297.9685912000132,299.3368879999616,299.3027413999662,299.80436090001604,299.3027413999662,299.80436090001604,299.3027413999662,299.80436090001604,299.3027413999662,299.80436090001604,299.3027413999662,299.80436090001604,299.3027413999662,299.80436090001604,299.3027413999662,299.80436090001604,299.3027413999662,299.80436090001604,297.9685912000132,None,299.80436090001604,300.2215821999707,1.360000000000001,300.2549346999731,None,301.00612179999007,None,,,,,,,[0.41581818],2.3000000000000016,0.8363636363636363,11008,002,2024_Jan_01_2039,MFTM_A_new1021,2021.2.3,59.700351991229574,
,,,,,,,,stim/Instruction_adaptive.png,conditions/adaptive.xlsx,test,-0.6,-0.6,-0.6,0.6,0.6,left,L,,,,,0,1,1,1,0,55,55,39,,,,,,,,,,,,,,,,,,,,,,,,,,,,,,,,,,,,,,,,,,,,301.5061926000053,None,left,1,1.7588360999943689,302.00783179997234,303.8597488999949,302.00783179997234,303.3588892999687,302.00783179997234,303.3588892999687,302.00783179997234,303.3588892999687,302.00783179997234,303.3588892999687,302.00783179997234,303.3588892999687,303.32584289996885,303.826290099998,303.32584289996885,303.826290099998,303.32584289996885,303.826290099998,303.32584289996885,303.826290099998,303.32584289996885,303.826290099998,303.32584289996885,303.826290099998,303.32584289996885,303.826290099998,303.32584289996885,303.826290099998,302.00783179997234,None,303.826290099998,304.2606502000126,1.340000000000001,304.277467900014,None,305.02856249996694,None,,,,,,,[0.42910714],2.3200000000000016,0.8392857142857143,11008,002,2024_Jan_01_2039,MFTM_A_new1021,2021.2.3,59.700351991229574,
,,,,,,,,stim/Instruction_adaptive.png,conditions/adaptive.xlsx,test,-0.6,-0.6,-0.6,0.6,0.6,left,L,,,,,0,1,1,1,0,56,56,31,,,,,,,,,,,,,,,,,,,,,,,,,,,,,,,,,,,,,,,,,,,,305.52959819999523,None,left,1,1.5439828000380658,306.0304817999713,307.8657072999631,306.0304817999713,307.3646775999805,306.0304817999713,307.3646775999805,306.0304817999713,307.3646775999805,306.0304817999713,307.3646775999805,306.0304817999713,307.3646775999805,307.33180549996905,307.8318606999819,307.33180549996905,307.8318606999819,307.33180549996905,307.8318606999819,307.33180549996905,307.8318606999819,307.33180549996905,307.8318606999819,307.33180549996905,307.8318606999819,307.33180549996905,307.8318606999819,307.33180549996905,307.8318606999819,306.0304817999713,None,307.8318606999819,308.283109800017,1.320000000000001,308.29971799999475,None,309.0512148999842,None,,,,,,,[0.4422807],2.3500000000000014,0.8421052631578947,11008,002,2024_Jan_01_2039,MFTM_A_new1021,2021.2.3,59.700351991229574,
,,,,,,,,stim/Instruction_adaptive.png,conditions/adaptive.xlsx,test,-0.6,-0.6,-0.6,0.6,0.6,left,L,,,,,0,1,1,1,0,57,57,83,,,,,,,,,,,,,,,,,,,,,,,,,,,,,,,,,,,,,,,,,,,,309.55149990000064,None,left,1,0.7384297999669798,310.05196609999985,311.8550743999658,310.05196609999985,311.3544780999655,310.05196609999985,311.3544780999655,310.05196609999985,311.3544780999655,310.05196609999985,311.3544780999655,310.05196609999985,311.3544780999655,311.32070099998964,311.82196179998573,311.32070099998964,311.82196179998573,311.32070099998964,311.82196179998573,311.32070099998964,311.82196179998573,311.32070099998964,311.82196179998573,311.32070099998964,311.82196179998573,311.32070099998964,311.82196179998573,311.32070099998964,311.82196179998573,310.05196609999985,None,311.82196179998573,312.2898231999716,1.290000000000001,312.305320399988,None,313.05645709997043,None,,,,,,,[0.45551724],2.370000000000002,0.8448275862068966,11008,002,2024_Jan_01_2039,MFTM_A_new1021,2021.2.3,59.700351991229574,
,,,,,,,,stim/Instruction_adaptive.png,conditions/adaptive.xlsx,test,0.6,0.6,0.6,-0.6,-0.6,right,R,,,,,0,1,1,1,0,58,58,34,,,,,,,,,,,,,,,,,,,,,,,,,,,,,,,,,,,,,,,,,,,,313.557280500012,None,right,1,1.1091821999871172,314.05780790001154,315.82774969999446,314.05780790001154,315.3268995999824,314.05780790001154,315.3268995999824,314.05780790001154,315.3268995999824,314.05780790001154,315.3268995999824,314.05780790001154,315.3268995999824,315.31024759996217,315.81106290000025,315.31024759996217,315.81106290000025,315.31024759996217,315.81106290000025,315.31024759996217,315.81106290000025,315.31024759996217,315.81106290000025,315.31024759996217,315.81106290000025,315.31024759996217,315.81106290000025,315.31024759996217,315.81106290000025,314.05780790001154,None,315.81106290000025,316.2953192999703,1.270000000000001,316.31137539999327,None,317.0625446999911,None,,,,,,,[0.46864407],2.4000000000000017,0.847457627118644,11008,002,2024_Jan_01_2039,MFTM_A_new1021,2021.2.3,59.700351991229574,
,,,,,,,,stim/Instruction_adaptive.png,conditions/adaptive.xlsx,test,0.6,0.6,0.6,-0.6,-0.6,right,R,,,,,0,1,1,1,0,59,59,10,,,,,,,,,,,,,,,,,,,,,,,,,,,,,,,,,,,,,,,,,,,,317.5631110999966,None,right,1,0.9503088999772444,318.0647299999837,319.8166675000102,318.0647299999837,319.31666979996953,318.0647299999837,319.31666979996953,318.0647299999837,319.31666979996953,318.0647299999837,319.31666979996953,318.0647299999837,319.31666979996953,319.2992471999605,319.7997480999911,319.2992471999605,319.7997480999911,319.2992471999605,319.7997480999911,319.2992471999605,319.7997480999911,319.2992471999605,319.7997480999911,319.2992471999605,319.7997480999911,319.2992471999605,319.7997480999911,319.2992471999605,319.7997480999911,318.0647299999837,None,319.7997480999911,320.2851699999883,1.2500000000000009,320.30132500000764,None,321.05251040001167,None,,,,,,,[0.48166667],2.4200000000000017,0.85,11008,002,2024_Jan_01_2039,MFTM_A_new1021,2021.2.3,59.700351991229574,
,,,,,,,,stim/Instruction_adaptive.png,conditions/adaptive.xlsx,test,-0.6,-0.6,-0.6,0.6,0.6,left,L,,,,,0,1,1,1,0,60,60,75,,,,,,,,,,,,,,,,,,,,,,,,,,,,,,,,,,,,,,,,,,,,321.5532038999954,None,left,1,1.2813270000042394,322.0531642999849,323.7894210999948,322.0531642999849,323.28825440001674,322.0531642999849,323.28825440001674,322.0531642999849,323.28825440001674,322.0531642999849,323.28825440001674,322.0531642999849,323.28825440001674,323.2714401999838,323.7733328999602,323.2714401999838,323.7733328999602,323.2714401999838,323.7733328999602,323.2714401999838,323.7733328999602,323.2714401999838,323.7733328999602,323.2714401999838,323.7733328999602,323.2714401999838,323.7733328999602,323.2714401999838,323.7733328999602,322.0531642999849,None,323.7733328999602,324.2736375000095,1.2300000000000009,324.28983600001084,None,325.04197199997725,None,,,,,,,[0.49459016],2.450000000000002,0.8524590163934426,11008,002,2024_Jan_01_2039,MFTM_A_new1021,2021.2.3,59.700351991229574,
,,,,,,,,stim/Instruction_adaptive.png,conditions/adaptive.xlsx,test,0.6,0.6,0.6,-0.6,-0.6,right,R,,,,,0,1,1,1,0,61,61,88,,,,,,,,,,,,,,,,,,,,,,,,,,,,,,,,,,,,,,,,,,,,325.5424652000074,None,left,0,1.5954568999586627,326.0430161000113,327.74522039998556,326.0430161000113,327.24423159996513,326.0430161000113,327.24423159996513,326.0430161000113,327.24423159996513,326.0430161000113,327.24423159996513,326.0430161000113,327.24423159996513,327.2276759999804,327.72898999997415,327.2276759999804,327.72898999997415,327.2276759999804,327.72898999997415,327.2276759999804,327.72898999997415,327.2276759999804,327.72898999997415,327.2276759999804,327.72898999997415,327.2276759999804,327.72898999997415,327.2276759999804,327.72898999997415,326.0430161000113,None,327.72898999997415,328.2459109000047,1.2000000000000008,328.2630665000179,None,329.01425720000407,None,,,,,,,[0.50758065],2.3800000000000017,0.8387096774193549,11008,002,2024_Jan_01_2039,MFTM_A_new1021,2021.2.3,59.700351991229574,
,,,,,,,,stim/Instruction_adaptive.png,conditions/adaptive.xlsx,test,0.6,0.6,0.6,-0.6,-0.6,right,R,,,,,0,1,1,1,0,62,62,50,,,,,,,,,,,,,,,,,,,,,,,,,,,,,,,,,,,,,,,,,,,,329.51446370000485,None,right,1,0.919499299954623,330.01491029997123,331.7848959999974,330.01491029997123,331.2848973000073,330.01491029997123,331.2848973000073,330.01491029997123,331.2848973000073,330.01491029997123,331.2848973000073,330.01491029997123,331.2848973000073,331.2510494000162,331.75161169999046,331.2510494000162,331.75161169999046,331.2510494000162,331.75161169999046,331.2510494000162,331.75161169999046,331.2510494000162,331.75161169999046,331.2510494000162,331.75161169999046,331.2510494000162,331.75161169999046,331.2510494000162,331.75161169999046,330.01491029997123,None,331.75161169999046,332.2865960999625,1.260000000000001,332.30147989996476,None,333.05339349998394,None,,,,,,,[0.51920635],2.4000000000000017,0.8412698412698413,11008,002,2024_Jan_01_2039,MFTM_A_new1021,2021.2.3,59.700351991229574,
,,,,,,,,stim/Instruction_adaptive.png,conditions/adaptive.xlsx,test,0.6,0.6,0.6,-0.6,-0.6,right,R,,,,,0,1,1,1,0,63,63,56,,,,,,,,,,,,,,,,,,,,,,,,,,,,,,,,,,,,,,,,,,,,333.5541901999968,None,right,1,1.6329143999610096,334.05408400000306,335.80682749999687,334.05408400000306,335.3062224999885,334.05408400000306,335.3062224999885,334.05408400000306,335.3062224999885,334.05408400000306,335.3062224999885,334.05408400000306,335.3062224999885,335.29037100001005,335.79002770001534,335.29037100001005,335.79002770001534,335.29037100001005,335.79002770001534,335.29037100001005,335.79002770001534,335.29037100001005,335.79002770001534,335.29037100001005,335.79002770001534,335.29037100001005,335.79002770001534,335.29037100001005,335.79002770001534,334.05408400000306,None,335.79002770001534,336.32518729998264,1.2500000000000009,336.3409166999627,None,337.093068999995,None,,,,,,,[0.530625],2.4300000000000015,0.84375,11008,002,2024_Jan_01_2039,MFTM_A_new1021,2021.2.3,59.700351991229574,
,,,,,,,,stim/Instruction_adaptive.png,conditions/adaptive.xlsx,test,0.6,0.6,0.6,-0.6,-0.6,right,R,,,,,0,1,1,1,0,64,64,74,,,,,,,,,,,,,,,,,,,,,,,,,,,,,,,,,,,,,,,,,,,,337.5927334000007,None,right,1,1.0250744000077248,338.09346599999117,339.8127153000096,338.09346599999117,339.32948189997114,338.09346599999117,339.32948189997114,338.09346599999117,339.32948189997114,338.09346599999117,339.32948189997114,338.09346599999117,339.32948189997114,339.29534399998374,339.7960284000146,339.29534399998374,339.7960284000146,339.29534399998374,339.7960284000146,339.29534399998374,339.7960284000146,339.29534399998374,339.7960284000146,339.29534399998374,339.7960284000146,339.29534399998374,339.7960284000146,339.29534399998374,339.7960284000146,338.09346599999117,None,339.7960284000146,340.34802919998765,1.2200000000000009,340.3636677999748,None,341.11500220000744,None,,,,,,,[0.54215385],2.450000000000002,0.8461538461538461,11008,002,2024_Jan_01_2039,MFTM_A_new1021,2021.2.3,59.700351991229574,
,,,,,,,,stim/Instruction_adaptive.png,conditions/adaptive.xlsx,test,-0.6,-0.6,-0.6,0.6,0.6,left,L,,,,,0,1,1,1,0,65,65,61,,,,,,,,,,,,,,,,,,,,,,,,,,,,,,,,,,,,,,,,,,,,341.6164964999771,None,left,1,1.4986614999943413,342.1165317000123,343.81987880001543,342.1165317000123,343.31865649996325,342.1165317000123,343.31865649996325,342.1165317000123,343.31865649996325,342.1165317000123,343.31865649996325,342.1165317000123,343.31865649996325,343.30121989996405,343.803021300002,343.30121989996405,343.803021300002,343.30121989996405,343.803021300002,343.30121989996405,343.803021300002,343.30121989996405,343.803021300002,343.30121989996405,343.803021300002,343.30121989996405,343.803021300002,343.30121989996405,343.803021300002,342.1165317000123,None,343.803021300002,None,1.2000000000000008,344.37020830000984,None,345.12053710001055,None,,,,,,,[0.55363636],2.4700000000000015,0.8484848484848485,11008,002,2024_Jan_01_2039,MFTM_A_new1021,2021.2.3,59.700351991229574,
,,,,,,,,stim/Instruction_adaptive.png,conditions/adaptive.xlsx,test,0.6,0.6,0.6,-0.6,-0.6,right,R,,,,,0,1,1,1,0,66,66,72,,,,,,,,,,,,,,,,,,,,,,,,,,,,,,,,,,,,,,,,,,,,345.6212988999905,None,right,1,0.8042862999718636,346.12211379996734,347.82493559998693,346.12211379996734,347.32508169999346,346.12211379996734,347.32508169999346,346.12211379996734,347.32508169999346,346.12211379996734,347.32508169999346,346.12211379996734,347.32508169999346,347.29074149997905,347.7914019000018,347.29074149997905,347.7914019000018,347.29074149997905,347.7914019000018,347.29074149997905,347.7914019000018,347.29074149997905,347.7914019000018,347.29074149997905,347.7914019000018,347.29074149997905,347.7914019000018,347.29074149997905,347.7914019000018,346.12211379996734,None,347.7914019000018,348.3591783000156,1.1900000000000008,348.3921752999886,None,349.1443239999935,None,,,,,,,[0.56492537],2.490000000000002,0.8507462686567164,11008,002,2024_Jan_01_2039,MFTM_A_new1021,2021.2.3,59.700351991229574,
,,,,,,,,stim/Instruction_adaptive.png,conditions/adaptive.xlsx,test,0.6,0.6,0.6,-0.6,-0.6,right,R,,,,,0,1,1,1,0,67,67,2,,,,,,,,,,,,,,,,,,,,,,,,,,,,,,,,,,,,,,,,,,,,349.6441656000097,None,right,1,0.9659484000294469,350.14480979996733,351.81462690001354,350.14480979996733,351.3142768999678,350.14480979996733,351.3142768999678,350.14480979996733,351.3142768999678,350.14480979996733,351.3142768999678,350.14480979996733,351.3142768999678,351.2974549999926,351.7979616000084,351.2974549999926,351.7979616000084,351.2974549999926,351.7979616000084,351.2974549999926,351.7979616000084,351.2974549999926,351.7979616000084,351.2974549999926,351.7979616000084,351.2974549999926,351.7979616000084,351.2974549999926,351.7979616000084,350.14480979996733,None,351.7979616000084,352.3825337999733,1.1700000000000008,352.39827900001546,None,353.15065769996727,None,,,,,,,[0.57617647],2.5100000000000016,0.8529411764705882,11008,002,2024_Jan_01_2039,MFTM_A_new1021,2021.2.3,59.700351991229574,
,,,,,,,,stim/Instruction_adaptive.png,conditions/adaptive.xlsx,test,0.6,0.6,0.6,-0.6,-0.6,right,R,,,,,0,1,1,1,0,68,68,86,,,,,,,,,,,,,,,,,,,,,,,,,,,,,,,,,,,,,,,,,,,,353.6502107999986,None,left,0,1.4005387999932282,354.1506968999747,355.8038064999855,354.1506968999747,355.3026957999682,354.1506968999747,355.3026957999682,354.1506968999747,355.3026957999682,354.1506968999747,355.3026957999682,354.1506968999747,355.3026957999682,355.2864581999602,355.78713050001534,355.2864581999602,355.78713050001534,355.2864581999602,355.78713050001534,355.2864581999602,355.78713050001534,355.2864581999602,355.78713050001534,355.2864581999602,355.78713050001534,355.2864581999602,355.78713050001534,355.2864581999602,355.78713050001534,354.1506968999747,None,355.78713050001534,None,1.1500000000000008,356.38710900000297,None,357.139067000011,None,,,,,,,[0.5873913],2.450000000000002,0.8405797101449275,11008,002,2024_Jan_01_2039,MFTM_A_new1021,2021.2.3,59.700351991229574,
,,,,,,,,stim/Instruction_adaptive.png,conditions/adaptive.xlsx,test,-0.6,-0.6,-0.6,0.6,0.6,left,L,,,,,0,1,1,1,0,69,69,51,,,,,,,,,,,,,,,,,,,,,,,,,,,,,,,,,,,,,,,,,,,,357.6392775999848,None,left,1,1.5069775999872945,358.13996359996963,359.84289809997426,358.13996359996963,359.34216489997925,358.13996359996963,359.34216489997925,358.13996359996963,359.34216489997925,358.13996359996963,359.34216489997925,358.13996359996963,359.34216489997925,359.32543540000916,359.8262079000124,359.32543540000916,359.8262079000124,359.32543540000916,359.8262079000124,359.32543540000916,359.8262079000124,359.32543540000916,359.8262079000124,359.32543540000916,359.8262079000124,359.32543540000916,359.8262079000124,359.32543540000916,359.8262079000124,358.13996359996963,None,359.8262079000124,360.42782689997694,1.2000000000000008,360.4438247999642,None,361.19437579996884,None,,,,,,,[0.59757143],2.4700000000000015,0.8428571428571429,11008,002,2024_Jan_01_2039,MFTM_A_new1021,2021.2.3,59.700351991229574,
,,,,,,,,stim/Instruction_adaptive.png,conditions/adaptive.xlsx,test,0.6,0.6,0.6,-0.6,-0.6,right,R,,,,,0,1,1,1,0,70,70,52,,,,,,,,,,,,,,,,,,,,,,,,,,,,,,,,,,,,,,,,,,,,361.6952888999949,None,right,1,0.9224281000206247,362.1961577999755,363.8985076000099,362.1961577999755,363.3985163999605,362.1961577999755,363.3985163999605,362.1961577999755,363.3985163999605,362.1961577999755,363.3985163999605,362.1961577999755,363.3985163999605,363.36495889996877,363.86508239997784,363.36495889996877,363.86508239997784,363.36495889996877,363.86508239997784,363.36495889996877,363.86508239997784,363.36495889996877,363.86508239997784,363.36495889996877,363.86508239997784,363.36495889996877,363.86508239997784,363.36495889996877,363.86508239997784,362.1961577999755,None,363.86508239997784,364.4827329000109,1.1900000000000008,364.49946399999317,None,365.25150249997387,None,,,,,,,[0.60760563],2.490000000000002,0.8450704225352113,11008,002,2024_Jan_01_2039,MFTM_A_new1021,2021.2.3,59.700351991229574,
,,,,,,,,stim/Instruction_adaptive.png,conditions/adaptive.xlsx,test,-0.6,-0.6,-0.6,0.6,0.6,left,L,,,,,0,1,1,1,0,71,71,45,,,,,,,,,,,,,,,,,,,,,,,,,,,,,,,,,,,,,,,,,,,,365.75197759998264,None,right,0,1.5219129999750294,366.25237830000697,367.92185440001776,366.25237830000697,367.437777300016,366.25237830000697,367.437777300016,366.25237830000697,367.437777300016,366.25237830000697,367.437777300016,366.25237830000697,367.437777300016,367.40370739996433,367.90510139998514,367.40370739996433,367.90510139998514,367.40370739996433,367.90510139998514,367.40370739996433,367.90510139998514,367.40370739996433,367.90510139998514,367.40370739996433,367.90510139998514,367.40370739996433,367.90510139998514,367.40370739996433,367.90510139998514,366.25237830000697,None,367.90510139998514,368.5223680000054,1.1700000000000008,368.53875209996477,None,369.2905504999799,None,,,,,,,[0.61763889],2.4300000000000015,0.8333333333333334,11008,002,2024_Jan_01_2039,MFTM_A_new1021,2021.2.3,59.700351991229574,
,,,,,,,,stim/Instruction_adaptive.png,conditions/adaptive.xlsx,test,-0.6,-0.6,-0.6,0.6,0.6,left,L,,,,,0,1,1,1,0,72,72,65,,,,,,,,,,,,,,,,,,,,,,,,,,,,,,,,,,,,,,,,,,,,369.7906670999946,None,left,1,0.7629046999500133,370.29191949998494,372.010530599975,370.29191949998494,371.5266255000024,370.29191949998494,371.5266255000024,370.29191949998494,371.5266255000024,370.29191949998494,371.5266255000024,370.29191949998494,371.5266255000024,371.4933168999851,371.99414650001563,371.4933168999851,371.99414650001563,371.4933168999851,371.99414650001563,371.4933168999851,371.99414650001563,371.4933168999851,371.99414650001563,371.4933168999851,371.99414650001563,371.4933168999851,371.99414650001563,371.4933168999851,371.99414650001563,370.29191949998494,None,371.99414650001563,372.6281913999701,1.2200000000000009,372.6447170000174,None,373.3957243000041,None,,,,,,,[0.62671233],2.450000000000002,0.8356164383561644,11008,002,2024_Jan_01_2039,MFTM_A_new1021,2021.2.3,59.700351991229574,
,,,,,,,,stim/Instruction_adaptive.png,conditions/adaptive.xlsx,test,-0.6,-0.6,-0.6,0.6,0.6,left,L,,,,,0,1,1,1,0,73,73,89,,,,,,,,,,,,,,,,,,,,,,,,,,,,,,,,,,,,,,,,,,,,373.8970096000121,None,left,1,1.0168461999855936,374.39808879996417,376.10084829997504,374.39808879996417,375.5995462000137,374.39808879996417,375.5995462000137,374.39808879996417,375.5995462000137,374.39808879996417,375.5995462000137,374.39808879996417,375.5995462000137,375.5825688999612,376.083148900012,375.5825688999612,376.083148900012,375.5825688999612,376.083148900012,375.5825688999612,376.083148900012,375.5825688999612,376.083148900012,375.5825688999612,376.083148900012,375.5825688999612,376.083148900012,375.5825688999612,376.083148900012,374.39808879996417,None,376.083148900012,376.71765910001704,1.2000000000000008,376.7348717999994,None,377.4861674999702,None,,,,,,,[0.63581081],2.4700000000000015,0.8378378378378378,11008,002,2024_Jan_01_2039,MFTM_A_new1021,2021.2.3,59.700351991229574,
,,,,,,,,stim/Instruction_adaptive.png,conditions/adaptive.xlsx,test,0.6,0.6,0.6,-0.6,-0.6,right,R,,,,,0,1,1,1,0,74,74,68,,,,,,,,,,,,,,,,,,,,,,,,,,,,,,,,,,,,,,,,,,,,377.9864581999718,None,right,1,0.6880793999880552,378.4870508000022,380.1898964999709,378.4870508000022,379.6893757999642,378.4870508000022,379.6893757999642,378.4870508000022,379.6893757999642,378.4870508000022,379.6893757999642,378.4870508000022,379.6893757999642,379.6561270999955,380.1571335999761,379.6561270999955,380.1571335999761,379.6561270999955,380.1571335999761,379.6561270999955,380.1571335999761,379.6561270999955,380.1571335999761,379.6561270999955,380.1571335999761,379.6561270999955,380.1571335999761,379.6561270999955,380.1571335999761,378.4870508000022,None,380.1571335999761,380.80804609996267,1.1900000000000008,380.82349809998414,None,381.575442500005,None,,,,,,,[0.6448],2.490000000000002,0.84,11008,002,2024_Jan_01_2039,MFTM_A_new1021,2021.2.3,59.700351991229574,
,,,,,,,,stim/Instruction_adaptive.png,conditions/adaptive.xlsx,test,-0.6,-0.6,-0.6,0.6,0.6,left,L,,,,,0,1,1,1,0,75,75,7,,,,,,,,,,,,,,,,,,,,,,,,,,,,,,,,,,,,,,,,,,,,382.0757880000165,None,left,1,1.5903034000075422,382.57649229996605,384.24528919998556,382.57649229996605,383.7619886000175,382.57649229996605,383.7619886000175,382.57649229996605,383.7619886000175,382.57649229996605,383.7619886000175,382.57649229996605,383.7619886000175,383.7278567000176,384.22889139998006,383.7278567000176,384.22889139998006,383.7278567000176,384.22889139998006,383.7278567000176,384.22889139998006,383.7278567000176,384.22889139998006,383.7278567000176,384.22889139998006,383.7278567000176,384.22889139998006,383.7278567000176,384.22889139998006,382.57649229996605,None,384.22889139998006,384.8969565000152,1.1700000000000008,384.91292420000536,None,385.6647775999736,None,,,,,,,[0.65381579],2.5100000000000016,0.8421052631578947,11008,002,2024_Jan_01_2039,MFTM_A_new1021,2021.2.3,59.700351991229574,
,,,,,,,,stim/Instruction_adaptive.png,conditions/adaptive.xlsx,test,-0.6,-0.6,-0.6,0.6,0.6,left,L,,,,,0,1,1,1,0,76,76,35,,,,,,,,,,,,,,,,,,,,,,,,,,,,,,,,,,,,,,,,,,,,386.16524599998957,None,left,1,1.4449926999513991,386.6656382000074,388.31829839997226,386.6656382000074,387.81706949998625,386.6656382000074,387.81706949998625,386.6656382000074,387.81706949998625,386.6656382000074,387.81706949998625,386.6656382000074,387.81706949998625,387.80179009999847,388.3016202999861,387.80179009999847,388.3016202999861,387.80179009999847,388.3016202999861,387.80179009999847,388.3016202999861,387.80179009999847,388.3016202999861,387.80179009999847,388.3016202999861,387.80179009999847,388.3016202999861,387.80179009999847,388.3016202999861,386.6656382000074,None,388.3016202999861,388.9697941999766,1.1500000000000008,388.9855700999615,None,389.7373779999907,None,,,,,,,[0.66285714],2.530000000000002,0.8441558441558441,11008,002,2024_Jan_01_2039,MFTM_A_new1021,2021.2.3,59.700351991229574,
,,,,,,,,stim/Instruction_adaptive.png,conditions/adaptive.xlsx,test,0.6,0.6,0.6,-0.6,-0.6,right,R,,,,,0,1,1,1,0,77,77,4,,,,,,,,,,,,,,,,,,,,,,,,,,,,,,,,,,,,,,,,,,,,390.23820479999995,None,right,1,1.4368408999871463,390.73882679996314,392.3917492000037,390.73882679996314,391.89026010001544,390.73882679996314,391.89026010001544,390.73882679996314,391.89026010001544,390.73882679996314,391.89026010001544,390.73882679996314,391.89026010001544,391.8576263000141,392.3601312999963,391.8576263000141,392.3601312999963,391.8576263000141,392.3601312999963,391.8576263000141,392.3601312999963,391.8576263000141,392.3601312999963,391.8576263000141,392.3601312999963,391.8576263000141,392.3601312999963,391.8576263000141,392.3601312999963,390.73882679996314,None,392.3601312999963,393.0425019999966,1.1400000000000008,393.05888209998375,None,393.8100197999738,None,,,,,,,[0.67179487],2.5500000000000016,0.8461538461538461,11008,002,2024_Jan_01_2039,MFTM_A_new1021,2021.2.3,59.700351991229574,
,,,,,,,,stim/Instruction_adaptive.png,conditions/adaptive.xlsx,test,0.6,0.6,0.6,-0.6,-0.6,right,R,,,,,0,1,1,1,0,78,78,96,,,,,,,,,,,,,,,,,,,,,,,,,,,,,,,,,,,,,,,,,,,,394.3101459000027,None,right,1,0.971657200017944,394.81078269996215,396.42975279997336,394.81078269996215,395.9463234000141,394.81078269996215,395.9463234000141,394.81078269996215,395.9463234000141,394.81078269996215,395.9463234000141,394.81078269996215,395.9463234000141,395.91266809997614,396.41339770000195,395.91266809997614,396.41339770000195,395.91266809997614,396.41339770000195,395.91266809997614,396.41339770000195,395.91266809997614,396.41339770000195,395.91266809997614,396.41339770000195,395.91266809997614,396.41339770000195,395.91266809997614,396.41339770000195,394.81078269996215,None,396.41339770000195,397.0978240999975,1.1200000000000008,397.115150299971,None,397.8666723999777,None,,,,,,,[0.68075949],2.570000000000002,0.8481012658227848,11008,002,2024_Jan_01_2039,MFTM_A_new1021,2021.2.3,59.700351991229574,
,,,,,,,,stim/Instruction_adaptive.png,conditions/adaptive.xlsx,test,0.6,0.6,0.6,-0.6,-0.6,right,R,,,,,0,1,1,1,0,79,79,0,,,,,,,,,,,,,,,,,,,,,,,,,,,,,,,,,,,,,,,,,,,,398.3669208000065,None,left,0,1.5160077999462374,398.8671982999658,400.48685320001096,398.8671982999658,399.985543399991,398.8671982999658,399.985543399991,398.8671982999658,399.985543399991,398.8671982999658,399.985543399991,398.8671982999658,399.985543399991,399.9688089999836,400.4705171000096,399.9688089999836,400.4705171000096,399.9688089999836,400.4705171000096,399.9688089999836,400.4705171000096,399.9688089999836,400.4705171000096,399.9688089999836,400.4705171000096,399.9688089999836,400.4705171000096,399.9688089999836,400.4705171000096,398.8671982999658,None,400.45302289997926,401.15472029999364,1.1100000000000008,401.1701215999783,None,401.92187459999695,None,,,,,,,[0.689625],2.5100000000000016,0.8375,11008,002,2024_Jan_01_2039,MFTM_A_new1021,2021.2.3,59.700351991229574,
,,,,,,,,stim/Instruction_adaptive.png,conditions/adaptive.xlsx,test,-0.6,-0.6,-0.6,0.6,0.6,left,L,,,,,0,1,1,1,0,80,80,21,,,,,,,,,,,,,,,,,,,,,,,,,,,,,,,,,,,,,,,,,,,,402.4230169999646,None,left,1,1.1716561000212096,402.9232195999939,404.5758230999927,402.9232195999939,404.0751237999648,402.9232195999939,404.0751237999648,402.9232195999939,404.0751237999648,402.9232195999939,404.0751237999648,402.9232195999939,404.0751237999648,404.0580268999911,404.5590259999735,404.0580268999911,404.5590259999735,404.0580268999911,404.5590259999735,404.0580268999911,404.5590259999735,404.0580268999911,404.5590259999735,404.0580268999911,404.5590259999735,404.0580268999911,404.5590259999735,404.0580268999911,404.5590259999735,402.9232195999939,None,404.5590259999735,405.26046690001385,1.1500000000000008,405.2764689999749,None,406.02847749996,None,,,,,,,[0.69777778],2.530000000000002,0.8395061728395061,11008,002,2024_Jan_01_2039,MFTM_A_new1021,2021.2.3,59.700351991229574,
,,,,,,,,stim/Instruction_adaptive.png,conditions/adaptive.xlsx,test,0.6,0.6,0.6,-0.6,-0.6,right,R,,,,,0,1,1,1,0,81,81,14,,,,,,,,,,,,,,,,,,,,,,,,,,,,,,,,,,,,,,,,,,,,406.5290890999604,None,right,1,1.5448594000190496,407.0297808999894,408.6816177999717,407.0297808999894,408.18142320000334,407.0297808999894,408.18142320000334,407.0297808999894,408.18142320000334,407.0297808999894,408.18142320000334,407.0297808999894,408.18142320000334,408.1475318999728,408.6480918999878,408.1475318999728,408.6480918999878,408.1475318999728,408.6480918999878,408.1475318999728,408.6480918999878,408.1475318999728,408.6480918999878,408.1475318999728,408.6480918999878,408.1475318999728,408.6480918999878,408.1475318999728,408.6480918999878,407.0297808999894,None,408.6480918999878,409.3664640999632,1.1400000000000008,409.38322219997644,None,410.1342295999639,None,,,,,,,[0.70585366],2.5500000000000016,0.8414634146341463,11008,002,2024_Jan_01_2039,MFTM_A_new1021,2021.2.3,59.700351991229574,
,,,,,,,,stim/Instruction_adaptive.png,conditions/adaptive.xlsx,test,-0.6,-0.6,-0.6,0.6,0.6,left,L,,,,,0,1,1,1,0,82,82,43,,,,,,,,,,,,,,,,,,,,,,,,,,,,,,,,,,,,,,,,,,,,410.634395400004,None,right,0,1.1031421000370756,411.1353659000015,412.7547891999711,411.1353659000015,412.2703999999794,411.1353659000015,412.2703999999794,411.1353659000015,412.2703999999794,411.1353659000015,412.2703999999794,411.1353659000015,412.2703999999794,412.2367433999898,412.73838819999946,412.2367433999898,412.73838819999946,412.2367433999898,412.73838819999946,412.2367433999898,412.73838819999946,412.2367433999898,412.73838819999946,412.2367433999898,412.73838819999946,412.2367433999898,412.73838819999946,412.2367433999898,412.73838819999946,411.1353659000015,None,412.73838819999946,413.4553709999891,1.1200000000000008,413.47204319998855,None,414.2238093999913,None,,,,,,,[0.7139759],2.5000000000000018,0.8313253012048193,11008,002,2024_Jan_01_2039,MFTM_A_new1021,2021.2.3,59.700351991229574,
,,,,,,,,stim/Instruction_adaptive.png,conditions/adaptive.xlsx,test,-0.6,-0.6,-0.6,0.6,0.6,left,L,,,,,0,1,1,1,0,83,83,67,,,,,,,,,,,,,,,,,,,,,,,,,,,,,,,,,,,,,,,,,,,,414.7244828999974,None,left,1,1.382462100009434,415.2246419999865,416.8942963000154,415.2246419999865,416.39299189997837,415.2246419999865,416.39299189997837,415.2246419999865,416.39299189997837,415.2246419999865,416.39299189997837,415.2246419999865,416.39299189997837,416.3602994999965,416.8608856999781,416.3602994999965,416.8608856999781,416.3602994999965,416.8608856999781,416.3602994999965,416.8608856999781,416.3602994999965,416.8608856999781,416.3602994999965,416.8608856999781,416.3602994999965,416.8608856999781,416.3602994999965,416.8608856999781,415.2246419999865,None,416.8608856999781,417.5950720999972,1.1600000000000008,417.61151740001515,None,418.3631422999897,None,,,,,,,[0.72142857],2.520000000000002,0.8333333333333334,11008,002,2024_Jan_01_2039,MFTM_A_new1021,2021.2.3,59.700351991229574,
,,,,,,,,stim/Instruction_adaptive.png,conditions/adaptive.xlsx,test,0.6,0.6,0.6,-0.6,-0.6,right,R,,,,,0,1,1,1,0,84,84,20,,,,,,,,,,,,,,,,,,,,,,,,,,,,,,,,,,,,,,,,,,,,418.86413589998847,None,right,1,0.9706138999899849,419.36381429998437,421.0163274999941,419.36381429998437,420.51652599999215,419.36381429998437,420.51652599999215,419.36381429998437,420.51652599999215,419.36381429998437,420.51652599999215,419.36381429998437,420.51652599999215,420.4990115999826,420.99980869999854,420.4990115999826,420.99980869999854,420.4990115999826,420.99980869999854,420.4990115999826,420.99980869999854,420.4990115999826,420.99980869999854,420.4990115999826,420.99980869999854,420.4990115999826,420.99980869999854,420.4990115999826,420.99980869999854,419.36381429998437,None,420.99980869999854,421.73422079999,1.1500000000000008,421.7506970000104,None,422.50193689996377,None,,,,,,,[0.72882353],2.530000000000002,0.8352941176470589,11008,002,2024_Jan_01_2039,MFTM_A_new1021,2021.2.3,59.700351991229574,
,,,,,,,,stim/Instruction_adaptive.png,conditions/adaptive.xlsx,test,0.6,0.6,0.6,-0.6,-0.6,right,R,,,,,0,1,1,1,0,85,85,22,,,,,,,,,,,,,,,,,,,,,,,,,,,,,,,,,,,,,,,,,,,,423.00385669997195,None,left,0,1.831410999991931,423.503488599963,425.156481300015,423.503488599963,424.65608789998805,423.503488599963,424.65608789998805,423.503488599963,424.65608789998805,423.503488599963,424.65608789998805,423.503488599963,424.65608789998805,424.6218223000178,425.12280329997884,424.6218223000178,425.12280329997884,424.6218223000178,425.12280329997884,424.6218223000178,425.12280329997884,424.6218223000178,425.12280329997884,424.6218223000178,425.12280329997884,424.6218223000178,425.12280329997884,424.6218223000178,425.12280329997884,423.503488599963,None,425.12280329997884,425.8739530000021,1.1400000000000008,425.890922599996,None,426.64215959998546,None,,,,,,,[0.73616279],2.4800000000000018,0.8255813953488372,11008,002,2024_Jan_01_2039,MFTM_A_new1021,2021.2.3,59.700351991229574,
,,,,,,,,stim/Instruction_adaptive.png,conditions/adaptive.xlsx,test,-0.6,-0.6,-0.6,0.6,0.6,left,L,,,,,0,1,1,1,0,86,86,73,,,,,,,,,,,,,,,,,,,,,,,,,,,,,,,,,,,,,,,,,,,,427.1421674999874,None,right,0,1.5318945999606512,427.64289049996296,429.3291019999888,427.64289049996296,428.8280928999884,427.64289049996296,428.8280928999884,427.64289049996296,428.8280928999884,427.64289049996296,428.8280928999884,427.64289049996296,428.8280928999884,428.81134929996915,429.3129434000002,428.81134929996915,429.3129434000002,428.81134929996915,429.3129434000002,428.81134929996915,429.3129434000002,428.81134929996915,429.3129434000002,428.81134929996915,429.3129434000002,428.81134929996915,429.3129434000002,428.81134929996915,429.3129434000002,427.64289049996296,None,429.3129434000002,430.0637881999719,1.1800000000000008,430.07987129996764,None,430.8309764000005,None,,,,,,,[0.74287356],2.4300000000000015,0.8160919540229885,11008,002,2024_Jan_01_2039,MFTM_A_new1021,2021.2.3,59.700351991229574,
,,,,,,,,stim/Instruction_adaptive.png,conditions/adaptive.xlsx,test,-0.6,-0.6,-0.6,0.6,0.6,left,L,,,,,0,1,1,1,0,87,87,47,,,,,,,,,,,,,,,,,,,,,,,,,,,,,,,,,,,,,,,,,,,,431.331998699985,None,left,1,2.062303000013344,431.83242960000644,433.5529543000157,431.83242960000644,433.0515294999932,431.83242960000644,433.0515294999932,431.83242960000644,433.0515294999932,431.83242960000644,433.0515294999932,431.83242960000644,433.0515294999932,433.03499469999224,433.53493590001017,433.03499469999224,433.53493590001017,433.03499469999224,433.53493590001017,433.03499469999224,433.53493590001017,433.03499469999224,433.53493590001017,433.03499469999224,433.53493590001017,433.03499469999224,433.53493590001017,433.03499469999224,433.53493590001017,431.83242960000644,None,433.53493590001017,434.2865383999888,1.2200000000000009,434.3031324999756,None,435.0550088000018,None,,,,,,,[0.74897727],2.450000000000002,0.8181818181818182,11008,002,2024_Jan_01_2039,MFTM_A_new1021,2021.2.3,59.700351991229574,
,,,,,,,,stim/Instruction_adaptive.png,conditions/adaptive.xlsx,test,0.6,0.6,0.6,-0.6,-0.6,right,R,,,,,0,1,1,1,0,88,88,40,,,,,,,,,,,,,,,,,,,,,,,,,,,,,,,,,,,,,,,,,,,,435.55536140000913,None,right,1,1.583411999978125,436.0558983999654,437.75830109999515,436.0558983999654,437.25751540000783,436.0558983999654,437.25751540000783,436.0558983999654,437.25751540000783,436.0558983999654,437.25751540000783,436.0558983999654,437.25751540000783,437.2413884999696,437.74232710001525,437.2413884999696,437.74232710001525,437.2413884999696,437.74232710001525,437.2413884999696,437.74232710001525,437.2413884999696,437.74232710001525,437.2413884999696,437.74232710001525,437.2413884999696,437.74232710001525,437.2413884999696,437.74232710001525,436.0558983999654,None,437.74232710001525,438.50959009997314,1.2000000000000008,438.5260014999658,None,439.277326099982,None,,,,,,,[0.75516854],2.4600000000000017,0.8202247191011236,11008,002,2024_Jan_01_2039,MFTM_A_new1021,2021.2.3,59.700351991229574,
,,,,,,,,stim/Instruction_adaptive.png,conditions/adaptive.xlsx,test,-0.6,-0.6,-0.6,0.6,0.6,left,L,,,,,0,1,1,1,0,89,89,57,,,,,,,,,,,,,,,,,,,,,,,,,,,,,,,,,,,,,,,,,,,,439.7780836999882,None,right,0,1.6639922000467777,440.27864909998607,441.9810836999677,440.27864909998607,441.4804390000063,440.27864909998607,441.4804390000063,440.27864909998607,441.4804390000063,440.27864909998607,441.4804390000063,440.27864909998607,441.4804390000063,441.4633867999655,441.964859300002,441.4633867999655,441.964859300002,441.4633867999655,441.964859300002,441.4633867999655,441.964859300002,441.4633867999655,441.964859300002,441.4633867999655,441.964859300002,441.4633867999655,441.964859300002,441.4633867999655,441.964859300002,440.27864909998607,None,441.964859300002,442.7334463999723,1.2000000000000008,442.7485944000073,None,443.49986919999355,None,,,,,,,[0.76122222],2.410000000000002,0.8111111111111111,11008,002,2024_Jan_01_2039,MFTM_A_new1021,2021.2.3,59.700351991229574,
,,,,,,,,stim/Instruction_adaptive.png,conditions/adaptive.xlsx,test,0.6,0.6,0.6,-0.6,-0.6,right,R,,,,,0,1,1,1,0,90,90,12,,,,,,,,,,,,,,,,,,,,,,,,,,,,,,,,,,,,,,,,,,,,444.00073649996193,None,right,1,1.5774831000017002,444.5014910000027,446.254442400008,444.5014910000027,445.754059400002,444.5014910000027,445.754059400002,444.5014910000027,445.754059400002,444.5014910000027,445.754059400002,444.5014910000027,445.754059400002,445.7203366999747,446.22092389996396,445.7203366999747,446.22092389996396,445.7203366999747,446.22092389996396,445.7203366999747,446.22092389996396,445.7203366999747,446.22092389996396,445.7203366999747,446.22092389996396,445.7203366999747,446.22092389996396,445.7203366999747,446.22092389996396,444.5014910000027,None,446.22092389996396,446.988421499962,1.2400000000000009,447.0216357000172,None,447.77380289998837,None,,,,,,,[0.7667033],2.4300000000000015,0.8131868131868132,11008,002,2024_Jan_01_2039,MFTM_A_new1021,2021.2.3,59.700351991229574,
,,,,,,,,stim/Instruction_adaptive.png,conditions/adaptive.xlsx,test,0.6,0.6,0.6,-0.6,-0.6,right,R,,,,,0,1,1,1,0,91,91,60,,,,,,,,,,,,,,,,,,,,,,,,,,,,,,,,,,,,,,,,,,,,448.2742113000131,None,right,1,1.448358100024052,448.7743210999761,450.4945672000176,448.7743210999761,450.009338999982,448.7743210999761,450.009338999982,448.7743210999761,450.009338999982,448.7743210999761,450.009338999982,448.7743210999761,450.009338999982,449.97650669998256,450.4775319999899,449.97650669998256,450.4775319999899,449.97650669998256,450.4775319999899,449.97650669998256,450.4775319999899,449.97650669998256,450.4775319999899,449.97650669998256,450.4775319999899,449.97650669998256,450.4775319999899,449.97650669998256,450.4775319999899,448.7743210999761,None,450.4775319999899,451.2617536999751,1.2200000000000009,451.2779151999857,None,452.02935570001137,None,,,,,,,[0.77228261],2.450000000000002,0.8152173913043478,11008,002,2024_Jan_01_2039,MFTM_A_new1021,2021.2.3,59.700351991229574,
,,,,,,,,stim/Instruction_adaptive.png,conditions/adaptive.xlsx,test,-0.6,-0.6,-0.6,0.6,0.6,left,L,,,,,0,1,1,1,0,92,92,95,,,,,,,,,,,,,,,,,,,,,,,,,,,,,,,,,,,,,,,,,,,,452.53093730000546,None,left,1,0.9597023000242189,453.0308925000136,454.73378569999477,453.0308925000136,454.2323607999715,453.0308925000136,454.2323607999715,453.0308925000136,454.2323607999715,453.0308925000136,454.2323607999715,453.0308925000136,454.2323607999715,454.21645569999237,454.7168029000168,454.21645569999237,454.7168029000168,454.21645569999237,454.7168029000168,454.21645569999237,454.7168029000168,454.21645569999237,454.7168029000168,454.21645569999237,454.7168029000168,454.21645569999237,454.7168029000168,454.21645569999237,454.7168029000168,453.0308925000136,None,454.7168029000168,455.5008253999986,1.2000000000000008,455.5185139999958,None,456.26921150001,None,,,,,,,[0.77795699],2.4600000000000017,0.8172043010752689,11008,002,2024_Jan_01_2039,MFTM_A_new1021,2021.2.3,59.700351991229574,
,,,,,,,,stim/Instruction_adaptive.png,conditions/adaptive.xlsx,test,-0.6,-0.6,-0.6,0.6,0.6,left,L,,,,,0,1,1,1,0,93,93,13,,,,,,,,,,,,,,,,,,,,,,,,,,,,,,,,,,,,,,,,,,,,456.770827499975,None,left,1,1.360378400015179,457.2702835999662,458.9734679000103,457.2702835999662,458.471990799997,457.2702835999662,458.471990799997,457.2702835999662,458.471990799997,457.2702835999662,458.471990799997,457.2702835999662,458.471990799997,458.456346699968,458.9567939999979,458.456346699968,458.9567939999979,458.456346699968,458.9567939999979,458.456346699968,458.9567939999979,458.456346699968,458.9567939999979,458.456346699968,458.9567939999979,458.456346699968,458.9567939999979,458.456346699968,458.9567939999979,457.2702835999662,None,458.9567939999979,459.74177929997677,1.2000000000000008,459.75789750000695,None,460.50917709997157,None,,,,,,,[0.78351064],2.4800000000000018,0.8191489361702128,11008,002,2024_Jan_01_2039,MFTM_A_new1021,2021.2.3,59.700351991229574,
