arrwidth1,arrwidth2,arrwidth3,arrwidth4,arrwidth5,keyb,type,orientation,instruction_image,block_filename,block_type,arrow11,arrow22,arrow33,arrow44,arrow55,keyb_3,orientation3,trials.thisRepN,trials.thisTrialN,trials.thisN,trials.thisIndex,trials_3.thisRepN,trials_3.thisTrialN,trials_3.thisN,trials_3.thisIndex,trials_2.thisRepN,trials_2.thisTrialN,trials_2.thisN,trials_2.thisIndex,welcome.started,welcome.stopped,key_resp.keys,key_resp.rt,key_resp.started,key_resp.stopped,instruction_example.started,instruction_example.stopped,key_resp_3.keys,key_resp_3.rt,key_resp_3.started,key_resp_3.stopped,instruction_task.started,instruction_task.stopped,key_resp_2.keys,key_resp_2.rt,key_resp_2.started,key_resp_2.stopped,text_2.started,text_2.stopped,A1.started,A1.stopped,A2.started,A2.stopped,A3.started,A3.stopped,A4.started,A4.stopped,A5.started,A5.stopped,key_resp_4.keys,key_resp_4.corr,key_resp_4.rt,key_resp_4.started,key_resp_4.stopped,fb.started,fb.stopped,instruction_block.started,instruction_block.stopped,key_resp_8.keys,key_resp_8.rt,key_resp_8.started,key_resp_8.stopped,text_8.started,text_8.stopped,key_resp_9.keys,key_resp_9.corr,key_resp_9.rt,text_5.started,text_5.stopped,A11_3.started,A11_3.stopped,A22_2.started,A22_2.stopped,A33_2.started,A33_2.stopped,A44_2.started,A44_2.stopped,A55_2.started,A55_2.stopped,M1_3.started,M1_3.stopped,M2_2.started,M2_2.stopped,M3_2.started,M3_2.stopped,M4_2.started,M4_2.stopped,M5_2.started,M5_2.stopped,M6_2.started,M6_2.stopped,M7_2.started,M7_2.stopped,M8_2.started,M8_2.stopped,key_resp_9.started,key_resp_9.stopped,fixation.started,fixation.stopped,ET,fb_3.started,fb_3.stopped,text_9.started,text_9.stopped,fb_4.started,fb_4.stopped,text_7.started,text_7.stopped,endtext.started,endtext.stopped,fixation_ITI,CCC,Acc,participant,session,date,expName,psychopyVersion,frameRate,
,,,,,,,,,,,,,,,,,,,,,,,,,,,,,,8.989630000003672,None,space,1.8517706999991788,8.989630000003672,None,,,,,,,,,,,,,,,,,,,,,,,,,,,,,,,,,,,,,,,,,,,,,,,,,,,,,,,,,,,,,,,,,,,,,,,,,,,,,,,,,,,,,,,,,11002,001,2023_Dec_29_1228,MFTM_A_new1021,2021.2.3,60.147336916324235,
,,,,,,,,,,,,,,,,,,,,,,,,,,,,,,,,,,,,10.859445699999924,None,right,31.014573000000382,10.859445699999924,None,,,,,,,,,,,,,,,,,,,,,,,,,,,,,,,,,,,,,,,,,,,,,,,,,,,,,,,,,,,,,,,,,,,,,,,,,,,,,,,,,,,11002,001,2023_Dec_29_1228,MFTM_A_new1021,2021.2.3,60.147336916324235,
,,,,,,,,,,,,,,,,,,,,,,,,,,,,,,,,,,,,,,,,,,41.88860530000238,None,left,9.336979100000462,41.88860530000238,None,,,,,,,,,,,,,,,,,,,,,,,,,,,,,,,,,,,,,,,,,,,,,,,,,,,,,,,,,,,,,,,,,,,,,,,,,,,,,11002,001,2023_Dec_29_1228,MFTM_A_new1021,2021.2.3,60.147336916324235,
0.6,0.6,0.6,-0.6,-0.6,right,3:2,R,,,,,,,,,,,0,0,0,0,,,,,,,,,,,,,,,,,,,,,,,,,,,51.26925520000077,None,51.26925520000077,None,51.26925520000077,None,51.26925520000077,None,51.26925520000077,None,51.26925520000077,None,right,1,1.9082602999988012,51.26925520000077,None,53.22335469999962,None,,,,,,,,,,,,,,,,,,,,,,,,,,,,,,,,,,,,,,,,,,,,,,,,,,,,,,,,,,11002,001,2023_Dec_29_1228,MFTM_A_new1021,2021.2.3,60.147336916324235,
-0.6,-0.6,-0.6,0.6,0.6,left,3:2,L,,,,,,,,,,,0,1,1,1,,,,,,,,,,,,,,,,,,,,,,,,,,,53.973898800002644,None,53.973898800002644,None,53.973898800002644,None,53.973898800002644,None,53.973898800002644,None,53.973898800002644,None,left,1,1.1480364999952144,53.973898800002644,None,55.141522600002645,None,,,,,,,,,,,,,,,,,,,,,,,,,,,,,,,,,,,,,,,,,,,,,,,,,,,,,,,,,,11002,001,2023_Dec_29_1228,MFTM_A_new1021,2021.2.3,60.147336916324235,
0.6,0.6,0.6,-0.6,-0.6,right,3:2,R,,,,,,,,,,,1,0,2,0,,,,,,,,,,,,,,,,,,,,,,,,,,,55.89266879999923,None,55.89266879999923,None,55.89266879999923,None,55.89266879999923,None,55.89266879999923,None,55.89266879999923,None,right,1,1.0288673999966704,55.89266879999923,None,56.94424009999784,None,,,,,,,,,,,,,,,,,,,,,,,,,,,,,,,,,,,,,,,,,,,,,,,,,,,,,,,,,,11002,001,2023_Dec_29_1228,MFTM_A_new1021,2021.2.3,60.147336916324235,
-0.6,-0.6,-0.6,0.6,0.6,left,3:2,L,,,,,,,,,,,1,1,3,1,,,,,,,,,,,,,,,,,,,,,,,,,,,57.69537339999806,None,57.69537339999806,None,57.69537339999806,None,57.69537339999806,None,57.69537339999806,None,57.69537339999806,None,left,1,6.274277099997562,57.69537339999806,None,63.987689400004456,None,,,,,,,,,,,,,,,,,,,,,,,,,,,,,,,,,,,,,,,,,,,,,,,,,,,,,,,,,,11002,001,2023_Dec_29_1228,MFTM_A_new1021,2021.2.3,60.147336916324235,
,,,,,,,,stim/Instruction_mask.png,conditions/adaptive.xlsx,practice,-0.6,-0.6,-0.6,0.6,0.6,left,L,,,,,0,0,0,0,0,0,0,53,,,,,,,,,,,,,,,,,,,,,,,,,,,,,,,,,,,,,,64.98939470000187,None,left,54.828885400005674,64.98939470000187,None,119.90404410000338,None,left,1,2.0141096000006655,120.35540539999784,None,120.35540539999784,123.36049569999886,120.35540539999784,123.36049569999886,120.35540539999784,123.36049569999886,120.35540539999784,123.36049569999886,120.35540539999784,123.36049569999886,123.34260730000096,123.84351569999853,123.34260730000096,123.84351569999853,123.34260730000096,123.84351569999853,123.34260730000096,123.84351569999853,123.34260730000096,123.84351569999853,123.34260730000096,123.84351569999853,123.34260730000096,123.84351569999853,123.34260730000096,123.84351569999853,120.35540539999784,None,123.84351569999853,123.84351569999853,3,123.86004160000448,None,124.61166960000264,None,,,,,,,,,,11002,001,2023_Dec_29_1228,MFTM_A_new1021,2021.2.3,60.147336916324235,
,,,,,,,,stim/Instruction_mask.png,conditions/adaptive.xlsx,practice,0.6,0.6,0.6,-0.6,-0.6,right,R,,,,,0,0,0,0,0,1,1,18,,,,,,,,,,,,,,,,,,,,,,,,,,,,,,,,,,,,,,,,,,,,125.11191230000259,None,right,1,1.4703537000023061,125.61257199999818,127.61659260000306,125.61257199999818,127.11493250000058,125.61257199999818,127.11493250000058,125.61257199999818,127.11493250000058,125.61257199999818,127.11493250000058,125.61257199999818,127.11493250000058,127.09805900000356,127.5995877000023,127.09805900000356,127.5995877000023,127.09805900000356,127.5995877000023,127.09805900000356,127.5995877000023,127.09805900000356,127.5995877000023,127.09805900000356,127.5995877000023,127.09805900000356,127.5995877000023,127.09805900000356,127.5995877000023,125.61257199999818,None,127.5995877000023,129.1021447000021,1.5,129.11778680000134,None,129.869079600001,None,,,,,,,,,,11002,001,2023_Dec_29_1228,MFTM_A_new1021,2021.2.3,60.147336916324235,
,,,,,,,,stim/Instruction_mask.png,conditions/adaptive.xlsx,practice,0.6,0.6,0.6,-0.6,-0.6,right,R,,,,,0,0,0,0,0,2,2,34,,,,,,,,,,,,,,,,,,,,,,,,,,,,,,,,,,,,,,,,,,,,130.36966229999962,None,right,1,1.2351602999988245,130.87052140000014,132.17243930000404,130.87052140000014,131.6715824999992,130.87052140000014,131.6715824999992,130.87052140000014,131.6715824999992,130.87052140000014,131.6715824999992,130.87052140000014,131.6715824999992,131.65475929999957,132.1556941000017,131.65475929999957,132.1556941000017,131.65475929999957,132.1556941000017,131.65475929999957,132.1556941000017,131.65475929999957,132.1556941000017,131.65475929999957,132.1556941000017,131.65475929999957,132.1556941000017,131.65475929999957,132.1556941000017,130.87052140000014,None,132.1556941000017,134.35947010000382,0.8,134.37623809999786,None,135.12664970000333,None,,,,,,,,,,11002,001,2023_Dec_29_1228,MFTM_A_new1021,2021.2.3,60.147336916324235,
,,,,,,,,stim/Instruction_mask.png,conditions/adaptive.xlsx,practice,-0.6,-0.6,-0.6,0.6,0.6,left,L,,,,,0,0,0,0,0,3,3,89,,,,,,,,,,,,,,,,,,,,,,,,,,,,,,,,,,,,,,,,,,,,135.62805640000443,None,left,1,0.6409855000019888,136.12880450000375,136.87937590000365,136.12880450000375,136.37954690000333,136.12880450000375,136.37954690000333,136.12880450000375,136.37954690000333,136.12880450000375,136.37954690000333,136.12880450000375,136.37954690000333,136.36244699999952,136.86287099999754,136.36244699999952,136.86287099999754,136.36244699999952,136.86287099999754,136.36244699999952,136.86287099999754,136.36244699999952,136.86287099999754,136.36244699999952,136.86287099999754,136.36244699999952,136.86287099999754,136.36244699999952,136.86287099999754,136.12880450000375,None,136.86287099999754,139.61735240000417,3,139.6334601999988,None,140.38522080000257,None,,,,,,,,,,11002,001,2023_Dec_29_1228,MFTM_A_new1021,2021.2.3,60.147336916324235,
,,,,,,,,stim/Instruction_mask.png,conditions/adaptive.xlsx,practice,,,,,,,,,,,,0,0,0,0,,,,,,,,,,,,,,,,,,,,,,,,,,,,,,,,,,,,,,,,,,,,,,,,,,,,,,,,,,,,,,,,,,,,,,,,,,,,,,,,,,,,,,,,,,140.90199500000017,141.90454740000132,141.8872463000007,141.8872463000007,141.8872463000007,None,,,,11002,001,2023_Dec_29_1228,MFTM_A_new1021,2021.2.3,60.147336916324235,
,,,,,,,,stim/Instruction_adaptive.png,conditions/adaptive.xlsx,test,0.6,0.6,0.6,-0.6,-0.6,right,R,,,,,0,1,1,1,0,0,0,4,,,,,,,,,,,,,,,,,,,,,,,,,,,,,,,,,,,,,,145.0411183000033,None,space,7.912347899997258,145.0411183000033,None,153.00363690000086,None,right,1,1.866555900000094,153.4874748000002,None,153.4874748000002,156.4917448999986,153.4874748000002,156.4917448999986,153.4874748000002,156.4917448999986,153.4874748000002,156.4917448999986,153.4874748000002,156.4917448999986,156.47625739999785,156.97573849999753,156.47625739999785,156.97573849999753,156.47625739999785,156.97573849999753,156.47625739999785,156.97573849999753,156.47625739999785,156.97573849999753,156.47625739999785,156.97573849999753,156.47625739999785,156.97573849999753,156.47625739999785,156.97573849999753,153.4874748000002,None,156.97573849999753,156.97573849999753,3,156.99261049999768,None,157.7445588000046,None,,,,,,,0,6.000000000000005,1.0,11002,001,2023_Dec_29_1228,MFTM_A_new1021,2021.2.3,60.147336916324235,
,,,,,,,,stim/Instruction_adaptive.png,conditions/adaptive.xlsx,test,-0.6,-0.6,-0.6,0.6,0.6,left,L,,,,,0,1,1,1,0,1,1,73,,,,,,,,,,,,,,,,,,,,,,,,,,,,,,,,,,,,,,,,,,,,158.24427560000186,None,left,1,1.5278912999929162,158.74563380000473,159.49673379999876,158.74563380000473,158.995631400001,158.74563380000473,158.995631400001,158.74563380000473,158.995631400001,158.74563380000473,158.995631400001,158.74563380000473,158.995631400001,158.97941359999822,159.48018559999764,158.97941359999822,159.48018559999764,158.97941359999822,159.48018559999764,158.97941359999822,159.48018559999764,158.97941359999822,159.48018559999764,158.97941359999822,159.48018559999764,158.97941359999822,159.48018559999764,158.97941359999822,159.48018559999764,158.74563380000473,None,159.48018559999764,160.36412640000344,0.25,160.38093980000122,None,161.13243109999894,None,,,,,,,[0.875],6.000000000000005,1.0,11002,001,2023_Dec_29_1228,MFTM_A_new1021,2021.2.3,60.147336916324235,
,,,,,,,,stim/Instruction_adaptive.png,conditions/adaptive.xlsx,test,0.6,0.6,0.6,-0.6,-0.6,right,R,,,,,0,1,1,1,0,2,2,48,,,,,,,,,,,,,,,,,,,,,,,,,,,,,,,,,,,,,,,,,,,,161.63308910000342,None,right,1,0.8359708999996656,162.1335448000027,162.88449660000333,162.1335448000027,162.38436889999866,162.1335448000027,162.38436889999866,162.1335448000027,162.38436889999866,162.1335448000027,162.38436889999866,162.1335448000027,162.38436889999866,162.36850060000143,162.86807570000383,162.36850060000143,162.86807570000383,162.36850060000143,162.86807570000383,162.36850060000143,162.86807570000383,162.36850060000143,162.86807570000383,162.36850060000143,162.86807570000383,162.36850060000143,162.86807570000383,162.36850060000143,162.86807570000383,162.1335448000027,None,162.86807570000383,164.2031586000012,0.25,164.2198819000041,None,164.97150780000084,None,,,,,,,[1.33333333],6.000000000000005,1.0,11002,001,2023_Dec_29_1228,MFTM_A_new1021,2021.2.3,60.147336916324235,
,,,,,,,,stim/Instruction_adaptive.png,conditions/adaptive.xlsx,test,-0.6,-0.6,-0.6,0.6,0.6,left,L,,,,,0,1,1,1,0,3,3,59,,,,,,,,,,,,,,,,,,,,,,,,,,,,,,,,,,,,,,,,,,,,165.47298990000127,None,left,1,1.1176510000004782,165.97246830000222,166.72395289999986,165.97246830000222,166.2234638000009,165.97246830000222,166.2234638000009,165.97246830000222,166.2234638000009,165.97246830000222,166.2234638000009,165.97246830000222,166.2234638000009,166.20619820000138,166.70772289999877,166.20619820000138,166.70772289999877,166.20619820000138,166.70772289999877,166.20619820000138,166.70772289999877,166.20619820000138,166.70772289999877,166.20619820000138,166.70772289999877,166.20619820000138,166.70772289999877,166.20619820000138,166.70772289999877,165.97246830000222,None,166.70772289999877,168.27658150000207,0.25,168.29323280000244,None,169.0443335000018,None,,,,,,,[1.5625],6.000000000000005,1.0,11002,001,2023_Dec_29_1228,MFTM_A_new1021,2021.2.3,60.147336916324235,
,,,,,,,,stim/Instruction_adaptive.png,conditions/adaptive.xlsx,test,0.6,0.6,0.6,-0.6,-0.6,right,R,,,,,0,1,1,1,0,4,4,72,,,,,,,,,,,,,,,,,,,,,,,,,,,,,,,,,,,,,,,,,,,,169.54493000000366,None,right,1,1.2112801000039326,170.0463127000039,170.79628519999824,170.0463127000039,170.29548310000246,170.0463127000039,170.29548310000246,170.0463127000039,170.29548310000246,170.0463127000039,170.29548310000246,170.0463127000039,170.29548310000246,170.27882030000183,170.77961330000107,170.27882030000183,170.77961330000107,170.27882030000183,170.77961330000107,170.27882030000183,170.77961330000107,170.27882030000183,170.77961330000107,170.27882030000183,170.77961330000107,170.27882030000183,170.77961330000107,170.27882030000183,170.77961330000107,170.0463127000039,None,170.77961330000107,172.48274870000023,0.25,172.49878829999943,None,173.2500990999979,None,,,,,,,[1.7],6.000000000000005,1.0,11002,001,2023_Dec_29_1228,MFTM_A_new1021,2021.2.3,60.147336916324235,
,,,,,,,,stim/Instruction_adaptive.png,conditions/adaptive.xlsx,test,-0.6,-0.6,-0.6,0.6,0.6,left,L,,,,,0,1,1,1,0,5,5,19,,,,,,,,,,,,,,,,,,,,,,,,,,,,,,,,,,,,,,,,,,,,173.75069660000008,None,left,1,0.8297934999936842,174.25169720000122,175.00273390000075,174.25169720000122,174.50170380000054,174.25169720000122,174.50170380000054,174.25169720000122,174.50170380000054,174.25169720000122,174.50170380000054,174.25169720000122,174.50170380000054,174.48502620000363,174.9860389000023,174.48502620000363,174.9860389000023,174.48502620000363,174.9860389000023,174.48502620000363,174.9860389000023,174.48502620000363,174.9860389000023,174.48502620000363,174.9860389000023,174.48502620000363,174.9860389000023,174.48502620000363,174.9860389000023,174.25169720000122,None,174.9860389000023,176.78972140000405,0.25,176.80516060000082,None,177.55743169999914,None,,,,,,,[1.79166667],6.000000000000005,1.0,11002,001,2023_Dec_29_1228,MFTM_A_new1021,2021.2.3,60.147336916324235,
,,,,,,,,stim/Instruction_adaptive.png,conditions/adaptive.xlsx,test,0.6,0.6,0.6,-0.6,-0.6,right,R,,,,,0,1,1,1,0,6,6,74,,,,,,,,,,,,,,,,,,,,,,,,,,,,,,,,,,,,,,,,,,,,178.05772360000265,None,left,0,1.002446600003168,178.55926429999818,179.3097768000007,178.55926429999818,178.80936569999903,178.55926429999818,178.80936569999903,178.55926429999818,178.80936569999903,178.55926429999818,178.80936569999903,178.55926429999818,178.80936569999903,178.79301880000276,179.29253450000397,178.79301880000276,179.29253450000397,178.79301880000276,179.29253450000397,178.79301880000276,179.29253450000397,178.79301880000276,179.29253450000397,178.79301880000276,179.29253450000397,178.79301880000276,179.29253450000397,178.79301880000276,179.29253450000397,178.55926429999818,None,179.29253450000397,181.1616436999975,0.25,181.1775998000012,None,181.93015880000166,None,,,,,,,[1.85714286],5.380000000000004,0.8571428571428571,11002,001,2023_Dec_29_1228,MFTM_A_new1021,2021.2.3,60.147336916324235,
,,,,,,,,stim/Instruction_adaptive.png,conditions/adaptive.xlsx,test,0.6,0.6,0.6,-0.6,-0.6,right,R,,,,,0,1,1,1,0,7,7,26,,,,,,,,,,,,,,,,,,,,,,,,,,,,,,,,,,,,,,,,,,,,182.43122720000247,None,right,1,1.093859499997052,182.93166740000015,183.68204379999952,182.93166740000015,183.18195130000095,182.93166740000015,183.18195130000095,182.93166740000015,183.18195130000095,182.93166740000015,183.18195130000095,182.93166740000015,183.18195130000095,183.1654983999979,183.6653798999978,183.1654983999979,183.6653798999978,183.1654983999979,183.6653798999978,183.1654983999979,183.6653798999978,183.1654983999979,183.6653798999978,183.1654983999979,183.6653798999978,183.1654983999979,183.6653798999978,183.1654983999979,183.6653798999978,182.93166740000015,None,183.6653798999978,185.58586830000422,0.25,185.60140110000066,None,186.35370649999822,None,,,,,,,[1.90625],5.570000000000005,0.875,11002,001,2023_Dec_29_1228,MFTM_A_new1021,2021.2.3,60.147336916324235,
,,,,,,,,stim/Instruction_adaptive.png,conditions/adaptive.xlsx,test,0.6,0.6,0.6,-0.6,-0.6,right,R,,,,,0,1,1,1,0,8,8,82,,,,,,,,,,,,,,,,,,,,,,,,,,,,,,,,,,,,,,,,,,,,186.85346369999752,None,right,1,1.3917071000032593,187.35408750000352,188.10562619999837,187.35408750000352,187.60568469999998,187.35408750000352,187.60568469999998,187.35408750000352,187.60568469999998,187.35408750000352,187.60568469999998,187.35408750000352,187.60568469999998,187.58848330000183,188.0891094000035,187.58848330000183,188.0891094000035,187.58848330000183,188.0891094000035,187.58848330000183,188.0891094000035,187.58848330000183,188.0891094000035,187.58848330000183,188.0891094000035,187.58848330000183,188.0891094000035,187.58848330000183,188.0891094000035,187.35408750000352,None,188.0891094000035,190.04235380000318,0.25,190.05805250000412,None,190.8098164000039,None,,,,,,,[1.94444444],5.720000000000004,0.8888888888888888,11002,001,2023_Dec_29_1228,MFTM_A_new1021,2021.2.3,60.147336916324235,
,,,,,,,,stim/Instruction_adaptive.png,conditions/adaptive.xlsx,test,0.6,0.6,0.6,-0.6,-0.6,right,R,,,,,0,1,1,1,0,9,9,56,,,,,,,,,,,,,,,,,,,,,,,,,,,,,,,,,,,,,,,,,,,,191.3105016000045,None,left,0,1.0787022000004072,191.81085249999887,192.56325160000415,191.81085249999887,192.06164960000024,191.81085249999887,192.06164960000024,191.81085249999887,192.06164960000024,191.81085249999887,192.06164960000024,191.81085249999887,192.06164960000024,192.0450736999992,192.545993300002,192.0450736999992,192.545993300002,192.0450736999992,192.545993300002,192.0450736999992,192.545993300002,192.0450736999992,192.545993300002,192.0450736999992,192.545993300002,192.0450736999992,192.545993300002,192.0450736999992,192.545993300002,191.81085249999887,None,192.545993300002,194.53246980000404,0.25,194.54876630000217,None,195.30013540000073,None,,,,,,,[1.975],4.940000000000004,0.8,11002,001,2023_Dec_29_1228,MFTM_A_new1021,2021.2.3,60.147336916324235,
,,,,,,,,stim/Instruction_adaptive.png,conditions/adaptive.xlsx,test,0.6,0.6,0.6,-0.6,-0.6,right,R,,,,,0,1,1,1,0,10,10,90,,,,,,,,,,,,,,,,,,,,,,,,,,,,,,,,,,,,,,,,,,,,195.80002120000427,None,right,1,2.6283685000016703,196.3012022000039,197.05243820000032,196.3012022000039,196.5522018000047,196.3012022000039,196.5522018000047,196.3012022000039,196.5522018000047,196.3012022000039,196.5522018000047,196.3012022000039,196.5522018000047,196.5345204999976,197.03516559999844,196.5345204999976,197.03516559999844,196.5345204999976,197.03516559999844,196.5345204999976,197.03516559999844,196.5345204999976,197.03516559999844,196.5345204999976,197.03516559999844,196.5345204999976,197.03516559999844,196.5345204999976,197.03516559999844,196.3012022000039,None,197.03516559999844,199.03816399999778,0.25,199.05483000000095,None,199.80658830000175,None,,,,,,,[2.],5.1200000000000045,0.8181818181818182,11002,001,2023_Dec_29_1228,MFTM_A_new1021,2021.2.3,60.147336916324235,
,,,,,,,,stim/Instruction_adaptive.png,conditions/adaptive.xlsx,test,-0.6,-0.6,-0.6,0.6,0.6,left,L,,,,,0,1,1,1,0,11,11,7,,,,,,,,,,,,,,,,,,,,,,,,,,,,,,,,,,,,,,,,,,,,200.3066977999988,None,left,1,2.835101800003031,200.80717000000004,201.55928480000148,200.80717000000004,201.05803110000124,200.80717000000004,201.05803110000124,200.80717000000004,201.05803110000124,200.80717000000004,201.05803110000124,200.80717000000004,201.05803110000124,201.04103630000463,201.5415626000031,201.04103630000463,201.5415626000031,201.04103630000463,201.5415626000031,201.04103630000463,201.5415626000031,201.04103630000463,201.5415626000031,201.04103630000463,201.5415626000031,201.04103630000463,201.5415626000031,201.04103630000463,201.5415626000031,200.80717000000004,None,201.5415626000031,203.6615266000008,0.25,203.67834920000314,None,204.43018570000277,None,,,,,,,[2.02083333],5.260000000000004,0.8333333333333334,11002,001,2023_Dec_29_1228,MFTM_A_new1021,2021.2.3,60.147336916324235,
,,,,,,,,stim/Instruction_adaptive.png,conditions/adaptive.xlsx,test,-0.6,-0.6,-0.6,0.6,0.6,left,L,,,,,0,1,1,1,0,12,12,77,,,,,,,,,,,,,,,,,,,,,,,,,,,,,,,,,,,,,,,,,,,,204.9308286000014,None,right,0,2.2899735999963013,205.43148230000224,206.18201370000315,205.43148230000224,205.68203960000392,205.43148230000224,205.68203960000392,205.43148230000224,205.68203960000392,205.43148230000224,205.68203960000392,205.43148230000224,205.68203960000392,205.66518080000242,206.16598930000328,205.66518080000242,206.16598930000328,205.66518080000242,206.16598930000328,205.66518080000242,206.16598930000328,205.66518080000242,206.16598930000328,205.66518080000242,206.16598930000328,205.66518080000242,206.16598930000328,205.66518080000242,206.16598930000328,205.43148230000224,None,206.16598930000328,208.21915040000022,0.25,208.2350482000038,None,208.98656270000356,None,,,,,,,[2.03846154],4.720000000000004,0.7692307692307693,11002,001,2023_Dec_29_1228,MFTM_A_new1021,2021.2.3,60.147336916324235,
,,,,,,,,stim/Instruction_adaptive.png,conditions/adaptive.xlsx,test,0.6,0.6,0.6,-0.6,-0.6,right,R,,,,,0,1,1,1,0,13,13,44,,,,,,,,,,,,,,,,,,,,,,,,,,,,,,,,,,,,,,,,,,,,209.48749359999783,None,left,0,1.3178692999936175,209.98835659999895,210.73877509999875,209.98835659999895,210.23795319999772,209.98835659999895,210.23795319999772,209.98835659999895,210.23795319999772,209.98835659999895,210.23795319999772,209.98835659999895,210.23795319999772,210.22206410000217,210.7230486999979,210.22206410000217,210.7230486999979,210.22206410000217,210.7230486999979,210.22206410000217,210.7230486999979,210.22206410000217,210.7230486999979,210.22206410000217,210.7230486999979,210.22206410000217,210.7230486999979,210.22206410000217,210.7230486999979,209.98835659999895,None,210.7230486999979,None,0.25,212.79172870000184,None,213.54341930000373,None,,,,,,,[2.05357143],4.2100000000000035,0.7142857142857143,11002,001,2023_Dec_29_1228,MFTM_A_new1021,2021.2.3,60.147336916324235,
,,,,,,,,stim/Instruction_adaptive.png,conditions/adaptive.xlsx,test,-0.6,-0.6,-0.6,0.6,0.6,left,L,,,,,0,1,1,1,0,14,14,41,,,,,,,,,,,,,,,,,,,,,,,,,,,,,,,,,,,,,,,,,,,,214.04359900000418,None,right,0,1.4184891999975662,214.54427679999935,215.41268839999975,214.54427679999935,214.91167010000208,214.54427679999935,214.91167010000208,214.54427679999935,214.91167010000208,214.54427679999935,214.91167010000208,214.54427679999935,214.91167010000208,214.89544030000252,215.39583790000324,214.89544030000252,215.39583790000324,214.89544030000252,215.39583790000324,214.89544030000252,215.39583790000324,214.89544030000252,215.39583790000324,214.89544030000252,215.39583790000324,214.89544030000252,215.39583790000324,214.89544030000252,215.39583790000324,214.54427679999935,None,215.39583790000324,None,0.3600000000000001,217.46609639999951,None,218.21719180000218,None,,,,,,,[2.05933333],3.5200000000000027,0.6666666666666666,11002,001,2023_Dec_29_1228,MFTM_A_new1021,2021.2.3,60.147336916324235,
,,,,,,,,stim/Instruction_adaptive.png,conditions/adaptive.xlsx,test,-0.6,-0.6,-0.6,0.6,0.6,left,L,,,,,0,1,1,1,0,15,15,21,,,,,,,,,,,,,,,,,,,,,,,,,,,,,,,,,,,,,,,,,,,,218.71785819999786,None,left,1,2.7755426000003354,219.21837909999886,220.30314799999906,219.21837909999886,219.80218859999877,219.21837909999886,219.80218859999877,219.21837909999886,219.80218859999877,219.21837909999886,219.80218859999877,219.21837909999886,219.80218859999877,219.76899350000167,220.27070520000416,219.76899350000167,220.27070520000416,219.76899350000167,220.27070520000416,219.76899350000167,220.27070520000416,219.76899350000167,220.27070520000416,219.76899350000167,220.27070520000416,219.76899350000167,220.27070520000416,219.76899350000167,220.27070520000416,219.21837909999886,None,220.27070520000416,222.2066038999983,0.5700000000000003,222.22252450000087,None,222.97448520000034,None,,,,,,,[[1.93]],3.810000000000003,0.6875,11002,001,2023_Dec_29_1228,MFTM_A_new1021,2021.2.3,60.147336916324235,
,,,,,,,,stim/Instruction_adaptive.png,conditions/adaptive.xlsx,test,-0.6,-0.6,-0.6,0.6,0.6,left,L,,,,,0,1,1,1,0,16,16,69,,,,,,,,,,,,,,,,,,,,,,,,,,,,,,,,,,,,,,,,,,,,223.47443670000212,None,right,0,2.1070046999957412,223.97503680000227,224.9598513000019,223.97503680000227,224.4590629000013,223.97503680000227,224.4590629000013,223.97503680000227,224.4590629000013,223.97503680000227,224.4590629000013,223.97503680000227,224.4590629000013,224.4257957000009,224.92702599999757,224.4257957000009,224.92702599999757,224.4257957000009,224.92702599999757,224.4257957000009,224.92702599999757,224.4257957000009,224.92702599999757,224.4257957000009,224.92702599999757,224.4257957000009,224.92702599999757,224.4257957000009,224.92702599999757,223.97503680000227,None,224.92702599999757,226.9635361000037,0.4700000000000002,226.97954279999976,None,227.7309103000007,None,,,,,,,[[2.03]],3.110000000000002,0.6470588235294118,11002,001,2023_Dec_29_1228,MFTM_A_new1021,2021.2.3,60.147336916324235,
,,,,,,,,stim/Instruction_adaptive.png,conditions/adaptive.xlsx,test,-0.6,-0.6,-0.6,0.6,0.6,left,L,,,,,0,1,1,1,0,17,17,25,,,,,,,,,,,,,,,,,,,,,,,,,,,,,,,,,,,,,,,,,,,,228.23143379999965,None,left,1,2.2133650000032503,228.7322204000011,230.001651999999,228.7322204000011,229.5002089000045,228.7322204000011,229.5002089000045,228.7322204000011,229.5002089000045,228.7322204000011,229.5002089000045,228.7322204000011,229.5002089000045,229.48355260000244,229.9843062,229.48355260000244,229.9843062,229.48355260000244,229.9843062,229.48355260000244,229.9843062,229.48355260000244,229.9843062,229.48355260000244,229.9843062,229.48355260000244,229.9843062,229.48355260000244,229.9843062,228.7322204000011,None,229.9843062,None,0.7600000000000005,231.73651090000203,None,232.48803020000196,None,,,,,,,[[1.74]],3.410000000000003,0.6666666666666666,11002,001,2023_Dec_29_1228,MFTM_A_new1021,2021.2.3,60.147336916324235,
,,,,,,,,stim/Instruction_adaptive.png,conditions/adaptive.xlsx,test,-0.6,-0.6,-0.6,0.6,0.6,left,L,,,,,0,1,1,1,0,18,18,61,,,,,,,,,,,,,,,,,,,,,,,,,,,,,,,,,,,,,,,,,,,,232.98899820000224,None,right,0,1.5123590000002878,233.4895039000039,234.62455439999758,233.4895039000039,234.1242689999999,233.4895039000039,234.1242689999999,233.4895039000039,234.1242689999999,233.4895039000039,234.1242689999999,233.4895039000039,234.1242689999999,234.09045660000265,234.59080080000422,234.09045660000265,234.59080080000422,234.09045660000265,234.59080080000422,234.09045660000265,234.59080080000422,234.09045660000265,234.59080080000422,234.09045660000265,234.59080080000422,234.09045660000265,234.59080080000422,234.09045660000265,234.59080080000422,233.4895039000039,None,234.59080080000422,236.47720729999855,0.6200000000000003,236.49417769999854,None,237.24514830000408,None,,,,,,,[[1.88]],2.7100000000000017,0.631578947368421,11002,001,2023_Dec_29_1228,MFTM_A_new1021,2021.2.3,60.147336916324235,
,,,,,,,,stim/Instruction_adaptive.png,conditions/adaptive.xlsx,test,0.6,0.6,0.6,-0.6,-0.6,right,R,,,,,0,1,1,1,0,19,19,88,,,,,,,,,,,,,,,,,,,,,,,,,,,,,,,,,,,,,,,,,,,,237.74589440000273,None,right,1,2.811843900002714,238.24625390000438,239.7663973000017,238.24625390000438,239.26442040000256,238.24625390000438,239.26442040000256,238.24625390000438,239.26442040000256,238.24625390000438,239.26442040000256,238.24625390000438,239.26442040000256,239.24836900000082,239.7483016000042,239.24836900000082,239.7483016000042,239.24836900000082,239.7483016000042,239.24836900000082,239.7483016000042,239.24836900000082,239.7483016000042,239.24836900000082,239.7483016000042,239.24836900000082,239.7483016000042,239.24836900000082,239.7483016000042,238.24625390000438,None,239.7483016000042,None,1.0100000000000007,241.25043130000267,None,242.00243890000274,None,,,,,,,[[1.49]],3.0100000000000025,0.65,11002,001,2023_Dec_29_1228,MFTM_A_new1021,2021.2.3,60.147336916324235,
,,,,,,,,stim/Instruction_adaptive.png,conditions/adaptive.xlsx,test,0.6,0.6,0.6,-0.6,-0.6,right,R,,,,,0,1,1,1,0,20,20,66,,,,,,,,,,,,,,,,,,,,,,,,,,,,,,,,,,,,,,,,,,,,242.5024723000024,None,right,1,1.7188540999995894,243.00304640000104,244.32271230000333,243.00304640000104,243.8386223999987,243.00304640000104,243.8386223999987,243.00304640000104,243.8386223999987,243.00304640000104,243.8386223999987,243.00304640000104,243.8386223999987,243.80501180000283,244.30585399999836,243.80501180000283,244.30585399999836,243.80501180000283,244.30585399999836,243.80501180000283,244.30585399999836,243.80501180000283,244.30585399999836,243.80501180000283,244.30585399999836,243.80501180000283,244.30585399999836,243.80501180000283,244.30585399999836,243.00304640000104,None,244.30585399999836,245.990933699999,0.8200000000000005,246.00794250000035,None,246.75947779999842,None,,,,,,,[[1.68]],3.230000000000002,0.6666666666666666,11002,001,2023_Dec_29_1228,MFTM_A_new1021,2021.2.3,60.147336916324235,
,,,,,,,,stim/Instruction_adaptive.png,conditions/adaptive.xlsx,test,-0.6,-0.6,-0.6,0.6,0.6,left,L,,,,,0,1,1,1,0,21,21,37,,,,,,,,,,,,,,,,,,,,,,,,,,,,,,,,,,,,,,,,,,,,247.25963570000022,None,right,0,2.0968682000020635,247.76075750000018,248.96210640000209,247.76075750000018,248.46240340000077,247.76075750000018,248.46240340000077,247.76075750000018,248.46240340000077,247.76075750000018,248.46240340000077,247.76075750000018,248.46240340000077,248.44471239999984,248.946059599999,248.44471239999984,248.946059599999,248.44471239999984,248.946059599999,248.44471239999984,248.946059599999,248.44471239999984,248.946059599999,248.44471239999984,248.946059599999,248.44471239999984,248.946059599999,248.44471239999984,248.946059599999,247.76075750000018,None,248.946059599999,250.74929960000009,0.7000000000000004,250.76474009999947,None,251.51583779999783,None,,,,,,,[[1.8]],2.680000000000002,0.6363636363636364,11002,001,2023_Dec_29_1228,MFTM_A_new1021,2021.2.3,60.147336916324235,
,,,,,,,,stim/Instruction_adaptive.png,conditions/adaptive.xlsx,test,-0.6,-0.6,-0.6,0.6,0.6,left,L,,,,,0,1,1,1,0,22,22,79,,,,,,,,,,,,,,,,,,,,,,,,,,,,,,,,,,,,,,,,,,,,252.01721340000222,None,left,1,1.7803601000050548,252.51735380000173,254.05331580000347,252.51735380000173,253.5529811000015,252.51735380000173,253.5529811000015,252.51735380000173,253.5529811000015,252.51735380000173,253.5529811000015,252.51735380000173,253.5529811000015,253.53617659999873,254.03691000000254,253.53617659999873,254.03691000000254,253.53617659999873,254.03691000000254,253.53617659999873,254.03691000000254,253.53617659999873,254.03691000000254,253.53617659999873,254.03691000000254,253.53617659999873,254.03691000000254,253.53617659999873,254.03691000000254,252.51735380000173,None,254.03691000000254,None,1.0300000000000007,255.52173720000428,None,256.27348509999865,None,,,,,,,[[1.47]],2.900000000000002,0.6521739130434783,11002,001,2023_Dec_29_1228,MFTM_A_new1021,2021.2.3,60.147336916324235,
,,,,,,,,stim/Instruction_adaptive.png,conditions/adaptive.xlsx,test,0.6,0.6,0.6,-0.6,-0.6,right,R,,,,,0,1,1,1,0,23,23,22,,,,,,,,,,,,,,,,,,,,,,,,,,,,,,,,,,,,,,,,,,,,256.7745128000024,None,right,1,2.038949399997364,257.27483049999864,258.6598651000022,257.27483049999864,258.1589956000025,257.27483049999864,258.1589956000025,257.27483049999864,258.1589956000025,257.27483049999864,258.1589956000025,257.27483049999864,258.1589956000025,258.1428694999995,258.6436754000024,258.1428694999995,258.6436754000024,258.1428694999995,258.6436754000024,258.1428694999995,258.6436754000024,258.1428694999995,258.6436754000024,258.1428694999995,258.6436754000024,258.1428694999995,258.6436754000024,258.1428694999995,258.6436754000024,257.27483049999864,None,258.6436754000024,None,0.8800000000000006,260.2790362000014,None,261.0311053999976,None,,,,,,,[[1.62]],3.0800000000000023,0.6666666666666666,11002,001,2023_Dec_29_1228,MFTM_A_new1021,2021.2.3,60.147336916324235,
,,,,,,,,stim/Instruction_adaptive.png,conditions/adaptive.xlsx,test,-0.6,-0.6,-0.6,0.6,0.6,left,L,,,,,0,1,1,1,0,24,24,93,,,,,,,,,,,,,,,,,,,,,,,,,,,,,,,,,,,,,,,,,,,,261.5314392,None,left,1,2.3377765999975963,262.0323850999994,263.3168441000016,262.0323850999994,262.815843700002,262.0323850999994,262.815843700002,262.0323850999994,262.815843700002,262.0323850999994,262.815843700002,262.0323850999994,262.815843700002,262.79931529999885,263.3012127000038,262.79931529999885,263.3012127000038,262.79931529999885,263.3012127000038,262.79931529999885,263.3012127000038,262.79931529999885,263.3012127000038,262.79931529999885,263.3012127000038,262.79931529999885,263.3012127000038,262.79931529999885,263.3012127000038,262.0323850999994,None,263.3012127000038,None,0.7800000000000005,265.03681679999863,None,265.7871378999989,None,,,,,,,[[1.72]],3.2200000000000024,0.68,11002,001,2023_Dec_29_1228,MFTM_A_new1021,2021.2.3,60.147336916324235,
,,,,,,,,stim/Instruction_adaptive.png,conditions/adaptive.xlsx,test,-0.6,-0.6,-0.6,0.6,0.6,left,L,,,,,0,1,1,1,0,25,25,51,,,,,,,,,,,,,,,,,,,,,,,,,,,,,,,,,,,,,,,,,,,,266.2886384000012,None,left,1,1.1653991999992286,266.7885355000035,268.007319700002,266.7885355000035,267.5062132000021,266.7885355000035,267.5062132000021,266.7885355000035,267.5062132000021,266.7885355000035,267.5062132000021,266.7885355000035,267.5062132000021,267.4895828000008,267.99132790000294,267.4895828000008,267.99132790000294,267.4895828000008,267.99132790000294,267.4895828000008,267.99132790000294,267.4895828000008,267.99132790000294,267.4895828000008,267.99132790000294,267.4895828000008,267.99132790000294,267.4895828000008,267.99132790000294,266.7885355000035,None,267.99132790000294,None,0.7100000000000004,269.7934888000018,None,270.544644900001,None,,,,,,,[[1.79]],3.3500000000000023,0.6923076923076923,11002,001,2023_Dec_29_1228,MFTM_A_new1021,2021.2.3,60.147336916324235,
,,,,,,,,stim/Instruction_adaptive.png,conditions/adaptive.xlsx,test,0.6,0.6,0.6,-0.6,-0.6,right,R,,,,,0,1,1,1,0,26,26,2,,,,,,,,,,,,,,,,,,,,,,,,,,,,,,,,,,,,,,,,,,,,271.0456258999984,None,left,0,1.2243422000028659,271.54574729999877,272.6978259000025,271.54574729999877,272.19652920000226,271.54574729999877,272.19652920000226,271.54574729999877,272.19652920000226,271.54574729999877,272.19652920000226,271.54574729999877,272.19652920000226,272.18132660000265,272.68160160000116,272.18132660000265,272.68160160000116,272.18132660000265,272.68160160000116,272.18132660000265,272.68160160000116,272.18132660000265,272.68160160000116,272.18132660000265,272.68160160000116,272.18132660000265,272.68160160000116,272.18132660000265,272.68160160000116,271.54574729999877,None,272.68160160000116,274.5332423,0.6500000000000004,274.54994389999774,None,275.30094870000175,None,,,,,,,[[1.85]],3.0100000000000025,0.6666666666666666,11002,001,2023_Dec_29_1228,MFTM_A_new1021,2021.2.3,60.147336916324235,
,,,,,,,,stim/Instruction_adaptive.png,conditions/adaptive.xlsx,test,0.6,0.6,0.6,-0.6,-0.6,right,R,,,,,0,1,1,1,0,27,27,98,,,,,,,,,,,,,,,,,,,,,,,,,,,,,,,,,,,,,,,,,,,,275.8024435999978,None,right,1,1.2830027999953018,276.30310640000243,277.63776950000465,276.30310640000243,277.1368899000008,276.30310640000243,277.1368899000008,276.30310640000243,277.1368899000008,276.30310640000243,277.1368899000008,276.30310640000243,277.1368899000008,277.1042643000037,277.605163500004,277.1042643000037,277.605163500004,277.1042643000037,277.605163500004,277.1042643000037,277.605163500004,277.1042643000037,277.605163500004,277.1042643000037,277.605163500004,277.1042643000037,277.605163500004,277.1042643000037,277.605163500004,276.30310640000243,None,277.605163500004,279.2909684000042,0.8200000000000005,279.30776360000164,None,280.0591545999996,None,,,,,,,[[1.68]],3.1400000000000023,0.6785714285714286,11002,001,2023_Dec_29_1228,MFTM_A_new1021,2021.2.3,60.147336916324235,
,,,,,,,,stim/Instruction_adaptive.png,conditions/adaptive.xlsx,test,-0.6,-0.6,-0.6,0.6,0.6,left,L,,,,,0,1,1,1,0,28,28,63,,,,,,,,,,,,,,,,,,,,,,,,,,,,,,,,,,,,,,,,,,,,280.55961010000465,None,left,1,1.1573912000021664,281.06041410000034,282.3120731000017,281.06041410000034,281.8112473000001,281.06041410000034,281.8112473000001,281.06041410000034,281.8112473000001,281.06041410000034,281.8112473000001,281.06041410000034,281.8112473000001,281.79501470000105,282.29468160000397,281.79501470000105,282.29468160000397,281.79501470000105,282.29468160000397,281.79501470000105,282.29468160000397,281.79501470000105,282.29468160000397,281.79501470000105,282.29468160000397,281.79501470000105,282.29468160000397,281.79501470000105,282.29468160000397,281.06041410000034,None,282.29468160000397,284.0483499000038,0.7500000000000004,284.0643638000038,None,284.81598490000033,None,,,,,,,[[1.75]],3.2500000000000027,0.6896551724137931,11002,001,2023_Dec_29_1228,MFTM_A_new1021,2021.2.3,60.147336916324235,
,,,,,,,,stim/Instruction_adaptive.png,conditions/adaptive.xlsx,test,-0.6,-0.6,-0.6,0.6,0.6,left,L,,,,,0,1,1,1,0,29,29,75,,,,,,,,,,,,,,,,,,,,,,,,,,,,,,,,,,,,,,,,,,,,285.31601700000465,None,right,0,1.3604971000022488,285.81725839999854,287.0198339999988,285.81725839999854,286.5180935000026,285.81725839999854,286.5180935000026,285.81725839999854,286.5180935000026,285.81725839999854,286.5180935000026,285.81725839999854,286.5180935000026,286.48432350000076,286.9857699999993,286.48432350000076,286.9857699999993,286.48432350000076,286.9857699999993,286.48432350000076,286.9857699999993,286.48432350000076,286.9857699999993,286.48432350000076,286.9857699999993,286.48432350000076,286.9857699999993,286.48432350000076,286.9857699999993,285.81725839999854,None,286.9857699999993,288.8058552000002,0.6900000000000004,288.82107550000364,None,289.57172240000364,None,,,,,,,[[1.81]],2.950000000000002,0.6666666666666666,11002,001,2023_Dec_29_1228,MFTM_A_new1021,2021.2.3,60.147336916324235,
,,,,,,,,stim/Instruction_adaptive.png,conditions/adaptive.xlsx,test,0.6,0.6,0.6,-0.6,-0.6,right,R,,,,,0,1,1,1,0,30,30,52,,,,,,,,,,,,,,,,,,,,,,,,,,,,,,,,,,,,,,,,,,,,290.07301530000404,None,right,1,1.4675485999978264,290.574325900001,291.9264029000042,290.574325900001,291.42569509999885,290.574325900001,291.42569509999885,290.574325900001,291.42569509999885,290.574325900001,291.42569509999885,290.574325900001,291.42569509999885,291.4086435999998,291.9097514000023,291.4086435999998,291.9097514000023,291.4086435999998,291.9097514000023,291.4086435999998,291.9097514000023,291.4086435999998,291.9097514000023,291.4086435999998,291.9097514000023,291.4086435999998,291.9097514000023,291.4086435999998,291.9097514000023,290.574325900001,None,291.9097514000023,293.562053499998,0.8500000000000005,293.5787707999989,None,294.3300223000042,None,,,,,,,[[1.65]],3.0600000000000023,0.6774193548387096,11002,001,2023_Dec_29_1228,MFTM_A_new1021,2021.2.3,60.147336916324235,
,,,,,,,,stim/Instruction_adaptive.png,conditions/adaptive.xlsx,test,0.6,0.6,0.6,-0.6,-0.6,right,R,,,,,0,1,1,1,0,31,31,60,,,,,,,,,,,,,,,,,,,,,,,,,,,,,,,,,,,,,,,,,,,,294.8300745000015,None,right,1,1.6628481000007014,295.3311060999986,296.63266300000396,295.3311060999986,296.13231259999884,295.3311060999986,296.13231259999884,295.3311060999986,296.13231259999884,295.3311060999986,296.13231259999884,295.3311060999986,296.13231259999884,296.09912350000377,296.59997190000286,296.09912350000377,296.59997190000286,296.09912350000377,296.59997190000286,296.09912350000377,296.59997190000286,296.09912350000377,296.59997190000286,296.09912350000377,296.59997190000286,296.09912350000377,296.59997190000286,296.09912350000377,296.59997190000286,295.3311060999986,None,296.59997190000286,298.3186649999989,0.7900000000000005,298.33553630000097,None,299.0863785000038,None,,,,,,,[[1.71]],3.1600000000000024,0.6875,11002,001,2023_Dec_29_1228,MFTM_A_new1021,2021.2.3,60.147336916324235,
,,,,,,,,stim/Instruction_adaptive.png,conditions/adaptive.xlsx,test,-0.6,-0.6,-0.6,0.6,0.6,left,L,,,,,0,1,1,1,0,32,32,31,,,,,,,,,,,,,,,,,,,,,,,,,,,,,,,,,,,,,,,,,,,,299.58777890000056,None,right,0,1.682198900001822,300.0878423000031,301.3407584000015,300.0878423000031,300.8391730000003,300.0878423000031,300.8391730000003,300.0878423000031,300.8391730000003,300.0878423000031,300.8391730000003,300.0878423000031,300.8391730000003,300.80572380000376,301.307115100004,300.80572380000376,301.307115100004,300.80572380000376,301.307115100004,300.80572380000376,301.307115100004,300.80572380000376,301.307115100004,300.80572380000376,301.307115100004,300.80572380000376,301.307115100004,300.80572380000376,301.307115100004,300.0878423000031,None,301.307115100004,303.0765734000015,0.7400000000000004,303.0923524000027,None,303.8437630000044,None,,,,,,,[[1.76]],2.880000000000002,0.6666666666666666,11002,001,2023_Dec_29_1228,MFTM_A_new1021,2021.2.3,60.147336916324235,
,,,,,,,,stim/Instruction_adaptive.png,conditions/adaptive.xlsx,test,-0.6,-0.6,-0.6,0.6,0.6,left,L,,,,,0,1,1,1,0,33,33,87,,,,,,,,,,,,,,,,,,,,,,,,,,,,,,,,,,,,,,,,,,,,304.34442169999966,None,left,1,1.4692541000040364,304.8449311000004,306.2470409000016,304.8449311000004,305.7467078000045,304.8449311000004,305.7467078000045,304.8449311000004,305.7467078000045,304.8449311000004,305.7467078000045,304.8449311000004,305.7467078000045,305.712824000002,306.21415100000013,305.712824000002,306.21415100000013,305.712824000002,306.21415100000013,305.712824000002,306.21415100000013,305.712824000002,306.21415100000013,305.712824000002,306.21415100000013,305.712824000002,306.21415100000013,305.712824000002,306.21415100000013,304.8449311000004,None,306.21415100000013,307.8327169999975,0.8900000000000006,307.8496612000017,None,308.60046059999877,None,,,,,,,[[1.61]],2.990000000000002,0.6764705882352942,11002,001,2023_Dec_29_1228,MFTM_A_new1021,2021.2.3,60.147336916324235,
,,,,,,,,stim/Instruction_adaptive.png,conditions/adaptive.xlsx,test,0.6,0.6,0.6,-0.6,-0.6,right,R,,,,,0,1,1,1,0,34,34,80,,,,,,,,,,,,,,,,,,,,,,,,,,,,,,,,,,,,,,,,,,,,309.1012507999985,None,right,1,1.1748380999997607,309.6028041000027,310.9378465000045,309.6028041000027,310.4371033999996,309.6028041000027,310.4371033999996,309.6028041000027,310.4371033999996,309.6028041000027,310.4371033999996,309.6028041000027,310.4371033999996,310.4199230000013,310.9213183000029,310.4199230000013,310.9213183000029,310.4199230000013,310.9213183000029,310.4199230000013,310.9213183000029,310.4199230000013,310.9213183000029,310.4199230000013,310.9213183000029,310.4199230000013,310.9213183000029,310.4199230000013,310.9213183000029,309.6028041000027,None,310.9213183000029,None,0.8300000000000005,312.60636250000243,None,313.3575562000042,None,,,,,,,[[1.67]],3.0800000000000023,0.6857142857142857,11002,001,2023_Dec_29_1228,MFTM_A_new1021,2021.2.3,60.147336916324235,
,,,,,,,,stim/Instruction_adaptive.png,conditions/adaptive.xlsx,test,-0.6,-0.6,-0.6,0.6,0.6,left,L,,,,,0,1,1,1,0,35,35,53,,,,,,,,,,,,,,,,,,,,,,,,,,,,,,,,,,,,,,,,,,,,313.8582557000045,None,left,1,0.969757999999274,314.3601417000027,315.64413259999856,314.3601417000027,315.1433958999987,314.3601417000027,315.1433958999987,314.3601417000027,315.1433958999987,314.3601417000027,315.1433958999987,314.3601417000027,315.1433958999987,315.12665220000054,315.62789409999823,315.12665220000054,315.62789409999823,315.12665220000054,315.62789409999823,315.12665220000054,315.62789409999823,315.12665220000054,315.62789409999823,315.12665220000054,315.62789409999823,315.12665220000054,315.62789409999823,315.12665220000054,315.62789409999823,314.3601417000027,None,315.62789409999823,None,0.7800000000000005,317.3642256000021,None,318.11503690000245,None,,,,,,,[[1.72]],3.1600000000000024,0.6944444444444444,11002,001,2023_Dec_29_1228,MFTM_A_new1021,2021.2.3,60.147336916324235,
,,,,,,,,stim/Instruction_adaptive.png,conditions/adaptive.xlsx,test,-0.6,-0.6,-0.6,0.6,0.6,left,L,,,,,0,1,1,1,0,36,36,3,,,,,,,,,,,,,,,,,,,,,,,,,,,,,,,,,,,,,,,,,,,,318.6160094000006,None,left,1,0.7496358999997028,319.11626329999854,320.3684026999981,319.11626329999854,319.86700700000074,319.11626329999854,319.86700700000074,319.11626329999854,319.86700700000074,319.11626329999854,319.86700700000074,319.11626329999854,319.86700700000074,319.83383350000076,320.33463479999773,319.83383350000076,320.33463479999773,319.83383350000076,320.33463479999773,319.83383350000076,320.33463479999773,319.83383350000076,320.33463479999773,319.83383350000076,320.33463479999773,319.83383350000076,320.33463479999773,319.83383350000076,320.33463479999773,319.11626329999854,None,320.33463479999773,322.1050216000003,0.7400000000000004,322.1206186999989,None,322.87165339999774,None,,,,,,,[[1.76]],3.2400000000000024,0.7027027027027027,11002,001,2023_Dec_29_1228,MFTM_A_new1021,2021.2.3,60.147336916324235,
,,,,,,,,stim/Instruction_adaptive.png,conditions/adaptive.xlsx,test,-0.6,-0.6,-0.6,0.6,0.6,left,L,,,,,0,1,1,1,0,37,37,55,,,,,,,,,,,,,,,,,,,,,,,,,,,,,,,,,,,,,,,,,,,,323.3724615000028,None,right,0,2.3607449999981327,323.8730166000023,325.07495709999785,323.8730166000023,324.5743741000042,323.8730166000023,324.5743741000042,323.8730166000023,324.5743741000042,323.8730166000023,324.5743741000042,323.8730166000023,324.5743741000042,324.5579973999993,325.0581605999978,324.5579973999993,325.0581605999978,324.5579973999993,325.0581605999978,324.5579973999993,325.0581605999978,324.5579973999993,325.0581605999978,324.5579973999993,325.0581605999978,324.5579973999993,325.0581605999978,324.5579973999993,325.0581605999978,323.8730166000023,None,325.0581605999978,326.86100350000197,0.7000000000000004,326.8774526999987,None,327.6292603000038,None,,,,,,,[[1.8]],3.0200000000000022,0.6842105263157895,11002,001,2023_Dec_29_1228,MFTM_A_new1021,2021.2.3,60.147336916324235,
,,,,,,,,stim/Instruction_adaptive.png,conditions/adaptive.xlsx,test,0.6,0.6,0.6,-0.6,-0.6,right,R,,,,,0,1,1,1,0,38,38,20,,,,,,,,,,,,,,,,,,,,,,,,,,,,,,,,,,,,,,,,,,,,328.1303659000041,None,right,1,1.7547714000029373,328.6310310999979,329.94955910000135,328.6310310999979,329.44820600000094,328.6310310999979,329.44820600000094,328.6310310999979,329.44820600000094,328.6310310999979,329.44820600000094,328.6310310999979,329.44820600000094,329.431955,329.93293980000453,329.431955,329.93293980000453,329.431955,329.93293980000453,329.431955,329.93293980000453,329.431955,329.93293980000453,329.431955,329.93293980000453,329.431955,329.93293980000453,329.431955,329.93293980000453,328.6310310999979,None,329.93293980000453,None,0.8100000000000005,331.63409369999863,None,332.38628600000084,None,,,,,,,[[1.69]],3.1000000000000023,0.6923076923076923,11002,001,2023_Dec_29_1228,MFTM_A_new1021,2021.2.3,60.147336916324235,
,,,,,,,,stim/Instruction_adaptive.png,conditions/adaptive.xlsx,test,-0.6,-0.6,-0.6,0.6,0.6,left,L,,,,,0,1,1,1,0,39,39,81,,,,,,,,,,,,,,,,,,,,,,,,,,,,,,,,,,,,,,,,,,,,332.88641700000153,None,right,0,1.4154291000013473,333.38722450000205,334.67311390000395,333.38722450000205,334.1716172000015,333.38722450000205,334.1716172000015,333.38722450000205,334.1716172000015,333.38722450000205,334.1716172000015,333.38722450000205,334.1716172000015,334.13830450000387,334.6390695000009,334.13830450000387,334.6390695000009,334.13830450000387,334.6390695000009,334.13830450000387,334.6390695000009,334.13830450000387,334.6390695000009,334.13830450000387,334.6390695000009,334.13830450000387,334.6390695000009,334.13830450000387,334.6390695000009,333.38722450000205,None,334.6390695000009,336.37588120000146,0.7700000000000005,336.39178019999963,None,337.14339440000185,None,,,,,,,[[1.73]],2.880000000000002,0.675,11002,001,2023_Dec_29_1228,MFTM_A_new1021,2021.2.3,60.147336916324235,
,,,,,,,,stim/Instruction_adaptive.png,conditions/adaptive.xlsx,test,0.6,0.6,0.6,-0.6,-0.6,right,R,,,,,0,1,1,1,0,40,40,0,,,,,,,,,,,,,,,,,,,,,,,,,,,,,,,,,,,,,,,,,,,,337.64409739999974,None,left,0,1.4975364999991143,338.14434130000154,339.54720339999767,338.14434130000154,339.04565960000036,338.14434130000154,339.04565960000036,338.14434130000154,339.04565960000036,338.14434130000154,339.04565960000036,338.14434130000154,339.04565960000036,339.01294469999993,339.5130012000009,339.01294469999993,339.5130012000009,339.01294469999993,339.5130012000009,339.01294469999993,339.5130012000009,339.01294469999993,339.5130012000009,339.01294469999993,339.5130012000009,339.01294469999993,339.5130012000009,339.01294469999993,339.5130012000009,338.14434130000154,None,339.5130012000009,341.1328463000027,0.8900000000000006,341.1485302000001,None,341.8997315000015,None,,,,,,,[[1.61]],2.640000000000002,0.6585365853658537,11002,001,2023_Dec_29_1228,MFTM_A_new1021,2021.2.3,60.147336916324235,
,,,,,,,,stim/Instruction_adaptive.png,conditions/adaptive.xlsx,test,0.6,0.6,0.6,-0.6,-0.6,right,R,,,,,0,1,1,1,0,41,41,70,,,,,,,,,,,,,,,,,,,,,,,,,,,,,,,,,,,,,,,,,,,,342.4005888000029,None,right,1,1.5080887000003713,342.9019666000022,344.4716363000043,342.9019666000022,343.97036050000315,342.9019666000022,343.97036050000315,342.9019666000022,343.97036050000315,342.9019666000022,343.97036050000315,342.9019666000022,343.97036050000315,343.9533134000012,344.4536758000031,343.9533134000012,344.4536758000031,343.9533134000012,344.4536758000031,343.9533134000012,344.4536758000031,343.9533134000012,344.4536758000031,343.9533134000012,344.4536758000031,343.9533134000012,344.4536758000031,343.9533134000012,344.4536758000031,342.9019666000022,None,344.4536758000031,None,1.0600000000000007,345.90566960000433,None,346.6572778000045,None,,,,,,,[[1.44]],2.730000000000002,0.6666666666666666,11002,001,2023_Dec_29_1228,MFTM_A_new1021,2021.2.3,60.147336916324235,
,,,,,,,,stim/Instruction_adaptive.png,conditions/adaptive.xlsx,test,0.6,0.6,0.6,-0.6,-0.6,right,R,,,,,0,1,1,1,0,42,42,50,,,,,,,,,,,,,,,,,,,,,,,,,,,,,,,,,,,,,,,,,,,,347.1582811000044,None,left,0,2.007080600000336,347.65894200000184,349.1605856000024,347.65894200000184,348.6598152000006,347.65894200000184,348.6598152000006,347.65894200000184,348.6598152000006,347.65894200000184,348.6598152000006,347.65894200000184,348.6598152000006,348.62646210000094,349.12713780000195,348.62646210000094,349.12713780000195,348.62646210000094,349.12713780000195,348.62646210000094,349.12713780000195,348.62646210000094,349.12713780000195,348.62646210000094,349.12713780000195,348.62646210000094,349.12713780000195,348.62646210000094,349.12713780000195,347.65894200000184,None,349.12713780000195,350.646731300003,0.9900000000000007,350.6621366000036,None,351.4149258000034,None,,,,,,,[[1.51]],2.4700000000000015,0.6511627906976745,11002,001,2023_Dec_29_1228,MFTM_A_new1021,2021.2.3,60.147336916324235,
,,,,,,,,stim/Instruction_adaptive.png,conditions/adaptive.xlsx,test,0.6,0.6,0.6,-0.6,-0.6,right,R,,,,,0,1,1,1,0,43,43,94,,,,,,,,,,,,,,,,,,,,,,,,,,,,,,,,,,,,,,,,,,,,351.9147183000023,None,right,1,1.6344853000045987,352.41530090000015,354.1188664000001,352.41530090000015,353.61721789999865,352.41530090000015,353.61721789999865,352.41530090000015,353.61721789999865,352.41530090000015,353.61721789999865,352.41530090000015,353.61721789999865,353.5838759000035,354.0854075000025,353.5838759000035,354.0854075000025,353.5838759000035,354.0854075000025,353.5838759000035,354.0854075000025,353.5838759000035,354.0854075000025,353.5838759000035,354.0854075000025,353.5838759000035,354.0854075000025,353.5838759000035,354.0854075000025,352.41530090000015,None,354.0854075000025,355.4038526000004,1.1900000000000008,355.4205237999995,None,356.1717487999995,None,,,,,,,[[1.31]],2.570000000000002,0.6590909090909091,11002,001,2023_Dec_29_1228,MFTM_A_new1021,2021.2.3,60.147336916324235,
,,,,,,,,stim/Instruction_adaptive.png,conditions/adaptive.xlsx,test,0.6,0.6,0.6,-0.6,-0.6,right,R,,,,,0,1,1,1,0,44,44,28,,,,,,,,,,,,,,,,,,,,,,,,,,,,,,,,,,,,,,,,,,,,356.67219430000114,None,left,0,2.157064899998659,357.1727914000003,358.7917410000009,357.1727914000003,358.2908463999993,357.1727914000003,358.2908463999993,357.1727914000003,358.2908463999993,357.1727914000003,358.2908463999993,357.1727914000003,358.2908463999993,358.2742128000027,358.7751197000034,358.2742128000027,358.7751197000034,358.2742128000027,358.7751197000034,358.2742128000027,358.7751197000034,358.2742128000027,358.7751197000034,358.2742128000027,358.7751197000034,358.2742128000027,358.7751197000034,358.2742128000027,358.7751197000034,357.1727914000003,None,358.7591567999989,360.16021020000335,1.1100000000000008,360.1769028999988,None,360.92796510000335,None,,,,,,,[[1.39]],2.3000000000000016,0.6444444444444445,11002,001,2023_Dec_29_1228,MFTM_A_new1021,2021.2.3,60.147336916324235,
,,,,,,,,stim/Instruction_adaptive.png,conditions/adaptive.xlsx,test,0.6,0.6,0.6,-0.6,-0.6,right,R,,,,,0,1,1,1,0,45,45,58,,,,,,,,,,,,,,,,,,,,,,,,,,,,,,,,,,,,,,,,,,,,361.4290389000016,None,left,0,1.3759331999972346,361.9300609999991,363.7829353999987,361.9300609999991,363.2820781000046,361.9300609999991,363.2820781000046,361.9300609999991,363.2820781000046,361.9300609999991,363.2820781000046,361.9300609999991,363.2820781000046,363.24812419999944,363.7491111999989,363.24812419999944,363.7491111999989,363.24812419999944,363.7491111999989,363.24812419999944,363.7491111999989,363.24812419999944,363.7491111999989,363.24812419999944,363.7491111999989,363.24812419999944,363.7491111999989,363.24812419999944,363.7491111999989,361.9300609999991,None,363.7491111999989,364.91731450000225,1.340000000000001,364.9339196000001,None,365.6858588000032,None,,,,,,,[[1.16]],1.9700000000000013,0.6304347826086957,11002,001,2023_Dec_29_1228,MFTM_A_new1021,2021.2.3,60.147336916324235,
,,,,,,,,stim/Instruction_adaptive.png,conditions/adaptive.xlsx,test,0.6,0.6,0.6,-0.6,-0.6,right,R,,,,,0,1,1,1,0,46,46,14,,,,,,,,,,,,,,,,,,,,,,,,,,,,,,,,,,,,,,,,,,,,366.1857949000041,None,right,1,1.5629143999976804,366.68711160000385,368.87311639999825,366.68711160000385,368.372363399998,366.68711160000385,368.372363399998,366.68711160000385,368.372363399998,366.68711160000385,368.372363399998,366.68711160000385,368.372363399998,368.35631560000184,368.8565798999989,368.35631560000184,368.8565798999989,368.35631560000184,368.8565798999989,368.35631560000184,368.8565798999989,368.35631560000184,368.8565798999989,368.35631560000184,368.8565798999989,368.35631560000184,368.8565798999989,368.35631560000184,368.8565798999989,366.68711160000385,None,368.8565798999989,None,1.6800000000000013,369.69104340000194,None,370.4426792000013,None,,,,,,,[[0.82]],2.1000000000000014,0.6382978723404256,11002,001,2023_Dec_29_1228,MFTM_A_new1021,2021.2.3,60.147336916324235,
,,,,,,,,stim/Instruction_adaptive.png,conditions/adaptive.xlsx,test,-0.6,-0.6,-0.6,0.6,0.6,left,L,,,,,0,1,1,1,0,47,47,5,,,,,,,,,,,,,,,,,,,,,,,,,,,,,,,,,,,,,,,,,,,,370.9435899000018,None,left,1,2.1897761000000173,371.4441689000014,373.4799602999992,371.4441689000014,372.9797480999987,371.4441689000014,372.9797480999987,371.4441689000014,372.9797480999987,371.4441689000014,372.9797480999987,371.4441689000014,372.9797480999987,372.9626017999981,373.46357649999845,372.9626017999981,373.46357649999845,372.9626017999981,373.46357649999845,372.9626017999981,373.46357649999845,372.9626017999981,373.46357649999845,372.9626017999981,373.46357649999845,372.9626017999981,373.46357649999845,372.9626017999981,373.46357649999845,371.4441689000014,None,373.46357649999845,374.43182009999873,1.5300000000000011,374.4486879000033,None,375.20015129999956,None,,,,,,,[[0.97]],2.2100000000000017,0.6458333333333334,11002,001,2023_Dec_29_1228,MFTM_A_new1021,2021.2.3,60.147336916324235,
,,,,,,,,stim/Instruction_adaptive.png,conditions/adaptive.xlsx,test,-0.6,-0.6,-0.6,0.6,0.6,left,L,,,,,0,1,1,1,0,48,48,11,,,,,,,,,,,,,,,,,,,,,,,,,,,,,,,,,,,,,,,,,,,,375.7005747000003,None,right,0,1.9688869000019622,376.2012323000017,378.1209555000023,376.2012323000017,377.6365669000006,376.2012323000017,377.6365669000006,376.2012323000017,377.6365669000006,376.2012323000017,377.6365669000006,376.2012323000017,377.6365669000006,377.60270010000386,378.1041891999994,377.60270010000386,378.1041891999994,377.60270010000386,378.1041891999994,377.60270010000386,378.1041891999994,377.60270010000386,378.1041891999994,377.60270010000386,378.1041891999994,377.60270010000386,378.1041891999994,377.60270010000386,378.1041891999994,376.2012323000017,None,378.1041891999994,379.18825800000195,1.420000000000001,379.20501389999845,None,379.9572438000032,None,,,,,,,[[1.08]],1.9100000000000013,0.6326530612244898,11002,001,2023_Dec_29_1228,MFTM_A_new1021,2021.2.3,60.147336916324235,
,,,,,,,,stim/Instruction_adaptive.png,conditions/adaptive.xlsx,test,-0.6,-0.6,-0.6,0.6,0.6,left,L,,,,,0,1,1,1,0,49,49,39,,,,,,,,,,,,,,,,,,,,,,,,,,,,,,,,,,,,,,,,,,,,380.4578518999988,None,None,0,0,380.9583921000012,383.21168749999924,380.9583921000012,382.71083779999753,380.9583921000012,382.71083779999753,380.9583921000012,382.71083779999753,380.9583921000012,382.71083779999753,380.9583921000012,382.71083779999753,382.6935502999986,383.1955136000033,382.6935502999986,383.1955136000033,382.6935502999986,383.1955136000033,382.6935502999986,383.1955136000033,382.6935502999986,383.1955136000033,382.6935502999986,383.1955136000033,382.6935502999986,383.1955136000033,382.6935502999986,383.1955136000033,380.9583921000012,None,383.1955136000033,384.446171100004,1.7500000000000013,384.4627446000013,None,385.21409929999936,None,,,,,,,[[1.25]],1.520000000000001,0.62,11002,001,2023_Dec_29_1228,MFTM_A_new1021,2021.2.3,60.147336916324235,
,,,,,,,,stim/Instruction_adaptive.png,conditions/adaptive.xlsx,test,0.6,0.6,0.6,-0.6,-0.6,right,R,,,,,0,1,1,1,0,50,50,10,,,,,,,,,,,,,,,,,,,,,,,,,,,,,,,,,,,,,,,,,,,,385.71567869999853,None,left,0,2.4254580000051646,386.2167408000023,389.0194088999997,386.2167408000023,388.5188993000047,386.2167408000023,388.5188993000047,386.2167408000023,388.5188993000047,386.2167408000023,388.5188993000047,386.2167408000023,388.5188993000047,388.48533640000096,388.9867005999986,388.48533640000096,388.9867005999986,388.48533640000096,388.9867005999986,388.48533640000096,388.9867005999986,388.48533640000096,388.9867005999986,388.48533640000096,388.9867005999986,388.48533640000096,388.9867005999986,388.48533640000096,388.9867005999986,386.2167408000023,None,388.9867005999986,389.2042550999977,2.290000000000002,389.219806400004,None,389.97221010000067,None,,,,,,,[[0.21]],0.9700000000000004,0.6078431372549019,11002,001,2023_Dec_29_1228,MFTM_A_new1021,2021.2.3,60.147336916324235,
,,,,,,,,stim/Instruction_adaptive.png,conditions/adaptive.xlsx,test,-0.6,-0.6,-0.6,0.6,0.6,left,L,,,,,0,1,1,1,0,51,51,17,,,,,,,,,,,,,,,,,,,,,,,,,,,,,,,,,,,,,,,,,,,,390.47254370000155,None,left,1,1.1891954999955487,390.9732331999985,None,390.9732331999985,393.9780815999984,390.9732331999985,393.9780815999984,390.9732331999985,393.9780815999984,390.9732331999985,393.9780815999984,390.9732331999985,393.9780815999984,393.9601948999989,394.4614511000036,393.9601948999989,394.4614511000036,393.9601948999989,394.4614511000036,393.9601948999989,394.4614511000036,393.9601948999989,394.4614511000036,393.9601948999989,394.4614511000036,393.9601948999989,394.4614511000036,393.9601948999989,394.4614511000036,390.9732331999985,None,394.4614511000036,394.4614511000036,3.0000000000000027,394.4784123999998,None,395.22970019999775,None,,,,,,,0,1.2100000000000006,0.6153846153846154,11002,001,2023_Dec_29_1228,MFTM_A_new1021,2021.2.3,60.147336916324235,
,,,,,,,,stim/Instruction_adaptive.png,conditions/adaptive.xlsx,test,-0.6,-0.6,-0.6,0.6,0.6,left,L,,,,,0,1,1,1,0,52,52,1,,,,,,,,,,,,,,,,,,,,,,,,,,,,,,,,,,,,,,,,,,,,395.7302120000022,None,left,1,3.251988700001675,396.2302899999995,None,396.2302899999995,399.08457170000474,396.2302899999995,399.08457170000474,396.2302899999995,399.08457170000474,396.2302899999995,399.08457170000474,396.2302899999995,399.08457170000474,399.0512271000043,399.5525510000007,399.0512271000043,399.5525510000007,399.0512271000043,399.5525510000007,399.0512271000043,399.5525510000007,399.0512271000043,399.5525510000007,399.0512271000043,399.5525510000007,399.0512271000043,399.5525510000007,399.0512271000043,399.5525510000007,396.2302899999995,None,399.5525510000007,399.5525510000007,2.8400000000000025,399.58536540000205,None,400.3370743999985,None,,,,,,,0,1.3800000000000008,0.6226415094339622,11002,001,2023_Dec_29_1228,MFTM_A_new1021,2021.2.3,60.147336916324235,
,,,,,,,,stim/Instruction_adaptive.png,conditions/adaptive.xlsx,test,0.6,0.6,0.6,-0.6,-0.6,right,R,,,,,0,1,1,1,0,53,53,84,,,,,,,,,,,,,,,,,,,,,,,,,,,,,,,,,,,,,,,,,,,,400.837194300002,None,right,1,2.5437931999986176,401.33797290000075,None,401.33797290000075,403.874859800002,401.33797290000075,403.874859800002,401.33797290000075,403.874859800002,401.33797290000075,403.874859800002,401.33797290000075,403.874859800002,403.85849040000176,404.3599198000011,403.85849040000176,404.3599198000011,403.85849040000176,404.3599198000011,403.85849040000176,404.3599198000011,403.85849040000176,404.3599198000011,403.85849040000176,404.3599198000011,403.85849040000176,404.3599198000011,403.85849040000176,404.3599198000011,401.33797290000075,None,404.3599198000011,404.3599198000011,2.530000000000002,404.3756171999994,None,405.1275747000036,None,,,,,,,0,1.520000000000001,0.6296296296296297,11002,001,2023_Dec_29_1228,MFTM_A_new1021,2021.2.3,60.147336916324235,
,,,,,,,,stim/Instruction_adaptive.png,conditions/adaptive.xlsx,test,-0.6,-0.6,-0.6,0.6,0.6,left,L,,,,,0,1,1,1,0,54,54,35,,,,,,,,,,,,,,,,,,,,,,,,,,,,,,,,,,,,,,,,,,,,405.6283567999999,None,left,1,2.1615956999958144,406.1283298999988,408.93310740000015,406.1283298999988,408.4314744000003,406.1283298999988,408.4314744000003,406.1283298999988,408.4314744000003,406.1283298999988,408.4314744000003,406.1283298999988,408.4314744000003,408.3987058999992,408.89904119999846,408.3987058999992,408.89904119999846,408.3987058999992,408.89904119999846,408.3987058999992,408.89904119999846,408.3987058999992,408.89904119999846,408.3987058999992,408.89904119999846,408.3987058999992,408.89904119999846,408.3987058999992,408.89904119999846,406.1283298999988,None,408.89904119999846,409.1159798000008,2.290000000000002,409.1327420000016,None,409.88373929999943,None,,,,,,,[[0.21]],1.640000000000001,0.6363636363636364,11002,001,2023_Dec_29_1228,MFTM_A_new1021,2021.2.3,60.147336916324235,
,,,,,,,,stim/Instruction_adaptive.png,conditions/adaptive.xlsx,test,-0.6,-0.6,-0.6,0.6,0.6,left,L,,,,,0,1,1,1,0,55,55,13,,,,,,,,,,,,,,,,,,,,,,,,,,,,,,,,,,,,,,,,,,,,410.3853205999985,None,right,0,0.7566487999938545,410.8853420000014,413.5060056000002,410.8853420000014,413.0066067000007,410.8853420000014,413.0066067000007,410.8853420000014,413.0066067000007,410.8853420000014,413.0066067000007,410.8853420000014,413.0066067000007,412.9719318999996,413.4725794000042,412.9719318999996,413.4725794000042,412.9719318999996,413.4725794000042,412.9719318999996,413.4725794000042,412.9719318999996,413.4725794000042,412.9719318999996,413.4725794000042,412.9719318999996,413.4725794000042,412.9719318999996,413.4725794000042,410.8853420000014,None,413.4725794000042,413.8747325000004,2.1100000000000017,413.889162200001,None,414.6419765000028,None,,,,,,,[[0.39]],1.3200000000000007,0.625,11002,001,2023_Dec_29_1228,MFTM_A_new1021,2021.2.3,60.147336916324235,
,,,,,,,,stim/Instruction_adaptive.png,conditions/adaptive.xlsx,test,0.6,0.6,0.6,-0.6,-0.6,right,R,,,,,0,1,1,1,0,56,56,42,,,,,,,,,,,,,,,,,,,,,,,,,,,,,,,,,,,,,,,,,,,,415.1423003000018,None,right,1,1.127579699998023,415.6424877000027,None,415.6424877000027,418.297384700003,415.6424877000027,418.297384700003,415.6424877000027,418.297384700003,415.6424877000027,418.297384700003,415.6424877000027,418.297384700003,418.2629369999995,418.7649034999995,418.2629369999995,418.7649034999995,418.2629369999995,418.7649034999995,418.2629369999995,418.7649034999995,418.2629369999995,418.7649034999995,418.2629369999995,418.7649034999995,418.2629369999995,418.7649034999995,418.2629369999995,418.7649034999995,415.6424877000027,None,418.7649034999995,418.7649034999995,2.6400000000000023,418.7966360999999,None,419.5482531000016,None,,,,,,,0,1.4400000000000008,0.631578947368421,11002,001,2023_Dec_29_1228,MFTM_A_new1021,2021.2.3,60.147336916324235,
,,,,,,,,stim/Instruction_adaptive.png,conditions/adaptive.xlsx,test,0.6,0.6,0.6,-0.6,-0.6,right,R,,,,,0,1,1,1,0,57,57,12,,,,,,,,,,,,,,,,,,,,,,,,,,,,,,,,,,,,,,,,,,,,420.04946680000285,None,left,0,1.0851361000022735,420.54957200000354,423.471876100004,420.54957200000354,422.9699870999975,420.54957200000354,422.9699870999975,420.54957200000354,422.9699870999975,420.54957200000354,422.9699870999975,420.54957200000354,422.9699870999975,422.9541599000004,423.4548561000047,422.9541599000004,423.4548561000047,422.9541599000004,423.4548561000047,422.9541599000004,423.4548561000047,422.9541599000004,423.4548561000047,422.9541599000004,423.4548561000047,422.9541599000004,423.4548561000047,422.9541599000004,423.4548561000047,420.54957200000354,None,423.4548561000047,423.5377692000038,2.4200000000000017,423.5540544000032,None,424.30586100000073,None,,,,,,,[[0.08]],1.1000000000000005,0.6206896551724138,11002,001,2023_Dec_29_1228,MFTM_A_new1021,2021.2.3,60.147336916324235,
,,,,,,,,stim/Instruction_adaptive.png,conditions/adaptive.xlsx,test,0.6,0.6,0.6,-0.6,-0.6,right,R,,,,,0,1,1,1,0,58,58,76,,,,,,,,,,,,,,,,,,,,,,,,,,,,,,,,,,,,,,,,,,,,424.8064072999987,None,right,1,1.8470612999954028,425.30669099999795,None,425.30669099999795,428.3124622000032,425.30669099999795,428.3124622000032,425.30669099999795,428.3124622000032,425.30669099999795,428.3124622000032,425.30669099999795,428.3124622000032,428.2956271000003,428.7958859999999,428.2956271000003,428.7958859999999,428.2956271000003,428.7958859999999,428.2956271000003,428.7958859999999,428.2956271000003,428.7958859999999,428.2956271000003,428.7958859999999,428.2956271000003,428.7958859999999,428.2956271000003,428.7958859999999,425.30669099999795,None,428.7958859999999,428.7958859999999,3.0000000000000027,428.81205890000274,None,429.56302020000294,None,,,,,,,0,1.2300000000000006,0.6271186440677966,11002,001,2023_Dec_29_1228,MFTM_A_new1021,2021.2.3,60.147336916324235,
,,,,,,,,stim/Instruction_adaptive.png,conditions/adaptive.xlsx,test,-0.6,-0.6,-0.6,0.6,0.6,left,L,,,,,0,1,1,1,0,59,59,33,,,,,,,,,,,,,,,,,,,,,,,,,,,,,,,,,,,,,,,,,,,,430.0647137999986,None,left,1,2.7013034999981755,430.5652287999983,None,430.5652287999983,433.36902479999844,430.5652287999983,433.36902479999844,430.5652287999983,433.36902479999844,430.5652287999983,433.36902479999844,430.5652287999983,433.36902479999844,433.3528054999988,433.8533666000003,433.3528054999988,433.8533666000003,433.3528054999988,433.8533666000003,433.3528054999988,433.8533666000003,433.3528054999988,433.8533666000003,433.3528054999988,433.8533666000003,433.3528054999988,433.8533666000003,433.3528054999988,433.8533666000003,430.5652287999983,None,433.8533666000003,433.8533666000003,2.8000000000000025,433.86943379999866,None,434.620805700004,None,,,,,,,0,1.3400000000000007,0.6333333333333333,11002,001,2023_Dec_29_1228,MFTM_A_new1021,2021.2.3,60.147336916324235,
,,,,,,,,stim/Instruction_adaptive.png,conditions/adaptive.xlsx,test,0.6,0.6,0.6,-0.6,-0.6,right,R,,,,,0,1,1,1,0,60,60,54,,,,,,,,,,,,,,,,,,,,,,,,,,,,,,,,,,,,,,,,,,,,435.1212489000027,None,right,1,0.9079807999951299,435.6220650000032,None,435.6220650000032,438.22632120000344,435.6220650000032,438.22632120000344,435.6220650000032,438.22632120000344,435.6220650000032,438.22632120000344,435.6220650000032,438.22632120000344,438.20950869999797,438.7101416000005,438.20950869999797,438.7101416000005,438.20950869999797,438.7101416000005,438.20950869999797,438.7101416000005,438.20950869999797,438.7101416000005,438.20950869999797,438.7101416000005,438.20950869999797,438.7101416000005,438.20950869999797,438.7101416000005,435.6220650000032,None,438.7101416000005,438.7101416000005,2.6000000000000023,438.7274142000024,None,439.4788045000023,None,,,,,,,0,1.4400000000000008,0.639344262295082,11002,001,2023_Dec_29_1228,MFTM_A_new1021,2021.2.3,60.147336916324235,
,,,,,,,,stim/Instruction_adaptive.png,conditions/adaptive.xlsx,test,-0.6,-0.6,-0.6,0.6,0.6,left,L,,,,,0,1,1,1,0,61,61,23,,,,,,,,,,,,,,,,,,,,,,,,,,,,,,,,,,,,,,,,,,,,439.97944790000474,None,left,1,2.946552499997779,440.4793036999981,443.4004933000033,440.4793036999981,442.89975270000286,440.4793036999981,442.89975270000286,440.4793036999981,442.89975270000286,440.4793036999981,442.89975270000286,440.4793036999981,442.89975270000286,442.8827784000023,443.3841326000038,442.8827784000023,443.3841326000038,442.8827784000023,443.3841326000038,442.8827784000023,443.3841326000038,442.8827784000023,443.3841326000038,442.8827784000023,443.3841326000038,442.8827784000023,443.3841326000038,442.8827784000023,443.3841326000038,440.4793036999981,None,443.3841326000038,443.4678189999977,2.4200000000000017,443.48351679999905,None,444.23525769999833,None,,,,,,,[[0.08]],1.530000000000001,0.6451612903225806,11002,001,2023_Dec_29_1228,MFTM_A_new1021,2021.2.3,60.147336916324235,
,,,,,,,,stim/Instruction_adaptive.png,conditions/adaptive.xlsx,test,0.6,0.6,0.6,-0.6,-0.6,right,R,,,,,0,1,1,1,0,62,62,64,,,,,,,,,,,,,,,,,,,,,,,,,,,,,,,,,,,,,,,,,,,,444.73586780000187,None,right,1,0.9019952000016929,445.2363914000016,448.02370879999944,445.2363914000016,447.52285909999773,445.2363914000016,447.52285909999773,445.2363914000016,447.52285909999773,445.2363914000016,447.52285909999773,445.2363914000016,447.52285909999773,447.5061672000011,448.00712100000237,447.5061672000011,448.00712100000237,447.5061672000011,448.00712100000237,447.5061672000011,448.00712100000237,447.5061672000011,448.00712100000237,447.5061672000011,448.00712100000237,447.5061672000011,448.00712100000237,447.5061672000011,448.00712100000237,445.2363914000016,None,448.00712100000237,None,2.280000000000002,448.24083220000466,None,448.9918445000003,None,,,,,,,[[0.22]],1.600000000000001,0.6507936507936508,11002,001,2023_Dec_29_1228,MFTM_A_new1021,2021.2.3,60.147336916324235,
,,,,,,,,stim/Instruction_adaptive.png,conditions/adaptive.xlsx,test,-0.6,-0.6,-0.6,0.6,0.6,left,L,,,,,0,1,1,1,0,63,63,57,,,,,,,,,,,,,,,,,,,,,,,,,,,,,,,,,,,,,,,,,,,,449.4923869999984,None,right,0,1.9928218999993987,449.9935270999995,452.66498950000096,449.9935270999995,452.1632303000006,449.9935270999995,452.1632303000006,449.9935270999995,452.1632303000006,449.9935270999995,452.1632303000006,449.9935270999995,452.1632303000006,452.1463522999984,452.6482688000033,452.1463522999984,452.6482688000033,452.1463522999984,452.6482688000033,452.1463522999984,452.6482688000033,452.1463522999984,452.6482688000033,452.1463522999984,452.6482688000033,452.1463522999984,452.6482688000033,452.1463522999984,452.6482688000033,449.9935270999995,None,452.6482688000033,452.98185899999953,2.1700000000000017,452.99773760000244,None,453.7497058000008,None,,,,,,,[[0.33]],1.3800000000000008,0.640625,11002,001,2023_Dec_29_1228,MFTM_A_new1021,2021.2.3,60.147336916324235,
,,,,,,,,stim/Instruction_adaptive.png,conditions/adaptive.xlsx,test,0.6,0.6,0.6,-0.6,-0.6,right,R,,,,,0,1,1,1,0,64,64,38,,,,,,,,,,,,,,,,,,,,,,,,,,,,,,,,,,,,,,,,,,,,454.2496725000019,None,right,1,2.7877242999966256,454.7503594000009,None,454.7503594000009,457.28725359999953,454.7503594000009,457.28725359999953,454.7503594000009,457.28725359999953,454.7503594000009,457.28725359999953,454.7503594000009,457.28725359999953,457.27057310000237,457.77132859999983,457.27057310000237,457.77132859999983,457.27057310000237,457.77132859999983,457.27057310000237,457.77132859999983,457.27057310000237,457.77132859999983,457.27057310000237,457.77132859999983,457.27057310000237,457.77132859999983,457.27057310000237,457.77132859999983,454.7503594000009,None,457.7551214999985,457.7551214999985,2.530000000000002,457.78893860000244,None,458.53929710000375,None,,,,,,,0,1.4700000000000009,0.6461538461538462,11002,001,2023_Dec_29_1228,MFTM_A_new1021,2021.2.3,60.147336916324235,
,,,,,,,,stim/Instruction_adaptive.png,conditions/adaptive.xlsx,test,0.6,0.6,0.6,-0.6,-0.6,right,R,,,,,0,1,1,1,0,65,65,32,,,,,,,,,,,,,,,,,,,,,,,,,,,,,,,,,,,,,,,,,,,,459.03993869999977,None,right,1,2.7171515000009094,459.54082370000106,462.41181869999855,459.54082370000106,461.9113376000023,459.54082370000106,461.9113376000023,459.54082370000106,461.9113376000023,459.54082370000106,461.9113376000023,459.54082370000106,461.9113376000023,461.8943150999985,462.3949200999996,461.8943150999985,462.3949200999996,461.8943150999985,462.3949200999996,461.8943150999985,462.3949200999996,461.8943150999985,462.3949200999996,461.8943150999985,462.3949200999996,461.8943150999985,462.3949200999996,461.8943150999985,462.3949200999996,459.54082370000106,None,462.3949200999996,462.52926840000146,2.370000000000002,462.5451297000036,None,463.296769200002,None,,,,,,,[[0.13]],1.540000000000001,0.6515151515151515,11002,001,2023_Dec_29_1228,MFTM_A_new1021,2021.2.3,60.147336916324235,
,,,,,,,,stim/Instruction_adaptive.png,conditions/adaptive.xlsx,test,0.6,0.6,0.6,-0.6,-0.6,right,R,,,,,0,1,1,1,0,66,66,6,,,,,,,,,,,,,,,,,,,,,,,,,,,,,,,,,,,,,,,,,,,,463.7978138000035,None,right,1,2.8161054000011063,464.2978646000047,467.06886179999856,464.2978646000047,466.5678076999975,464.2978646000047,466.5678076999975,464.2978646000047,466.5678076999975,464.2978646000047,466.5678076999975,464.2978646000047,466.5678076999975,466.534562599998,467.0351699000021,466.534562599998,467.0351699000021,466.534562599998,467.0351699000021,466.534562599998,467.0351699000021,466.534562599998,467.0351699000021,466.534562599998,467.0351699000021,466.534562599998,467.0351699000021,466.534562599998,467.0351699000021,464.2978646000047,None,467.0351699000021,467.2858253000013,2.2600000000000016,467.3023525000026,None,468.05343829999765,None,,,,,,,[[0.24]],1.600000000000001,0.6567164179104478,11002,001,2023_Dec_29_1228,MFTM_A_new1021,2021.2.3,60.147336916324235,
,,,,,,,,stim/Instruction_adaptive.png,conditions/adaptive.xlsx,test,0.6,0.6,0.6,-0.6,-0.6,right,R,,,,,0,1,1,1,0,67,67,40,,,,,,,,,,,,,,,,,,,,,,,,,,,,,,,,,,,,,,,,,,,,468.55466680000245,None,left,0,1.4515459000031115,469.05495019999944,471.7262050999998,469.05495019999944,471.22464700000273,469.05495019999944,471.22464700000273,469.05495019999944,471.22464700000273,469.05495019999944,471.22464700000273,469.05495019999944,471.22464700000273,471.2090128999989,471.7093442000041,471.2090128999989,471.7093442000041,471.2090128999989,471.7093442000041,471.2090128999989,471.7093442000041,471.2090128999989,471.7093442000041,471.2090128999989,471.7093442000041,471.2090128999989,471.7093442000041,471.2090128999989,471.7093442000041,469.05495019999944,None,471.7093442000041,472.0436065000031,2.1700000000000017,472.0588857000039,None,472.81037279999873,None,,,,,,,[[0.33]],1.4100000000000008,0.6470588235294118,11002,001,2023_Dec_29_1228,MFTM_A_new1021,2021.2.3,60.147336916324235,
,,,,,,,,stim/Instruction_adaptive.png,conditions/adaptive.xlsx,test,-0.6,-0.6,-0.6,0.6,0.6,left,L,,,,,0,1,1,1,0,68,68,97,,,,,,,,,,,,,,,,,,,,,,,,,,,,,,,,,,,,,,,,,,,,473.31174389999796,None,left,1,2.518196600001829,473.811875899999,476.7998297000013,473.811875899999,476.299119299998,473.811875899999,476.299119299998,473.811875899999,476.299119299998,473.811875899999,476.299119299998,473.811875899999,476.299119299998,476.2820694000038,476.7829593999995,476.2820694000038,476.7829593999995,476.2820694000038,476.7829593999995,476.2820694000038,476.7829593999995,476.2820694000038,476.7829593999995,476.2820694000038,476.7829593999995,476.2820694000038,476.7829593999995,476.2820694000038,476.7829593999995,473.811875899999,None,476.7829593999995,None,2.480000000000002,476.8172575999997,None,477.56747370000085,None,,,,,,,[[0.02]],1.4800000000000009,0.6521739130434783,11002,001,2023_Dec_29_1228,MFTM_A_new1021,2021.2.3,60.147336916324235,
,,,,,,,,stim/Instruction_adaptive.png,conditions/adaptive.xlsx,test,0.6,0.6,0.6,-0.6,-0.6,right,R,,,,,0,1,1,1,0,69,69,34,,,,,,,,,,,,,,,,,,,,,,,,,,,,,,,,,,,,,,,,,,,,478.0688283999989,None,right,1,1.7053020000021206,478.5691089000029,481.4411187000005,478.5691089000029,480.9398177000039,478.5691089000029,480.9398177000039,478.5691089000029,480.9398177000039,478.5691089000029,480.9398177000039,478.5691089000029,480.9398177000039,480.9056552000038,481.40663669999776,480.9056552000038,481.40663669999776,480.9056552000038,481.40663669999776,480.9056552000038,481.40663669999776,480.9056552000038,481.40663669999776,480.9056552000038,481.40663669999776,480.9056552000038,481.40663669999776,480.9056552000038,481.40663669999776,478.5691089000029,None,481.40663669999776,481.5568010999996,2.360000000000002,481.57405010000366,None,482.32548520000273,None,,,,,,,[[0.14]],1.550000000000001,0.6571428571428571,11002,001,2023_Dec_29_1228,MFTM_A_new1021,2021.2.3,60.147336916324235,
,,,,,,,,stim/Instruction_adaptive.png,conditions/adaptive.xlsx,test,-0.6,-0.6,-0.6,0.6,0.6,left,L,,,,,0,1,1,1,0,70,70,47,,,,,,,,,,,,,,,,,,,,,,,,,,,,,,,,,,,,,,,,,,,,482.8259976000045,None,left,1,1.2515858999977354,483.3267580000029,486.08144560000073,483.3267580000029,485.57943250000244,483.3267580000029,485.57943250000244,483.3267580000029,485.57943250000244,483.3267580000029,485.57943250000244,483.3267580000029,485.57943250000244,485.56271469999774,486.06446909999795,485.56271469999774,486.06446909999795,485.56271469999774,486.06446909999795,485.56271469999774,486.06446909999795,485.56271469999774,486.06446909999795,485.56271469999774,486.06446909999795,485.56271469999774,486.06446909999795,485.56271469999774,486.06446909999795,483.3267580000029,None,486.06446909999795,486.31433140000445,2.2500000000000018,486.3305804999982,None,487.0821943999981,None,,,,,,,[[0.25]],1.600000000000001,0.6619718309859155,11002,001,2023_Dec_29_1228,MFTM_A_new1021,2021.2.3,60.147336916324235,
,,,,,,,,stim/Instruction_adaptive.png,conditions/adaptive.xlsx,test,0.6,0.6,0.6,-0.6,-0.6,right,R,,,,,0,1,1,1,0,71,71,86,,,,,,,,,,,,,,,,,,,,,,,,,,,,,,,,,,,,,,,,,,,,487.5831518999985,None,right,1,1.2389048999975785,488.08330540000316,490.75387359999877,488.08330540000316,490.2539367999998,488.08330540000316,490.2539367999998,488.08330540000316,490.2539367999998,488.08330540000316,490.2539367999998,488.08330540000316,490.2539367999998,490.236338900002,490.7380837000019,490.236338900002,490.7380837000019,490.236338900002,490.7380837000019,490.236338900002,490.7380837000019,490.236338900002,490.7380837000019,490.236338900002,490.7380837000019,490.236338900002,490.7380837000019,490.236338900002,490.7380837000019,488.08330540000316,None,490.7380837000019,491.0714814000021,2.1700000000000017,491.0881673999975,None,491.83948650000093,None,,,,,,,[[0.33]],1.660000000000001,0.6666666666666666,11002,001,2023_Dec_29_1228,MFTM_A_new1021,2021.2.3,60.147336916324235,
,,,,,,,,stim/Instruction_adaptive.png,conditions/adaptive.xlsx,test,-0.6,-0.6,-0.6,0.6,0.6,left,L,,,,,0,1,1,1,0,72,72,65,,,,,,,,,,,,,,,,,,,,,,,,,,,,,,,,,,,,,,,,,,,,492.3402050000004,None,left,1,2.2820341999977245,492.8401920000033,495.42759160000423,492.8401920000033,494.92717590000393,492.8401920000033,494.92717590000393,492.8401920000033,494.92717590000393,492.8401920000033,494.92717590000393,492.8401920000033,494.92717590000393,494.91039280000405,495.41130089999933,494.91039280000405,495.41130089999933,494.91039280000405,495.41130089999933,494.91039280000405,495.41130089999933,494.91039280000405,495.41130089999933,494.91039280000405,495.41130089999933,494.91039280000405,495.41130089999933,494.91039280000405,495.41130089999933,492.8401920000033,None,495.3949028999996,495.8286234999978,2.080000000000002,495.84479750000173,None,496.5962400999997,None,,,,,,,[[0.42]],1.710000000000001,0.6712328767123288,11002,001,2023_Dec_29_1228,MFTM_A_new1021,2021.2.3,60.147336916324235,
,,,,,,,,stim/Instruction_adaptive.png,conditions/adaptive.xlsx,test,0.6,0.6,0.6,-0.6,-0.6,right,R,,,,,0,1,1,1,0,73,73,30,,,,,,,,,,,,,,,,,,,,,,,,,,,,,,,,,,,,,,,,,,,,497.0972507999977,None,left,0,2.3808867999978247,497.59733640000195,500.1176406000013,497.59733640000195,499.61759750000056,497.59733640000195,499.61759750000056,497.59733640000195,499.61759750000056,497.59733640000195,499.61759750000056,497.59733640000195,499.61759750000056,499.58325719999993,500.08420820000174,499.58325719999993,500.08420820000174,499.58325719999993,500.08420820000174,499.58325719999993,500.08420820000174,499.58325719999993,500.08420820000174,499.58325719999993,500.08420820000174,499.58325719999993,500.08420820000174,499.58325719999993,500.08420820000174,497.59733640000195,None,500.08420820000174,500.5854025000008,2.0100000000000016,500.6026070000007,None,501.3532191999984,None,,,,,,,[[0.49]],1.560000000000001,0.6621621621621622,11002,001,2023_Dec_29_1228,MFTM_A_new1021,2021.2.3,60.147336916324235,
,,,,,,,,stim/Instruction_adaptive.png,conditions/adaptive.xlsx,test,0.6,0.6,0.6,-0.6,-0.6,right,R,,,,,0,1,1,1,0,74,74,92,,,,,,,,,,,,,,,,,,,,,,,,,,,,,,,,,,,,,,,,,,,,501.8535445000016,None,right,1,1.743065900001966,502.3549641999998,505.09250859999884,502.3549641999998,504.5910747000016,502.3549641999998,504.5910747000016,502.3549641999998,504.5910747000016,502.3549641999998,504.5910747000016,502.3549641999998,504.5910747000016,504.5749527000007,505.0749649999998,504.5749527000007,505.0749649999998,504.5749527000007,505.0749649999998,504.5749527000007,505.0749649999998,504.5749527000007,505.0749649999998,504.5749527000007,505.0749649999998,504.5749527000007,505.0749649999998,504.5749527000007,505.0749649999998,502.3549641999998,None,505.0749649999998,None,2.2300000000000018,505.3582002000039,None,506.1104750000013,None,,,,,,,[[0.27]],1.620000000000001,0.6666666666666666,11002,001,2023_Dec_29_1228,MFTM_A_new1021,2021.2.3,60.147336916324235,
,,,,,,,,stim/Instruction_adaptive.png,conditions/adaptive.xlsx,test,0.6,0.6,0.6,-0.6,-0.6,right,R,,,,,0,1,1,1,0,75,75,24,,,,,,,,,,,,,,,,,,,,,,,,,,,,,,,,,,,,,,,,,,,,506.61149920000025,None,right,1,1.5475608999986434,507.11132380000345,509.76594760000444,507.11132380000345,509.26496639999823,507.11132380000345,509.26496639999823,507.11132380000345,509.26496639999823,507.11132380000345,509.26496639999823,507.11132380000345,509.26496639999823,509.231025400004,509.7319248999993,509.231025400004,509.7319248999993,509.231025400004,509.7319248999993,509.231025400004,509.7319248999993,509.231025400004,509.7319248999993,509.231025400004,509.7319248999993,509.231025400004,509.7319248999993,509.231025400004,509.7319248999993,507.11132380000345,None,509.7319248999993,510.0990466000003,2.1400000000000015,510.11566239999956,None,510.8668374999979,None,,,,,,,[[0.36]],1.660000000000001,0.6710526315789473,11002,001,2023_Dec_29_1228,MFTM_A_new1021,2021.2.3,60.147336916324235,
,,,,,,,,stim/Instruction_adaptive.png,conditions/adaptive.xlsx,test,-0.6,-0.6,-0.6,0.6,0.6,left,L,,,,,0,1,1,1,0,76,76,89,,,,,,,,,,,,,,,,,,,,,,,,,,,,,,,,,,,,,,,,,,,,511.36777950000396,None,left,1,1.4935968999998295,511.86833599999954,514.4561517000038,511.86833599999954,513.9558236000012,511.86833599999954,513.9558236000012,511.86833599999954,513.9558236000012,511.86833599999954,513.9558236000012,511.86833599999954,513.9558236000012,513.9225164000018,514.4227709999977,513.9225164000018,514.4227709999977,513.9225164000018,514.4227709999977,513.9225164000018,514.4227709999977,513.9225164000018,514.4227709999977,513.9225164000018,514.4227709999977,513.9225164000018,514.4227709999977,513.9225164000018,514.4227709999977,511.86833599999954,None,514.4227709999977,514.8573096000036,2.080000000000002,514.8727914999981,None,515.6238939000032,None,,,,,,,[[0.42]],1.710000000000001,0.6753246753246753,11002,001,2023_Dec_29_1228,MFTM_A_new1021,2021.2.3,60.147336916324235,
,,,,,,,,stim/Instruction_adaptive.png,conditions/adaptive.xlsx,test,-0.6,-0.6,-0.6,0.6,0.6,left,L,,,,,0,1,1,1,0,77,77,27,,,,,,,,,,,,,,,,,,,,,,,,,,,,,,,,,,,,,,,,,,,,516.1257257000034,None,left,1,1.656925000002957,516.6254457000032,519.1462031000046,516.6254457000032,518.6454216999991,516.6254457000032,518.6454216999991,516.6254457000032,518.6454216999991,516.6254457000032,518.6454216999991,516.6254457000032,518.6454216999991,518.6117903999984,519.113102700001,518.6117903999984,519.113102700001,518.6117903999984,519.113102700001,518.6117903999984,519.113102700001,518.6117903999984,519.113102700001,518.6117903999984,519.113102700001,518.6117903999984,519.113102700001,518.6117903999984,519.113102700001,516.6254457000032,None,519.113102700001,519.6131681000043,2.0100000000000016,519.6311308000004,None,520.3821897000016,None,,,,,,,[[0.49]],1.750000000000001,0.6794871794871795,11002,001,2023_Dec_29_1228,MFTM_A_new1021,2021.2.3,60.147336916324235,
,,,,,,,,stim/Instruction_adaptive.png,conditions/adaptive.xlsx,test,-0.6,-0.6,-0.6,0.6,0.6,left,L,,,,,0,1,1,1,0,78,78,85,,,,,,,,,,,,,,,,,,,,,,,,,,,,,,,,,,,,,,,,,,,,520.8816807000039,None,right,0,2.5635954000026686,521.3824890000033,523.852867499998,521.3824890000033,523.3520093999978,521.3824890000033,523.3520093999978,521.3824890000033,523.3520093999978,521.3824890000033,523.3520093999978,521.3824890000033,523.3520093999978,523.3185511999982,523.820118399999,523.3185511999982,523.820118399999,523.3185511999982,523.820118399999,523.3185511999982,523.820118399999,523.3185511999982,523.820118399999,523.3185511999982,523.820118399999,523.3185511999982,523.820118399999,523.3185511999982,523.820118399999,521.3824890000033,None,523.820118399999,524.370296699999,1.9600000000000015,524.3867690000043,None,525.1389756999997,None,,,,,,,[[0.54]],1.630000000000001,0.6708860759493671,11002,001,2023_Dec_29_1228,MFTM_A_new1021,2021.2.3,60.147336916324235,
,,,,,,,,stim/Instruction_adaptive.png,conditions/adaptive.xlsx,test,-0.6,-0.6,-0.6,0.6,0.6,left,L,,,,,0,1,1,1,0,79,79,67,,,,,,,,,,,,,,,,,,,,,,,,,,,,,,,,,,,,,,,,,,,,525.6394866000046,None,left,1,2.646378499994171,526.1397830999995,528.7775114000033,526.1397830999995,528.2760396000012,526.1397830999995,528.2760396000012,526.1397830999995,528.2760396000012,526.1397830999995,528.2760396000012,526.1397830999995,528.2760396000012,528.2593572000042,528.7609402000016,528.2593572000042,528.7609402000016,528.2593572000042,528.7609402000016,528.2593572000042,528.7609402000016,528.2593572000042,528.7609402000016,528.2593572000042,528.7609402000016,528.2593572000042,528.7609402000016,528.2593572000042,528.7609402000016,526.1397830999995,None,528.7609402000016,None,2.1300000000000017,529.1434284999996,None,529.8950946000041,None,,,,,,,[[0.37]],1.670000000000001,0.675,11002,001,2023_Dec_29_1228,MFTM_A_new1021,2021.2.3,60.147336916324235,
,,,,,,,,stim/Instruction_adaptive.png,conditions/adaptive.xlsx,test,0.6,0.6,0.6,-0.6,-0.6,right,R,,,,,0,1,1,1,0,80,80,46,,,,,,,,,,,,,,,,,,,,,,,,,,,,,,,,,,,,,,,,,,,,530.3961524999977,None,left,0,2.049279099999694,530.8968538000045,533.4676694000009,530.8968538000045,532.9665504000004,530.8968538000045,532.9665504000004,530.8968538000045,532.9665504000004,530.8968538000045,532.9665504000004,530.8968538000045,532.9665504000004,532.9495805999977,533.4512986000045,532.9495805999977,533.4512986000045,532.9495805999977,533.4512986000045,532.9495805999977,533.4512986000045,532.9495805999977,533.4512986000045,532.9495805999977,533.4512986000045,532.9495805999977,533.4512986000045,532.9495805999977,533.4512986000045,530.8968538000045,None,533.4512986000045,533.884515400001,2.0700000000000016,533.9015686999992,None,534.6521011000004,None,,,,,,,[[0.43]],1.540000000000001,0.6666666666666666,11002,001,2023_Dec_29_1228,MFTM_A_new1021,2021.2.3,60.147336916324235,
,,,,,,,,stim/Instruction_adaptive.png,conditions/adaptive.xlsx,test,-0.6,-0.6,-0.6,0.6,0.6,left,L,,,,,0,1,1,1,0,81,81,45,,,,,,,,,,,,,,,,,,,,,,,,,,,,,,,,,,,,,,,,,,,,535.1532014999975,None,left,1,1.4524493000062648,535.6538309000025,538.4252572000041,535.6538309000025,537.9241297000044,535.6538309000025,537.9241297000044,535.6538309000025,537.9241297000044,535.6538309000025,537.9241297000044,535.6538309000025,537.9241297000044,537.8907646000007,538.3910993000027,537.8907646000007,538.3910993000027,537.8907646000007,538.3910993000027,537.8907646000007,538.3910993000027,537.8907646000007,538.3910993000027,537.8907646000007,538.3910993000027,537.8907646000007,538.3910993000027,537.8907646000007,538.3910993000027,535.6538309000025,None,538.3910993000027,538.6414130999983,2.2600000000000016,538.6579629999978,None,539.408937500004,None,,,,,,,[[0.24]],1.590000000000001,0.6707317073170732,11002,001,2023_Dec_29_1228,MFTM_A_new1021,2021.2.3,60.147336916324235,
,,,,,,,,stim/Instruction_adaptive.png,conditions/adaptive.xlsx,test,0.6,0.6,0.6,-0.6,-0.6,right,R,,,,,0,1,1,1,0,82,82,62,,,,,,,,,,,,,,,,,,,,,,,,,,,,,,,,,,,,,,,,,,,,539.9099647000039,None,left,0,2.670995699998457,540.4112758000047,543.1150711000009,540.4112758000047,542.6139108999996,540.4112758000047,542.6139108999996,540.4112758000047,542.6139108999996,540.4112758000047,542.6139108999996,540.4112758000047,542.6139108999996,542.5816530000011,543.081763000002,542.5816530000011,543.081763000002,542.5816530000011,543.081763000002,542.5816530000011,543.081763000002,542.5816530000011,543.081763000002,542.5816530000011,543.081763000002,542.5816530000011,543.081763000002,542.5816530000011,543.081763000002,540.4112758000047,None,543.081763000002,543.398608800002,2.1900000000000017,543.4151137000008,None,544.1669653999998,None,,,,,,,[[0.31]],1.4600000000000009,0.6626506024096386,11002,001,2023_Dec_29_1228,MFTM_A_new1021,2021.2.3,60.147336916324235,
,,,,,,,,stim/Instruction_adaptive.png,conditions/adaptive.xlsx,test,-0.6,-0.6,-0.6,0.6,0.6,left,L,,,,,0,1,1,1,0,83,83,91,,,,,,,,,,,,,,,,,,,,,,,,,,,,,,,,,,,,,,,,,,,,544.6675595999986,None,right,0,2.546465300001728,545.1676501000038,548.0727928999986,545.1676501000038,547.571669900004,545.1676501000038,547.571669900004,545.1676501000038,547.571669900004,545.1676501000038,547.571669900004,545.1676501000038,547.571669900004,547.5377684999985,548.0398064000037,547.5377684999985,548.0398064000037,547.5377684999985,548.0398064000037,547.5377684999985,548.0398064000037,547.5377684999985,548.0398064000037,547.5377684999985,548.0398064000037,547.5377684999985,548.0398064000037,547.5377684999985,548.0398064000037,545.1676501000038,None,548.0398064000037,548.156167000001,2.390000000000002,548.1729355999996,None,548.9239977000034,None,,,,,,,[[0.11]],1.3100000000000007,0.6547619047619048,11002,001,2023_Dec_29_1228,MFTM_A_new1021,2021.2.3,60.147336916324235,
,,,,,,,,stim/Instruction_adaptive.png,conditions/adaptive.xlsx,test,0.6,0.6,0.6,-0.6,-0.6,right,R,,,,,0,1,1,1,0,84,84,16,,,,,,,,,,,,,,,,,,,,,,,,,,,,,,,,,,,,,,,,,,,,549.4239766000028,None,left,0,2.0454654000059236,549.9245892000035,None,549.9245892000035,552.5787509000002,549.9245892000035,552.5787509000002,549.9245892000035,552.5787509000002,549.9245892000035,552.5787509000002,549.9245892000035,552.5787509000002,552.5626246000029,553.063278900001,552.5626246000029,553.063278900001,552.5626246000029,553.063278900001,552.5626246000029,553.063278900001,552.5626246000029,553.063278900001,552.5626246000029,553.063278900001,552.5626246000029,553.063278900001,552.5626246000029,553.063278900001,549.9245892000035,None,553.063278900001,553.063278900001,2.650000000000002,553.0800526000021,None,553.8312837999983,None,,,,,,,0,1.1500000000000006,0.6470588235294118,11002,001,2023_Dec_29_1228,MFTM_A_new1021,2021.2.3,60.147336916324235,
,,,,,,,,stim/Instruction_adaptive.png,conditions/adaptive.xlsx,test,0.6,0.6,0.6,-0.6,-0.6,right,R,,,,,0,1,1,1,0,85,85,68,,,,,,,,,,,,,,,,,,,,,,,,,,,,,,,,,,,,,,,,,,,,554.3320277000021,None,right,1,3.225715799999307,554.8325775999983,None,554.8325775999983,557.8031161000035,554.8325775999983,557.8031161000035,554.8325775999983,557.8031161000035,554.8325775999983,557.8031161000035,554.8325775999983,557.8031161000035,557.7696729000018,558.2704373000015,557.7696729000018,558.2704373000015,557.7696729000018,558.2704373000015,557.7696729000018,558.2704373000015,557.7696729000018,558.2704373000015,557.7696729000018,558.2704373000015,557.7696729000018,558.2704373000015,557.7696729000018,558.2704373000015,554.8325775999983,None,558.2704373000015,558.2704373000015,2.9600000000000026,558.303701900004,None,559.0548457000041,None,,,,,,,0,1.2100000000000006,0.6511627906976745,11002,001,2023_Dec_29_1228,MFTM_A_new1021,2021.2.3,60.147336916324235,
,,,,,,,,stim/Instruction_adaptive.png,conditions/adaptive.xlsx,test,-0.6,-0.6,-0.6,0.6,0.6,left,L,,,,,0,1,1,1,0,86,86,99,,,,,,,,,,,,,,,,,,,,,,,,,,,,,,,,,,,,,,,,,,,,559.5563317999986,None,left,1,1.721473400000832,560.0566294000018,None,560.0566294000018,562.9115240000028,560.0566294000018,562.9115240000028,560.0566294000018,562.9115240000028,560.0566294000018,562.9115240000028,560.0566294000018,562.9115240000028,562.8775125000029,563.3786226000011,562.8775125000029,563.3786226000011,562.8775125000029,563.3786226000011,562.8775125000029,563.3786226000011,562.8775125000029,563.3786226000011,562.8775125000029,563.3786226000011,562.8775125000029,563.3786226000011,562.8775125000029,563.3786226000011,560.0566294000018,None,563.3786226000011,563.3786226000011,2.8400000000000025,563.4114313000027,None,564.1633080000029,None,,,,,,,0,1.2600000000000007,0.6551724137931034,11002,001,2023_Dec_29_1228,MFTM_A_new1021,2021.2.3,60.147336916324235,
,,,,,,,,stim/Instruction_adaptive.png,conditions/adaptive.xlsx,test,-0.6,-0.6,-0.6,0.6,0.6,left,L,,,,,0,1,1,1,0,87,87,83,,,,,,,,,,,,,,,,,,,,,,,,,,,,,,,,,,,,,,,,,,,,564.6639808000036,None,left,1,2.701714399998309,565.1642931000024,None,565.1642931000024,567.9188309000019,565.1642931000024,567.9188309000019,565.1642931000024,567.9188309000019,565.1642931000024,567.9188309000019,565.1642931000024,567.9188309000019,567.9013468999983,568.4028588000001,567.9013468999983,568.4028588000001,567.9013468999983,568.4028588000001,567.9013468999983,568.4028588000001,567.9013468999983,568.4028588000001,567.9013468999983,568.4028588000001,567.9013468999983,568.4028588000001,567.9013468999983,568.4028588000001,565.1642931000024,None,568.4028588000001,568.4028588000001,2.750000000000002,568.4186923000016,None,569.1711337000015,None,,,,,,,0,1.3100000000000007,0.6590909090909091,11002,001,2023_Dec_29_1228,MFTM_A_new1021,2021.2.3,60.147336916324235,
,,,,,,,,stim/Instruction_adaptive.png,conditions/adaptive.xlsx,test,0.6,0.6,0.6,-0.6,-0.6,right,R,,,,,0,1,1,1,0,88,88,18,,,,,,,,,,,,,,,,,,,,,,,,,,,,,,,,,,,,,,,,,,,,569.6706570000024,None,right,1,1.5904245999990962,570.1721604999984,None,570.1721604999984,572.8255324999991,570.1721604999984,572.8255324999991,570.1721604999984,572.8255324999991,570.1721604999984,572.8255324999991,570.1721604999984,572.8255324999991,572.8086187000008,573.3098857000005,572.8086187000008,573.3098857000005,572.8086187000008,573.3098857000005,572.8086187000008,573.3098857000005,572.8086187000008,573.3098857000005,572.8086187000008,573.3098857000005,572.8086187000008,573.3098857000005,572.8086187000008,573.3098857000005,570.1721604999984,None,573.3098857000005,573.3098857000005,2.650000000000002,573.3267969000008,None,574.0780315000011,None,,,,,,,0,1.3600000000000008,0.6629213483146067,11002,001,2023_Dec_29_1228,MFTM_A_new1021,2021.2.3,60.147336916324235,
,,,,,,,,stim/Instruction_adaptive.png,conditions/adaptive.xlsx,test,-0.6,-0.6,-0.6,0.6,0.6,left,L,,,,,0,1,1,1,0,89,89,71,,,,,,,,,,,,,,,,,,,,,,,,,,,,,,,,,,,,,,,,,,,,574.5780121999996,None,left,1,1.7069877999965684,575.0793658000039,None,575.0793658000039,577.6496181000039,575.0793658000039,577.6496181000039,575.0793658000039,577.6496181000039,575.0793658000039,577.6496181000039,575.0793658000039,577.6496181000039,577.6158666000047,578.1168053000001,577.6158666000047,578.1168053000001,577.6158666000047,578.1168053000001,577.6158666000047,578.1168053000001,577.6158666000047,578.1168053000001,577.6158666000047,578.1168053000001,577.6158666000047,578.1168053000001,577.6158666000047,578.1168053000001,575.0793658000039,None,578.1168053000001,578.1168053000001,2.5600000000000023,578.1498340000035,None,578.9010750000016,None,,,,,,,0,1.4000000000000008,0.6666666666666666,11002,001,2023_Dec_29_1228,MFTM_A_new1021,2021.2.3,60.147336916324235,
,,,,,,,,stim/Instruction_adaptive.png,conditions/adaptive.xlsx,test,0.6,0.6,0.6,-0.6,-0.6,right,R,,,,,0,1,1,1,0,90,90,78,,,,,,,,,,,,,,,,,,,,,,,,,,,,,,,,,,,,,,,,,,,,579.4017720000047,None,right,1,2.5796050999997533,579.9026312999995,None,579.9026312999995,582.4067225000035,579.9026312999995,582.4067225000035,579.9026312999995,582.4067225000035,579.9026312999995,582.4067225000035,579.9026312999995,582.4067225000035,582.3738929000028,582.8742778000014,582.3738929000028,582.8742778000014,582.3738929000028,582.8742778000014,582.3738929000028,582.8742778000014,582.3738929000028,582.8742778000014,582.3738929000028,582.8742778000014,582.3738929000028,582.8742778000014,582.3738929000028,582.8742778000014,579.9026312999995,None,582.8742778000014,582.8902419000005,2.490000000000002,582.9068470999991,None,583.6579208000039,None,,,,,,,[[0.01]],1.4400000000000008,0.6703296703296703,11002,001,2023_Dec_29_1228,MFTM_A_new1021,2021.2.3,60.147336916324235,
,,,,,,,,stim/Instruction_adaptive.png,conditions/adaptive.xlsx,test,0.6,0.6,0.6,-0.6,-0.6,right,R,,,,,0,1,1,1,0,91,91,96,,,,,,,,,,,,,,,,,,,,,,,,,,,,,,,,,,,,,,,,,,,,584.1587578000035,None,right,1,1.6780667999992147,584.6600229000032,587.5807182999997,584.6600229000032,587.0800731999989,584.6600229000032,587.0800731999989,584.6600229000032,587.0800731999989,584.6600229000032,587.0800731999989,584.6600229000032,587.0800731999989,587.0637883000018,587.5638528999989,587.0637883000018,587.5638528999989,587.0637883000018,587.5638528999989,587.0637883000018,587.5638528999989,587.0637883000018,587.5638528999989,587.0637883000018,587.5638528999989,587.0637883000018,587.5638528999989,587.0637883000018,587.5638528999989,584.6600229000032,None,587.5638528999989,587.6484581000041,2.4200000000000017,587.6637943000023,None,588.4160978,None,,,,,,,[[0.08]],1.4800000000000009,0.6739130434782609,11002,001,2023_Dec_29_1228,MFTM_A_new1021,2021.2.3,60.147336916324235,
,,,,,,,,stim/Instruction_adaptive.png,conditions/adaptive.xlsx,test,0.6,0.6,0.6,-0.6,-0.6,right,R,,,,,0,1,1,1,0,92,92,36,,,,,,,,,,,,,,,,,,,,,,,,,,,,,,,,,,,,,,,,,,,,588.9158154000033,None,right,1,1.673063700000057,589.4172710999992,592.2890210000041,589.4172710999992,591.7867516000042,589.4172710999992,591.7867516000042,589.4172710999992,591.7867516000042,589.4172710999992,591.7867516000042,589.4172710999992,591.7867516000042,591.7534352000002,592.2554088000034,591.7534352000002,592.2554088000034,591.7534352000002,592.2554088000034,591.7534352000002,592.2554088000034,591.7534352000002,592.2554088000034,591.7534352000002,592.2554088000034,591.7534352000002,592.2554088000034,591.7534352000002,592.2554088000034,589.4172710999992,None,592.2554088000034,592.4051032999996,2.360000000000002,592.4220418999976,None,593.1724266000019,None,,,,,,,[[0.14]],1.520000000000001,0.6774193548387096,11002,001,2023_Dec_29_1228,MFTM_A_new1021,2021.2.3,60.147336916324235,
,,,,,,,,stim/Instruction_adaptive.png,conditions/adaptive.xlsx,test,-0.6,-0.6,-0.6,0.6,0.6,left,L,,,,,0,1,1,1,0,93,93,9,,,,,,,,,,,,,,,,,,,,,,,,,,,,,,,,,,,,,,,,,,,,593.6736453999983,None,left,1,1.2359847000043374,594.1741288999983,596.9778736000007,594.1741288999983,596.4779657000036,594.1741288999983,596.4779657000036,594.1741288999983,596.4779657000036,594.1741288999983,596.4779657000036,594.1741288999983,596.4779657000036,596.4451084000029,596.945321799998,596.4451084000029,596.945321799998,596.4451084000029,596.945321799998,596.4451084000029,596.945321799998,596.4451084000029,596.945321799998,596.4451084000029,596.945321799998,596.4451084000029,596.945321799998,596.4451084000029,596.945321799998,594.1741288999983,None,596.945321799998,597.1628188000032,2.290000000000002,597.1779317000037,None,597.9292715999982,None,,,,,,,[[0.21]],1.560000000000001,0.6808510638297872,11002,001,2023_Dec_29_1228,MFTM_A_new1021,2021.2.3,60.147336916324235,
,,,,,,,,stim/Instruction_adaptive.png,conditions/adaptive.xlsx,test,-0.6,-0.6,-0.6,0.6,0.6,left,L,,,,,0,1,1,1,0,94,94,43,,,,,,,,,,,,,,,,,,,,,,,,,,,,,,,,,,,,,,,,,,,,598.4300526000006,None,left,1,1.3188071999975364,598.9313741000005,601.6682303999987,598.9313741000005,601.1679264999984,598.9313741000005,601.1679264999984,598.9313741000005,601.1679264999984,598.9313741000005,601.1679264999984,598.9313741000005,601.1679264999984,601.1506724999999,601.651232199998,601.1506724999999,601.651232199998,601.1506724999999,601.651232199998,601.1506724999999,601.651232199998,601.1506724999999,601.651232199998,601.1506724999999,601.651232199998,601.1506724999999,601.651232199998,601.1506724999999,601.651232199998,598.9313741000005,None,601.651232199998,None,2.2300000000000018,601.9351347999982,None,602.6861844000014,None,,,,,,,[[0.27]],1.590000000000001,0.6842105263157895,11002,001,2023_Dec_29_1228,MFTM_A_new1021,2021.2.3,60.147336916324235,
