arrwidth1,arrwidth2,arrwidth3,arrwidth4,arrwidth5,keyb,type,orientation,instruction_image,block_filename,block_type,arrow11,arrow22,arrow33,arrow44,arrow55,keyb_3,orientation3,trials.thisRepN,trials.thisTrialN,trials.thisN,trials.thisIndex,trials_3.thisRepN,trials_3.thisTrialN,trials_3.thisN,trials_3.thisIndex,trials_2.thisRepN,trials_2.thisTrialN,trials_2.thisN,trials_2.thisIndex,welcome.started,welcome.stopped,key_resp.keys,key_resp.rt,key_resp.started,key_resp.stopped,instruction_example.started,instruction_example.stopped,key_resp_3.keys,key_resp_3.rt,key_resp_3.started,key_resp_3.stopped,instruction_task.started,instruction_task.stopped,key_resp_2.keys,key_resp_2.rt,key_resp_2.started,key_resp_2.stopped,text_2.started,text_2.stopped,A1.started,A1.stopped,A2.started,A2.stopped,A3.started,A3.stopped,A4.started,A4.stopped,A5.started,A5.stopped,key_resp_4.keys,key_resp_4.corr,key_resp_4.rt,key_resp_4.started,key_resp_4.stopped,fb.started,fb.stopped,instruction_block.started,instruction_block.stopped,key_resp_8.keys,key_resp_8.rt,key_resp_8.started,key_resp_8.stopped,text_8.started,text_8.stopped,key_resp_9.keys,key_resp_9.corr,key_resp_9.rt,text_5.started,text_5.stopped,A11_3.started,A11_3.stopped,A22_2.started,A22_2.stopped,A33_2.started,A33_2.stopped,A44_2.started,A44_2.stopped,A55_2.started,A55_2.stopped,M1_3.started,M1_3.stopped,M2_2.started,M2_2.stopped,M3_2.started,M3_2.stopped,M4_2.started,M4_2.stopped,M5_2.started,M5_2.stopped,M6_2.started,M6_2.stopped,M7_2.started,M7_2.stopped,M8_2.started,M8_2.stopped,key_resp_9.started,key_resp_9.stopped,fixation.started,fixation.stopped,ET,fb_3.started,fb_3.stopped,text_9.started,text_9.stopped,fb_4.started,fb_4.stopped,text_7.started,text_7.stopped,endtext.started,endtext.stopped,fixation_ITI,CCC,Acc,participant,session,date,expName,psychopyVersion,frameRate,
,,,,,,,,,,,,,,,,,,,,,,,,,,,,,,8.47091800000635,None,space,1.952905500002089,8.47091800000635,None,,,,,,,,,,,,,,,,,,,,,,,,,,,,,,,,,,,,,,,,,,,,,,,,,,,,,,,,,,,,,,,,,,,,,,,,,,,,,,,,,,,,,,,,,11001,001,2023_Dec_29_0944,MFTM_A_new1021,2021.2.3,60.098573679900525,
,,,,,,,,,,,,,,,,,,,,,,,,,,,,,,,,,,,,10.440413900003477,None,space,0.23149220000050263,10.440413900003477,None,,,,,,,,,,,,,,,,,,,,,,,,,,,,,,,,,,,,,,,,,,,,,,,,,,,,,,,,,,,,,,,,,,,,,,,,,,,,,,,,,,,11001,001,2023_Dec_29_0944,MFTM_A_new1021,2021.2.3,60.098573679900525,
,,,,,,,,,,,,,,,,,,,,,,,,,,,,,,,,,,,,,,,,,,10.691344200000458,None,space,0.18052349999925354,10.691344200000458,None,,,,,,,,,,,,,,,,,,,,,,,,,,,,,,,,,,,,,,,,,,,,,,,,,,,,,,,,,,,,,,,,,,,,,,,,,,,,,11001,001,2023_Dec_29_0944,MFTM_A_new1021,2021.2.3,60.098573679900525,
-0.6,-0.6,-0.6,0.6,0.6,left,3:2,L,,,,,,,,,,,0,0,0,1,,,,,,,,,,,,,,,,,,,,,,,,,,,10.908622200004174,None,10.908622200004174,None,10.908622200004174,None,10.908622200004174,None,10.908622200004174,None,10.908622200004174,None,right,0,1.5550370999990264,10.908622200004174,None,12.512149200003478,None,,,,,,,,,,,,,,,,,,,,,,,,,,,,,,,,,,,,,,,,,,,,,,,,,,,,,,,,,,11001,001,2023_Dec_29_0944,MFTM_A_new1021,2021.2.3,60.098573679900525,
0.6,0.6,0.6,-0.6,-0.6,right,3:2,R,,,,,,,,,,,0,1,1,0,,,,,,,,,,,,,,,,,,,,,,,,,,,13.262103700006264,None,13.262103700006264,None,13.262103700006264,None,13.262103700006264,None,13.262103700006264,None,13.262103700006264,None,left,0,0.05805310000141617,13.262103700006264,None,13.362786900004721,None,,,,,,,,,,,,,,,,,,,,,,,,,,,,,,,,,,,,,,,,,,,,,,,,,,,,,,,,,,11001,001,2023_Dec_29_0944,MFTM_A_new1021,2021.2.3,60.098573679900525,
-0.6,-0.6,-0.6,0.6,0.6,left,3:2,L,,,,,,,,,,,1,0,2,1,,,,,,,,,,,,,,,,,,,,,,,,,,,14.113850400004594,None,14.113850400004594,None,14.113850400004594,None,14.113850400004594,None,14.113850400004594,None,14.113850400004594,None,right,0,0.06216520000452874,14.113850400004594,None,14.196122600005765,None,,,,,,,,,,,,,,,,,,,,,,,,,,,,,,,,,,,,,,,,,,,,,,,,,,,,,,,,,,11001,001,2023_Dec_29_0944,MFTM_A_new1021,2021.2.3,60.098573679900525,
0.6,0.6,0.6,-0.6,-0.6,right,3:2,R,,,,,,,,,,,1,1,3,0,,,,,,,,,,,,,,,,,,,,,,,,,,,14.947768000005453,None,14.947768000005453,None,14.947768000005453,None,14.947768000005453,None,14.947768000005453,None,14.947768000005453,None,left,0,0.11632079999981215,14.947768000005453,None,15.08142420000513,None,,,,,,,,,,,,,,,,,,,,,,,,,,,,,,,,,,,,,,,,,,,,,,,,,,,,,,,,,,11001,001,2023_Dec_29_0944,MFTM_A_new1021,2021.2.3,60.098573679900525,
,,,,,,,,stim/Instruction_mask.png,conditions/adaptive.xlsx,practice,0.6,0.6,0.6,-0.6,-0.6,right,R,,,,,0,0,0,0,0,0,0,52,,,,,,,,,,,,,,,,,,,,,,,,,,,,,,,,,,,,,,16.098961300005612,None,space,1.1253605000019888,16.098961300005612,None,17.40251370000624,None,right,1,1.8465510999958497,17.769110700006422,None,17.769110700006422,20.77327630000218,17.769110700006422,20.77327630000218,17.769110700006422,20.77327630000218,17.769110700006422,20.77327630000218,17.769110700006422,20.77327630000218,20.756480400006694,21.25747510000656,20.756480400006694,21.25747510000656,20.756480400006694,21.25747510000656,20.756480400006694,21.25747510000656,20.756480400006694,21.25747510000656,20.756480400006694,21.25747510000656,20.756480400006694,21.25747510000656,20.756480400006694,21.25747510000656,17.769110700006422,None,21.25747510000656,21.25747510000656,3,21.272847200001706,None,22.025058900006115,None,,,,,,,,,,11001,001,2023_Dec_29_0944,MFTM_A_new1021,2021.2.3,60.098573679900525,
,,,,,,,,stim/Instruction_mask.png,conditions/adaptive.xlsx,practice,0.6,0.6,0.6,-0.6,-0.6,right,R,,,,,0,0,0,0,0,1,1,56,,,,,,,,,,,,,,,,,,,,,,,,,,,,,,,,,,,,,,,,,,,,22.52588939999987,None,right,1,1.6061648999966565,23.025675100005174,25.02918280000449,23.025675100005174,24.5288498000009,23.025675100005174,24.5288498000009,23.025675100005174,24.5288498000009,23.025675100005174,24.5288498000009,23.025675100005174,24.5288498000009,24.51233350000257,25.012094200006686,24.51233350000257,25.012094200006686,24.51233350000257,25.012094200006686,24.51233350000257,25.012094200006686,24.51233350000257,25.012094200006686,24.51233350000257,25.012094200006686,24.51233350000257,25.012094200006686,24.51233350000257,25.012094200006686,23.025675100005174,None,25.012094200006686,26.515118500006793,1.5,26.531834200002777,None,27.282877100005862,None,,,,,,,,,,11001,001,2023_Dec_29_0944,MFTM_A_new1021,2021.2.3,60.098573679900525,
,,,,,,,,stim/Instruction_mask.png,conditions/adaptive.xlsx,practice,-0.6,-0.6,-0.6,0.6,0.6,left,L,,,,,0,0,0,0,0,2,2,29,,,,,,,,,,,,,,,,,,,,,,,,,,,,,,,,,,,,,,,,,,,,27.78377580000233,None,left,1,1.0195095000017318,28.284259300002304,29.585553400000208,28.284259300002304,29.085593700001482,28.284259300002304,29.085593700001482,28.284259300002304,29.085593700001482,28.284259300002304,29.085593700001482,28.284259300002304,29.085593700001482,29.06900090000272,29.568876200006343,29.06900090000272,29.568876200006343,29.06900090000272,29.568876200006343,29.06900090000272,29.568876200006343,29.06900090000272,29.568876200006343,29.06900090000272,29.568876200006343,29.06900090000272,29.568876200006343,29.06900090000272,29.568876200006343,28.284259300002304,None,29.568876200006343,31.772328500002914,0.8,31.789080900001863,None,32.540552000005846,None,,,,,,,,,,11001,001,2023_Dec_29_0944,MFTM_A_new1021,2021.2.3,60.098573679900525,
,,,,,,,,stim/Instruction_mask.png,conditions/adaptive.xlsx,practice,-0.6,-0.6,-0.6,0.6,0.6,left,L,,,,,0,0,0,0,0,3,3,27,,,,,,,,,,,,,,,,,,,,,,,,,,,,,,,,,,,,,,,,,,,,33.041295400005765,None,right,0,0.6337115000060294,33.54245179999998,34.29373110000597,33.54245179999998,33.7925372000027,33.54245179999998,33.7925372000027,33.54245179999998,33.7925372000027,33.54245179999998,33.7925372000027,33.54245179999998,33.7925372000027,33.77579510000214,34.276766200004204,33.77579510000214,34.276766200004204,33.77579510000214,34.276766200004204,33.77579510000214,34.276766200004204,33.77579510000214,34.276766200004204,33.77579510000214,34.276766200004204,33.77579510000214,34.276766200004204,33.77579510000214,34.276766200004204,33.54245179999998,None,34.276766200004204,37.03091839999979,3,37.047644400001445,None,37.798431100003654,None,,,,,,,,,,11001,001,2023_Dec_29_0944,MFTM_A_new1021,2021.2.3,60.098573679900525,
,,,,,,,,stim/Instruction_mask.png,conditions/adaptive.xlsx,practice,,,,,,,,,,,,0,0,0,0,,,,,,,,,,,,,,,,,,,,,,,,,,,,,,,,,,,,,,,,,,,,,,,,,,,,,,,,,,,,,,,,,,,,,,,,,,,,,,,,,,,,,,,,,,38.31508330000361,39.31738000000041,39.30070070000511,39.30070070000511,39.30070070000511,None,,,,11001,001,2023_Dec_29_0944,MFTM_A_new1021,2021.2.3,60.098573679900525,
,,,,,,,,stim/Instruction_adaptive.png,conditions/adaptive.xlsx,test,0.6,0.6,0.6,-0.6,-0.6,right,R,,,,,0,1,1,1,0,0,0,20,,,,,,,,,,,,,,,,,,,,,,,,,,,,,,,,,,,,,,42.4708907000022,None,space,91.12952129999758,42.4708907000022,None,133.6573062000025,None,right,1,1.3873300000050222,134.15727390000393,None,134.15727390000393,137.16251300000295,134.15727390000393,137.16251300000295,134.15727390000393,137.16251300000295,134.15727390000393,137.16251300000295,134.15727390000393,137.16251300000295,137.1288607000024,137.62939460000052,137.1288607000024,137.62939460000052,137.1288607000024,137.62939460000052,137.1288607000024,137.62939460000052,137.1288607000024,137.62939460000052,137.1288607000024,137.62939460000052,137.1288607000024,137.62939460000052,137.1288607000024,137.62939460000052,134.15727390000393,None,137.62939460000052,137.62939460000052,3,137.66205290000653,None,138.41424870000628,None,,,,,,,0,6.000000000000005,1.0,11001,001,2023_Dec_29_0944,MFTM_A_new1021,2021.2.3,60.098573679900525,
,,,,,,,,stim/Instruction_adaptive.png,conditions/adaptive.xlsx,test,0.6,0.6,0.6,-0.6,-0.6,right,R,,,,,0,1,1,1,0,1,1,34,,,,,,,,,,,,,,,,,,,,,,,,,,,,,,,,,,,,,,,,,,,,138.91516080000292,None,right,1,0.9687102000025334,139.41571600000316,140.16683110000304,139.41571600000316,139.66619420000643,139.41571600000316,139.66619420000643,139.41571600000316,139.66619420000643,139.41571600000316,139.66619420000643,139.41571600000316,139.66619420000643,139.64941330000147,140.14997000000585,139.64941330000147,140.14997000000585,139.64941330000147,140.14997000000585,139.64941330000147,140.14997000000585,139.64941330000147,140.14997000000585,139.64941330000147,140.14997000000585,139.64941330000147,140.14997000000585,139.64941330000147,140.14997000000585,139.41571600000316,None,140.14997000000585,141.03510610000376,0.25,141.05084790000546,None,141.8025720000005,None,,,,,,,[0.875],6.000000000000005,1.0,11001,001,2023_Dec_29_0944,MFTM_A_new1021,2021.2.3,60.098573679900525,
,,,,,,,,stim/Instruction_adaptive.png,conditions/adaptive.xlsx,test,0.6,0.6,0.6,-0.6,-0.6,right,R,,,,,0,1,1,1,0,2,2,58,,,,,,,,,,,,,,,,,,,,,,,,,,,,,,,,,,,,,,,,,,,,142.3031434000004,None,left,0,1.19604149999941,142.80397800000355,143.55525230000057,142.80397800000355,143.0548168000023,142.80397800000355,143.0548168000023,142.80397800000355,143.0548168000023,142.80397800000355,143.0548168000023,142.80397800000355,143.0548168000023,143.0376413000049,143.53853870000603,143.0376413000049,143.53853870000603,143.0376413000049,143.53853870000603,143.0376413000049,143.53853870000603,143.0376413000049,143.53853870000603,143.0376413000049,143.53853870000603,143.0376413000049,143.53853870000603,143.0376413000049,143.53853870000603,142.80397800000355,None,143.53853870000603,144.87415350000083,0.25,144.90726390000054,None,145.65838090000034,None,,,,,,,[1.33333333],3.1800000000000024,0.6666666666666666,11001,001,2023_Dec_29_0944,MFTM_A_new1021,2021.2.3,60.098573679900525,
,,,,,,,,stim/Instruction_adaptive.png,conditions/adaptive.xlsx,test,0.6,0.6,0.6,-0.6,-0.6,right,R,,,,,0,1,1,1,0,3,3,28,,,,,,,,,,,,,,,,,,,,,,,,,,,,,,,,,,,,,,,,,,,,146.15899830000126,None,right,1,1.5005455999998958,146.65985140000703,147.89424250000593,146.65985140000703,147.39418800000567,146.65985140000703,147.39418800000567,146.65985140000703,147.39418800000567,146.65985140000703,147.39418800000567,146.65985140000703,147.39418800000567,147.37798720000137,147.87835750000522,147.37798720000137,147.87835750000522,147.37798720000137,147.87835750000522,147.37798720000137,147.87835750000522,147.37798720000137,147.87835750000522,147.37798720000137,147.87835750000522,147.37798720000137,147.87835750000522,147.37798720000137,147.87835750000522,146.65985140000703,None,147.87835750000522,149.33055890000105,0.7300000000000004,149.3461349000063,None,150.09841060000326,None,,,,,,,[1.4425],4.030000000000003,0.75,11001,001,2023_Dec_29_0944,MFTM_A_new1021,2021.2.3,60.098573679900525,
,,,,,,,,stim/Instruction_adaptive.png,conditions/adaptive.xlsx,test,0.6,0.6,0.6,-0.6,-0.6,right,R,,,,,0,1,1,1,0,4,4,54,,,,,,,,,,,,,,,,,,,,,,,,,,,,,,,,,,,,,,,,,,,,150.5990094000008,None,right,1,1.3644808000026387,151.09980180000275,152.0010453000068,151.09980180000275,151.50046380000276,151.09980180000275,151.50046380000276,151.09980180000275,151.50046380000276,151.09980180000275,151.50046380000276,151.09980180000275,151.50046380000276,151.4836592000065,151.9843510999999,151.4836592000065,151.9843510999999,151.4836592000065,151.9843510999999,151.4836592000065,151.9843510999999,151.4836592000065,151.9843510999999,151.4836592000065,151.9843510999999,151.4836592000065,151.9843510999999,151.4836592000065,151.9843510999999,151.09980180000275,None,151.9843510999999,153.57003850000183,0.40000000000000013,153.58571000000666,None,154.33778020000318,None,,,,,,,[1.574],4.550000000000003,0.8,11001,001,2023_Dec_29_0944,MFTM_A_new1021,2021.2.3,60.098573679900525,
,,,,,,,,stim/Instruction_adaptive.png,conditions/adaptive.xlsx,test,0.6,0.6,0.6,-0.6,-0.6,right,R,,,,,0,1,1,1,0,5,5,60,,,,,,,,,,,,,,,,,,,,,,,,,,,,,,,,,,,,,,,,,,,,154.83847770000284,None,right,1,1.4446124000023701,155.33930430000328,156.1255702000053,155.33930430000328,155.6235064000066,155.33930430000328,155.6235064000066,155.33930430000328,155.6235064000066,155.33930430000328,155.6235064000066,155.33930430000328,155.6235064000066,155.60663080000086,156.10644730000058,155.60663080000086,156.10644730000058,155.60663080000086,156.10644730000058,155.60663080000086,156.10644730000058,155.60663080000086,156.10644730000058,155.60663080000086,156.10644730000058,155.60663080000086,156.10644730000058,155.60663080000086,156.10644730000058,155.33930430000328,None,156.10644730000058,157.79312380000192,0.28,157.81040800000483,None,158.561257500005,None,,,,,,,[1.68166667],4.910000000000004,0.8333333333333334,11001,001,2023_Dec_29_0944,MFTM_A_new1021,2021.2.3,60.098573679900525,
,,,,,,,,stim/Instruction_adaptive.png,conditions/adaptive.xlsx,test,-0.6,-0.6,-0.6,0.6,0.6,left,L,,,,,0,1,1,1,0,6,6,5,,,,,,,,,,,,,,,,,,,,,,,,,,,,,,,,,,,,,,,,,,,,159.06144060000224,None,right,0,1.5181911000036052,159.56223310000496,160.31342589999986,159.56223310000496,159.8124736000027,159.56223310000496,159.8124736000027,159.56223310000496,159.8124736000027,159.56223310000496,159.8124736000027,159.56223310000496,159.8124736000027,159.7958948000014,160.29671060000692,159.7958948000014,160.29671060000692,159.7958948000014,160.29671060000692,159.7958948000014,160.29671060000692,159.7958948000014,160.29671060000692,159.7958948000014,160.29671060000692,159.7958948000014,160.29671060000692,159.7958948000014,160.29671060000692,159.56223310000496,None,160.29671060000692,162.06600870000693,0.25,162.09969090000232,None,162.85088680000626,None,,,,,,,[1.76285714],4.060000000000003,0.7142857142857143,11001,001,2023_Dec_29_0944,MFTM_A_new1021,2021.2.3,60.098573679900525,
,,,,,,,,stim/Instruction_adaptive.png,conditions/adaptive.xlsx,test,-0.6,-0.6,-0.6,0.6,0.6,left,L,,,,,0,1,1,1,0,7,7,29,,,,,,,,,,,,,,,,,,,,,,,,,,,,,,,,,,,,,,,,,,,,163.35133700000006,None,left,1,1.2600231999967946,163.85198300000047,164.75329730000522,163.85198300000047,164.25262360000488,163.85198300000047,164.25262360000488,163.85198300000047,164.25262360000488,163.85198300000047,164.25262360000488,163.85198300000047,164.25262360000488,164.21931410000252,164.71989630000462,164.21931410000252,164.71989630000462,164.21931410000252,164.71989630000462,164.21931410000252,164.71989630000462,164.21931410000252,164.71989630000462,164.21931410000252,164.71989630000462,164.21931410000252,164.71989630000462,164.21931410000252,164.71989630000462,163.85198300000047,None,164.71989630000462,166.53889880000497,0.3900000000000001,166.55554730000586,None,167.30710910000198,None,,,,,,,[1.80625],4.3800000000000034,0.75,11001,001,2023_Dec_29_0944,MFTM_A_new1021,2021.2.3,60.098573679900525,
,,,,,,,,stim/Instruction_adaptive.png,conditions/adaptive.xlsx,test,0.6,0.6,0.6,-0.6,-0.6,right,R,,,,,0,1,1,1,0,8,8,36,,,,,,,,,,,,,,,,,,,,,,,,,,,,,,,,,,,,,,,,,,,,167.8083334000039,None,right,1,1.2921558000016375,168.30857780000224,169.14318240000284,168.30857780000224,168.6424213000064,168.30857780000224,168.6424213000064,168.30857780000224,168.6424213000064,168.30857780000224,168.6424213000064,168.30857780000224,168.6424213000064,168.6086659000066,169.10957970000163,168.6086659000066,169.10957970000163,168.6086659000066,169.10957970000163,168.6086659000066,169.10957970000163,168.6086659000066,169.10957970000163,168.6086659000066,169.10957970000163,168.6086659000066,169.10957970000163,168.6086659000066,169.10957970000163,168.30857780000224,None,169.10957970000163,170.96242980000534,0.32000000000000006,170.97863480000524,None,171.73034610000468,None,,,,,,,[1.84777778],4.620000000000004,0.7777777777777778,11001,001,2023_Dec_29_0944,MFTM_A_new1021,2021.2.3,60.098573679900525,
,,,,,,,,stim/Instruction_adaptive.png,conditions/adaptive.xlsx,test,-0.6,-0.6,-0.6,0.6,0.6,left,L,,,,,0,1,1,1,0,9,9,71,,,,,,,,,,,,,,,,,,,,,,,,,,,,,,,,,,,,,,,,,,,,172.23101580000366,None,left,1,1.7642141999967862,172.73198740000225,173.5160129000069,172.73198740000225,173.0156541000033,172.73198740000225,173.0156541000033,172.73198740000225,173.0156541000033,172.73198740000225,173.0156541000033,172.73198740000225,173.0156541000033,172.9817994000041,173.48323150000215,172.9817994000041,173.48323150000215,172.9817994000041,173.48323150000215,172.9817994000041,173.48323150000215,172.9817994000041,173.48323150000215,172.9817994000041,173.48323150000215,172.9817994000041,173.48323150000215,172.9817994000041,173.48323150000215,172.73198740000225,None,173.48323150000215,175.3689644000042,0.27,175.40218810000079,None,176.15366260000155,None,,,,,,,[1.886],4.820000000000004,0.8,11001,001,2023_Dec_29_0944,MFTM_A_new1021,2021.2.3,60.098573679900525,
,,,,,,,,stim/Instruction_adaptive.png,conditions/adaptive.xlsx,test,0.6,0.6,0.6,-0.6,-0.6,right,R,,,,,0,1,1,1,0,10,10,80,,,,,,,,,,,,,,,,,,,,,,,,,,,,,,,,,,,,,,,,,,,,176.65417180000077,None,right,1,1.6771989999979269,177.1546512000059,177.90604510000412,177.1546512000059,177.40538490000472,177.1546512000059,177.40538490000472,177.1546512000059,177.40538490000472,177.1546512000059,177.40538490000472,177.1546512000059,177.40538490000472,177.38820520000445,177.88984330000676,177.38820520000445,177.88984330000676,177.38820520000445,177.88984330000676,177.38820520000445,177.88984330000676,177.38820520000445,177.88984330000676,177.38820520000445,177.88984330000676,177.38820520000445,177.88984330000676,177.38820520000445,177.88984330000676,177.1546512000059,None,177.88984330000676,179.80898180000077,0.25,179.82518800000253,None,180.57683000000543,None,,,,,,,[1.91909091],4.980000000000004,0.8181818181818182,11001,001,2023_Dec_29_0944,MFTM_A_new1021,2021.2.3,60.098573679900525,
,,,,,,,,stim/Instruction_adaptive.png,conditions/adaptive.xlsx,test,0.6,0.6,0.6,-0.6,-0.6,right,R,,,,,0,1,1,1,0,11,11,16,,,,,,,,,,,,,,,,,,,,,,,,,,,,,,,,,,,,,,,,,,,,181.07753490000323,None,left,0,1.5338020000053803,181.57842340000207,182.3293274000025,181.57842340000207,181.82872280000447,181.57842340000207,181.82872280000447,181.57842340000207,181.82872280000447,181.57842340000207,181.82872280000447,181.57842340000207,181.82872280000447,181.81183760000567,182.31260470000416,181.81183760000567,182.31260470000416,181.81183760000567,182.31260470000416,181.81183760000567,182.31260470000416,181.81183760000567,182.31260470000416,181.81183760000567,182.31260470000416,181.81183760000567,182.31260470000416,181.81183760000567,182.31260470000416,181.57842340000207,None,182.31260470000416,184.26567170000635,0.25,184.2992829000068,None,185.04962340000202,None,,,,,,,[1.94666667],4.490000000000004,0.75,11001,001,2023_Dec_29_0944,MFTM_A_new1021,2021.2.3,60.098573679900525,
,,,,,,,,stim/Instruction_adaptive.png,conditions/adaptive.xlsx,test,-0.6,-0.6,-0.6,0.6,0.6,left,L,,,,,0,1,1,1,0,12,12,27,,,,,,,,,,,,,,,,,,,,,,,,,,,,,,,,,,,,,,,,,,,,185.55088130000513,None,right,0,1.380570199995418,186.051615700002,186.85289580000244,186.051615700002,186.3512228000036,186.051615700002,186.3512228000036,186.051615700002,186.3512228000036,186.051615700002,186.3512228000036,186.051615700002,186.3512228000036,186.31883760000346,186.81937470000412,186.31883760000346,186.81937470000412,186.31883760000346,186.81937470000412,186.31883760000346,186.81937470000412,186.31883760000346,186.81937470000412,186.31883760000346,186.81937470000412,186.31883760000346,186.81937470000412,186.31883760000346,186.81937470000412,186.051615700002,None,186.81937470000412,188.7887683000008,0.29000000000000004,188.82140620000428,None,189.5734350000057,None,,,,,,,[1.96692308],3.990000000000003,0.6923076923076923,11001,001,2023_Dec_29_0944,MFTM_A_new1021,2021.2.3,60.098573679900525,
,,,,,,,,stim/Instruction_adaptive.png,conditions/adaptive.xlsx,test,0.6,0.6,0.6,-0.6,-0.6,right,R,,,,,0,1,1,1,0,13,13,40,,,,,,,,,,,,,,,,,,,,,,,,,,,,,,,,,,,,,,,,,,,,190.07416080000257,None,right,1,1.7373129999978119,190.57462579999992,191.49286000000575,190.57462579999992,190.99219620000076,190.57462579999992,190.99219620000076,190.57462579999992,190.99219620000076,190.57462579999992,190.99219620000076,190.57462579999992,190.99219620000076,190.97545650000393,191.47668850000628,190.97545650000393,191.47668850000628,190.97545650000393,191.47668850000628,190.97545650000393,191.47668850000628,190.97545650000393,191.47668850000628,190.97545650000393,191.47668850000628,190.97545650000393,191.47668850000628,190.97545650000393,191.47668850000628,190.57462579999992,None,191.47668850000628,None,0.41000000000000014,193.46141750000243,None,194.2143795000011,None,,,,,,,[1.97571429],4.190000000000003,0.7142857142857143,11001,001,2023_Dec_29_0944,MFTM_A_new1021,2021.2.3,60.098573679900525,
,,,,,,,,stim/Instruction_adaptive.png,conditions/adaptive.xlsx,test,-0.6,-0.6,-0.6,0.6,0.6,left,L,,,,,0,1,1,1,0,14,14,31,,,,,,,,,,,,,,,,,,,,,,,,,,,,,,,,,,,,,,,,,,,,194.71444500000507,None,left,1,1.4968814000021666,195.21509900000092,196.08308860000398,195.21509900000092,195.58218000000488,195.21509900000092,195.58218000000488,195.21509900000092,195.58218000000488,195.21509900000092,195.58218000000488,195.21509900000092,195.58218000000488,195.56522440000117,196.06636550000258,195.56522440000117,196.06636550000258,195.56522440000117,196.06636550000258,195.56522440000117,196.06636550000258,195.56522440000117,196.06636550000258,195.56522440000117,196.06636550000258,195.56522440000117,196.06636550000258,195.56522440000117,196.06636550000258,195.21509900000092,None,196.04997500000172,198.03572460000578,0.3600000000000001,198.06896330000018,None,198.82106570000178,None,,,,,,,[1.98666667],4.350000000000003,0.7333333333333333,11001,001,2023_Dec_29_0944,MFTM_A_new1021,2021.2.3,60.098573679900525,
,,,,,,,,stim/Instruction_adaptive.png,conditions/adaptive.xlsx,test,0.6,0.6,0.6,-0.6,-0.6,right,R,,,,,0,1,1,1,0,15,15,94,,,,,,,,,,,,,,,,,,,,,,,,,,,,,,,,,,,,,,,,,,,,199.32128950000333,None,left,0,1.394013500001165,199.82189199999993,200.6565780000019,199.82189199999993,200.1556153000056,199.82189199999993,200.1556153000056,199.82189199999993,200.1556153000056,199.82189199999993,200.1556153000056,199.82189199999993,200.1556153000056,200.12201850000565,200.62265880000632,200.12201850000565,200.62265880000632,200.12201850000565,200.62265880000632,200.12201850000565,200.62265880000632,200.12201850000565,200.62265880000632,200.12201850000565,200.62265880000632,200.12201850000565,200.62265880000632,200.12201850000565,200.62265880000632,199.82189199999993,None,200.62265880000632,202.6261916000003,0.32000000000000006,202.64170860000013,None,203.39347249999992,None,,,,,,,[1.99875],3.9300000000000033,0.6875,11001,001,2023_Dec_29_0944,MFTM_A_new1021,2021.2.3,60.098573679900525,
,,,,,,,,stim/Instruction_adaptive.png,conditions/adaptive.xlsx,test,0.6,0.6,0.6,-0.6,-0.6,right,R,,,,,0,1,1,1,0,16,16,76,,,,,,,,,,,,,,,,,,,,,,,,,,,,,,,,,,,,,,,,,,,,203.89473230000294,None,right,1,1.677724400004081,204.39534780000395,205.3300706000009,204.39534780000395,204.82946080000693,204.39534780000395,204.82946080000693,204.39534780000395,204.82946080000693,204.39534780000395,204.82946080000693,204.39534780000395,204.82946080000693,204.8125868000061,205.3132379000017,204.8125868000061,205.3132379000017,204.8125868000061,205.3132379000017,204.8125868000061,205.3132379000017,204.8125868000061,205.3132379000017,204.8125868000061,205.3132379000017,204.8125868000061,205.3132379000017,204.8125868000061,205.3132379000017,204.39534780000395,None,205.3132379000017,207.31636940000317,0.43000000000000016,207.3320304000008,None,208.0841758000024,None,,,,,,,[2.00294118],4.100000000000003,0.7058823529411765,11001,001,2023_Dec_29_0944,MFTM_A_new1021,2021.2.3,60.098573679900525,
,,,,,,,,stim/Instruction_adaptive.png,conditions/adaptive.xlsx,test,-0.6,-0.6,-0.6,0.6,0.6,left,L,,,,,0,1,1,1,0,17,17,39,,,,,,,,,,,,,,,,,,,,,,,,,,,,,,,,,,,,,,,,,,,,208.5849104000008,None,left,1,1.586715200006438,209.08524720000423,209.97045010000147,209.08524720000423,209.4695165000012,209.08524720000423,209.4695165000012,209.08524720000423,209.4695165000012,209.08524720000423,209.4695165000012,209.08524720000423,209.4695165000012,209.45331940000324,209.9536853000027,209.45331940000324,209.9536853000027,209.45331940000324,209.9536853000027,209.45331940000324,209.9536853000027,209.45331940000324,209.9536853000027,209.45331940000324,209.9536853000027,209.45331940000324,209.9536853000027,209.45331940000324,209.9536853000027,209.08524720000423,None,209.9536853000027,211.9733705000035,0.3800000000000001,211.98926760000177,None,212.74149270000635,None,,,,,,,[2.00944444],4.240000000000004,0.7222222222222222,11001,001,2023_Dec_29_0944,MFTM_A_new1021,2021.2.3,60.098573679900525,
,,,,,,,,stim/Instruction_adaptive.png,conditions/adaptive.xlsx,test,0.6,0.6,0.6,-0.6,-0.6,right,R,,,,,0,1,1,1,0,18,18,66,,,,,,,,,,,,,,,,,,,,,,,,,,,,,,,,,,,,,,,,,,,,213.24188880000293,None,right,1,1.577504200002295,213.74246649999986,214.5943882000065,213.74246649999986,214.0930673000039,213.74246649999986,214.0930673000039,213.74246649999986,214.0930673000039,213.74246649999986,214.0930673000039,213.74246649999986,214.0930673000039,214.0763744000069,214.57631080000283,214.0763744000069,214.57631080000283,214.0763744000069,214.57631080000283,214.0763744000069,214.57631080000283,214.0763744000069,214.57631080000283,214.0763744000069,214.57631080000283,214.0763744000069,214.57631080000283,214.0763744000069,214.57631080000283,213.74246649999986,None,214.57631080000283,216.59717490000185,0.3500000000000001,216.61304350000137,None,217.36456940000062,None,,,,,,,[2.01684211],4.350000000000003,0.7368421052631579,11001,001,2023_Dec_29_0944,MFTM_A_new1021,2021.2.3,60.098573679900525,
,,,,,,,,stim/Instruction_adaptive.png,conditions/adaptive.xlsx,test,-0.6,-0.6,-0.6,0.6,0.6,left,L,,,,,0,1,1,1,0,19,19,67,,,,,,,,,,,,,,,,,,,,,,,,,,,,,,,,,,,,,,,,,,,,217.8655945000064,None,left,1,1.370864899996377,218.36516540000594,219.1845736000032,218.36516540000594,218.6999483000036,218.36516540000594,218.6999483000036,218.36516540000594,218.6999483000036,218.36516540000594,218.6999483000036,218.36516540000594,218.6999483000036,218.66649140000663,219.16768340000272,218.66649140000663,219.16768340000272,218.66649140000663,219.16768340000272,218.66649140000663,219.16768340000272,218.66649140000663,219.16768340000272,218.66649140000663,219.16768340000272,218.66649140000663,219.16768340000272,218.66649140000663,219.16768340000272,218.36516540000594,None,219.16768340000272,221.20354080000106,0.32000000000000006,221.21948310000153,None,221.97120780000114,None,,,,,,,[2.025],4.4600000000000035,0.75,11001,001,2023_Dec_29_0944,MFTM_A_new1021,2021.2.3,60.098573679900525,
,,,,,,,,stim/Instruction_adaptive.png,conditions/adaptive.xlsx,test,-0.6,-0.6,-0.6,0.6,0.6,left,L,,,,,0,1,1,1,0,20,20,21,,,,,,,,,,,,,,,,,,,,,,,,,,,,,,,,,,,,,,,,,,,,222.47264120000182,None,left,1,1.4514036999971722,222.97299190000194,223.77383750000445,222.97299190000194,223.2733378000048,222.97299190000194,223.2733378000048,222.97299190000194,223.2733378000048,222.97299190000194,223.2733378000048,222.97299190000194,223.2733378000048,223.25664480000705,223.75785330000508,223.25664480000705,223.75785330000508,223.25664480000705,223.75785330000508,223.25664480000705,223.75785330000508,223.25664480000705,223.75785330000508,223.25664480000705,223.75785330000508,223.25664480000705,223.75785330000508,223.25664480000705,223.75785330000508,222.97299190000194,None,223.75785330000508,225.79370500000368,0.30000000000000004,225.81022010000015,None,226.56152740000107,None,,,,,,,[2.03333333],4.550000000000003,0.7619047619047619,11001,001,2023_Dec_29_0944,MFTM_A_new1021,2021.2.3,60.098573679900525,
,,,,,,,,stim/Instruction_adaptive.png,conditions/adaptive.xlsx,test,0.6,0.6,0.6,-0.6,-0.6,right,R,,,,,0,1,1,1,0,21,21,92,,,,,,,,,,,,,,,,,,,,,,,,,,,,,,,,,,,,,,,,,,,,227.06220380000013,None,right,1,1.6049647999971057,227.56301730000268,228.347984,227.56301730000268,227.84678490000078,227.56301730000268,227.84678490000078,227.56301730000268,227.84678490000078,227.56301730000268,227.84678490000078,227.56301730000268,227.84678490000078,227.83008740000514,228.33112550000078,227.83008740000514,228.33112550000078,227.83008740000514,228.33112550000078,227.83008740000514,228.33112550000078,227.83008740000514,228.33112550000078,227.83008740000514,228.33112550000078,227.83008740000514,228.33112550000078,227.83008740000514,228.33112550000078,227.56301730000268,None,228.33112550000078,None,0.28,230.3840777000005,None,231.1349526000049,None,,,,,,,[2.04181818],4.640000000000004,0.7727272727272727,11001,001,2023_Dec_29_0944,MFTM_A_new1021,2021.2.3,60.098573679900525,
,,,,,,,,stim/Instruction_adaptive.png,conditions/adaptive.xlsx,test,0.6,0.6,0.6,-0.6,-0.6,right,R,,,,,0,1,1,1,0,22,22,4,,,,,,,,,,,,,,,,,,,,,,,,,,,,,,,,,,,,,,,,,,,,231.63616460000048,None,right,1,1.2316644999955315,232.13655300000391,232.90448600000673,232.13655300000391,232.4034260000044,232.13655300000391,232.4034260000044,232.13655300000391,232.4034260000044,232.13655300000391,232.4034260000044,232.13655300000391,232.4034260000044,232.38690350000252,232.88762520000455,232.38690350000252,232.88762520000455,232.38690350000252,232.88762520000455,232.38690350000252,232.88762520000455,232.38690350000252,232.88762520000455,232.38690350000252,232.88762520000455,232.38690350000252,232.88762520000455,232.38690350000252,232.88762520000455,232.13655300000391,None,232.88762520000455,234.94029270000465,0.26,234.95691750000697,None,235.7084257000024,None,,,,,,,[2.05043478],4.720000000000004,0.782608695652174,11001,001,2023_Dec_29_0944,MFTM_A_new1021,2021.2.3,60.098573679900525,
,,,,,,,,stim/Instruction_adaptive.png,conditions/adaptive.xlsx,test,0.6,0.6,0.6,-0.6,-0.6,right,R,,,,,0,1,1,1,0,23,23,68,,,,,,,,,,,,,,,,,,,,,,,,,,,,,,,,,,,,,,,,,,,,236.2094950000028,None,left,0,1.4266455000033602,236.70994050000445,237.46112150000408,236.70994050000445,236.9606711000015,236.70994050000445,236.9606711000015,236.70994050000445,236.9606711000015,236.70994050000445,236.9606711000015,236.70994050000445,236.9606711000015,236.94382710000355,237.4443750999999,236.94382710000355,237.4443750999999,236.94382710000355,237.4443750999999,236.94382710000355,237.4443750999999,236.94382710000355,237.4443750999999,236.94382710000355,237.4443750999999,236.94382710000355,237.4443750999999,236.94382710000355,237.4443750999999,236.70994050000445,None,237.4443750999999,239.51435550000315,0.25,239.52966440000455,None,240.28185460000532,None,,,,,,,[2.05875],4.5000000000000036,0.75,11001,001,2023_Dec_29_0944,MFTM_A_new1021,2021.2.3,60.098573679900525,
,,,,,,,,stim/Instruction_adaptive.png,conditions/adaptive.xlsx,test,-0.6,-0.6,-0.6,0.6,0.6,left,L,,,,,0,1,1,1,0,24,24,79,,,,,,,,,,,,,,,,,,,,,,,,,,,,,,,,,,,,,,,,,,,,240.78270260000136,None,right,0,1.3895478999984334,241.2828146000029,242.08477760000096,241.2828146000029,241.58378430000448,241.2828146000029,241.58378430000448,241.2828146000029,241.58378430000448,241.2828146000029,241.58378430000448,241.2828146000029,241.58378430000448,241.55095120000624,242.05117670000618,241.55095120000624,242.05117670000618,241.55095120000624,242.05117670000618,241.55095120000624,242.05117670000618,241.55095120000624,242.05117670000618,241.55095120000624,242.05117670000618,241.55095120000624,242.05117670000618,241.55095120000624,242.05117670000618,241.2828146000029,None,242.05117670000618,244.1213635000022,0.29000000000000004,244.1552370999998,None,244.9050106000068,None,,,,,,,[2.0648],4.260000000000003,0.72,11001,001,2023_Dec_29_0944,MFTM_A_new1021,2021.2.3,60.098573679900525,
,,,,,,,,stim/Instruction_adaptive.png,conditions/adaptive.xlsx,test,0.6,0.6,0.6,-0.6,-0.6,right,R,,,,,0,1,1,1,0,25,25,22,,,,,,,,,,,,,,,,,,,,,,,,,,,,,,,,,,,,,,,,,,,,245.40606560000015,None,left,0,1.6854162000017823,245.9069576000038,246.75812210000004,245.9069576000038,246.25742290000198,245.9069576000038,246.25742290000198,245.9069576000038,246.25742290000198,245.9069576000038,246.25742290000198,245.9069576000038,246.25742290000198,246.22396460000164,246.72508900000685,246.22396460000164,246.72508900000685,246.22396460000164,246.72508900000685,246.22396460000164,246.72508900000685,246.22396460000164,246.72508900000685,246.22396460000164,246.72508900000685,246.22396460000164,246.72508900000685,246.22396460000164,246.72508900000685,245.9069576000038,None,246.72508900000685,248.794137900004,0.3400000000000001,248.8270080000002,None,249.57911310000054,None,,,,,,,[2.06846154],3.990000000000003,0.6923076923076923,11001,001,2023_Dec_29_0944,MFTM_A_new1021,2021.2.3,60.098573679900525,
,,,,,,,,stim/Instruction_adaptive.png,conditions/adaptive.xlsx,test,0.6,0.6,0.6,-0.6,-0.6,right,R,,,,,0,1,1,1,0,26,26,2,,,,,,,,,,,,,,,,,,,,,,,,,,,,,,,,,,,,,,,,,,,,250.07970360000036,None,left,0,1.4359594999987166,250.58084610000515,251.4988844000036,250.58084610000515,250.99777640000684,250.58084610000515,250.99777640000684,250.58084610000515,250.99777640000684,250.58084610000515,250.99777640000684,250.58084610000515,250.99777640000684,250.98105639999994,251.4819495000047,250.98105639999994,251.4819495000047,250.98105639999994,251.4819495000047,250.98105639999994,251.4819495000047,250.98105639999994,251.4819495000047,250.98105639999994,251.4819495000047,250.98105639999994,251.4819495000047,250.98105639999994,251.4819495000047,250.58084610000515,None,251.4819495000047,253.55153210000572,0.41000000000000014,253.56789180000487,None,254.31933190000564,None,,,,,,,[2.06925926],3.680000000000003,0.6666666666666666,11001,001,2023_Dec_29_0944,MFTM_A_new1021,2021.2.3,60.098573679900525,
,,,,,,,,stim/Instruction_adaptive.png,conditions/adaptive.xlsx,test,0.6,0.6,0.6,-0.6,-0.6,right,R,,,,,0,1,1,1,0,27,27,14,,,,,,,,,,,,,,,,,,,,,,,,,,,,,,,,,,,,,,,,,,,,254.81995930000267,None,right,1,1.294914099999005,255.32095840000693,256.3387443000029,255.32095840000693,255.83831590000045,255.32095840000693,255.83831590000045,255.32095840000693,255.83831590000045,255.32095840000693,255.83831590000045,255.32095840000693,255.83831590000045,255.82173480000347,256.3223150000049,255.82173480000347,256.3223150000049,255.82173480000347,256.3223150000049,255.82173480000347,256.3223150000049,255.82173480000347,256.3223150000049,255.82173480000347,256.3223150000049,255.82173480000347,256.3223150000049,255.82173480000347,256.3223150000049,255.32095840000693,None,256.30561010000383,258.30924430000596,0.5100000000000002,258.34236650000094,None,259.092959600006,None,,,,,,,[[1.99]],3.800000000000003,0.6785714285714286,11001,001,2023_Dec_29_0944,MFTM_A_new1021,2021.2.3,60.098573679900525,
,,,,,,,,stim/Instruction_adaptive.png,conditions/adaptive.xlsx,test,0.6,0.6,0.6,-0.6,-0.6,right,R,,,,,0,1,1,1,0,28,28,70,,,,,,,,,,,,,,,,,,,,,,,,,,,,,,,,,,,,,,,,,,,,259.5939318000019,None,right,1,1.2427714000004926,260.094273900002,261.0795130000042,260.094273900002,260.57935700000235,260.094273900002,260.57935700000235,260.094273900002,260.57935700000235,260.094273900002,260.57935700000235,260.094273900002,260.57935700000235,260.5454564000029,261.0460604000036,260.5454564000029,261.0460604000036,260.5454564000029,261.0460604000036,260.5454564000029,261.0460604000036,260.5454564000029,261.0460604000036,260.5454564000029,261.0460604000036,260.5454564000029,261.0460604000036,260.5454564000029,261.0460604000036,260.094273900002,None,261.0460604000036,263.0824392000068,0.4700000000000002,263.0982565000013,None,263.85038740000164,None,,,,,,,[[2.03]],3.900000000000003,0.6896551724137931,11001,001,2023_Dec_29_0944,MFTM_A_new1021,2021.2.3,60.098573679900525,
,,,,,,,,stim/Instruction_adaptive.png,conditions/adaptive.xlsx,test,-0.6,-0.6,-0.6,0.6,0.6,left,L,,,,,0,1,1,1,0,29,29,25,,,,,,,,,,,,,,,,,,,,,,,,,,,,,,,,,,,,,,,,,,,,264.3508658999999,None,right,0,1.1805941999991774,264.8516421000022,265.80308940000396,264.8516421000022,265.30242730000464,264.8516421000022,265.30242730000464,264.8516421000022,265.30242730000464,264.8516421000022,265.30242730000464,264.8516421000022,265.30242730000464,265.268920100003,265.7696750000032,265.268920100003,265.7696750000032,265.268920100003,265.7696750000032,265.268920100003,265.7696750000032,265.268920100003,265.7696750000032,265.268920100003,265.7696750000032,265.268920100003,265.7696750000032,265.268920100003,265.7696750000032,264.8516421000022,None,265.7696750000032,267.83947980000084,0.44000000000000017,267.8550278000039,None,268.6073469000039,None,,,,,,,[[2.06]],3.610000000000003,0.6666666666666666,11001,001,2023_Dec_29_0944,MFTM_A_new1021,2021.2.3,60.098573679900525,
,,,,,,,,stim/Instruction_adaptive.png,conditions/adaptive.xlsx,test,0.6,0.6,0.6,-0.6,-0.6,right,R,,,,,0,1,1,1,0,30,30,52,,,,,,,,,,,,,,,,,,,,,,,,,,,,,,,,,,,,,,,,,,,,269.1077738000022,None,right,1,1.2873458999965806,269.6086850000065,270.6607815000025,269.6086850000065,270.1590792000061,269.6086850000065,270.1590792000061,269.6086850000065,270.1590792000061,269.6086850000065,270.1590792000061,269.6086850000065,270.1590792000061,270.126050100007,270.6270874000038,270.126050100007,270.6270874000038,270.126050100007,270.6270874000038,270.126050100007,270.6270874000038,270.126050100007,270.6270874000038,270.126050100007,270.6270874000038,270.126050100007,270.6270874000038,270.126050100007,270.6270874000038,269.6086850000065,None,270.6270874000038,272.59624350000377,0.5400000000000003,272.6123996000024,None,273.36434140000347,None,,,,,,,[[1.96]],3.720000000000003,0.6774193548387096,11001,001,2023_Dec_29_0944,MFTM_A_new1021,2021.2.3,60.098573679900525,
,,,,,,,,stim/Instruction_adaptive.png,conditions/adaptive.xlsx,test,-0.6,-0.6,-0.6,0.6,0.6,left,L,,,,,0,1,1,1,0,31,31,77,,,,,,,,,,,,,,,,,,,,,,,,,,,,,,,,,,,,,,,,,,,,273.86517760000424,None,left,1,1.7542782000018633,274.36571210000693,275.3668412000043,274.36571210000693,274.86694200000056,274.36571210000693,274.86694200000056,274.36571210000693,274.86694200000056,274.36571210000693,274.86694200000056,274.36571210000693,274.86694200000056,274.8502377000041,275.35056830000394,274.8502377000041,275.35056830000394,274.8502377000041,275.35056830000394,274.8502377000041,275.35056830000394,274.8502377000041,275.35056830000394,274.8502377000041,275.35056830000394,274.8502377000041,275.35056830000394,274.8502377000041,275.35056830000394,274.36571210000693,None,275.35056830000394,277.3536505000011,0.5000000000000002,277.38727920000383,None,278.1384335000039,None,,,,,,,[[2.]],3.820000000000003,0.6875,11001,001,2023_Dec_29_0944,MFTM_A_new1021,2021.2.3,60.098573679900525,
,,,,,,,,stim/Instruction_adaptive.png,conditions/adaptive.xlsx,test,0.6,0.6,0.6,-0.6,-0.6,right,R,,,,,0,1,1,1,0,32,32,48,,,,,,,,,,,,,,,,,,,,,,,,,,,,,,,,,,,,,,,,,,,,278.6388109000036,None,right,1,1.2766030000057071,279.13945900000544,280.1243639000022,279.13945900000544,279.62416120000125,279.13945900000544,279.62416120000125,279.13945900000544,279.62416120000125,279.13945900000544,279.62416120000125,279.13945900000544,279.62416120000125,279.5904334000006,280.09089920000406,279.5904334000006,280.09089920000406,279.5904334000006,280.09089920000406,279.5904334000006,280.09089920000406,279.5904334000006,280.09089920000406,279.5904334000006,280.09089920000406,279.5904334000006,280.09089920000406,279.5904334000006,280.09089920000406,279.13945900000544,None,280.09089920000406,282.12734060000366,0.4700000000000002,282.1440866000048,None,282.8953363000037,None,,,,,,,[[2.03]],3.900000000000003,0.696969696969697,11001,001,2023_Dec_29_0944,MFTM_A_new1021,2021.2.3,60.098573679900525,
,,,,,,,,stim/Instruction_adaptive.png,conditions/adaptive.xlsx,test,-0.6,-0.6,-0.6,0.6,0.6,left,L,,,,,0,1,1,1,0,33,33,19,,,,,,,,,,,,,,,,,,,,,,,,,,,,,,,,,,,,,,,,,,,,283.3951276000007,None,left,1,1.7124657000022125,283.89600440000504,284.8474245000034,283.89600440000504,284.34730640000635,283.89600440000504,284.34730640000635,283.89600440000504,284.34730640000635,283.89600440000504,284.34730640000635,283.89600440000504,284.34730640000635,284.31378690000565,284.8138526000039,284.31378690000565,284.8138526000039,284.31378690000565,284.8138526000039,284.31378690000565,284.8138526000039,284.31378690000565,284.8138526000039,284.31378690000565,284.8138526000039,284.31378690000565,284.8138526000039,284.31378690000565,284.8138526000039,283.89600440000504,None,284.8138526000039,286.88433920000534,0.44000000000000017,286.9185697000066,None,287.6683755000049,None,,,,,,,[2.05882353],3.980000000000003,0.7058823529411765,11001,001,2023_Dec_29_0944,MFTM_A_new1021,2021.2.3,60.098573679900525,
,,,,,,,,stim/Instruction_adaptive.png,conditions/adaptive.xlsx,test,-0.6,-0.6,-0.6,0.6,0.6,left,L,,,,,0,1,1,1,0,34,34,15,,,,,,,,,,,,,,,,,,,,,,,,,,,,,,,,,,,,,,,,,,,,288.1694448000053,None,right,0,1.24245990000054,288.67031500000303,289.604714400004,288.67031500000303,289.1044746000043,288.67031500000303,289.1044746000043,288.67031500000303,289.1044746000043,288.67031500000303,289.1044746000043,288.67031500000303,289.1044746000043,289.070881700005,289.5715849000044,289.070881700005,289.5715849000044,289.070881700005,289.5715849000044,289.070881700005,289.5715849000044,289.070881700005,289.5715849000044,289.070881700005,289.5715849000044,289.070881700005,289.5715849000044,289.070881700005,289.5715849000044,288.67031500000303,None,289.5715849000044,291.64066040000034,0.42000000000000015,291.6577724000017,None,292.4092704000068,None,,,,,,,[2.05942857],3.760000000000003,0.6857142857142857,11001,001,2023_Dec_29_0944,MFTM_A_new1021,2021.2.3,60.098573679900525,
,,,,,,,,stim/Instruction_adaptive.png,conditions/adaptive.xlsx,test,0.6,0.6,0.6,-0.6,-0.6,right,R,,,,,0,1,1,1,0,35,35,8,,,,,,,,,,,,,,,,,,,,,,,,,,,,,,,,,,,,,,,,,,,,292.909175700006,None,right,1,0.9423632999969414,293.4106576000049,294.4121795000028,293.4106576000049,293.911130600005,293.4106576000049,293.911130600005,293.4106576000049,293.911130600005,293.4106576000049,293.911130600005,293.4106576000049,293.911130600005,293.8785698000065,294.3787389000063,293.8785698000065,294.3787389000063,293.8785698000065,294.3787389000063,293.8785698000065,294.3787389000063,293.8785698000065,294.3787389000063,293.8785698000065,294.3787389000063,293.8785698000065,294.3787389000063,293.8785698000065,294.3787389000063,293.4106576000049,None,294.3787389000063,296.3984197000027,0.4900000000000002,296.4140408000021,None,297.1662765000001,None,,,,,,,[[2.01]],3.840000000000003,0.6944444444444444,11001,001,2023_Dec_29_0944,MFTM_A_new1021,2021.2.3,60.098573679900525,
,,,,,,,,stim/Instruction_adaptive.png,conditions/adaptive.xlsx,test,-0.6,-0.6,-0.6,0.6,0.6,left,L,,,,,0,1,1,1,0,36,36,45,,,,,,,,,,,,,,,,,,,,,,,,,,,,,,,,,,,,,,,,,,,,297.66631180000695,None,right,0,2.257461199995305,298.16681750000134,299.1356431000022,298.16681750000134,298.6340946000055,298.16681750000134,298.6340946000055,298.16681750000134,298.6340946000055,298.16681750000134,298.6340946000055,298.16681750000134,298.6340946000055,298.61746370000037,299.1188515000031,298.61746370000037,299.1188515000031,298.61746370000037,299.1188515000031,298.61746370000037,299.1188515000031,298.61746370000037,299.1188515000031,298.61746370000037,299.1188515000031,298.61746370000037,299.1188515000031,298.61746370000037,299.1188515000031,298.16681750000134,None,299.1021120000005,301.1555901000029,0.4600000000000002,301.1711687000061,None,301.923306100005,None,,,,,,,[[2.04]],3.6200000000000028,0.6756756756756757,11001,001,2023_Dec_29_0944,MFTM_A_new1021,2021.2.3,60.098573679900525,
,,,,,,,,stim/Instruction_adaptive.png,conditions/adaptive.xlsx,test,-0.6,-0.6,-0.6,0.6,0.6,left,L,,,,,0,1,1,1,0,37,37,9,,,,,,,,,,,,,,,,,,,,,,,,,,,,,,,,,,,,,,,,,,,,302.42402490000677,None,right,0,1.2367871000024024,302.92387850000523,303.9761951000037,302.92387850000523,303.4755046999999,302.92387850000523,303.4755046999999,302.92387850000523,303.4755046999999,302.92387850000523,303.4755046999999,302.92387850000523,303.4755046999999,303.45953780000127,303.95970410000155,303.45953780000127,303.95970410000155,303.45953780000127,303.95970410000155,303.45953780000127,303.95970410000155,303.45953780000127,303.95970410000155,303.45953780000127,303.95970410000155,303.45953780000127,303.95970410000155,303.45953780000127,303.95970410000155,302.92387850000523,None,303.95970410000155,None,0.5400000000000003,305.92812100000447,None,306.6803207000048,None,,,,,,,[[1.96]],3.3600000000000025,0.6578947368421053,11001,001,2023_Dec_29_0944,MFTM_A_new1021,2021.2.3,60.098573679900525,
,,,,,,,,stim/Instruction_adaptive.png,conditions/adaptive.xlsx,test,0.6,0.6,0.6,-0.6,-0.6,right,R,,,,,0,1,1,1,0,38,38,44,,,,,,,,,,,,,,,,,,,,,,,,,,,,,,,,,,,,,,,,,,,,307.18094830000337,None,left,0,1.7103718999933335,307.68188130000635,308.83340650000173,307.68188130000635,308.3326814000029,307.68188130000635,308.3326814000029,307.68188130000635,308.3326814000029,307.68188130000635,308.3326814000029,307.68188130000635,308.3326814000029,308.29941210000106,308.8000486000019,308.29941210000106,308.8000486000019,308.29941210000106,308.8000486000019,308.29941210000106,308.8000486000019,308.29941210000106,308.8000486000019,308.29941210000106,308.8000486000019,308.29941210000106,308.8000486000019,308.29941210000106,308.8000486000019,307.68188130000635,None,308.8000486000019,310.6695353000032,0.6400000000000003,310.6850925000035,None,311.4374179000006,None,,,,,,,[[1.86]],3.0500000000000025,0.6410256410256411,11001,001,2023_Dec_29_0944,MFTM_A_new1021,2021.2.3,60.098573679900525,
,,,,,,,,stim/Instruction_adaptive.png,conditions/adaptive.xlsx,test,0.6,0.6,0.6,-0.6,-0.6,right,R,,,,,0,1,1,1,0,39,39,18,,,,,,,,,,,,,,,,,,,,,,,,,,,,,,,,,,,,,,,,,,,,311.93813170000067,None,left,0,0.9926045999964117,312.43941440000344,313.74070990000473,312.43941440000344,313.2401334000024,312.43941440000344,313.2401334000024,312.43941440000344,313.2401334000024,312.43941440000344,313.2401334000024,312.43941440000344,313.2401334000024,313.2059367000038,313.7077133000057,313.2059367000038,313.7077133000057,313.2059367000038,313.7077133000057,313.2059367000038,313.7077133000057,313.2059367000038,313.7077133000057,313.2059367000038,313.7077133000057,313.2059367000038,313.7077133000057,313.2059367000038,313.7077133000057,312.43941440000344,None,313.7077133000057,315.4265635000047,0.7900000000000005,315.4425854000001,None,316.1942038000052,None,,,,,,,[[1.71]],2.6700000000000017,0.625,11001,001,2023_Dec_29_0944,MFTM_A_new1021,2021.2.3,60.098573679900525,
,,,,,,,,stim/Instruction_adaptive.png,conditions/adaptive.xlsx,test,-0.6,-0.6,-0.6,0.6,0.6,left,L,,,,,0,1,1,1,0,40,40,11,,,,,,,,,,,,,,,,,,,,,,,,,,,,,,,,,,,,,,,,,,,,316.69515780000074,None,right,0,2.045085999998264,317.1950622000004,318.73150150000583,317.1950622000004,318.2307829000056,317.1950622000004,318.2307829000056,317.1950622000004,318.2307829000056,317.1950622000004,318.2307829000056,317.1950622000004,318.2307829000056,318.2142226000069,318.71479640000325,318.2142226000069,318.71479640000325,318.2142226000069,318.71479640000325,318.2142226000069,318.71479640000325,318.2142226000069,318.71479640000325,318.2142226000069,318.71479640000325,318.2142226000069,318.71479640000325,318.2142226000069,318.71479640000325,317.1950622000004,None,318.71479640000325,None,1.0300000000000007,320.19951250000304,None,320.9514999000021,None,,,,,,,[[1.47]],2.1600000000000015,0.6097560975609756,11001,001,2023_Dec_29_0944,MFTM_A_new1021,2021.2.3,60.098573679900525,
,,,,,,,,stim/Instruction_adaptive.png,conditions/adaptive.xlsx,test,-0.6,-0.6,-0.6,0.6,0.6,left,L,,,,,0,1,1,1,0,41,41,57,,,,,,,,,,,,,,,,,,,,,,,,,,,,,,,,,,,,,,,,,,,,321.4521650000024,None,left,1,1.4076917999991565,321.9528130000035,323.92256000000634,321.9528130000035,323.4220792000051,321.9528130000035,323.4220792000051,321.9528130000035,323.4220792000051,321.9528130000035,323.4220792000051,321.9528130000035,323.4220792000051,323.40520920000563,323.9052456999998,323.40520920000563,323.9052456999998,323.40520920000563,323.9052456999998,323.40520920000563,323.9052456999998,323.40520920000563,323.9052456999998,323.40520920000563,323.9052456999998,323.40520920000563,323.9052456999998,323.40520920000563,323.9052456999998,321.9528130000035,None,323.9052456999998,324.94060460000037,1.470000000000001,324.9563918000058,None,325.708197400003,None,,,,,,,[[1.03]],2.3800000000000017,0.6190476190476191,11001,001,2023_Dec_29_0944,MFTM_A_new1021,2021.2.3,60.098573679900525,
,,,,,,,,stim/Instruction_adaptive.png,conditions/adaptive.xlsx,test,0.6,0.6,0.6,-0.6,-0.6,right,R,,,,,0,1,1,1,0,42,42,86,,,,,,,,,,,,,,,,,,,,,,,,,,,,,,,,,,,,,,,,,,,,326.2088909000013,None,right,1,1.5941554000019096,326.7100619000048,328.4787326000005,326.7100619000048,327.9785572000037,326.7100619000048,327.9785572000037,326.7100619000048,327.9785572000037,326.7100619000048,327.9785572000037,326.7100619000048,327.9785572000037,327.94452060000185,328.4458819000065,327.94452060000185,328.4458819000065,327.94452060000185,328.4458819000065,327.94452060000185,328.4458819000065,327.94452060000185,328.4458819000065,327.94452060000185,328.4458819000065,327.94452060000185,328.4458819000065,327.94452060000185,328.4458819000065,326.7100619000048,None,328.4458819000065,329.69731210000464,1.260000000000001,329.7142734000008,None,330.4655811000048,None,,,,,,,[[1.24]],2.540000000000002,0.627906976744186,11001,001,2023_Dec_29_0944,MFTM_A_new1021,2021.2.3,60.098573679900525,
,,,,,,,,stim/Instruction_adaptive.png,conditions/adaptive.xlsx,test,-0.6,-0.6,-0.6,0.6,0.6,left,L,,,,,0,1,1,1,0,43,43,55,,,,,,,,,,,,,,,,,,,,,,,,,,,,,,,,,,,,,,,,,,,,330.9668249000024,None,right,0,1.6929538000040338,331.4671195000046,333.10268400000496,331.4671195000046,332.60238550000213,331.4671195000046,332.60238550000213,331.4671195000046,332.60238550000213,331.4671195000046,332.60238550000213,331.4671195000046,332.60238550000213,332.58515730000363,333.0859038000053,332.58515730000363,333.0859038000053,332.58515730000363,333.0859038000053,332.58515730000363,333.0859038000053,332.58515730000363,333.0859038000053,332.58515730000363,333.0859038000053,332.58515730000363,333.0859038000053,332.58515730000363,333.0859038000053,331.4671195000046,None,333.0859038000053,None,1.1300000000000008,334.48865040000237,None,335.2399988000034,None,,,,,,,[[1.37]],2.1000000000000014,0.6136363636363636,11001,001,2023_Dec_29_0944,MFTM_A_new1021,2021.2.3,60.098573679900525,
,,,,,,,,stim/Instruction_adaptive.png,conditions/adaptive.xlsx,test,-0.6,-0.6,-0.6,0.6,0.6,left,L,,,,,0,1,1,1,0,44,44,35,,,,,,,,,,,,,,,,,,,,,,,,,,,,,,,,,,,,,,,,,,,,335.74011630000314,None,left,1,1.2712998999995762,336.24078230000305,338.2771461000011,336.24078230000305,337.77642310000374,336.24078230000305,337.77642310000374,336.24078230000305,337.77642310000374,336.24078230000305,337.77642310000374,336.24078230000305,337.77642310000374,337.743000800001,338.24372140000196,337.743000800001,338.24372140000196,337.743000800001,338.24372140000196,337.743000800001,338.24372140000196,337.743000800001,338.24372140000196,337.743000800001,338.24372140000196,337.743000800001,338.24372140000196,337.743000800001,338.24372140000196,336.24078230000305,None,338.24372140000196,339.22850440000184,1.5300000000000011,339.2445697000003,None,339.9965721000044,None,,,,,,,[[0.97]],2.2800000000000016,0.6222222222222222,11001,001,2023_Dec_29_0944,MFTM_A_new1021,2021.2.3,60.098573679900525,
,,,,,,,,stim/Instruction_adaptive.png,conditions/adaptive.xlsx,test,-0.6,-0.6,-0.6,0.6,0.6,left,L,,,,,0,1,1,1,0,45,45,53,,,,,,,,,,,,,,,,,,,,,,,,,,,,,,,,,,,,,,,,,,,,340.49707460000354,None,right,0,2.546300699999847,340.99784710000677,342.8506662,340.99784710000677,342.3499516000011,340.99784710000677,342.3499516000011,340.99784710000677,342.3499516000011,340.99784710000677,342.3499516000011,340.99784710000677,342.3499516000011,342.3329756000021,342.8339108,342.3329756000021,342.8339108,342.3329756000021,342.8339108,342.3329756000021,342.8339108,342.3329756000021,342.8339108,342.3329756000021,342.8339108,342.3329756000021,342.8339108,342.3329756000021,342.8339108,340.99784710000677,None,342.8339108,343.98561470000277,1.350000000000001,344.01968180000404,None,344.7704739000037,None,,,,,,,[[1.15]],1.8000000000000012,0.6086956521739131,11001,001,2023_Dec_29_0944,MFTM_A_new1021,2021.2.3,60.098573679900525,
,,,,,,,,stim/Instruction_adaptive.png,conditions/adaptive.xlsx,test,0.6,0.6,0.6,-0.6,-0.6,right,R,,,,,0,1,1,1,0,46,46,46,,,,,,,,,,,,,,,,,,,,,,,,,,,,,,,,,,,,,,,,,,,,345.2709099000058,None,right,1,2.0688030000019353,345.7715068000034,348.1751507000008,345.7715068000034,347.67465070000617,345.7715068000034,347.67465070000617,345.7715068000034,347.67465070000617,345.7715068000034,347.67465070000617,345.7715068000034,347.67465070000617,347.6410176000063,348.14141880000534,347.6410176000063,348.14141880000534,347.6410176000063,348.14141880000534,347.6410176000063,348.14141880000534,347.6410176000063,348.14141880000534,347.6410176000063,348.14141880000534,347.6410176000063,348.14141880000534,347.6410176000063,348.14141880000534,345.7715068000034,None,348.14141880000534,348.7593951000017,1.8900000000000015,348.79313730000285,None,349.54331880000245,None,,,,,,,[[0.61]],2.0000000000000013,0.6170212765957447,11001,001,2023_Dec_29_0944,MFTM_A_new1021,2021.2.3,60.098573679900525,
,,,,,,,,stim/Instruction_adaptive.png,conditions/adaptive.xlsx,test,0.6,0.6,0.6,-0.6,-0.6,right,R,,,,,0,1,1,1,0,47,47,6,,,,,,,,,,,,,,,,,,,,,,,,,,,,,,,,,,,,,,,,,,,,350.04464420000295,None,right,1,1.2710552999997162,350.5453579000023,352.6982715000049,350.5453579000023,352.19757980000577,350.5453579000023,352.19757980000577,350.5453579000023,352.19757980000577,350.5453579000023,352.19757980000577,350.5453579000023,352.19757980000577,352.16433790000156,352.6655879000027,352.16433790000156,352.6655879000027,352.16433790000156,352.6655879000027,352.16433790000156,352.6655879000027,352.16433790000156,352.6655879000027,352.16433790000156,352.6655879000027,352.16433790000156,352.6655879000027,352.16433790000156,352.6655879000027,350.5453579000023,None,352.6655879000027,353.53319150000607,1.6400000000000012,353.56732270000066,None,354.31803070000024,None,,,,,,,[[0.86]],2.1500000000000012,0.625,11001,001,2023_Dec_29_0944,MFTM_A_new1021,2021.2.3,60.098573679900525,
,,,,,,,,stim/Instruction_adaptive.png,conditions/adaptive.xlsx,test,0.6,0.6,0.6,-0.6,-0.6,right,R,,,,,0,1,1,1,0,48,48,12,,,,,,,,,,,,,,,,,,,,,,,,,,,,,,,,,,,,,,,,,,,,354.8183698000066,None,right,1,1.3533229000022402,355.31905210000696,357.3053036000056,355.31905210000696,356.80456750000303,355.31905210000696,356.80456750000303,355.31905210000696,356.80456750000303,355.31905210000696,356.80456750000303,355.31905210000696,356.80456750000303,356.7879197000002,357.2885416000063,356.7879197000002,357.2885416000063,356.7879197000002,357.2885416000063,356.7879197000002,357.2885416000063,356.7879197000002,357.2885416000063,356.7879197000002,357.2885416000063,356.7879197000002,357.2885416000063,356.7879197000002,357.2885416000063,355.31905210000696,None,357.2718625000052,358.30686600000627,1.480000000000001,358.3225462000046,None,359.0749136000013,None,,,,,,,[[1.02]],2.2800000000000016,0.6326530612244898,11001,001,2023_Dec_29_0944,MFTM_A_new1021,2021.2.3,60.098573679900525,
,,,,,,,,stim/Instruction_adaptive.png,conditions/adaptive.xlsx,test,-0.6,-0.6,-0.6,0.6,0.6,left,L,,,,,0,1,1,1,0,49,49,59,,,,,,,,,,,,,,,,,,,,,,,,,,,,,,,,,,,,,,,,,,,,359.57512350000616,None,left,1,1.7803060000005644,360.0761586000008,361.9289359000031,360.0761586000008,361.4281603000054,360.0761586000008,361.4281603000054,360.0761586000008,361.4281603000054,360.0761586000008,361.4281603000054,360.0761586000008,361.4281603000054,361.41143760000705,361.9121285000001,361.41143760000705,361.9121285000001,361.41143760000705,361.9121285000001,361.41143760000705,361.9121285000001,361.41143760000705,361.9121285000001,361.41143760000705,361.9121285000001,361.41143760000705,361.9121285000001,361.41143760000705,361.9121285000001,360.0761586000008,None,361.9121285000001,363.06388990000414,1.350000000000001,363.07981850000215,None,363.83188540000265,None,,,,,,,[[1.15]],2.3900000000000015,0.64,11001,001,2023_Dec_29_0944,MFTM_A_new1021,2021.2.3,60.098573679900525,
,,,,,,,,stim/Instruction_adaptive.png,conditions/adaptive.xlsx,test,-0.6,-0.6,-0.6,0.6,0.6,left,L,,,,,0,1,1,1,0,50,50,87,,,,,,,,,,,,,,,,,,,,,,,,,,,,,,,,,,,,,,,,,,,,364.33196030000545,None,left,1,1.2629933999996865,364.83320190000086,366.60232720000204,364.83320190000086,366.10085110000364,364.83320190000086,366.10085110000364,364.83320190000086,366.10085110000364,364.83320190000086,366.10085110000364,364.83320190000086,366.10085110000364,366.0679195000048,366.569316000001,366.0679195000048,366.569316000001,366.0679195000048,366.569316000001,366.0679195000048,366.569316000001,366.0679195000048,366.569316000001,366.0679195000048,366.569316000001,366.0679195000048,366.569316000001,366.0679195000048,366.569316000001,364.83320190000086,None,366.569316000001,367.82072860000335,1.260000000000001,367.8375733000066,None,368.5886094000016,None,,,,,,,[[1.24]],2.4800000000000018,0.6470588235294118,11001,001,2023_Dec_29_0944,MFTM_A_new1021,2021.2.3,60.098573679900525,
,,,,,,,,stim/Instruction_adaptive.png,conditions/adaptive.xlsx,test,-0.6,-0.6,-0.6,0.6,0.6,left,L,,,,,0,1,1,1,0,51,51,65,,,,,,,,,,,,,,,,,,,,,,,,,,,,,,,,,,,,,,,,,,,,369.0893350000042,None,left,1,1.3779552999985754,369.5901101000054,371.2760902000009,369.5901101000054,370.77538490000006,369.5901101000054,370.77538490000006,369.5901101000054,370.77538490000006,369.5901101000054,370.77538490000006,369.5901101000054,370.77538490000006,370.7586380000066,371.2593047000046,370.7586380000066,371.2593047000046,370.7586380000066,371.2593047000046,370.7586380000066,371.2593047000046,370.7586380000066,371.2593047000046,370.7586380000066,371.2593047000046,370.7586380000066,371.2593047000046,370.7586380000066,371.2593047000046,369.5901101000054,None,371.2593047000046,None,1.1800000000000008,372.59456910000154,None,373.3460739000002,None,,,,,,,[[1.32]],2.570000000000002,0.6538461538461539,11001,001,2023_Dec_29_0944,MFTM_A_new1021,2021.2.3,60.098573679900525,
,,,,,,,,stim/Instruction_adaptive.png,conditions/adaptive.xlsx,test,-0.6,-0.6,-0.6,0.6,0.6,left,L,,,,,0,1,1,1,0,52,52,85,,,,,,,,,,,,,,,,,,,,,,,,,,,,,,,,,,,,,,,,,,,,373.846566900007,None,left,1,1.1818446999968728,374.3465845000028,375.96811680000246,374.3465845000028,375.46553850000055,374.3465845000028,375.46553850000055,374.3465845000028,375.46553850000055,374.3465845000028,375.46553850000055,374.3465845000028,375.46553850000055,375.448819600002,375.94876620000286,375.448819600002,375.94876620000286,375.448819600002,375.94876620000286,375.448819600002,375.94876620000286,375.448819600002,375.94876620000286,375.448819600002,375.94876620000286,375.448819600002,375.94876620000286,375.448819600002,375.94876620000286,374.3465845000028,None,375.94876620000286,None,1.1100000000000008,377.35194230000343,None,378.1027857000008,None,,,,,,,[[1.39]],2.640000000000002,0.660377358490566,11001,001,2023_Dec_29_0944,MFTM_A_new1021,2021.2.3,60.098573679900525,
,,,,,,,,stim/Instruction_adaptive.png,conditions/adaptive.xlsx,test,-0.6,-0.6,-0.6,0.6,0.6,left,L,,,,,0,1,1,1,0,53,53,63,,,,,,,,,,,,,,,,,,,,,,,,,,,,,,,,,,,,,,,,,,,,378.60352820000116,None,right,0,1.3525901999964844,379.10398720000376,380.6731467999998,379.10398720000376,380.1729492000013,379.10398720000376,380.1729492000013,379.10398720000376,380.1729492000013,379.10398720000376,380.1729492000013,379.10398720000376,380.1729492000013,380.1392235000021,380.63995020000584,380.1392235000021,380.63995020000584,380.1392235000021,380.63995020000584,380.1392235000021,380.63995020000584,380.1392235000021,380.63995020000584,380.1392235000021,380.63995020000584,380.1392235000021,380.63995020000584,380.1392235000021,380.63995020000584,379.10398720000376,None,380.63995020000584,382.09205170000496,1.0600000000000007,382.12546330000623,None,382.8766121000008,None,,,,,,,[[1.44]],2.4200000000000017,0.6481481481481481,11001,001,2023_Dec_29_0944,MFTM_A_new1021,2021.2.3,60.098573679900525,
,,,,,,,,stim/Instruction_adaptive.png,conditions/adaptive.xlsx,test,-0.6,-0.6,-0.6,0.6,0.6,left,L,,,,,0,1,1,1,0,54,54,61,,,,,,,,,,,,,,,,,,,,,,,,,,,,,,,,,,,,,,,,,,,,383.3772478000028,None,left,1,1.38651899999968,383.8778087000028,385.6136298000056,383.8778087000028,385.1132709000012,383.8778087000028,385.1132709000012,383.8778087000028,385.1132709000012,383.8778087000028,385.1132709000012,383.8778087000028,385.1132709000012,385.09656490000634,385.59699370000453,385.09656490000634,385.59699370000453,385.09656490000634,385.59699370000453,385.09656490000634,385.59699370000453,385.09656490000634,385.59699370000453,385.09656490000634,385.59699370000453,385.09656490000634,385.59699370000453,385.09656490000634,385.59699370000453,383.8778087000028,None,385.5805260000052,386.8658041000017,1.2300000000000009,386.8814340000026,None,387.6337519000008,None,,,,,,,[[1.27]],2.5000000000000018,0.6545454545454545,11001,001,2023_Dec_29_0944,MFTM_A_new1021,2021.2.3,60.098573679900525,
,,,,,,,,stim/Instruction_adaptive.png,conditions/adaptive.xlsx,test,0.6,0.6,0.6,-0.6,-0.6,right,R,,,,,0,1,1,1,0,55,55,50,,,,,,,,,,,,,,,,,,,,,,,,,,,,,,,,,,,,,,,,,,,,388.1341353000025,None,left,0,1.5975170000019716,388.6350203000038,390.3043372000029,388.6350203000038,389.80342490000476,388.6350203000038,389.80342490000476,388.6350203000038,389.80342490000476,388.6350203000038,389.80342490000476,388.6350203000038,389.80342490000476,389.7699303000045,390.27150220000476,389.7699303000045,390.27150220000476,389.7699303000045,390.27150220000476,389.7699303000045,390.27150220000476,389.7699303000045,390.27150220000476,389.7699303000045,390.27150220000476,389.7699303000045,390.27150220000476,389.7699303000045,390.27150220000476,388.6350203000038,None,390.27150220000476,391.6228160000028,1.1600000000000008,391.65673190000234,None,392.4077554000032,None,,,,,,,[[1.34]],2.2800000000000016,0.6428571428571429,11001,001,2023_Dec_29_0944,MFTM_A_new1021,2021.2.3,60.098573679900525,
,,,,,,,,stim/Instruction_adaptive.png,conditions/adaptive.xlsx,test,-0.6,-0.6,-0.6,0.6,0.6,left,L,,,,,0,1,1,1,0,56,56,73,,,,,,,,,,,,,,,,,,,,,,,,,,,,,,,,,,,,,,,,,,,,392.9081890000016,None,left,1,1.7923229000007268,393.40851430000475,395.2613214000012,393.40851430000475,394.7608534000028,393.40851430000475,394.7608534000028,393.40851430000475,394.7608534000028,393.40851430000475,394.7608534000028,393.40851430000475,394.7608534000028,394.7444567000057,395.2449854000006,394.7444567000057,395.2449854000006,394.7444567000057,395.2449854000006,394.7444567000057,395.2449854000006,394.7444567000057,395.2449854000006,394.7444567000057,395.2449854000006,394.7444567000057,395.2449854000006,394.7444567000057,395.2449854000006,393.40851430000475,None,395.2449854000006,396.3966953000054,1.350000000000001,396.4307587000003,None,397.1802957000036,None,,,,,,,[[1.15]],2.3600000000000017,0.6491228070175439,11001,001,2023_Dec_29_0944,MFTM_A_new1021,2021.2.3,60.098573679900525,
,,,,,,,,stim/Instruction_adaptive.png,conditions/adaptive.xlsx,test,0.6,0.6,0.6,-0.6,-0.6,right,R,,,,,0,1,1,1,0,57,57,96,,,,,,,,,,,,,,,,,,,,,,,,,,,,,,,,,,,,,,,,,,,,397.68224150000606,None,right,1,1.1625328000009176,398.18185580000136,399.9684739000004,398.18185580000136,399.46752800000104,398.18185580000136,399.46752800000104,398.18185580000136,399.46752800000104,398.18185580000136,399.46752800000104,398.18185580000136,399.46752800000104,399.45105760000297,399.95183000000543,399.45105760000297,399.95183000000543,399.45105760000297,399.95183000000543,399.45105760000297,399.95183000000543,399.45105760000297,399.95183000000543,399.45105760000297,399.95183000000543,399.45105760000297,399.95183000000543,399.45105760000297,399.95183000000543,398.18185580000136,None,399.95183000000543,None,1.280000000000001,401.1860849000004,None,401.93845420000434,None,,,,,,,[[1.22]],2.4400000000000017,0.6551724137931034,11001,001,2023_Dec_29_0944,MFTM_A_new1021,2021.2.3,60.098573679900525,
,,,,,,,,stim/Instruction_adaptive.png,conditions/adaptive.xlsx,test,0.6,0.6,0.6,-0.6,-0.6,right,R,,,,,0,1,1,1,0,58,58,30,,,,,,,,,,,,,,,,,,,,,,,,,,,,,,,,,,,,,,,,,,,,402.438919900007,None,left,0,1.8444212999966112,402.9397545000029,404.6589376000047,402.9397545000029,404.15853240000433,402.9397545000029,404.15853240000433,402.9397545000029,404.15853240000433,402.9397545000029,404.15853240000433,402.9397545000029,404.15853240000433,404.12482170000294,404.6254375000062,404.12482170000294,404.6254375000062,404.12482170000294,404.6254375000062,404.12482170000294,404.6254375000062,404.12482170000294,404.6254375000062,404.12482170000294,404.6254375000062,404.12482170000294,404.6254375000062,404.12482170000294,404.6254375000062,402.9397545000029,None,404.6254375000062,405.92741370000294,1.2100000000000009,405.9434095000033,None,406.69531540000025,None,,,,,,,[[1.29]],2.2300000000000013,0.6440677966101694,11001,001,2023_Dec_29_0944,MFTM_A_new1021,2021.2.3,60.098573679900525,
,,,,,,,,stim/Instruction_adaptive.png,conditions/adaptive.xlsx,test,0.6,0.6,0.6,-0.6,-0.6,right,R,,,,,0,1,1,1,0,59,59,84,,,,,,,,,,,,,,,,,,,,,,,,,,,,,,,,,,,,,,,,,,,,407.1959461000006,None,right,1,1.0477698999966378,407.69671210000524,409.5994967000006,407.69671210000524,409.09908890000224,407.69671210000524,409.09908890000224,407.69671210000524,409.09908890000224,407.69671210000524,409.09908890000224,407.69671210000524,409.09908890000224,409.0821905000048,409.5827930000014,409.0821905000048,409.5827930000014,409.0821905000048,409.5827930000014,409.0821905000048,409.5827930000014,409.0821905000048,409.5827930000014,409.0821905000048,409.5827930000014,409.0821905000048,409.5827930000014,409.0821905000048,409.5827930000014,407.69671210000524,None,409.5827930000014,410.6845001000038,1.400000000000001,410.7000756000052,None,411.4523418000026,None,,,,,,,[[1.1]],2.3000000000000016,0.65,11001,001,2023_Dec_29_0944,MFTM_A_new1021,2021.2.3,60.098573679900525,
,,,,,,,,stim/Instruction_adaptive.png,conditions/adaptive.xlsx,test,0.6,0.6,0.6,-0.6,-0.6,right,R,,,,,0,1,1,1,0,60,60,90,,,,,,,,,,,,,,,,,,,,,,,,,,,,,,,,,,,,,,,,,,,,411.9531442000007,None,right,1,0.9945220000008703,412.4536342000065,414.3064896000069,412.4536342000065,413.8057057000042,412.4536342000065,413.8057057000042,412.4536342000065,413.8057057000042,412.4536342000065,413.8057057000042,412.4536342000065,413.8057057000042,413.77228570000443,414.27302050000435,413.77228570000443,414.27302050000435,413.77228570000443,414.27302050000435,413.77228570000443,414.27302050000435,413.77228570000443,414.27302050000435,413.77228570000443,414.27302050000435,413.77228570000443,414.27302050000435,413.77228570000443,414.27302050000435,412.4536342000065,None,414.27302050000435,415.4415017000065,1.340000000000001,415.4577249000067,None,416.20910770000046,None,,,,,,,[[1.16]],2.370000000000002,0.6557377049180327,11001,001,2023_Dec_29_0944,MFTM_A_new1021,2021.2.3,60.098573679900525,
,,,,,,,,stim/Instruction_adaptive.png,conditions/adaptive.xlsx,test,0.6,0.6,0.6,-0.6,-0.6,right,R,,,,,0,1,1,1,0,61,61,98,,,,,,,,,,,,,,,,,,,,,,,,,,,,,,,,,,,,,,,,,,,,416.710121600001,None,right,1,1.2694779000012204,417.21073060000344,418.9792516000016,417.21073060000344,418.4790346000009,417.21073060000344,418.4790346000009,417.21073060000344,418.4790346000009,417.21073060000344,418.4790346000009,417.21073060000344,418.4790346000009,418.46310110000195,418.9629764000056,418.46310110000195,418.9629764000056,418.46310110000195,418.9629764000056,418.46310110000195,418.9629764000056,418.46310110000195,418.9629764000056,418.46310110000195,418.9629764000056,418.46310110000195,418.9629764000056,418.46310110000195,418.9629764000056,417.21073060000344,None,418.9629764000056,420.19816130000254,1.270000000000001,420.2152039000066,None,420.9657370000059,None,,,,,,,[[1.23]],2.4400000000000017,0.6612903225806451,11001,001,2023_Dec_29_0944,MFTM_A_new1021,2021.2.3,60.098573679900525,
,,,,,,,,stim/Instruction_adaptive.png,conditions/adaptive.xlsx,test,0.6,0.6,0.6,-0.6,-0.6,right,R,,,,,0,1,1,1,0,62,62,10,,,,,,,,,,,,,,,,,,,,,,,,,,,,,,,,,,,,,,,,,,,,421.4671166000044,None,right,1,2.096929999999702,421.96759170000587,423.68716790000326,421.96759170000587,423.1863325000013,421.96759170000587,423.1863325000013,421.96759170000587,423.1863325000013,421.96759170000587,423.1863325000013,421.96759170000587,423.1863325000013,423.1529284000062,423.6536739000003,423.1529284000062,423.6536739000003,423.1529284000062,423.6536739000003,423.1529284000062,423.6536739000003,423.1529284000062,423.6536739000003,423.1529284000062,423.6536739000003,423.1529284000062,423.6536739000003,423.1529284000062,423.6536739000003,421.96759170000587,None,423.6536739000003,424.9554732000033,1.2100000000000009,424.9719744000031,None,425.7234086000026,None,,,,,,,[[1.29]],2.5000000000000018,0.6666666666666666,11001,001,2023_Dec_29_0944,MFTM_A_new1021,2021.2.3,60.098573679900525,
,,,,,,,,stim/Instruction_adaptive.png,conditions/adaptive.xlsx,test,-0.6,-0.6,-0.6,0.6,0.6,left,L,,,,,0,1,1,1,0,63,63,75,,,,,,,,,,,,,,,,,,,,,,,,,,,,,,,,,,,,,,,,,,,,426.22380410000187,None,left,1,1.01875519999885,426.72542200000316,428.3939513000005,426.72542200000316,427.8933940000061,426.72542200000316,427.8933940000061,426.72542200000316,427.8933940000061,426.72542200000316,427.8933940000061,426.72542200000316,427.8933940000061,427.85994340000616,428.3601812000052,427.85994340000616,428.3601812000052,427.85994340000616,428.3601812000052,427.85994340000616,428.3601812000052,427.85994340000616,428.3601812000052,427.85994340000616,428.3601812000052,427.85994340000616,428.3601812000052,427.85994340000616,428.3601812000052,426.72542200000316,None,428.3601812000052,429.71261880000384,1.1600000000000008,429.7288200000039,None,430.48043200000393,None,,,,,,,[[1.34]],2.5500000000000016,0.671875,11001,001,2023_Dec_29_0944,MFTM_A_new1021,2021.2.3,60.098573679900525,
,,,,,,,,stim/Instruction_adaptive.png,conditions/adaptive.xlsx,test,0.6,0.6,0.6,-0.6,-0.6,right,R,,,,,0,1,1,1,0,64,64,56,,,,,,,,,,,,,,,,,,,,,,,,,,,,,,,,,,,,,,,,,,,,430.9811723000021,None,right,1,1.6945137000002433,431.4816684000034,433.1167906000046,431.4816684000034,432.6168797000064,431.4816684000034,432.6168797000064,431.4816684000034,432.6168797000064,431.4816684000034,432.6168797000064,431.4816684000034,432.6168797000064,432.5831995000044,433.08328960000654,432.5831995000044,433.08328960000654,432.5831995000044,433.08328960000654,432.5831995000044,433.08328960000654,432.5831995000044,433.08328960000654,432.5831995000044,433.08328960000654,432.5831995000044,433.08328960000654,432.5831995000044,433.08328960000654,431.4816684000034,None,433.08328960000654,434.469471400007,1.1200000000000008,434.486398800007,None,435.2368063000031,None,,,,,,,[[1.38]],2.600000000000002,0.676923076923077,11001,001,2023_Dec_29_0944,MFTM_A_new1021,2021.2.3,60.098573679900525,
,,,,,,,,stim/Instruction_adaptive.png,conditions/adaptive.xlsx,test,0.6,0.6,0.6,-0.6,-0.6,right,R,,,,,0,1,1,1,0,65,65,72,,,,,,,,,,,,,,,,,,,,,,,,,,,,,,,,,,,,,,,,,,,,435.73813680000603,None,right,1,1.4896710999964853,436.23886000000493,437.84135630000674,436.23886000000493,437.34084740000253,436.23886000000493,437.34084740000253,436.23886000000493,437.34084740000253,436.23886000000493,437.34084740000253,436.23886000000493,437.34084740000253,437.3072670000038,437.80804960000387,437.3072670000038,437.80804960000387,437.3072670000038,437.80804960000387,437.3072670000038,437.80804960000387,437.3072670000038,437.80804960000387,437.3072670000038,437.80804960000387,437.3072670000038,437.80804960000387,437.3072670000038,437.80804960000387,436.23886000000493,None,437.80804960000387,439.22618930000317,1.0900000000000007,439.24319970000215,None,439.99457840000105,None,,,,,,,[[1.41]],2.650000000000002,0.6818181818181818,11001,001,2023_Dec_29_0944,MFTM_A_new1021,2021.2.3,60.098573679900525,
,,,,,,,,stim/Instruction_adaptive.png,conditions/adaptive.xlsx,test,-0.6,-0.6,-0.6,0.6,0.6,left,L,,,,,0,1,1,1,0,66,66,7,,,,,,,,,,,,,,,,,,,,,,,,,,,,,,,,,,,,,,,,,,,,440.4953805000041,None,left,1,0.8902901999972528,440.998213100007,442.5483236,440.998213100007,442.04757250000694,440.998213100007,442.04757250000694,440.998213100007,442.04757250000694,440.998213100007,442.04757250000694,440.998213100007,442.04757250000694,442.0309994000054,442.5315935000035,442.0309994000054,442.5315935000035,442.0309994000054,442.5315935000035,442.0309994000054,442.5315935000035,442.0309994000054,442.5315935000035,442.0309994000054,442.5315935000035,442.0309994000054,442.5315935000035,442.0309994000054,442.5315935000035,440.998213100007,None,442.5315935000035,443.9836925000054,1.0500000000000007,444.017677200005,None,444.7687583000006,None,,,,,,,[[1.45]],2.700000000000002,0.6865671641791045,11001,001,2023_Dec_29_0944,MFTM_A_new1021,2021.2.3,60.098573679900525,
,,,,,,,,stim/Instruction_adaptive.png,conditions/adaptive.xlsx,test,-0.6,-0.6,-0.6,0.6,0.6,left,L,,,,,0,1,1,1,0,67,67,83,,,,,,,,,,,,,,,,,,,,,,,,,,,,,,,,,,,,,,,,,,,,445.2690436000048,None,left,1,2.2227736999993795,445.76969980000285,447.2887370000026,445.76969980000285,446.78836830000364,445.76969980000285,446.78836830000364,445.76969980000285,446.78836830000364,445.76969980000285,446.78836830000364,445.76969980000285,446.78836830000364,446.75462230000267,447.25471640000615,446.75462230000267,447.25471640000615,446.75462230000267,447.25471640000615,446.75462230000267,447.25471640000615,446.75462230000267,447.25471640000615,446.75462230000267,447.25471640000615,446.75462230000267,447.25471640000615,446.75462230000267,447.25471640000615,445.76969980000285,None,447.25471640000615,448.7574601000015,1.0100000000000007,448.77380030000495,None,449.5256043000045,None,,,,,,,[[1.49]],2.740000000000002,0.6911764705882353,11001,001,2023_Dec_29_0944,MFTM_A_new1021,2021.2.3,60.098573679900525,
,,,,,,,,stim/Instruction_adaptive.png,conditions/adaptive.xlsx,test,-0.6,-0.6,-0.6,0.6,0.6,left,L,,,,,0,1,1,1,0,68,68,3,,,,,,,,,,,,,,,,,,,,,,,,,,,,,,,,,,,,,,,,,,,,450.02609310000116,None,left,1,1.0816305999978795,450.52691680000135,452.01214240000263,450.52691680000135,451.51201420000143,450.52691680000135,451.51201420000143,450.52691680000135,451.51201420000143,450.52691680000135,451.51201420000143,450.52691680000135,451.51201420000143,451.4951627000046,451.9955442999999,451.4951627000046,451.9955442999999,451.4951627000046,451.9955442999999,451.4951627000046,451.9955442999999,451.4951627000046,451.9955442999999,451.4951627000046,451.9955442999999,451.4951627000046,451.9955442999999,451.4951627000046,451.9955442999999,450.52691680000135,None,451.9955442999999,453.5145974000043,0.9800000000000006,453.53082630000426,None,454.28228410000156,None,,,,,,,[[1.52]],2.790000000000002,0.6956521739130435,11001,001,2023_Dec_29_0944,MFTM_A_new1021,2021.2.3,60.098573679900525,
,,,,,,,,stim/Instruction_adaptive.png,conditions/adaptive.xlsx,test,-0.6,-0.6,-0.6,0.6,0.6,left,L,,,,,0,1,1,1,0,69,69,41,,,,,,,,,,,,,,,,,,,,,,,,,,,,,,,,,,,,,,,,,,,,454.7830740999998,None,left,1,2.4446975999962888,455.283860500007,456.7352484000003,455.283860500007,456.23536770000646,455.283860500007,456.23536770000646,455.283860500007,456.23536770000646,455.283860500007,456.23536770000646,455.283860500007,456.23536770000646,456.21860440000455,456.719253400006,456.21860440000455,456.719253400006,456.21860440000455,456.719253400006,456.21860440000455,456.719253400006,456.21860440000455,456.719253400006,456.21860440000455,456.719253400006,456.21860440000455,456.719253400006,456.21860440000455,456.719253400006,455.283860500007,None,456.719253400006,458.2714239000052,0.9500000000000006,458.2879152000023,None,459.0394987000036,None,,,,,,,[[1.55]],2.820000000000002,0.7,11001,001,2023_Dec_29_0944,MFTM_A_new1021,2021.2.3,60.098573679900525,
,,,,,,,,stim/Instruction_adaptive.png,conditions/adaptive.xlsx,test,0.6,0.6,0.6,-0.6,-0.6,right,R,,,,,0,1,1,1,0,70,70,32,,,,,,,,,,,,,,,,,,,,,,,,,,,,,,,,,,,,,,,,,,,,459.54030110000167,None,right,1,1.3517743999982486,460.0408588999999,461.4762056000036,460.0408588999999,460.9756047000046,460.0408588999999,460.9756047000046,460.0408588999999,460.9756047000046,460.0408588999999,460.9756047000046,460.0408588999999,460.9756047000046,460.9588983000067,461.45995330000005,460.9588983000067,461.45995330000005,460.9588983000067,461.45995330000005,460.9588983000067,461.45995330000005,460.9588983000067,461.45995330000005,460.9588983000067,461.45995330000005,460.9588983000067,461.45995330000005,460.9588983000067,461.45995330000005,460.0408588999999,None,461.45995330000005,None,0.9300000000000006,463.04498080000485,None,463.7965419000029,None,,,,,,,[[1.57]],2.860000000000002,0.704225352112676,11001,001,2023_Dec_29_0944,MFTM_A_new1021,2021.2.3,60.098573679900525,
,,,,,,,,stim/Instruction_adaptive.png,conditions/adaptive.xlsx,test,-0.6,-0.6,-0.6,0.6,0.6,left,L,,,,,0,1,1,1,0,71,71,69,,,,,,,,,,,,,,,,,,,,,,,,,,,,,,,,,,,,,,,,,,,,464.29706080000324,None,right,0,1.1544320999964839,464.7978255000053,466.21649060000345,464.7978255000053,465.71605380000256,464.7978255000053,465.71605380000256,464.7978255000053,465.71605380000256,464.7978255000053,465.71605380000256,464.7978255000053,465.71605380000256,465.6992950000058,466.20060700000613,465.6992950000058,466.20060700000613,465.6992950000058,466.20060700000613,465.6992950000058,466.20060700000613,465.6992950000058,466.20060700000613,465.6992950000058,466.20060700000613,465.6992950000058,466.20060700000613,465.6992950000058,466.20060700000613,464.7978255000053,None,466.18327830000635,467.7856577000057,0.9100000000000006,467.81960330000584,None,468.57063370000105,None,,,,,,,[[1.59]],2.7500000000000018,0.6944444444444444,11001,001,2023_Dec_29_0944,MFTM_A_new1021,2021.2.3,60.098573679900525,
,,,,,,,,stim/Instruction_adaptive.png,conditions/adaptive.xlsx,test,0.6,0.6,0.6,-0.6,-0.6,right,R,,,,,0,1,1,1,0,72,72,26,,,,,,,,,,,,,,,,,,,,,,,,,,,,,,,,,,,,,,,,,,,,469.0707939000058,None,right,1,1.1726715999975568,469.5717203000022,471.05715330000385,469.5717203000022,470.55655750000005,469.5717203000022,470.55655750000005,469.5717203000022,470.55655750000005,469.5717203000022,470.55655750000005,469.5717203000022,470.55655750000005,470.5398603000067,471.04047090000677,470.5398603000067,471.04047090000677,470.5398603000067,471.04047090000677,470.5398603000067,471.04047090000677,470.5398603000067,471.04047090000677,470.5398603000067,471.04047090000677,470.5398603000067,471.04047090000677,470.5398603000067,471.04047090000677,469.5717203000022,None,471.04047090000677,472.5595642000044,0.9800000000000006,472.5754326000024,None,473.3272531000039,None,,,,,,,[[1.52]],2.790000000000002,0.6986301369863014,11001,001,2023_Dec_29_0944,MFTM_A_new1021,2021.2.3,60.098573679900525,
,,,,,,,,stim/Instruction_adaptive.png,conditions/adaptive.xlsx,test,-0.6,-0.6,-0.6,0.6,0.6,left,L,,,,,0,1,1,1,0,73,73,23,,,,,,,,,,,,,,,,,,,,,,,,,,,,,,,,,,,,,,,,,,,,473.8279682000066,None,left,1,1.032050200003141,474.328568200006,475.7807666000008,474.328568200006,475.2801713000008,474.328568200006,475.2801713000008,474.328568200006,475.2801713000008,474.328568200006,475.2801713000008,474.328568200006,475.2801713000008,475.2635745000007,475.7640221000038,475.2635745000007,475.7640221000038,475.2635745000007,475.7640221000038,475.2635745000007,475.7640221000038,475.2635745000007,475.7640221000038,475.2635745000007,475.7640221000038,475.2635745000007,475.7640221000038,475.2635745000007,475.7640221000038,474.328568200006,None,475.7640221000038,477.31656980000116,0.9500000000000006,477.3332296000008,None,478.0844589000044,None,,,,,,,[[1.55]],2.830000000000002,0.7027027027027027,11001,001,2023_Dec_29_0944,MFTM_A_new1021,2021.2.3,60.098573679900525,
,,,,,,,,stim/Instruction_adaptive.png,conditions/adaptive.xlsx,test,-0.6,-0.6,-0.6,0.6,0.6,left,L,,,,,0,1,1,1,0,74,74,1,,,,,,,,,,,,,,,,,,,,,,,,,,,,,,,,,,,,,,,,,,,,478.58504010000615,None,left,1,1.5872033000050578,479.08550690000266,480.52120110000396,479.08550690000266,480.0201991000067,479.08550690000266,480.0201991000067,479.08550690000266,480.0201991000067,479.08550690000266,480.0201991000067,479.08550690000266,480.0201991000067,480.00370150000526,480.50500340000144,480.00370150000526,480.50500340000144,480.00370150000526,480.50500340000144,480.00370150000526,480.50500340000144,480.00370150000526,480.50500340000144,480.00370150000526,480.50500340000144,480.00370150000526,480.50500340000144,480.00370150000526,480.50500340000144,479.08550690000266,None,480.50500340000144,None,0.9300000000000006,482.08948530000634,None,482.8413576000021,None,,,,,,,[[1.57]],2.860000000000002,0.7066666666666667,11001,001,2023_Dec_29_0944,MFTM_A_new1021,2021.2.3,60.098573679900525,
,,,,,,,,stim/Instruction_adaptive.png,conditions/adaptive.xlsx,test,-0.6,-0.6,-0.6,0.6,0.6,left,L,,,,,0,1,1,1,0,75,75,51,,,,,,,,,,,,,,,,,,,,,,,,,,,,,,,,,,,,,,,,,,,,483.3421554000015,None,left,1,1.0219595000016852,483.8424176000044,485.26206660000025,483.8424176000044,484.76083389999985,483.8424176000044,484.76083389999985,483.8424176000044,484.76083389999985,483.8424176000044,484.76083389999985,483.8424176000044,484.76083389999985,484.74415540000336,485.2445316000012,484.74415540000336,485.2445316000012,484.74415540000336,485.2445316000012,484.74415540000336,485.2445316000012,484.74415540000336,485.2445316000012,484.74415540000336,485.2445316000012,484.74415540000336,485.2445316000012,484.74415540000336,485.2445316000012,483.8424176000044,None,485.2445316000012,None,0.9100000000000006,486.8468412000002,None,487.59877000000415,None,,,,,,,[[1.59]],2.900000000000002,0.7105263157894737,11001,001,2023_Dec_29_0944,MFTM_A_new1021,2021.2.3,60.098573679900525,
,,,,,,,,stim/Instruction_adaptive.png,conditions/adaptive.xlsx,test,0.6,0.6,0.6,-0.6,-0.6,right,R,,,,,0,1,1,1,0,76,76,42,,,,,,,,,,,,,,,,,,,,,,,,,,,,,,,,,,,,,,,,,,,,488.0992333000031,None,right,1,0.9524397999994108,488.59988250000606,489.9853929000019,488.59988250000606,489.48452470000484,488.59988250000606,489.48452470000484,488.59988250000606,489.48452470000484,488.59988250000606,489.48452470000484,488.59988250000606,489.48452470000484,489.46739920000255,489.96863220000523,489.46739920000255,489.96863220000523,489.46739920000255,489.96863220000523,489.46739920000255,489.96863220000523,489.46739920000255,489.96863220000523,489.46739920000255,489.96863220000523,489.46739920000255,489.96863220000523,489.46739920000255,489.96863220000523,488.59988250000606,None,489.96863220000523,491.58766509999987,0.8800000000000006,491.6042496000009,None,492.35551850000047,None,,,,,,,[[1.62]],2.9300000000000024,0.7142857142857143,11001,001,2023_Dec_29_0944,MFTM_A_new1021,2021.2.3,60.098573679900525,
,,,,,,,,stim/Instruction_adaptive.png,conditions/adaptive.xlsx,test,-0.6,-0.6,-0.6,0.6,0.6,left,L,,,,,0,1,1,1,0,77,77,97,,,,,,,,,,,,,,,,,,,,,,,,,,,,,,,,,,,,,,,,,,,,492.85602700000163,None,left,1,2.0203022999994573,493.3566304000051,494.7256318,493.3566304000051,494.22499820000667,493.3566304000051,494.22499820000667,493.3566304000051,494.22499820000667,493.3566304000051,494.22499820000667,493.3566304000051,494.22499820000667,494.2082084000067,494.70906800000375,494.2082084000067,494.70906800000375,494.2082084000067,494.70906800000375,494.2082084000067,494.70906800000375,494.2082084000067,494.70906800000375,494.2082084000067,494.70906800000375,494.2082084000067,494.70906800000375,494.2082084000067,494.70906800000375,493.3566304000051,None,494.70906800000375,None,0.8600000000000005,496.36134430000675,None,497.1125333000018,None,,,,,,,[[1.64]],2.960000000000002,0.717948717948718,11001,001,2023_Dec_29_0944,MFTM_A_new1021,2021.2.3,60.098573679900525,
,,,,,,,,stim/Instruction_adaptive.png,conditions/adaptive.xlsx,test,0.6,0.6,0.6,-0.6,-0.6,right,R,,,,,0,1,1,1,0,78,78,24,,,,,,,,,,,,,,,,,,,,,,,,,,,,,,,,,,,,,,,,,,,,497.6131674000062,None,right,1,1.319300299997849,498.1136050000059,499.4652783000056,498.1136050000059,498.965337600006,498.1136050000059,498.965337600006,498.1136050000059,498.965337600006,498.1136050000059,498.965337600006,498.1136050000059,498.965337600006,498.94838070000696,499.4485890000069,498.94838070000696,499.4485890000069,498.94838070000696,499.4485890000069,498.94838070000696,499.4485890000069,498.94838070000696,499.4485890000069,498.94838070000696,499.4485890000069,498.94838070000696,499.4485890000069,498.94838070000696,499.4485890000069,498.1136050000059,None,499.4485890000069,501.10169170000154,0.8500000000000005,501.11767800000234,None,501.8692380000066,None,,,,,,,[[1.65]],2.990000000000002,0.7215189873417721,11001,001,2023_Dec_29_0944,MFTM_A_new1021,2021.2.3,60.098573679900525,
,,,,,,,,stim/Instruction_adaptive.png,conditions/adaptive.xlsx,test,-0.6,-0.6,-0.6,0.6,0.6,left,L,,,,,0,1,1,1,0,79,79,43,,,,,,,,,,,,,,,,,,,,,,,,,,,,,,,,,,,,,,,,,,,,502.37028460000147,None,right,0,1.8491380999985267,502.87146710000525,504.2063030000063,502.87146710000525,503.70550750000257,502.87146710000525,503.70550750000257,502.87146710000525,503.70550750000257,502.87146710000525,503.70550750000257,502.87146710000525,503.70550750000257,503.6889705000067,504.1896188000028,503.6889705000067,504.1896188000028,503.6889705000067,504.1896188000028,503.6889705000067,504.1896188000028,503.6889705000067,504.1896188000028,503.6889705000067,504.1896188000028,503.6889705000067,504.1896188000028,503.6889705000067,504.1896188000028,502.87146710000525,None,504.1896188000028,505.858782000003,0.8300000000000005,505.8923028000063,None,506.64292790000036,None,,,,,,,[[1.67]],2.900000000000002,0.7125,11001,001,2023_Dec_29_0944,MFTM_A_new1021,2021.2.3,60.098573679900525,
,,,,,,,,stim/Instruction_adaptive.png,conditions/adaptive.xlsx,test,0.6,0.6,0.6,-0.6,-0.6,right,R,,,,,0,1,1,1,0,80,80,82,,,,,,,,,,,,,,,,,,,,,,,,,,,,,,,,,,,,,,,,,,,,507.1441704000026,None,left,0,1.6838094999984605,507.6449311000033,509.03058270000474,507.6449311000033,508.52938380000705,507.6449311000033,508.52938380000705,507.6449311000033,508.52938380000705,507.6449311000033,508.52938380000705,507.6449311000033,508.52938380000705,508.5127296000064,509.01379520000046,508.5127296000064,509.01379520000046,508.5127296000064,509.01379520000046,508.5127296000064,509.01379520000046,508.5127296000064,509.01379520000046,508.5127296000064,509.01379520000046,508.5127296000064,509.01379520000046,508.5127296000064,509.01379520000046,507.6449311000033,None,509.01379520000046,None,0.8800000000000006,510.6662955000065,None,511.4172816000064,None,,,,,,,[[1.62]],2.8100000000000023,0.7037037037037037,11001,001,2023_Dec_29_0944,MFTM_A_new1021,2021.2.3,60.098573679900525,
,,,,,,,,stim/Instruction_adaptive.png,conditions/adaptive.xlsx,test,-0.6,-0.6,-0.6,0.6,0.6,left,L,,,,,0,1,1,1,0,81,81,99,,,,,,,,,,,,,,,,,,,,,,,,,,,,,,,,,,,,,,,,,,,,511.9176382000005,None,left,1,1.2458248999973875,512.4184467000014,513.8709914000065,512.4184467000014,513.3696074000036,512.4184467000014,513.3696074000036,512.4184467000014,513.3696074000036,512.4184467000014,513.3696074000036,512.4184467000014,513.3696074000036,513.3362102000028,513.8367585000015,513.3362102000028,513.8367585000015,513.3362102000028,513.8367585000015,513.3362102000028,513.8367585000015,513.3362102000028,513.8367585000015,513.3362102000028,513.8367585000015,513.3362102000028,513.8367585000015,513.3362102000028,513.8367585000015,512.4184467000014,None,513.8367585000015,515.406647900003,0.9400000000000006,515.4398973000061,None,516.1906376000043,None,,,,,,,[[1.56]],2.840000000000002,0.7073170731707317,11001,001,2023_Dec_29_0944,MFTM_A_new1021,2021.2.3,60.098573679900525,
,,,,,,,,stim/Instruction_adaptive.png,conditions/adaptive.xlsx,test,-0.6,-0.6,-0.6,0.6,0.6,left,L,,,,,0,1,1,1,0,82,82,81,,,,,,,,,,,,,,,,,,,,,,,,,,,,,,,,,,,,,,,,,,,,516.6921597000037,None,left,1,1.9930372000017087,517.1923079000044,518.610663600004,517.1923079000044,518.1271193000066,517.1923079000044,518.1271193000066,517.1923079000044,518.1271193000066,517.1923079000044,518.1271193000066,517.1923079000044,518.1271193000066,518.0928887000046,518.594966800003,518.0928887000046,518.594966800003,518.0928887000046,518.594966800003,518.0928887000046,518.594966800003,518.0928887000046,518.594966800003,518.0928887000046,518.594966800003,518.0928887000046,518.594966800003,518.0928887000046,518.594966800003,517.1923079000044,None,518.594966800003,520.1800352000064,0.9200000000000006,520.1962596000012,None,520.9481293000063,None,,,,,,,[[1.58]],2.870000000000002,0.7108433734939759,11001,001,2023_Dec_29_0944,MFTM_A_new1021,2021.2.3,60.098573679900525,
,,,,,,,,stim/Instruction_adaptive.png,conditions/adaptive.xlsx,test,-0.6,-0.6,-0.6,0.6,0.6,left,L,,,,,0,1,1,1,0,83,83,33,,,,,,,,,,,,,,,,,,,,,,,,,,,,,,,,,,,,,,,,,,,,521.448541400001,None,left,1,1.907384700003604,521.9492476000014,523.3517935000054,521.9492476000014,522.8504477000024,521.9492476000014,522.8504477000024,521.9492476000014,522.8504477000024,521.9492476000014,522.8504477000024,521.9492476000014,522.8504477000024,522.8336643000002,523.3350251000011,522.8336643000002,523.3350251000011,522.8336643000002,523.3350251000011,522.8336643000002,523.3350251000011,522.8336643000002,523.3350251000011,522.8336643000002,523.3350251000011,522.8336643000002,523.3350251000011,522.8336643000002,523.3350251000011,521.9492476000014,None,523.3350251000011,524.9371077000033,0.9000000000000006,524.9531726000059,None,525.7049815000064,None,,,,,,,[[1.6]],2.900000000000002,0.7142857142857143,11001,001,2023_Dec_29_0944,MFTM_A_new1021,2021.2.3,60.098573679900525,
,,,,,,,,stim/Instruction_adaptive.png,conditions/adaptive.xlsx,test,-0.6,-0.6,-0.6,0.6,0.6,left,L,,,,,0,1,1,1,0,84,84,95,,,,,,,,,,,,,,,,,,,,,,,,,,,,,,,,,,,,,,,,,,,,526.2055056000027,None,left,1,1.7099636999992072,526.7070699000033,528.0919190000059,526.7070699000033,527.5907969000036,526.7070699000033,527.5907969000036,526.7070699000033,527.5907969000036,526.7070699000033,527.5907969000036,526.7070699000033,527.5907969000036,527.573859300006,528.0751331000065,527.573859300006,528.0751331000065,527.573859300006,528.0751331000065,527.573859300006,528.0751331000065,527.573859300006,528.0751331000065,527.573859300006,528.0751331000065,527.573859300006,528.0751331000065,527.573859300006,528.0751331000065,526.7070699000033,None,528.0751331000065,529.6940953000012,0.8800000000000006,529.7100911000016,None,530.4620205000028,None,,,,,,,[[1.62]],2.9300000000000024,0.7176470588235294,11001,001,2023_Dec_29_0944,MFTM_A_new1021,2021.2.3,60.098573679900525,
,,,,,,,,stim/Instruction_adaptive.png,conditions/adaptive.xlsx,test,0.6,0.6,0.6,-0.6,-0.6,right,R,,,,,0,1,1,1,0,85,85,62,,,,,,,,,,,,,,,,,,,,,,,,,,,,,,,,,,,,,,,,,,,,530.9624423000059,None,left,0,1.0892247000010684,531.4633938000043,532.8323207000067,531.4633938000043,532.3315190000067,531.4633938000043,532.3315190000067,531.4633938000043,532.3315190000067,531.4633938000043,532.3315190000067,531.4633938000043,532.3315190000067,532.3146315000049,532.8153889000023,532.3146315000049,532.8153889000023,532.3146315000049,532.8153889000023,532.3146315000049,532.8153889000023,532.3146315000049,532.8153889000023,532.3146315000049,532.8153889000023,532.3146315000049,532.8153889000023,532.3146315000049,532.8153889000023,531.4633938000043,None,532.7989170000001,534.4511649000051,0.8600000000000005,534.4673850000036,None,535.2190636000014,None,,,,,,,[[1.64]],2.8500000000000023,0.7093023255813954,11001,001,2023_Dec_29_0944,MFTM_A_new1021,2021.2.3,60.098573679900525,
,,,,,,,,stim/Instruction_adaptive.png,conditions/adaptive.xlsx,test,-0.6,-0.6,-0.6,0.6,0.6,left,L,,,,,0,1,1,1,0,86,86,93,,,,,,,,,,,,,,,,,,,,,,,,,,,,,,,,,,,,,,,,,,,,535.7198190000054,None,right,0,1.3250434000001405,536.2197046000001,537.6394727000006,536.2197046000001,537.1384349,536.2197046000001,537.1384349,536.2197046000001,537.1384349,536.2197046000001,537.1384349,536.2197046000001,537.1384349,537.121738700007,537.6223559000064,537.121738700007,537.6223559000064,537.121738700007,537.6223559000064,537.121738700007,537.6223559000064,537.121738700007,537.6223559000064,537.121738700007,537.6223559000064,537.121738700007,537.6223559000064,537.121738700007,537.6223559000064,536.2197046000001,None,537.6223559000064,None,0.9100000000000006,539.2240059000032,None,539.9760594000036,None,,,,,,,[[1.59]],2.760000000000002,0.7011494252873564,11001,001,2023_Dec_29_0944,MFTM_A_new1021,2021.2.3,60.098573679900525,
,,,,,,,,stim/Instruction_adaptive.png,conditions/adaptive.xlsx,test,0.6,0.6,0.6,-0.6,-0.6,right,R,,,,,0,1,1,1,0,87,87,78,,,,,,,,,,,,,,,,,,,,,,,,,,,,,,,,,,,,,,,,,,,,540.4767466000048,None,right,1,1.7512669999996433,540.9774468000032,542.4630142000024,540.9774468000032,541.9622209000008,540.9774468000032,541.9622209000008,540.9774468000032,541.9622209000008,540.9774468000032,541.9622209000008,540.9774468000032,541.9622209000008,541.9285466000001,542.4296033000064,541.9285466000001,542.4296033000064,541.9285466000001,542.4296033000064,541.9285466000001,542.4296033000064,541.9285466000001,542.4296033000064,541.9285466000001,542.4296033000064,541.9285466000001,542.4296033000064,541.9285466000001,542.4296033000064,540.9774468000032,None,542.4296033000064,543.9652709000002,0.9700000000000006,543.9814584000051,None,544.7328308000069,None,,,,,,,[[1.53]],2.790000000000002,0.7045454545454546,11001,001,2023_Dec_29_0944,MFTM_A_new1021,2021.2.3,60.098573679900525,
,,,,,,,,stim/Instruction_adaptive.png,conditions/adaptive.xlsx,test,-0.6,-0.6,-0.6,0.6,0.6,left,L,,,,,0,1,1,1,0,88,88,89,,,,,,,,,,,,,,,,,,,,,,,,,,,,,,,,,,,,,,,,,,,,545.2334631000049,None,right,0,1.98616839999886,545.7345385000008,547.1858883000023,545.7345385000008,546.6859271000067,545.7345385000008,546.6859271000067,545.7345385000008,546.6859271000067,545.7345385000008,546.6859271000067,545.7345385000008,546.6859271000067,546.6692359000008,547.170217800005,546.6692359000008,547.170217800005,546.6692359000008,547.170217800005,546.6692359000008,547.170217800005,546.6692359000008,547.170217800005,546.6692359000008,547.170217800005,546.6692359000008,547.170217800005,546.6692359000008,547.170217800005,545.7345385000008,None,547.170217800005,548.7222400000028,0.9500000000000006,548.737970400005,None,549.4901379000003,None,,,,,,,[[1.55]],2.700000000000002,0.6966292134831461,11001,001,2023_Dec_29_0944,MFTM_A_new1021,2021.2.3,60.098573679900525,
,,,,,,,,stim/Instruction_adaptive.png,conditions/adaptive.xlsx,test,0.6,0.6,0.6,-0.6,-0.6,right,R,,,,,0,1,1,1,0,89,89,38,,,,,,,,,,,,,,,,,,,,,,,,,,,,,,,,,,,,,,,,,,,,549.9900616000014,None,right,1,1.7645382999980939,550.4920227000039,552.0105215000003,550.4920227000039,551.509868000001,550.4920227000039,551.509868000001,550.4920227000039,551.509868000001,550.4920227000039,551.509868000001,550.4920227000039,551.509868000001,551.4930574000027,551.9937909,551.4930574000027,551.9937909,551.4930574000027,551.9937909,551.4930574000027,551.9937909,551.4930574000027,551.9937909,551.4930574000027,551.9937909,551.4930574000027,551.9937909,551.4930574000027,551.9937909,550.4920227000039,None,551.9778043000042,553.4790663000022,1.0100000000000007,553.4951089000024,None,554.2464809000012,None,,,,,,,[[1.49]],2.730000000000002,0.7,11001,001,2023_Dec_29_0944,MFTM_A_new1021,2021.2.3,60.098573679900525,
,,,,,,,,stim/Instruction_adaptive.png,conditions/adaptive.xlsx,test,0.6,0.6,0.6,-0.6,-0.6,right,R,,,,,0,1,1,1,0,90,90,74,,,,,,,,,,,,,,,,,,,,,,,,,,,,,,,,,,,,,,,,,,,,554.7478524000035,None,right,1,1.559517199995753,555.2489253000022,556.7507466000025,555.2489253000022,556.249447400005,555.2489253000022,556.249447400005,555.2489253000022,556.249447400005,555.2489253000022,556.249447400005,555.2489253000022,556.249447400005,556.2167353000041,556.7178297999999,556.2167353000041,556.7178297999999,556.2167353000041,556.7178297999999,556.2167353000041,556.7178297999999,556.2167353000041,556.7178297999999,556.2167353000041,556.7178297999999,556.2167353000041,556.7178297999999,556.2167353000041,556.7178297999999,555.2489253000022,None,556.7178297999999,558.2358875000064,0.9900000000000007,558.2526838000049,None,559.0036559,None,,,,,,,[[1.51]],2.760000000000002,0.7032967032967034,11001,001,2023_Dec_29_0944,MFTM_A_new1021,2021.2.3,60.098573679900525,
,,,,,,,,stim/Instruction_adaptive.png,conditions/adaptive.xlsx,test,-0.6,-0.6,-0.6,0.6,0.6,left,L,,,,,0,1,1,1,0,91,91,49,,,,,,,,,,,,,,,,,,,,,,,,,,,,,,,,,,,,,,,,,,,,559.5048242000048,None,left,1,1.4516027999998187,560.0048718000035,561.4915920000058,560.0048718000035,560.973565100001,560.0048718000035,560.973565100001,560.0048718000035,560.973565100001,560.0048718000035,560.973565100001,560.0048718000035,560.973565100001,560.9571371000056,561.4570179000002,560.9571371000056,561.4570179000002,560.9571371000056,561.4570179000002,560.9571371000056,561.4570179000002,560.9571371000056,561.4570179000002,560.9571371000056,561.4570179000002,560.9571371000056,561.4570179000002,560.9571371000056,561.4570179000002,560.0048718000035,None,561.4570179000002,562.9931094000058,0.9700000000000006,563.0097383000029,None,563.7612279000023,None,,,,,,,[[1.53]],2.790000000000002,0.7065217391304348,11001,001,2023_Dec_29_0944,MFTM_A_new1021,2021.2.3,60.098573679900525,
,,,,,,,,stim/Instruction_adaptive.png,conditions/adaptive.xlsx,test,-0.6,-0.6,-0.6,0.6,0.6,left,L,,,,,0,1,1,1,0,92,92,13,,,,,,,,,,,,,,,,,,,,,,,,,,,,,,,,,,,,,,,,,,,,564.2618064000053,None,left,1,1.0137640000029933,564.7627700000012,566.2147309000065,564.7627700000012,565.7146278,564.7627700000012,565.7146278,564.7627700000012,565.7146278,564.7627700000012,565.7146278,564.7627700000012,565.7146278,565.6977597000005,566.1982130000033,565.6977597000005,566.1982130000033,565.6977597000005,566.1982130000033,565.6977597000005,566.1982130000033,565.6977597000005,566.1982130000033,565.6977597000005,566.1982130000033,565.6977597000005,566.1982130000033,565.6977597000005,566.1982130000033,564.7627700000012,None,566.1982130000033,567.7504373000047,0.9500000000000006,567.7671134000047,None,568.5175663000045,None,,,,,,,[[1.55]],2.820000000000002,0.7096774193548387,11001,001,2023_Dec_29_0944,MFTM_A_new1021,2021.2.3,60.098573679900525,
,,,,,,,,stim/Instruction_adaptive.png,conditions/adaptive.xlsx,test,0.6,0.6,0.6,-0.6,-0.6,right,R,,,,,0,1,1,1,0,93,93,88,,,,,,,,,,,,,,,,,,,,,,,,,,,,,,,,,,,,,,,,,,,,569.0183416,None,right,1,1.7855619999972987,569.5197011000055,570.9549739000067,569.5197011000055,570.4535717000035,569.5197011000055,570.4535717000035,569.5197011000055,570.4535717000035,569.5197011000055,570.4535717000035,569.5197011000055,570.4535717000035,570.4376812000046,570.9386167000048,570.4376812000046,570.9386167000048,570.4376812000046,570.9386167000048,570.4376812000046,570.9386167000048,570.4376812000046,570.9386167000048,570.4376812000046,570.9386167000048,570.4376812000046,570.9386167000048,570.4376812000046,570.9386167000048,569.5197011000055,None,570.9386167000048,None,0.9300000000000006,572.5235257000022,None,573.2751220000064,None,,,,,,,[[1.57]],2.840000000000002,0.7127659574468085,11001,001,2023_Dec_29_0944,MFTM_A_new1021,2021.2.3,60.098573679900525,
