arrwidth1,arrwidth2,arrwidth3,arrwidth4,arrwidth5,keyb,type,orientation,instruction_image,block_filename,block_type,arrow11,arrow22,arrow33,arrow44,arrow55,keyb_3,orientation3,trials.thisRepN,trials.thisTrialN,trials.thisN,trials.thisIndex,trials_3.thisRepN,trials_3.thisTrialN,trials_3.thisN,trials_3.thisIndex,trials_2.thisRepN,trials_2.thisTrialN,trials_2.thisN,trials_2.thisIndex,welcome.started,welcome.stopped,key_resp.keys,key_resp.rt,key_resp.started,key_resp.stopped,instruction_example.started,instruction_example.stopped,key_resp_3.keys,key_resp_3.rt,key_resp_3.started,key_resp_3.stopped,instruction_task.started,instruction_task.stopped,key_resp_2.keys,key_resp_2.rt,key_resp_2.started,key_resp_2.stopped,text_2.started,text_2.stopped,A1.started,A1.stopped,A2.started,A2.stopped,A3.started,A3.stopped,A4.started,A4.stopped,A5.started,A5.stopped,key_resp_4.keys,key_resp_4.corr,key_resp_4.rt,key_resp_4.started,key_resp_4.stopped,fb.started,fb.stopped,instruction_block.started,instruction_block.stopped,key_resp_8.keys,key_resp_8.rt,key_resp_8.started,key_resp_8.stopped,text_8.started,text_8.stopped,key_resp_9.keys,key_resp_9.corr,key_resp_9.rt,text_5.started,text_5.stopped,A11_3.started,A11_3.stopped,A22_2.started,A22_2.stopped,A33_2.started,A33_2.stopped,A44_2.started,A44_2.stopped,A55_2.started,A55_2.stopped,M1_3.started,M1_3.stopped,M2_2.started,M2_2.stopped,M3_2.started,M3_2.stopped,M4_2.started,M4_2.stopped,M5_2.started,M5_2.stopped,M6_2.started,M6_2.stopped,M7_2.started,M7_2.stopped,M8_2.started,M8_2.stopped,key_resp_9.started,key_resp_9.stopped,fixation.started,fixation.stopped,ET,fb_3.started,fb_3.stopped,text_9.started,text_9.stopped,fb_4.started,fb_4.stopped,text_7.started,text_7.stopped,endtext.started,endtext.stopped,fixation_ITI,CCC,Acc,participant,session,date,expName,psychopyVersion,frameRate,
,,,,,,,,,,,,,,,,,,,,,,,,,,,,,,20.648907400027383,None,space,1.8152741999947466,20.648907400027383,None,,,,,,,,,,,,,,,,,,,,,,,,,,,,,,,,,,,,,,,,,,,,,,,,,,,,,,,,,,,,,,,,,,,,,,,,,,,,,,,,,,,,,,,,,11008,001,2024_Jan_01_1511,MFTM_A_new1021,2021.2.3,60.15417515541008,
,,,,,,,,,,,,,,,,,,,,,,,,,,,,,,,,,,,,22.48496969998814,None,right,26.299065399973188,22.48496969998814,None,,,,,,,,,,,,,,,,,,,,,,,,,,,,,,,,,,,,,,,,,,,,,,,,,,,,,,,,,,,,,,,,,,,,,,,,,,,,,,,,,,,11008,001,2024_Jan_01_1511,MFTM_A_new1021,2021.2.3,60.15417515541008,
,,,,,,,,,,,,,,,,,,,,,,,,,,,,,,,,,,,,,,,,,,48.80748279998079,None,right,10.865346500009764,48.80748279998079,None,,,,,,,,,,,,,,,,,,,,,,,,,,,,,,,,,,,,,,,,,,,,,,,,,,,,,,,,,,,,,,,,,,,,,,,,,,,,,11008,001,2024_Jan_01_1511,MFTM_A_new1021,2021.2.3,60.15417515541008,
0.6,0.6,0.6,-0.6,-0.6,right,3:2,R,,,,,,,,,,,0,0,0,0,,,,,,,,,,,,,,,,,,,,,,,,,,,59.707443699997384,None,59.707443699997384,None,59.707443699997384,None,59.707443699997384,None,59.707443699997384,None,59.707443699997384,None,right,1,2.470006099960301,59.707443699997384,None,62.21157470002072,None,,,,,,,,,,,,,,,,,,,,,,,,,,,,,,,,,,,,,,,,,,,,,,,,,,,,,,,,,,11008,001,2024_Jan_01_1511,MFTM_A_new1021,2021.2.3,60.15417515541008,
-0.6,-0.6,-0.6,0.6,0.6,left,3:2,L,,,,,,,,,,,0,1,1,1,,,,,,,,,,,,,,,,,,,,,,,,,,,62.961861599993426,None,62.961861599993426,None,62.961861599993426,None,62.961861599993426,None,62.961861599993426,None,62.961861599993426,None,left,1,2.174356500036083,62.961861599993426,None,65.16532570001436,None,,,,,,,,,,,,,,,,,,,,,,,,,,,,,,,,,,,,,,,,,,,,,,,,,,,,,,,,,,11008,001,2024_Jan_01_1511,MFTM_A_new1021,2021.2.3,60.15417515541008,
0.6,0.6,0.6,-0.6,-0.6,right,3:2,R,,,,,,,,,,,1,0,2,0,,,,,,,,,,,,,,,,,,,,,,,,,,,65.91651830001501,None,65.91651830001501,None,65.91651830001501,None,65.91651830001501,None,65.91651830001501,None,65.91651830001501,None,right,1,1.3320149999926798,65.91651830001501,None,67.26839230000041,None,,,,,,,,,,,,,,,,,,,,,,,,,,,,,,,,,,,,,,,,,,,,,,,,,,,,,,,,,,11008,001,2024_Jan_01_1511,MFTM_A_new1021,2021.2.3,60.15417515541008,
-0.6,-0.6,-0.6,0.6,0.6,left,3:2,L,,,,,,,,,,,1,1,3,1,,,,,,,,,,,,,,,,,,,,,,,,,,,68.019544699986,None,68.019544699986,None,68.019544699986,None,68.019544699986,None,68.019544699986,None,68.019544699986,None,left,1,1.8127699999604374,68.019544699986,None,69.85553070000606,None,,,,,,,,,,,,,,,,,,,,,,,,,,,,,,,,,,,,,,,,,,,,,,,,,,,,,,,,,,11008,001,2024_Jan_01_1511,MFTM_A_new1021,2021.2.3,60.15417515541008,
,,,,,,,,stim/Instruction_mask.png,conditions/adaptive.xlsx,practice,0.6,0.6,0.6,-0.6,-0.6,right,R,,,,,0,0,0,0,0,0,0,24,,,,,,,,,,,,,,,,,,,,,,,,,,,,,,,,,,,,,,70.87402669998119,None,right,43.326302300032694,70.87402669998119,None,114.3048448000336,None,left,0,2.756684099964332,114.7396825000178,None,114.7396825000178,117.7435695999884,114.7396825000178,117.7435695999884,114.7396825000178,117.7435695999884,114.7396825000178,117.7435695999884,114.7396825000178,117.7435695999884,117.72668650001287,118.226899900008,117.72668650001287,118.226899900008,117.72668650001287,118.226899900008,117.72668650001287,118.226899900008,117.72668650001287,118.226899900008,117.72668650001287,118.226899900008,117.72668650001287,118.226899900008,117.72668650001287,118.226899900008,114.7396825000178,None,118.226899900008,118.226899900008,3,118.24371200002497,None,118.99474579998059,None,,,,,,,,,,11008,001,2024_Jan_01_1511,MFTM_A_new1021,2021.2.3,60.15417515541008,
,,,,,,,,stim/Instruction_mask.png,conditions/adaptive.xlsx,practice,0.6,0.6,0.6,-0.6,-0.6,right,R,,,,,0,0,0,0,0,1,1,34,,,,,,,,,,,,,,,,,,,,,,,,,,,,,,,,,,,,,,,,,,,,119.49547929997789,None,right,1,1.7716497000074014,119.99643240001751,122.0001493000309,119.99643240001751,121.49919100000989,119.99643240001751,121.49919100000989,119.99643240001751,121.49919100000989,119.99643240001751,121.49919100000989,119.99643240001751,121.49919100000989,121.48190110002179,121.98317490000045,121.48190110002179,121.98317490000045,121.48190110002179,121.98317490000045,121.48190110002179,121.98317490000045,121.48190110002179,121.98317490000045,121.48190110002179,121.98317490000045,121.48190110002179,121.98317490000045,121.48190110002179,121.98317490000045,119.99643240001751,None,121.98317490000045,123.48488669999642,1.5,123.50154189998284,None,124.25322780001443,None,,,,,,,,,,11008,001,2024_Jan_01_1511,MFTM_A_new1021,2021.2.3,60.15417515541008,
,,,,,,,,stim/Instruction_mask.png,conditions/adaptive.xlsx,practice,0.6,0.6,0.6,-0.6,-0.6,right,R,,,,,0,0,0,0,0,2,2,20,,,,,,,,,,,,,,,,,,,,,,,,,,,,,,,,,,,,,,,,,,,,124.75409489998128,None,right,1,1.2827949000056833,125.25402639998356,126.55630110000493,125.25402639998356,126.05536030000076,125.25402639998356,126.05536030000076,125.25402639998356,126.05536030000076,125.25402639998356,126.05536030000076,125.25402639998356,126.05536030000076,126.03916089999257,126.53922069998225,126.03916089999257,126.53922069998225,126.03916089999257,126.53922069998225,126.03916089999257,126.53922069998225,126.03916089999257,126.53922069998225,126.03916089999257,126.53922069998225,126.03916089999257,126.53922069998225,126.03916089999257,126.53922069998225,125.25402639998356,None,126.53922069998225,128.74426649999805,0.8,128.7592543999781,None,129.51078740000958,None,,,,,,,,,,11008,001,2024_Jan_01_1511,MFTM_A_new1021,2021.2.3,60.15417515541008,
,,,,,,,,stim/Instruction_mask.png,conditions/adaptive.xlsx,practice,0.6,0.6,0.6,-0.6,-0.6,right,R,,,,,0,0,0,0,0,3,3,86,,,,,,,,,,,,,,,,,,,,,,,,,,,,,,,,,,,,,,,,,,,,130.01122360001318,None,left,0,1.0884237999562174,130.51178220001748,131.26403700001538,130.51178220001748,130.76224619999994,130.51178220001748,130.76224619999994,130.51178220001748,130.76224619999994,130.51178220001748,130.76224619999994,130.51178220001748,130.76224619999994,130.7455715999822,131.24716510000871,130.7455715999822,131.24716510000871,130.7455715999822,131.24716510000871,130.7455715999822,131.24716510000871,130.7455715999822,131.24716510000871,130.7455715999822,131.24716510000871,130.7455715999822,131.24716510000871,130.7455715999822,131.24716510000871,130.51178220001748,None,131.24716510000871,134.00037500000326,3,134.01782790001016,None,134.7682748999796,None,,,,,,,,,,11008,001,2024_Jan_01_1511,MFTM_A_new1021,2021.2.3,60.15417515541008,
,,,,,,,,stim/Instruction_mask.png,conditions/adaptive.xlsx,practice,,,,,,,,,,,,0,0,0,0,,,,,,,,,,,,,,,,,,,,,,,,,,,,,,,,,,,,,,,,,,,,,,,,,,,,,,,,,,,,,,,,,,,,,,,,,,,,,,,,,,,,,,,,,,135.28583810001146,136.28711909998674,136.25379970000358,136.25379970000358,136.25379970000358,None,,,,11008,001,2024_Jan_01_1511,MFTM_A_new1021,2021.2.3,60.15417515541008,
,,,,,,,,stim/Instruction_adaptive.png,conditions/adaptive.xlsx,test,0.6,0.6,0.6,-0.6,-0.6,right,R,,,,,0,1,1,1,0,0,0,56,,,,,,,,,,,,,,,,,,,,,,,,,,,,,,,,,,,,,,139.40831159998197,None,left,30.56104660005076,139.40831159998197,None,170.00354890001472,None,right,1,1.7361978000262752,170.50513190001948,None,170.50513190001948,173.50920199998654,170.50513190001948,173.50920199998654,170.50513190001948,173.50920199998654,170.50513190001948,173.50920199998654,170.50513190001948,173.50920199998654,173.4921800000011,173.99302310001804,173.4921800000011,173.99302310001804,173.4921800000011,173.99302310001804,173.4921800000011,173.99302310001804,173.4921800000011,173.99302310001804,173.4921800000011,173.99302310001804,173.4921800000011,173.99302310001804,173.4921800000011,173.99302310001804,170.50513190001948,None,173.99302310001804,173.99302310001804,3,174.0095919999876,None,174.76093799999217,None,,,,,,,0,6.000000000000005,1.0,11008,001,2024_Jan_01_1511,MFTM_A_new1021,2021.2.3,60.15417515541008,
,,,,,,,,stim/Instruction_adaptive.png,conditions/adaptive.xlsx,test,-0.6,-0.6,-0.6,0.6,0.6,left,L,,,,,0,1,1,1,0,1,1,37,,,,,,,,,,,,,,,,,,,,,,,,,,,,,,,,,,,,,,,,,,,,175.26219049998326,None,left,1,1.0618126000044867,175.76227920001838,176.51406349998433,175.76227920001838,176.01355710002827,175.76227920001838,176.01355710002827,175.76227920001838,176.01355710002827,175.76227920001838,176.01355710002827,175.76227920001838,176.01355710002827,175.99599319999106,176.49682140001096,175.99599319999106,176.49682140001096,175.99599319999106,176.49682140001096,175.99599319999106,176.49682140001096,175.99599319999106,176.49682140001096,175.99599319999106,176.49682140001096,175.99599319999106,176.49682140001096,175.99599319999106,176.49682140001096,175.76227920001838,None,176.49682140001096,177.3814842000138,0.25,177.39809109998168,None,178.14963699999498,None,,,,,,,[0.875],6.000000000000005,1.0,11008,001,2024_Jan_01_1511,MFTM_A_new1021,2021.2.3,60.15417515541008,
,,,,,,,,stim/Instruction_adaptive.png,conditions/adaptive.xlsx,test,-0.6,-0.6,-0.6,0.6,0.6,left,L,,,,,0,1,1,1,0,2,2,3,,,,,,,,,,,,,,,,,,,,,,,,,,,,,,,,,,,,,,,,,,,,178.65054270002292,None,left,1,1.2818059000419453,179.15057340002386,179.90255599998636,179.15057340002386,179.40098139998736,179.15057340002386,179.40098139998736,179.15057340002386,179.40098139998736,179.15057340002386,179.40098139998736,179.15057340002386,179.40098139998736,179.38429690001067,179.88527319999412,179.38429690001067,179.88527319999412,179.38429690001067,179.88527319999412,179.38429690001067,179.88527319999412,179.38429690001067,179.88527319999412,179.38429690001067,179.88527319999412,179.38429690001067,179.88527319999412,179.38429690001067,179.88527319999412,179.15057340002386,None,179.88527319999412,181.2208858000231,0.25,181.2370515000075,None,181.9894085000269,None,,,,,,,[1.33333333],6.000000000000005,1.0,11008,001,2024_Jan_01_1511,MFTM_A_new1021,2021.2.3,60.15417515541008,
,,,,,,,,stim/Instruction_adaptive.png,conditions/adaptive.xlsx,test,-0.6,-0.6,-0.6,0.6,0.6,left,L,,,,,0,1,1,1,0,3,3,57,,,,,,,,,,,,,,,,,,,,,,,,,,,,,,,,,,,,,,,,,,,,182.49054660002002,None,left,1,0.8096519999671727,182.990690000006,183.74115319998236,182.990690000006,183.24010470003122,182.990690000006,183.24010470003122,182.990690000006,183.24010470003122,182.990690000006,183.24010470003122,182.990690000006,183.24010470003122,183.22422839998035,183.72530130000087,183.22422839998035,183.72530130000087,183.22422839998035,183.72530130000087,183.22422839998035,183.72530130000087,183.22422839998035,183.72530130000087,183.22422839998035,183.72530130000087,183.22422839998035,183.72530130000087,183.22422839998035,183.72530130000087,182.990690000006,None,183.72530130000087,185.2931262999773,0.25,185.30959850002546,None,186.06190380000044,None,,,,,,,[1.5625],6.000000000000005,1.0,11008,001,2024_Jan_01_1511,MFTM_A_new1021,2021.2.3,60.15417515541008,
,,,,,,,,stim/Instruction_adaptive.png,conditions/adaptive.xlsx,test,-0.6,-0.6,-0.6,0.6,0.6,left,L,,,,,0,1,1,1,0,4,4,1,,,,,,,,,,,,,,,,,,,,,,,,,,,,,,,,,,,,,,,,,,,,186.56221950001782,None,left,1,0.8023887000163086,187.0623369999812,187.8138381000026,187.0623369999812,187.31277900002897,187.0623369999812,187.31277900002897,187.0623369999812,187.31277900002897,187.0623369999812,187.31277900002897,187.0623369999812,187.31277900002897,187.29616979998536,187.79675059998408,187.29616979998536,187.79675059998408,187.29616979998536,187.79675059998408,187.29616979998536,187.79675059998408,187.29616979998536,187.79675059998408,187.29616979998536,187.79675059998408,187.29616979998536,187.79675059998408,187.29616979998536,187.79675059998408,187.0623369999812,None,187.79675059998408,189.4999100000132,0.25,189.51676820003195,None,190.2669810000225,None,,,,,,,[1.7],6.000000000000005,1.0,11008,001,2024_Jan_01_1511,MFTM_A_new1021,2021.2.3,60.15417515541008,
,,,,,,,,stim/Instruction_adaptive.png,conditions/adaptive.xlsx,test,-0.6,-0.6,-0.6,0.6,0.6,left,L,,,,,0,1,1,1,0,5,5,21,,,,,,,,,,,,,,,,,,,,,,,,,,,,,,,,,,,,,,,,,,,,190.76792439998826,None,left,1,0.71631259995047,191.2684392000083,192.01969490002375,191.2684392000083,191.51899850001791,191.2684392000083,191.51899850001791,191.2684392000083,191.51899850001791,191.2684392000083,191.51899850001791,191.2684392000083,191.51899850001791,191.50227070000255,192.00285079999594,191.50227070000255,192.00285079999594,191.50227070000255,192.00285079999594,191.50227070000255,192.00285079999594,191.50227070000255,192.00285079999594,191.50227070000255,192.00285079999594,191.50227070000255,192.00285079999594,191.50227070000255,192.00285079999594,191.2684392000083,None,192.00285079999594,193.80707029998302,0.25,193.82304109999677,None,194.57368299999507,None,,,,,,,[1.79166667],6.000000000000005,1.0,11008,001,2024_Jan_01_1511,MFTM_A_new1021,2021.2.3,60.15417515541008,
,,,,,,,,stim/Instruction_adaptive.png,conditions/adaptive.xlsx,test,-0.6,-0.6,-0.6,0.6,0.6,left,L,,,,,0,1,1,1,0,6,6,31,,,,,,,,,,,,,,,,,,,,,,,,,,,,,,,,,,,,,,,,,,,,195.07400110003073,None,left,1,0.9294166999752633,195.57498779997695,196.3266443000175,195.57498779997695,195.8263522000052,195.57498779997695,195.8263522000052,195.57498779997695,195.8263522000052,195.57498779997695,195.8263522000052,195.57498779997695,195.8263522000052,195.80961450003088,196.309750800021,195.80961450003088,196.309750800021,195.80961450003088,196.309750800021,195.80961450003088,196.309750800021,195.80961450003088,196.309750800021,195.80961450003088,196.309750800021,195.80961450003088,196.309750800021,195.80961450003088,196.309750800021,195.57498779997695,None,196.309750800021,198.17948380002053,0.25,198.195385500032,None,198.94744409999112,None,,,,,,,[1.85714286],6.000000000000005,1.0,11008,001,2024_Jan_01_1511,MFTM_A_new1021,2021.2.3,60.15417515541008,
,,,,,,,,stim/Instruction_adaptive.png,conditions/adaptive.xlsx,test,-0.6,-0.6,-0.6,0.6,0.6,left,L,,,,,0,1,1,1,0,7,7,33,,,,,,,,,,,,,,,,,,,,,,,,,,,,,,,,,,,,,,,,,,,,199.44845870003337,None,right,0,0.772550699999556,199.94813929998782,200.69918140000664,199.94813929998782,200.19958910002606,199.94813929998782,200.19958910002606,199.94813929998782,200.19958910002606,199.94813929998782,200.19958910002606,199.94813929998782,200.19958910002606,200.18267210002523,200.68332060001558,200.18267210002523,200.68332060001558,200.18267210002523,200.68332060001558,200.18267210002523,200.68332060001558,200.18267210002523,200.68332060001558,200.18267210002523,200.68332060001558,200.18267210002523,200.68332060001558,200.18267210002523,200.68332060001558,199.94813929998782,None,200.68332060001558,202.60274130001199,0.25,202.61862880003173,None,203.3700956000248,None,,,,,,,[1.90625],5.570000000000005,0.875,11008,001,2024_Jan_01_1511,MFTM_A_new1021,2021.2.3,60.15417515541008,
,,,,,,,,stim/Instruction_adaptive.png,conditions/adaptive.xlsx,test,-0.6,-0.6,-0.6,0.6,0.6,left,L,,,,,0,1,1,1,0,8,8,5,,,,,,,,,,,,,,,,,,,,,,,,,,,,,,,,,,,,,,,,,,,,203.87198330002138,None,left,1,0.6529975999728777,204.37140350003028,205.1228059999994,204.37140350003028,204.62171769997803,204.37140350003028,204.62171769997803,204.37140350003028,204.62171769997803,204.37140350003028,204.62171769997803,204.37140350003028,204.62171769997803,204.60485900001368,205.1058064000099,204.60485900001368,205.1058064000099,204.60485900001368,205.1058064000099,204.60485900001368,205.1058064000099,204.60485900001368,205.1058064000099,204.60485900001368,205.1058064000099,204.60485900001368,205.1058064000099,204.60485900001368,205.1058064000099,204.37140350003028,None,205.1058064000099,207.0593036999926,0.25,207.0753115999978,None,207.82705810002517,None,,,,,,,[1.94444444],5.720000000000004,0.8888888888888888,11008,001,2024_Jan_01_1511,MFTM_A_new1021,2021.2.3,60.15417515541008,
,,,,,,,,stim/Instruction_adaptive.png,conditions/adaptive.xlsx,test,-0.6,-0.6,-0.6,0.6,0.6,left,L,,,,,0,1,1,1,0,9,9,81,,,,,,,,,,,,,,,,,,,,,,,,,,,,,,,,,,,,,,,,,,,,208.32714930002112,None,left,1,0.8685763000394218,208.82789329998195,209.57980020000832,208.82789329998195,209.078322699992,208.82789329998195,209.078322699992,208.82789329998195,209.078322699992,208.82789329998195,209.078322699992,208.82789329998195,209.078322699992,209.06159769999795,209.56254780001473,209.06159769999795,209.56254780001473,209.06159769999795,209.56254780001473,209.06159769999795,209.56254780001473,209.06159769999795,209.56254780001473,209.06159769999795,209.56254780001473,209.06159769999795,209.56254780001473,209.06159769999795,209.56254780001473,208.82789329998195,None,209.56254780001473,211.54853279999224,0.25,211.56509069999447,None,212.31640640000114,None,,,,,,,[1.975],5.840000000000005,0.9,11008,001,2024_Jan_01_1511,MFTM_A_new1021,2021.2.3,60.15417515541008,
,,,,,,,,stim/Instruction_adaptive.png,conditions/adaptive.xlsx,test,-0.6,-0.6,-0.6,0.6,0.6,left,L,,,,,0,1,1,1,0,10,10,89,,,,,,,,,,,,,,,,,,,,,,,,,,,,,,,,,,,,,,,,,,,,212.81758259999333,None,left,1,1.3861853000125848,213.3182695999858,214.06956650002394,213.3182695999858,213.56891750002978,213.3182695999858,213.56891750002978,213.3182695999858,213.56891750002978,213.3182695999858,213.56891750002978,213.3182695999858,213.56891750002978,213.5516220999998,214.05294850002974,213.5516220999998,214.05294850002974,213.5516220999998,214.05294850002974,213.5516220999998,214.05294850002974,213.5516220999998,214.05294850002974,213.5516220999998,214.05294850002974,213.5516220999998,214.05294850002974,213.5516220999998,214.05294850002974,213.3182695999858,None,214.05294850002974,216.05555639998056,0.25,216.0719202000182,None,216.82314559997758,None,,,,,,,[2.],5.930000000000005,0.9090909090909091,11008,001,2024_Jan_01_1511,MFTM_A_new1021,2021.2.3,60.15417515541008,
,,,,,,,,stim/Instruction_adaptive.png,conditions/adaptive.xlsx,test,0.6,0.6,0.6,-0.6,-0.6,right,R,,,,,0,1,1,1,0,11,11,26,,,,,,,,,,,,,,,,,,,,,,,,,,,,,,,,,,,,,,,,,,,,217.3240053000045,None,left,0,1.8799362999852747,217.82443019998027,218.5765573999961,217.82443019998027,218.07485799997812,217.82443019998027,218.07485799997812,217.82443019998027,218.07485799997812,217.82443019998027,218.07485799997812,217.82443019998027,218.07485799997812,218.05853749997914,218.55999410001095,218.05853749997914,218.55999410001095,218.05853749997914,218.55999410001095,218.05853749997914,218.55999410001095,218.05853749997914,218.55999410001095,218.05853749997914,218.55999410001095,218.05853749997914,218.55999410001095,218.05853749997914,218.55999410001095,217.82443019998027,None,218.55999410001095,None,0.25,220.59474129998125,None,221.3476374000311,None,,,,,,,[2.02083333],5.260000000000004,0.8333333333333334,11008,001,2024_Jan_01_1511,MFTM_A_new1021,2021.2.3,60.15417515541008,
,,,,,,,,stim/Instruction_adaptive.png,conditions/adaptive.xlsx,test,-0.6,-0.6,-0.6,0.6,0.6,left,L,,,,,0,1,1,1,0,12,12,7,,,,,,,,,,,,,,,,,,,,,,,,,,,,,,,,,,,,,,,,,,,,221.84807800001,None,right,0,1.8603960999753326,222.34800749999704,223.099756599986,222.34800749999704,222.59854740003357,222.34800749999704,222.59854740003357,222.34800749999704,222.59854740003357,222.34800749999704,222.59854740003357,222.34800749999704,222.59854740003357,222.58163560001412,223.08258089999435,222.58163560001412,223.08258089999435,222.58163560001412,223.08258089999435,222.58163560001412,223.08258089999435,222.58163560001412,223.08258089999435,222.58163560001412,223.08258089999435,222.58163560001412,223.08258089999435,222.58163560001412,223.08258089999435,222.34800749999704,None,223.08258089999435,None,0.25,225.13533499999903,None,225.88731190003455,None,,,,,,,[2.03846154],4.720000000000004,0.7692307692307693,11008,001,2024_Jan_01_1511,MFTM_A_new1021,2021.2.3,60.15417515541008,
,,,,,,,,stim/Instruction_adaptive.png,conditions/adaptive.xlsx,test,-0.6,-0.6,-0.6,0.6,0.6,left,L,,,,,0,1,1,1,0,13,13,15,,,,,,,,,,,,,,,,,,,,,,,,,,,,,,,,,,,,,,,,,,,,226.3880890000146,None,left,1,1.9203937000129372,226.88859240000602,227.63992679998046,226.88859240000602,227.13826560002053,226.88859240000602,227.13826560002053,226.88859240000602,227.13826560002053,226.88859240000602,227.13826560002053,226.88859240000602,227.13826560002053,227.12174089998007,227.62358640000457,227.12174089998007,227.62358640000457,227.12174089998007,227.62358640000457,227.12174089998007,227.62358640000457,227.12174089998007,227.62358640000457,227.12174089998007,227.62358640000457,227.12174089998007,227.62358640000457,227.12174089998007,227.62358640000457,226.88859240000602,None,227.62358640000457,None,0.25,229.6921941000037,None,230.44458820001455,None,,,,,,,[2.05357143],4.880000000000004,0.7857142857142857,11008,001,2024_Jan_01_1511,MFTM_A_new1021,2021.2.3,60.15417515541008,
,,,,,,,,stim/Instruction_adaptive.png,conditions/adaptive.xlsx,test,-0.6,-0.6,-0.6,0.6,0.6,left,L,,,,,0,1,1,1,0,14,14,53,,,,,,,,,,,,,,,,,,,,,,,,,,,,,,,,,,,,,,,,,,,,230.94461750000482,None,right,0,2.219865099992603,231.4447973999777,232.19591980002588,231.4447973999777,231.69518199999584,231.4447973999777,231.69518199999584,231.4447973999777,231.69518199999584,231.4447973999777,231.69518199999584,231.4447973999777,231.69518199999584,231.6788005999988,232.17916320002405,231.6788005999988,232.17916320002405,231.6788005999988,232.17916320002405,231.6788005999988,232.17916320002405,231.6788005999988,232.17916320002405,231.6788005999988,232.17916320002405,231.6788005999988,232.17916320002405,231.6788005999988,232.17916320002405,231.4447973999777,None,232.17916320002405,234.24901800003136,0.25,234.26638400001684,None,235.01729420002084,None,,,,,,,[2.06666667],4.410000000000004,0.7333333333333333,11008,001,2024_Jan_01_1511,MFTM_A_new1021,2021.2.3,60.15417515541008,
,,,,,,,,stim/Instruction_adaptive.png,conditions/adaptive.xlsx,test,-0.6,-0.6,-0.6,0.6,0.6,left,L,,,,,0,1,1,1,0,15,15,87,,,,,,,,,,,,,,,,,,,,,,,,,,,,,,,,,,,,,,,,,,,,235.51856990001397,None,left,1,0.6772512999596074,236.01909050001996,236.83680639998056,236.01909050001996,236.33560049999505,236.01909050001996,236.33560049999505,236.01909050001996,236.33560049999505,236.01909050001996,236.33560049999505,236.01909050001996,236.33560049999505,236.30195500003174,236.80318930000067,236.30195500003174,236.80318930000067,236.30195500003174,236.80318930000067,236.30195500003174,236.80318930000067,236.30195500003174,236.80318930000067,236.30195500003174,236.80318930000067,236.30195500003174,236.80318930000067,236.30195500003174,236.80318930000067,236.01909050001996,None,236.80318930000067,238.88973739999346,0.31000000000000005,238.90559640002903,None,239.6571558000287,None,,,,,,,[2.074375],4.580000000000004,0.75,11008,001,2024_Jan_01_1511,MFTM_A_new1021,2021.2.3,60.15417515541008,
,,,,,,,,stim/Instruction_adaptive.png,conditions/adaptive.xlsx,test,-0.6,-0.6,-0.6,0.6,0.6,left,L,,,,,0,1,1,1,0,16,16,67,,,,,,,,,,,,,,,,,,,,,,,,,,,,,,,,,,,,,,,,,,,,240.1580369999865,None,left,1,1.1009649999905378,240.65961480000988,241.44300420000218,240.65961480000988,240.94199309998658,240.65961480000988,240.94199309998658,240.65961480000988,240.94199309998658,240.65961480000988,240.94199309998658,240.65961480000988,240.94199309998658,240.9253682999988,241.42659889999777,240.9253682999988,241.42659889999777,240.9253682999988,241.42659889999777,240.9253682999988,241.42659889999777,240.9253682999988,241.42659889999777,240.9253682999988,241.42659889999777,240.9253682999988,241.42659889999777,240.9253682999988,241.42659889999777,240.65961480000988,None,241.42659889999777,243.51289090001956,0.28,243.52963210002054,None,244.28040520002833,None,,,,,,,[2.08294118],4.720000000000004,0.7647058823529411,11008,001,2024_Jan_01_1511,MFTM_A_new1021,2021.2.3,60.15417515541008,
,,,,,,,,stim/Instruction_adaptive.png,conditions/adaptive.xlsx,test,-0.6,-0.6,-0.6,0.6,0.6,left,L,,,,,0,1,1,1,0,17,17,61,,,,,,,,,,,,,,,,,,,,,,,,,,,,,,,,,,,,,,,,,,,,244.7814235999831,None,left,1,0.9102732000174001,245.2821007000166,246.033622500021,245.2821007000166,245.53258330002427,245.2821007000166,245.53258330002427,245.2821007000166,245.53258330002427,245.2821007000166,245.53258330002427,245.2821007000166,245.53258330002427,245.51546289998805,246.01644289999967,245.51546289998805,246.01644289999967,245.51546289998805,246.01644289999967,245.51546289998805,246.01644289999967,245.51546289998805,246.01644289999967,245.51546289998805,246.01644289999967,245.51546289998805,246.01644289999967,245.51546289998805,246.01644289999967,245.2821007000166,None,246.01644289999967,248.11970869998913,0.25,248.13644430000568,None,248.8881979000289,None,,,,,,,[2.09222222],4.840000000000003,0.7777777777777778,11008,001,2024_Jan_01_1511,MFTM_A_new1021,2021.2.3,60.15417515541008,
,,,,,,,,stim/Instruction_adaptive.png,conditions/adaptive.xlsx,test,-0.6,-0.6,-0.6,0.6,0.6,left,L,,,,,0,1,1,1,0,18,18,63,,,,,,,,,,,,,,,,,,,,,,,,,,,,,,,,,,,,,,,,,,,,249.3878608000232,None,right,0,1.903670699975919,249.8887624000199,250.64183540001977,249.8887624000199,250.13909810001496,249.8887624000199,250.13909810001496,249.8887624000199,250.13909810001496,249.8887624000199,250.13909810001496,249.8887624000199,250.13909810001496,250.12271050002892,250.62362830003258,250.12271050002892,250.62362830003258,250.12271050002892,250.62362830003258,250.12271050002892,250.62362830003258,250.12271050002892,250.62362830003258,250.12271050002892,250.62362830003258,250.12271050002892,250.62362830003258,250.12271050002892,250.62362830003258,249.8887624000199,None,250.62362830003258,252.72674090001965,0.25,252.7434482999961,None,253.49478320003254,None,,,,,,,[2.10052632],4.490000000000004,0.7368421052631579,11008,001,2024_Jan_01_1511,MFTM_A_new1021,2021.2.3,60.15417515541008,
,,,,,,,,stim/Instruction_adaptive.png,conditions/adaptive.xlsx,test,-0.6,-0.6,-0.6,0.6,0.6,left,L,,,,,0,1,1,1,0,19,19,45,,,,,,,,,,,,,,,,,,,,,,,,,,,,,,,,,,,,,,,,,,,,253.995645100018,None,right,0,1.2887959000072442,254.49551360000623,255.2973155999789,254.49551360000623,254.7958868999849,254.49551360000623,254.7958868999849,254.49551360000623,254.7958868999849,254.49551360000623,254.7958868999849,254.49551360000623,254.7958868999849,254.76311140001053,255.2633217999828,254.76311140001053,255.2633217999828,254.76311140001053,255.2633217999828,254.76311140001053,255.2633217999828,254.76311140001053,255.2633217999828,254.76311140001053,255.2633217999828,254.76311140001053,255.2633217999828,254.76311140001053,255.2633217999828,254.49551360000623,None,255.2633217999828,257.3831862999941,0.29000000000000004,257.4007442999864,None,258.1516686999821,None,,,,,,,[2.106],4.090000000000003,0.7,11008,001,2024_Jan_01_1511,MFTM_A_new1021,2021.2.3,60.15417515541008,
,,,,,,,,stim/Instruction_adaptive.png,conditions/adaptive.xlsx,test,0.6,0.6,0.6,-0.6,-0.6,right,R,,,,,0,1,1,1,0,20,20,64,,,,,,,,,,,,,,,,,,,,,,,,,,,,,,,,,,,,,,,,,,,,258.65227170003345,None,left,0,0.7195047999848612,259.1529874000116,260.0546039000037,259.1529874000116,259.5542351999902,259.1529874000116,259.5542351999902,259.1529874000116,259.5542351999902,259.1529874000116,259.5542351999902,259.1529874000116,259.5542351999902,259.52051890001167,260.02103920001537,259.52051890001167,260.02103920001537,259.52051890001167,260.02103920001537,259.52051890001167,260.02103920001537,259.52051890001167,260.02103920001537,259.52051890001167,260.02103920001537,259.52051890001167,260.02103920001537,259.52051890001167,260.02103920001537,259.1529874000116,None,260.02103920001537,262.1404026999953,0.3900000000000001,262.15782160003437,None,262.9089257000014,None,,,,,,,[2.10619048],3.570000000000003,0.6666666666666666,11008,001,2024_Jan_01_1511,MFTM_A_new1021,2021.2.3,60.15417515541008,
,,,,,,,,stim/Instruction_adaptive.png,conditions/adaptive.xlsx,test,0.6,0.6,0.6,-0.6,-0.6,right,R,,,,,0,1,1,1,0,21,21,92,,,,,,,,,,,,,,,,,,,,,,,,,,,,,,,,,,,,,,,,,,,,263.4093343000277,None,right,1,1.0026090000174008,263.90962190000573,264.9609513999894,263.90962190000573,264.4605752999778,263.90962190000573,264.4605752999778,263.90962190000573,264.4605752999778,263.90962190000573,264.4605752999778,263.90962190000573,264.4605752999778,264.4435563000152,264.9449260000256,264.4435563000152,264.9449260000256,264.4435563000152,264.9449260000256,264.4435563000152,264.9449260000256,264.4435563000152,264.9449260000256,264.4435563000152,264.9449260000256,264.4435563000152,264.9449260000256,264.4435563000152,264.9449260000256,263.90962190000573,None,264.9449260000256,266.8974209000007,0.5500000000000003,266.9140046000248,None,267.6652000999893,None,,,,,,,[[1.95]],3.780000000000003,0.6818181818181818,11008,001,2024_Jan_01_1511,MFTM_A_new1021,2021.2.3,60.15417515541008,
,,,,,,,,stim/Instruction_adaptive.png,conditions/adaptive.xlsx,test,-0.6,-0.6,-0.6,0.6,0.6,left,L,,,,,0,1,1,1,0,22,22,13,,,,,,,,,,,,,,,,,,,,,,,,,,,,,,,,,,,,,,,,,,,,268.1660416999948,None,right,0,1.1090603999909945,268.66740330000175,269.65182750002714,268.66740330000175,269.15050460002385,268.66740330000175,269.15050460002385,268.66740330000175,269.15050460002385,268.66740330000175,269.15050460002385,268.66740330000175,269.15050460002385,269.135001800023,269.6351905000047,269.135001800023,269.6351905000047,269.135001800023,269.6351905000047,269.135001800023,269.6351905000047,269.135001800023,269.6351905000047,269.135001800023,269.6351905000047,269.135001800023,269.6351905000047,269.135001800023,269.6351905000047,268.66740330000175,None,269.6351905000047,271.6550063000177,0.4800000000000002,271.6711010999861,None,272.4226781000034,None,,,,,,,[[2.02]],3.2400000000000024,0.6521739130434783,11008,001,2024_Jan_01_1511,MFTM_A_new1021,2021.2.3,60.15417515541008,
,,,,,,,,stim/Instruction_adaptive.png,conditions/adaptive.xlsx,test,-0.6,-0.6,-0.6,0.6,0.6,left,L,,,,,0,1,1,1,0,23,23,59,,,,,,,,,,,,,,,,,,,,,,,,,,,,,,,,,,,,,,,,,,,,272.92314630001783,None,right,0,1.3287001000135206,273.42380779999075,274.6254976000055,273.42380779999075,274.12454089999665,273.42380779999075,274.12454089999665,273.42380779999075,274.12454089999665,273.42380779999075,274.12454089999665,273.42380779999075,274.12454089999665,274.10771640000166,274.60879430000205,274.10771640000166,274.60879430000205,274.10771640000166,274.60879430000205,274.10771640000166,274.60879430000205,274.10771640000166,274.60879430000205,274.10771640000166,274.60879430000205,274.10771640000166,274.60879430000205,274.10771640000166,274.60879430000205,273.42380779999075,None,274.60879430000205,276.4122388000251,0.7000000000000004,276.42871429998195,None,277.1795837000245,None,,,,,,,[[1.8]],2.4800000000000018,0.625,11008,001,2024_Jan_01_1511,MFTM_A_new1021,2021.2.3,60.15417515541008,
,,,,,,,,stim/Instruction_adaptive.png,conditions/adaptive.xlsx,test,0.6,0.6,0.6,-0.6,-0.6,right,R,,,,,0,1,1,1,0,24,24,38,,,,,,,,,,,,,,,,,,,,,,,,,,,,,,,,,,,,,,,,,,,,277.68062659999123,None,right,1,1.5156766999862157,278.1806050000014,279.8664748999872,278.1806050000014,279.3662767999922,278.1806050000014,279.3662767999922,278.1806050000014,279.3662767999922,278.1806050000014,279.3662767999922,278.1806050000014,279.3662767999922,279.34961650002515,279.8503541999962,279.34961650002515,279.8503541999962,279.34961650002515,279.8503541999962,279.34961650002515,279.8503541999962,279.34961650002515,279.8503541999962,279.34961650002515,279.8503541999962,279.34961650002515,279.8503541999962,279.34961650002515,279.8503541999962,278.1806050000014,None,279.8503541999962,None,1.1800000000000008,281.184565500007,None,281.93625570001313,None,,,,,,,[[1.32]],2.8100000000000023,0.64,11008,001,2024_Jan_01_1511,MFTM_A_new1021,2021.2.3,60.15417515541008,
,,,,,,,,stim/Instruction_adaptive.png,conditions/adaptive.xlsx,test,0.6,0.6,0.6,-0.6,-0.6,right,R,,,,,0,1,1,1,0,25,25,70,,,,,,,,,,,,,,,,,,,,,,,,,,,,,,,,,,,,,,,,,,,,282.43747760000406,None,left,0,2.661592200049199,282.9387934000115,284.38980130001437,282.9387934000115,283.8891071000253,282.9387934000115,283.8891071000253,282.9387934000115,283.8891071000253,282.9387934000115,283.8891071000253,282.9387934000115,283.8891071000253,283.85668520000763,284.35711670003366,283.85668520000763,284.35711670003366,283.85668520000763,284.35711670003366,283.85668520000763,284.35711670003366,283.85668520000763,284.35711670003366,283.85668520000763,284.35711670003366,283.85668520000763,284.35711670003366,283.85668520000763,284.35711670003366,282.9387934000115,None,284.35711670003366,285.9254302000045,0.9400000000000006,285.9422282000305,None,286.69332100002794,None,,,,,,,[[1.56]],2.030000000000001,0.6153846153846154,11008,001,2024_Jan_01_1511,MFTM_A_new1021,2021.2.3,60.15417515541008,
,,,,,,,,stim/Instruction_adaptive.png,conditions/adaptive.xlsx,test,-0.6,-0.6,-0.6,0.6,0.6,left,L,,,,,0,1,1,1,0,26,26,79,,,,,,,,,,,,,,,,,,,,,,,,,,,,,,,,,,,,,,,,,,,,287.1948218999896,None,left,1,1.905372199951671,287.6949547000113,289.8153442000039,287.6949547000113,289.31377670000074,287.6949547000113,289.31377670000074,287.6949547000113,289.31377670000074,287.6949547000113,289.31377670000074,287.6949547000113,289.31377670000074,289.28059839998605,289.78152960003354,289.28059839998605,289.78152960003354,289.28059839998605,289.78152960003354,289.28059839998605,289.78152960003354,289.28059839998605,289.78152960003354,289.28059839998605,289.78152960003354,289.28059839998605,289.78152960003354,289.28059839998605,289.78152960003354,287.6949547000113,None,289.78152960003354,290.68275199999334,1.6100000000000012,290.6992374000256,None,291.4507677999791,None,,,,,,,[[0.89]],2.3800000000000017,0.6296296296296297,11008,001,2024_Jan_01_1511,MFTM_A_new1021,2021.2.3,60.15417515541008,
,,,,,,,,stim/Instruction_adaptive.png,conditions/adaptive.xlsx,test,-0.6,-0.6,-0.6,0.6,0.6,left,L,,,,,0,1,1,1,0,27,27,99,,,,,,,,,,,,,,,,,,,,,,,,,,,,,,,,,,,,,,,,,,,,291.95096170000033,None,left,1,1.1086671999655664,292.4517118000076,294.2215918999864,292.4517118000076,293.7207458000048,292.4517118000076,293.7207458000048,292.4517118000076,293.7207458000048,292.4517118000076,293.7207458000048,292.4517118000076,293.7207458000048,293.6876990000019,294.1879636999802,293.6876990000019,294.1879636999802,293.6876990000019,294.1879636999802,293.6876990000019,294.1879636999802,293.6876990000019,294.1879636999802,293.6876990000019,294.1879636999802,293.6876990000019,294.1879636999802,293.6876990000019,294.1879636999802,292.4517118000076,None,294.1879636999802,295.44058749999385,1.260000000000001,295.45648699998856,None,296.20750150003005,None,,,,,,,[[1.24]],2.610000000000002,0.6428571428571429,11008,001,2024_Jan_01_1511,MFTM_A_new1021,2021.2.3,60.15417515541008,
,,,,,,,,stim/Instruction_adaptive.png,conditions/adaptive.xlsx,test,0.6,0.6,0.6,-0.6,-0.6,right,R,,,,,0,1,1,1,0,28,28,2,,,,,,,,,,,,,,,,,,,,,,,,,,,,,,,,,,,,,,,,,,,,296.7080336000072,None,right,1,1.4157465000171214,297.2089698999771,298.79486020002514,297.2089698999771,298.29387260001386,297.2089698999771,298.29387260001386,297.2089698999771,298.29387260001386,297.2089698999771,298.29387260001386,297.2089698999771,298.29387260001386,298.2771972999908,298.77838859998155,298.2771972999908,298.77838859998155,298.2771972999908,298.77838859998155,298.2771972999908,298.77838859998155,298.2771972999908,298.77838859998155,298.2771972999908,298.77838859998155,298.2771972999908,298.77838859998155,298.2771972999908,298.77838859998155,297.2089698999771,None,298.77838859998155,300.19656740000937,1.0800000000000007,300.2135974999983,None,300.964903199987,None,,,,,,,[[1.42]],2.800000000000002,0.6551724137931034,11008,001,2024_Jan_01_1511,MFTM_A_new1021,2021.2.3,60.15417515541008,
,,,,,,,,stim/Instruction_adaptive.png,conditions/adaptive.xlsx,test,0.6,0.6,0.6,-0.6,-0.6,right,R,,,,,0,1,1,1,0,29,29,32,,,,,,,,,,,,,,,,,,,,,,,,,,,,,,,,,,,,,,,,,,,,301.46593030000804,None,right,1,2.498682599980384,301.9660621000221,303.4182329000323,301.9660621000221,302.91708689997904,301.9660621000221,302.91708689997904,301.9660621000221,302.91708689997904,301.9660621000221,302.91708689997904,301.9660621000221,302.91708689997904,302.88402420002967,303.3857608999824,302.88402420002967,303.3857608999824,302.88402420002967,303.3857608999824,302.88402420002967,303.3857608999824,302.88402420002967,303.3857608999824,302.88402420002967,303.3857608999824,302.88402420002967,303.3857608999824,302.88402420002967,303.3857608999824,301.9660621000221,None,303.3857608999824,304.95521440001903,0.9400000000000006,304.9706322000129,None,305.7216324000037,None,,,,,,,[[1.56]],2.950000000000002,0.6666666666666666,11008,001,2024_Jan_01_1511,MFTM_A_new1021,2021.2.3,60.15417515541008,
,,,,,,,,stim/Instruction_adaptive.png,conditions/adaptive.xlsx,test,0.6,0.6,0.6,-0.6,-0.6,right,R,,,,,0,1,1,1,0,30,30,20,,,,,,,,,,,,,,,,,,,,,,,,,,,,,,,,,,,,,,,,,,,,306.222905200033,None,right,1,2.2214946000021882,306.7229944000137,308.0758878000197,306.7229944000137,307.5745532999863,306.7229944000137,307.5745532999863,306.7229944000137,307.5745532999863,306.7229944000137,307.5745532999863,306.7229944000137,307.5745532999863,307.5576864000177,308.0594915000256,307.5576864000177,308.0594915000256,307.5576864000177,308.0594915000256,307.5576864000177,308.0594915000256,307.5576864000177,308.0594915000256,307.5576864000177,308.0594915000256,307.5576864000177,308.0594915000256,307.5576864000177,308.0594915000256,306.7229944000137,None,308.0594915000256,309.7102018999867,0.8500000000000005,309.7273824000149,None,310.47858230001293,None,,,,,,,[[1.65]],3.0800000000000023,0.6774193548387096,11008,001,2024_Jan_01_1511,MFTM_A_new1021,2021.2.3,60.15417515541008,
,,,,,,,,stim/Instruction_adaptive.png,conditions/adaptive.xlsx,test,0.6,0.6,0.6,-0.6,-0.6,right,R,,,,,0,1,1,1,0,31,31,80,,,,,,,,,,,,,,,,,,,,,,,,,,,,,,,,,,,,,,,,,,,,310.9800148999784,None,right,1,1.304306500009261,311.48013360000914,312.76623730000574,311.48013360000914,312.2643245999934,311.48013360000914,312.2643245999934,311.48013360000914,312.2643245999934,311.48013360000914,312.2643245999934,311.48013360000914,312.2643245999934,312.247979799984,312.74916760000633,312.247979799984,312.74916760000633,312.247979799984,312.74916760000633,312.247979799984,312.74916760000633,312.247979799984,312.74916760000633,312.247979799984,312.74916760000633,312.247979799984,312.74916760000633,312.247979799984,312.74916760000633,311.48013360000914,None,312.73187790001975,314.4511845000088,0.7800000000000005,314.4844229000155,None,315.2363282000297,None,,,,,,,[[1.72]],3.190000000000002,0.6875,11008,001,2024_Jan_01_1511,MFTM_A_new1021,2021.2.3,60.15417515541008,
,,,,,,,,stim/Instruction_adaptive.png,conditions/adaptive.xlsx,test,0.6,0.6,0.6,-0.6,-0.6,right,R,,,,,0,1,1,1,0,32,32,28,,,,,,,,,,,,,,,,,,,,,,,,,,,,,,,,,,,,,,,,,,,,315.73624830000335,None,right,1,2.0511225999798626,316.2372526000254,317.4725853999844,316.2372526000254,316.9716611999902,316.2372526000254,316.9716611999902,316.2372526000254,316.9716611999902,316.2372526000254,316.9716611999902,316.2372526000254,316.9716611999902,316.93912569998065,317.43920510000316,316.93912569998065,317.43920510000316,316.93912569998065,317.43920510000316,316.93912569998065,317.43920510000316,316.93912569998065,317.43920510000316,316.93912569998065,317.43920510000316,316.93912569998065,317.43920510000316,316.93912569998065,317.43920510000316,316.2372526000254,None,317.43920510000316,319.2246231000172,0.7200000000000004,319.2424330000067,None,319.99356199998874,None,,,,,,,[[1.78]],3.2900000000000027,0.696969696969697,11008,001,2024_Jan_01_1511,MFTM_A_new1021,2021.2.3,60.15417515541008,
,,,,,,,,stim/Instruction_adaptive.png,conditions/adaptive.xlsx,test,-0.6,-0.6,-0.6,0.6,0.6,left,L,,,,,0,1,1,1,0,33,33,41,,,,,,,,,,,,,,,,,,,,,,,,,,,,,,,,,,,,,,,,,,,,320.49425019999035,None,left,1,2.2704207000206225,320.99416709999787,322.1795497999992,320.99416709999787,321.6789038000279,320.99416709999787,321.6789038000279,320.99416709999787,321.6789038000279,320.99416709999787,321.6789038000279,320.99416709999787,321.6789038000279,321.64555960003054,322.14619110000785,321.64555960003054,322.14619110000785,321.64555960003054,322.14619110000785,321.64555960003054,322.14619110000785,321.64555960003054,322.14619110000785,321.64555960003054,322.14619110000785,321.64555960003054,322.14619110000785,321.64555960003054,322.14619110000785,320.99416709999787,None,322.14619110000785,323.98213580000447,0.6700000000000004,323.99871680000797,None,324.75046040001325,None,,,,,,,[[1.83]],3.3800000000000026,0.7058823529411765,11008,001,2024_Jan_01_1511,MFTM_A_new1021,2021.2.3,60.15417515541008,
,,,,,,,,stim/Instruction_adaptive.png,conditions/adaptive.xlsx,test,-0.6,-0.6,-0.6,0.6,0.6,left,L,,,,,0,1,1,1,0,34,34,47,,,,,,,,,,,,,,,,,,,,,,,,,,,,,,,,,,,,,,,,,,,,325.25108449999243,None,right,0,1.2175538999726996,325.7511635000119,326.88618359999964,325.7511635000119,326.3858615999925,325.7511635000119,326.3858615999925,325.7511635000119,326.3858615999925,325.7511635000119,326.3858615999925,325.7511635000119,326.3858615999925,326.3696543999831,326.8702269999776,326.3696543999831,326.8702269999776,326.3696543999831,326.8702269999776,326.3696543999831,326.8702269999776,326.3696543999831,326.8702269999776,326.3696543999831,326.8702269999776,326.3696543999831,326.8702269999776,326.3696543999831,326.8702269999776,325.7511635000119,None,326.8702269999776,328.73982930002967,0.6300000000000003,328.75565539998934,None,329.5065865999786,None,,,,,,,[[1.87]],3.1300000000000026,0.6857142857142857,11008,001,2024_Jan_01_1511,MFTM_A_new1021,2021.2.3,60.15417515541008,
,,,,,,,,stim/Instruction_adaptive.png,conditions/adaptive.xlsx,test,0.6,0.6,0.6,-0.6,-0.6,right,R,,,,,0,1,1,1,0,35,35,12,,,,,,,,,,,,,,,,,,,,,,,,,,,,,,,,,,,,,,,,,,,,330.0076627000235,None,right,1,0.9966128999949433,330.50815700000385,331.76012749999063,330.50815700000385,331.2593369000242,330.50815700000385,331.2593369000242,330.50815700000385,331.2593369000242,330.50815700000385,331.2593369000242,330.50815700000385,331.2593369000242,331.2426421000273,331.7434026999981,331.2426421000273,331.7434026999981,331.2426421000273,331.7434026999981,331.2426421000273,331.7434026999981,331.2426421000273,331.7434026999981,331.2426421000273,331.7434026999981,331.2426421000273,331.7434026999981,331.2426421000273,331.7434026999981,330.50815700000385,None,331.7434026999981,333.4960841999855,0.7500000000000004,333.51266559999203,None,334.2637332000304,None,,,,,,,[[1.75]],3.2200000000000024,0.6944444444444444,11008,001,2024_Jan_01_1511,MFTM_A_new1021,2021.2.3,60.15417515541008,
,,,,,,,,stim/Instruction_adaptive.png,conditions/adaptive.xlsx,test,-0.6,-0.6,-0.6,0.6,0.6,left,L,,,,,0,1,1,1,0,36,36,75,,,,,,,,,,,,,,,,,,,,,,,,,,,,,,,,,,,,,,,,,,,,334.7652512000059,None,right,0,1.1592611000523902,335.26529519999167,336.4835518000182,335.26529519999167,335.9833028999856,335.26529519999167,335.9833028999856,335.26529519999167,335.9833028999856,335.26529519999167,335.9833028999856,335.26529519999167,335.9833028999856,335.96655870001996,336.467088000034,335.96655870001996,336.467088000034,335.96655870001996,336.467088000034,335.96655870001996,336.467088000034,335.96655870001996,336.467088000034,335.96655870001996,336.467088000034,335.96655870001996,336.467088000034,335.96655870001996,336.467088000034,335.26529519999167,None,336.467088000034,None,0.7100000000000004,338.26978049997706,None,339.02117429999635,None,,,,,,,[[1.79]],2.9700000000000024,0.6756756756756757,11008,001,2024_Jan_01_1511,MFTM_A_new1021,2021.2.3,60.15417515541008,
,,,,,,,,stim/Instruction_adaptive.png,conditions/adaptive.xlsx,test,0.6,0.6,0.6,-0.6,-0.6,right,R,,,,,0,1,1,1,0,37,37,60,,,,,,,,,,,,,,,,,,,,,,,,,,,,,,,,,,,,,,,,,,,,339.522404599993,None,right,1,1.1144707999774255,340.0223032999784,341.37512739998056,340.0223032999784,340.87357789999805,340.0223032999784,340.87357789999805,340.0223032999784,340.87357789999805,340.0223032999784,340.87357789999805,340.0223032999784,340.87357789999805,340.84036600001855,341.3413741000113,340.84036600001855,341.3413741000113,340.84036600001855,341.3413741000113,340.84036600001855,341.3413741000113,340.84036600001855,341.3413741000113,340.84036600001855,341.3413741000113,340.84036600001855,341.3413741000113,340.84036600001855,341.3413741000113,340.0223032999784,None,341.3413741000113,343.01082580001093,0.8400000000000005,343.02685050002765,None,343.77792419999605,None,,,,,,,[[1.66]],3.0600000000000023,0.6842105263157895,11008,001,2024_Jan_01_1511,MFTM_A_new1021,2021.2.3,60.15417515541008,
,,,,,,,,stim/Instruction_adaptive.png,conditions/adaptive.xlsx,test,-0.6,-0.6,-0.6,0.6,0.6,left,L,,,,,0,1,1,1,0,38,38,55,,,,,,,,,,,,,,,,,,,,,,,,,,,,,,,,,,,,,,,,,,,,344.2787284000078,None,left,1,1.1730753000010736,344.77954930003034,346.08152040001005,344.77954930003034,345.5810773000121,344.77954930003034,345.5810773000121,344.77954930003034,345.5810773000121,344.77954930003034,345.5810773000121,344.77954930003034,345.5810773000121,345.5476194000221,346.0486391999875,345.5476194000221,346.0486391999875,345.5476194000221,346.0486391999875,345.5476194000221,346.0486391999875,345.5476194000221,346.0486391999875,345.5476194000221,346.0486391999875,345.5476194000221,346.0486391999875,345.5476194000221,346.0486391999875,344.77954930003034,None,346.0486391999875,347.7671690999996,0.7900000000000005,347.7839519000263,None,348.534999000025,None,,,,,,,[[1.71]],3.1400000000000023,0.6923076923076923,11008,001,2024_Jan_01_1511,MFTM_A_new1021,2021.2.3,60.15417515541008,
,,,,,,,,stim/Instruction_adaptive.png,conditions/adaptive.xlsx,test,-0.6,-0.6,-0.6,0.6,0.6,left,L,,,,,0,1,1,1,0,39,39,35,,,,,,,,,,,,,,,,,,,,,,,,,,,,,,,,,,,,,,,,,,,,349.0357174000237,None,right,0,0.6960159000009298,349.5364569000085,350.78809600003297,349.5364569000085,350.28771599999163,349.5364569000085,350.28771599999163,349.5364569000085,350.28771599999163,349.5364569000085,350.28771599999163,349.5364569000085,350.28771599999163,350.27081230003387,350.7714670000132,350.27081230003387,350.7714670000132,350.27081230003387,350.7714670000132,350.27081230003387,350.7714670000132,350.27081230003387,350.7714670000132,350.27081230003387,350.7714670000132,350.27081230003387,350.7714670000132,350.27081230003387,350.7714670000132,349.5364569000085,None,350.7714670000132,352.52475610002875,0.7500000000000004,352.54091849998804,None,353.29210760002024,None,,,,,,,[[1.75]],2.910000000000002,0.675,11008,001,2024_Jan_01_1511,MFTM_A_new1021,2021.2.3,60.15417515541008,
,,,,,,,,stim/Instruction_adaptive.png,conditions/adaptive.xlsx,test,0.6,0.6,0.6,-0.6,-0.6,right,R,,,,,0,1,1,1,0,40,40,18,,,,,,,,,,,,,,,,,,,,,,,,,,,,,,,,,,,,,,,,,,,,353.79273190000094,None,right,1,1.0677008000202477,354.29338490002556,355.67883180000354,354.29338490002556,355.17841699998826,354.29338490002556,355.17841699998826,354.29338490002556,355.17841699998826,354.29338490002556,355.17841699998826,354.29338490002556,355.17841699998826,355.1615391999949,355.662698500033,355.1615391999949,355.662698500033,355.1615391999949,355.662698500033,355.1615391999949,355.662698500033,355.1615391999949,355.662698500033,355.1615391999949,355.662698500033,355.1615391999949,355.662698500033,355.1615391999949,355.662698500033,354.29338490002556,None,355.662698500033,None,0.8800000000000006,357.29796749999514,None,358.04969519999577,None,,,,,,,[[1.62]],2.990000000000002,0.6829268292682927,11008,001,2024_Jan_01_1511,MFTM_A_new1021,2021.2.3,60.15417515541008,
,,,,,,,,stim/Instruction_adaptive.png,conditions/adaptive.xlsx,test,0.6,0.6,0.6,-0.6,-0.6,right,R,,,,,0,1,1,1,0,41,41,78,,,,,,,,,,,,,,,,,,,,,,,,,,,,,,,,,,,,,,,,,,,,358.54989449999994,None,right,1,1.1741041999775916,359.0504998000106,360.38597190001747,359.0504998000106,359.8851505999919,359.0504998000106,359.8851505999919,359.0504998000106,359.8851505999919,359.0504998000106,359.8851505999919,359.0504998000106,359.8851505999919,359.8683802000014,360.36918500001775,359.8683802000014,360.36918500001775,359.8683802000014,360.36918500001775,359.8683802000014,360.36918500001775,359.8683802000014,360.36918500001775,359.8683802000014,360.36918500001775,359.8683802000014,360.36918500001775,359.8683802000014,360.36918500001775,359.0504998000106,None,360.36918500001775,362.03827200003434,0.8300000000000005,362.0550190000213,None,362.806072700012,None,,,,,,,[[1.67]],3.070000000000002,0.6904761904761905,11008,001,2024_Jan_01_1511,MFTM_A_new1021,2021.2.3,60.15417515541008,
,,,,,,,,stim/Instruction_adaptive.png,conditions/adaptive.xlsx,test,0.6,0.6,0.6,-0.6,-0.6,right,R,,,,,0,1,1,1,0,42,42,86,,,,,,,,,,,,,,,,,,,,,,,,,,,,,,,,,,,,,,,,,,,,363.3069366000127,None,right,1,1.161243700014893,363.8073875000118,365.0927235999843,363.8073875000118,364.59210720000556,363.8073875000118,364.59210720000556,363.8073875000118,364.59210720000556,363.8073875000118,364.59210720000556,363.8073875000118,364.59210720000556,364.5753174999845,365.07617690000916,364.5753174999845,365.07617690000916,364.5753174999845,365.07617690000916,364.5753174999845,365.07617690000916,364.5753174999845,365.07617690000916,364.5753174999845,365.07617690000916,364.5753174999845,365.07617690000916,364.5753174999845,365.07617690000916,363.8073875000118,None,365.07617690000916,366.79616600001464,0.7800000000000005,366.8122715000063,None,367.56370350002544,None,,,,,,,[[1.72]],3.1400000000000023,0.6976744186046512,11008,001,2024_Jan_01_1511,MFTM_A_new1021,2021.2.3,60.15417515541008,
,,,,,,,,stim/Instruction_adaptive.png,conditions/adaptive.xlsx,test,-0.6,-0.6,-0.6,0.6,0.6,left,L,,,,,0,1,1,1,0,43,43,29,,,,,,,,,,,,,,,,,,,,,,,,,,,,,,,,,,,,,,,,,,,,368.06383589998586,None,left,1,1.1725880000158213,368.56456630001776,369.81658600002993,368.56456630001776,369.31634740001755,368.56456630001776,369.31634740001755,368.56456630001776,369.31634740001755,368.56456630001776,369.31634740001755,368.56456630001776,369.31634740001755,369.29899410001235,369.7998605000321,369.29899410001235,369.7998605000321,369.29899410001235,369.7998605000321,369.29899410001235,369.7998605000321,369.29899410001235,369.7998605000321,369.29899410001235,369.7998605000321,369.29899410001235,369.7998605000321,369.29899410001235,369.7998605000321,368.56456630001776,None,369.7998605000321,371.5526673999848,0.7500000000000004,371.569148199982,None,372.32044350000797,None,,,,,,,[[1.75]],3.2100000000000026,0.7045454545454546,11008,001,2024_Jan_01_1511,MFTM_A_new1021,2021.2.3,60.15417515541008,
,,,,,,,,stim/Instruction_adaptive.png,conditions/adaptive.xlsx,test,0.6,0.6,0.6,-0.6,-0.6,right,R,,,,,0,1,1,1,0,44,44,48,,,,,,,,,,,,,,,,,,,,,,,,,,,,,,,,,,,,,,,,,,,,372.8208665000275,None,right,1,1.0701245999662206,373.32230220001657,374.54185590002453,373.32230220001657,374.04026879998855,373.32230220001657,374.04026879998855,373.32230220001657,374.04026879998855,373.32230220001657,374.04026879998855,373.32230220001657,374.04026879998855,374.00705870002275,374.5071204000269,374.00705870002275,374.5071204000269,374.00705870002275,374.5071204000269,374.00705870002275,374.5071204000269,374.00705870002275,374.5071204000269,374.00705870002275,374.5071204000269,374.00705870002275,374.5071204000269,374.00705870002275,374.5071204000269,373.32230220001657,None,374.5071204000269,376.3093351999996,0.7100000000000004,376.3260237000068,None,377.07729819999076,None,,,,,,,[[1.79]],3.2700000000000022,0.7111111111111111,11008,001,2024_Jan_01_1511,MFTM_A_new1021,2021.2.3,60.15417515541008,
,,,,,,,,stim/Instruction_adaptive.png,conditions/adaptive.xlsx,test,0.6,0.6,0.6,-0.6,-0.6,right,R,,,,,0,1,1,1,0,45,45,58,,,,,,,,,,,,,,,,,,,,,,,,,,,,,,,,,,,,,,,,,,,,377.578756300034,None,right,1,1.0977703999960795,378.07876780000515,379.26452239998616,378.07876780000515,378.7635300999973,378.07876780000515,378.7635300999973,378.07876780000515,378.7635300999973,378.07876780000515,378.7635300999973,378.07876780000515,378.7635300999973,378.7464593999903,379.24741469998844,378.7464593999903,379.24741469998844,378.7464593999903,379.24741469998844,378.7464593999903,379.24741469998844,378.7464593999903,379.24741469998844,378.7464593999903,379.24741469998844,378.7464593999903,379.24741469998844,378.7464593999903,379.24741469998844,378.07876780000515,None,379.24741469998844,381.0677345999866,0.6800000000000004,381.0831707000034,None,381.8342812000192,None,,,,,,,[[1.82]],3.3300000000000027,0.717391304347826,11008,001,2024_Jan_01_1511,MFTM_A_new1021,2021.2.3,60.15417515541008,
,,,,,,,,stim/Instruction_adaptive.png,conditions/adaptive.xlsx,test,-0.6,-0.6,-0.6,0.6,0.6,left,L,,,,,0,1,1,1,0,46,46,65,,,,,,,,,,,,,,,,,,,,,,,,,,,,,,,,,,,,,,,,,,,,382.334802700032,None,left,1,1.0607306999736466,382.8358319000108,383.9874808000168,382.8358319000108,383.48664730001474,382.8358319000108,383.48664730001474,382.8358319000108,383.48664730001474,382.8358319000108,383.48664730001474,382.8358319000108,383.48664730001474,383.47018890001345,383.970797499991,383.47018890001345,383.970797499991,383.47018890001345,383.970797499991,383.47018890001345,383.970797499991,383.47018890001345,383.970797499991,383.47018890001345,383.970797499991,383.47018890001345,383.970797499991,383.47018890001345,383.970797499991,382.8358319000108,None,383.970797499991,385.8239033999853,0.6500000000000004,385.8400618000305,None,386.59140989999287,None,,,,,,,[[1.85]],3.3800000000000026,0.723404255319149,11008,001,2024_Jan_01_1511,MFTM_A_new1021,2021.2.3,60.15417515541008,
,,,,,,,,stim/Instruction_adaptive.png,conditions/adaptive.xlsx,test,0.6,0.6,0.6,-0.6,-0.6,right,R,,,,,0,1,1,1,0,47,47,6,,,,,,,,,,,,,,,,,,,,,,,,,,,,,,,,,,,,,,,,,,,,387.09233050001785,None,right,1,0.7911088999826461,387.5934029999771,388.7278915999923,387.5934029999771,388.22713730001124,387.5934029999771,388.22713730001124,387.5934029999771,388.22713730001124,387.5934029999771,388.22713730001124,387.5934029999771,388.22713730001124,388.210956600029,388.7115507000126,388.210956600029,388.7115507000126,388.210956600029,388.7115507000126,388.210956600029,388.7115507000126,388.210956600029,388.7115507000126,388.210956600029,388.7115507000126,388.210956600029,388.7115507000126,388.210956600029,388.7115507000126,387.5934029999771,None,388.7115507000126,390.5809081000043,0.6300000000000003,390.5971067000064,None,391.34860329999356,None,,,,,,,[1.86645833],3.4300000000000024,0.7291666666666666,11008,001,2024_Jan_01_1511,MFTM_A_new1021,2021.2.3,60.15417515541008,
,,,,,,,,stim/Instruction_adaptive.png,conditions/adaptive.xlsx,test,-0.6,-0.6,-0.6,0.6,0.6,left,L,,,,,0,1,1,1,0,48,48,69,,,,,,,,,,,,,,,,,,,,,,,,,,,,,,,,,,,,,,,,,,,,391.8500810000114,None,left,1,0.5470830000122078,392.3500303000328,393.468256400025,392.3500303000328,392.96730700001353,392.3500303000328,392.96730700001353,392.3500303000328,392.96730700001353,392.3500303000328,392.96730700001353,392.3500303000328,392.96730700001353,392.9508893000311,393.45221210003365,392.9508893000311,393.45221210003365,392.9508893000311,393.45221210003365,392.9508893000311,393.45221210003365,392.9508893000311,393.45221210003365,392.9508893000311,393.45221210003365,392.9508893000311,393.45221210003365,392.9508893000311,393.45221210003365,392.3500303000328,None,393.4355333999847,395.3048712000018,0.6100000000000003,395.3376979000168,None,396.0886114999885,None,,,,,,,[1.86693878],3.4800000000000026,0.7346938775510204,11008,001,2024_Jan_01_1511,MFTM_A_new1021,2021.2.3,60.15417515541008,
,,,,,,,,stim/Instruction_adaptive.png,conditions/adaptive.xlsx,test,0.6,0.6,0.6,-0.6,-0.6,right,R,,,,,0,1,1,1,0,49,49,98,,,,,,,,,,,,,,,,,,,,,,,,,,,,,,,,,,,,,,,,,,,,396.59011430002283,None,right,1,0.622474699979648,397.09029979998013,398.19205529999454,397.09029979998013,397.69130730000325,397.09029979998013,397.69130730000325,397.09029979998013,397.69130730000325,397.09029979998013,397.69130730000325,397.09029979998013,397.69130730000325,397.65813599998364,398.15845450002234,397.65813599998364,398.15845450002234,397.65813599998364,398.15845450002234,397.65813599998364,398.15845450002234,397.65813599998364,398.15845450002234,397.65813599998364,398.15845450002234,397.65813599998364,398.15845450002234,397.65813599998364,398.15845450002234,397.09029979998013,None,398.15845450002234,400.0282138999901,0.5900000000000003,400.06136849999893,None,400.8132423000061,None,,,,,,,[1.8678],3.530000000000003,0.74,11008,001,2024_Jan_01_1511,MFTM_A_new1021,2021.2.3,60.15417515541008,
,,,,,,,,stim/Instruction_adaptive.png,conditions/adaptive.xlsx,test,0.6,0.6,0.6,-0.6,-0.6,right,R,,,,,0,1,1,1,0,50,50,30,,,,,,,,,,,,,,,,,,,,,,,,,,,,,,,,,,,,,,,,,,,,401.3140673000016,None,left,0,0.785451500036288,401.81497900001705,402.8988167999778,401.81497900001705,402.3986886999919,401.81497900001705,402.3986886999919,401.81497900001705,402.3986886999919,401.81497900001705,402.3986886999919,401.81497900001705,402.3986886999919,402.36495850002393,402.86641120002605,402.36495850002393,402.86641120002605,402.36495850002393,402.86641120002605,402.36495850002393,402.86641120002605,402.36495850002393,402.86641120002605,402.36495850002393,402.86641120002605,402.36495850002393,402.86641120002605,402.36495850002393,402.86641120002605,401.81497900001705,None,402.86641120002605,404.73477979999734,0.5700000000000003,404.76847940002335,None,405.5202311000321,None,,,,,,,[1.86901961],3.3900000000000023,0.7254901960784313,11008,001,2024_Jan_01_1511,MFTM_A_new1021,2021.2.3,60.15417515541008,
,,,,,,,,stim/Instruction_adaptive.png,conditions/adaptive.xlsx,test,-0.6,-0.6,-0.6,0.6,0.6,left,L,,,,,0,1,1,1,0,51,51,17,,,,,,,,,,,,,,,,,,,,,,,,,,,,,,,,,,,,,,,,,,,,406.0200584999984,None,right,0,0.8866792999906465,406.5217832000344,407.6558501999825,406.5217832000344,407.1554127000272,406.5217832000344,407.1554127000272,406.5217832000344,407.1554127000272,406.5217832000344,407.1554127000272,406.5217832000344,407.1554127000272,407.138386000006,407.63904410001123,407.138386000006,407.63904410001123,407.138386000006,407.63904410001123,407.138386000006,407.63904410001123,407.138386000006,407.63904410001123,407.138386000006,407.63904410001123,407.138386000006,407.63904410001123,407.138386000006,407.63904410001123,406.5217832000344,None,407.63904410001123,409.5097568000201,0.6300000000000003,409.5252879000036,None,410.277113499993,None,,,,,,,[1.86903846],3.2500000000000027,0.7115384615384616,11008,001,2024_Jan_01_1511,MFTM_A_new1021,2021.2.3,60.15417515541008,
,,,,,,,,stim/Instruction_adaptive.png,conditions/adaptive.xlsx,test,0.6,0.6,0.6,-0.6,-0.6,right,R,,,,,0,1,1,1,0,52,52,14,,,,,,,,,,,,,,,,,,,,,,,,,,,,,,,,,,,,,,,,,,,,410.7773782000295,None,right,1,1.066374700050801,411.278307200002,412.47986289998516,411.278307200002,411.9804301999975,411.278307200002,411.9804301999975,411.278307200002,411.9804301999975,411.278307200002,411.9804301999975,411.278307200002,411.9804301999975,411.94615239999257,412.44660339999245,411.94615239999257,412.44660339999245,411.94615239999257,412.44660339999245,411.94615239999257,412.44660339999245,411.94615239999257,412.44660339999245,411.94615239999257,412.44660339999245,411.94615239999257,412.44660339999245,411.94615239999257,412.44660339999245,411.278307200002,None,412.44660339999245,414.2665385000291,0.6900000000000004,414.2822789999773,None,415.0335364000057,None,,,,,,,[[1.81]],3.3000000000000025,0.7169811320754716,11008,001,2024_Jan_01_1511,MFTM_A_new1021,2021.2.3,60.15417515541008,
,,,,,,,,stim/Instruction_adaptive.png,conditions/adaptive.xlsx,test,0.6,0.6,0.6,-0.6,-0.6,right,R,,,,,0,1,1,1,0,53,53,84,,,,,,,,,,,,,,,,,,,,,,,,,,,,,,,,,,,,,,,,,,,,415.53449350001756,None,right,1,1.7895191999850795,416.03498870000476,417.21998920000624,416.03498870000476,416.72015190002276,416.03498870000476,416.72015190002276,416.03498870000476,416.72015190002276,416.03498870000476,416.72015190002276,416.03498870000476,416.72015190002276,416.6867796999868,417.18680289998883,416.6867796999868,417.18680289998883,416.6867796999868,417.18680289998883,416.6867796999868,417.18680289998883,416.6867796999868,417.18680289998883,416.6867796999868,417.18680289998883,416.6867796999868,417.18680289998883,416.6867796999868,417.18680289998883,416.03498870000476,None,417.18680289998883,419.0226115999976,0.6700000000000004,419.0393468000111,None,419.7912532000337,None,,,,,,,[[1.83]],3.3500000000000023,0.7222222222222222,11008,001,2024_Jan_01_1511,MFTM_A_new1021,2021.2.3,60.15417515541008,
,,,,,,,,stim/Instruction_adaptive.png,conditions/adaptive.xlsx,test,-0.6,-0.6,-0.6,0.6,0.6,left,L,,,,,0,1,1,1,0,54,54,95,,,,,,,,,,,,,,,,,,,,,,,,,,,,,,,,,,,,,,,,,,,,420.2912047000136,None,left,1,1.6958783000009134,420.79273550002836,421.9458774999948,420.79273550002836,421.4436628000112,420.79273550002836,421.4436628000112,420.79273550002836,421.4436628000112,420.79273550002836,421.4436628000112,420.79273550002836,421.4436628000112,421.4263254000107,421.9270246999804,421.4263254000107,421.9270246999804,421.4263254000107,421.9270246999804,421.4263254000107,421.9270246999804,421.4263254000107,421.9270246999804,421.4263254000107,421.9270246999804,421.4263254000107,421.9270246999804,421.4263254000107,421.9270246999804,420.79273550002836,None,421.9270246999804,423.7805529999896,0.6500000000000004,423.7963064999785,None,424.54824969999027,None,,,,,,,[[1.85]],3.3900000000000023,0.7272727272727273,11008,001,2024_Jan_01_1511,MFTM_A_new1021,2021.2.3,60.15417515541008,
,,,,,,,,stim/Instruction_adaptive.png,conditions/adaptive.xlsx,test,-0.6,-0.6,-0.6,0.6,0.6,left,L,,,,,0,1,1,1,0,55,55,49,,,,,,,,,,,,,,,,,,,,,,,,,,,,,,,,,,,,,,,,,,,,425.04844330000924,None,right,0,1.1716608999995515,425.5490974999848,426.6850140999886,425.5490974999848,426.1842739999993,425.5490974999848,426.1842739999993,425.5490974999848,426.1842739999993,425.5490974999848,426.1842739999993,425.5490974999848,426.1842739999993,426.166472300014,426.6682552000275,426.166472300014,426.6682552000275,426.166472300014,426.6682552000275,426.166472300014,426.6682552000275,426.166472300014,426.6682552000275,426.166472300014,426.6682552000275,426.166472300014,426.6682552000275,426.166472300014,426.6682552000275,425.5490974999848,None,426.6682552000275,428.53777470003115,0.6300000000000003,428.5533139000181,None,429.3055623000255,None,,,,,,,[1.86696429],3.2700000000000022,0.7142857142857143,11008,001,2024_Jan_01_1511,MFTM_A_new1021,2021.2.3,60.15417515541008,
,,,,,,,,stim/Instruction_adaptive.png,conditions/adaptive.xlsx,test,0.6,0.6,0.6,-0.6,-0.6,right,R,,,,,0,1,1,1,0,56,56,54,,,,,,,,,,,,,,,,,,,,,,,,,,,,,,,,,,,,,,,,,,,,429.8060833000345,None,right,1,1.7029311999795027,430.3061729000183,431.4910052000196,430.3061729000183,430.99168470001314,430.3061729000183,430.99168470001314,430.3061729000183,430.99168470001314,430.3061729000183,430.99168470001314,430.3061729000183,430.99168470001314,430.97473160002846,431.4752318999963,430.97473160002846,431.4752318999963,430.97473160002846,431.4752318999963,430.97473160002846,431.4752318999963,430.97473160002846,431.4752318999963,430.97473160002846,431.4752318999963,430.97473160002846,431.4752318999963,430.97473160002846,431.4752318999963,430.3061729000183,None,431.4752318999963,433.2949967000168,0.6800000000000004,433.3099927000003,None,434.06165540002985,None,,,,,,,[[1.82]],3.3100000000000023,0.7192982456140351,11008,001,2024_Jan_01_1511,MFTM_A_new1021,2021.2.3,60.15417515541008,
,,,,,,,,stim/Instruction_adaptive.png,conditions/adaptive.xlsx,test,-0.6,-0.6,-0.6,0.6,0.6,left,L,,,,,0,1,1,1,0,57,57,83,,,,,,,,,,,,,,,,,,,,,,,,,,,,,,,,,,,,,,,,,,,,434.5623650000198,None,right,0,1.409743600001093,435.0632205000147,436.2316807000316,435.0632205000147,435.7315045000287,435.0632205000147,435.7315045000287,435.0632205000147,435.7315045000287,435.0632205000147,435.7315045000287,435.0632205000147,435.7315045000287,435.71435979998205,436.21499780000886,435.71435979998205,436.21499780000886,435.71435979998205,436.21499780000886,435.71435979998205,436.21499780000886,435.71435979998205,436.21499780000886,435.71435979998205,436.21499780000886,435.71435979998205,436.21499780000886,435.71435979998205,436.21499780000886,435.0632205000147,None,436.21499780000886,None,0.6600000000000004,438.06768779997947,None,438.8197515999782,None,,,,,,,[[1.84]],3.1800000000000024,0.7068965517241379,11008,001,2024_Jan_01_1511,MFTM_A_new1021,2021.2.3,60.15417515541008,
,,,,,,,,stim/Instruction_adaptive.png,conditions/adaptive.xlsx,test,-0.6,-0.6,-0.6,0.6,0.6,left,L,,,,,0,1,1,1,0,58,58,23,,,,,,,,,,,,,,,,,,,,,,,,,,,,,,,,,,,,,,,,,,,,439.3198393000057,None,right,0,1.3721712999977171,439.8203371000127,441.0560465999879,439.8203371000127,440.55478280002717,439.8203371000127,440.55478280002717,439.8203371000127,440.55478280002717,439.8203371000127,440.55478280002717,439.8203371000127,440.55478280002717,440.5379554000101,441.03854410001077,440.5379554000101,441.03854410001077,440.5379554000101,441.03854410001077,440.5379554000101,441.03854410001077,440.5379554000101,441.03854410001077,440.5379554000101,441.03854410001077,440.5379554000101,441.03854410001077,440.5379554000101,441.03854410001077,439.8203371000127,None,441.03854410001077,442.8089919000049,0.7300000000000004,442.8246584000299,None,443.57750860002125,None,,,,,,,[[1.77]],3.0400000000000023,0.6949152542372882,11008,001,2024_Jan_01_1511,MFTM_A_new1021,2021.2.3,60.15417515541008,
,,,,,,,,stim/Instruction_adaptive.png,conditions/adaptive.xlsx,test,0.6,0.6,0.6,-0.6,-0.6,right,R,,,,,0,1,1,1,0,59,59,0,,,,,,,,,,,,,,,,,,,,,,,,,,,,,,,,,,,,,,,,,,,,444.0772088000085,None,right,1,1.2480336000444368,444.5773638000246,445.8794586000149,444.5773638000246,445.37853069999255,444.5773638000246,445.37853069999255,444.5773638000246,445.37853069999255,444.5773638000246,445.37853069999255,444.5773638000246,445.37853069999255,445.361813800002,445.8629745999933,445.361813800002,445.8629745999933,445.361813800002,445.8629745999933,445.361813800002,445.8629745999933,445.361813800002,445.8629745999933,445.361813800002,445.8629745999933,445.361813800002,445.8629745999933,445.361813800002,445.8629745999933,444.5773638000246,None,445.8629745999933,447.56575519999024,0.8000000000000005,447.581411799998,None,448.33369629998924,None,,,,,,,[[1.7]],3.0900000000000025,0.7,11008,001,2024_Jan_01_1511,MFTM_A_new1021,2021.2.3,60.15417515541008,
,,,,,,,,stim/Instruction_adaptive.png,conditions/adaptive.xlsx,test,0.6,0.6,0.6,-0.6,-0.6,right,R,,,,,0,1,1,1,0,60,60,50,,,,,,,,,,,,,,,,,,,,,,,,,,,,,,,,,,,,,,,,,,,,448.8336269999854,None,right,1,2.002340400009416,449.3344123000279,450.6197375000338,449.3344123000279,450.11931119998917,449.3344123000279,450.11931119998917,449.3344123000279,450.11931119998917,449.3344123000279,450.11931119998917,449.3344123000279,450.11931119998917,450.0854969000211,450.5864368000184,450.0854969000211,450.5864368000184,450.0854969000211,450.5864368000184,450.0854969000211,450.5864368000184,450.0854969000211,450.5864368000184,450.0854969000211,450.5864368000184,450.0854969000211,450.5864368000184,450.0854969000211,450.5864368000184,449.3344123000279,None,450.5864368000184,452.32296590000624,0.7700000000000005,452.33953390002716,None,453.0902363000205,None,,,,,,,[[1.73]],3.1400000000000023,0.7049180327868853,11008,001,2024_Jan_01_1511,MFTM_A_new1021,2021.2.3,60.15417515541008,
,,,,,,,,stim/Instruction_adaptive.png,conditions/adaptive.xlsx,test,-0.6,-0.6,-0.6,0.6,0.6,left,L,,,,,0,1,1,1,0,61,61,91,,,,,,,,,,,,,,,,,,,,,,,,,,,,,,,,,,,,,,,,,,,,453.590755000012,None,right,0,1.8700691999983974,454.09145369997714,455.3436883999966,454.09145369997714,454.84252200002084,454.09145369997714,454.84252200002084,454.09145369997714,454.84252200002084,454.09145369997714,454.84252200002084,454.09145369997714,454.84252200002084,454.825869399996,455.327349899977,454.825869399996,455.327349899977,454.825869399996,455.327349899977,454.825869399996,455.327349899977,454.825869399996,455.327349899977,454.825869399996,455.327349899977,454.825869399996,455.327349899977,454.825869399996,455.327349899977,454.09145369997714,None,455.327349899977,457.0796399000101,0.7500000000000004,457.0958066000021,None,457.84743470000103,None,,,,,,,[[1.75]],3.000000000000002,0.6935483870967742,11008,001,2024_Jan_01_1511,MFTM_A_new1021,2021.2.3,60.15417515541008,
,,,,,,,,stim/Instruction_adaptive.png,conditions/adaptive.xlsx,test,0.6,0.6,0.6,-0.6,-0.6,right,R,,,,,0,1,1,1,0,62,62,94,,,,,,,,,,,,,,,,,,,,,,,,,,,,,,,,,,,,,,,,,,,,458.3484898000024,None,right,1,1.3206604000297375,458.84834800002864,460.1841479000286,458.84834800002864,459.68308779998915,458.84834800002864,459.68308779998915,458.84834800002864,459.68308779998915,458.84834800002864,459.68308779998915,458.84834800002864,459.68308779998915,459.6496433999855,460.1504131000256,459.6496433999855,460.1504131000256,459.6496433999855,460.1504131000256,459.6496433999855,460.1504131000256,459.6496433999855,460.1504131000256,459.6496433999855,460.1504131000256,459.6496433999855,460.1504131000256,459.6496433999855,460.1504131000256,458.84834800002864,None,460.1504131000256,461.83672830002615,0.8200000000000005,461.8530931000132,None,462.6047058000113,None,,,,,,,[[1.68]],3.0500000000000025,0.6984126984126984,11008,001,2024_Jan_01_1511,MFTM_A_new1021,2021.2.3,60.15417515541008,
,,,,,,,,stim/Instruction_adaptive.png,conditions/adaptive.xlsx,test,0.6,0.6,0.6,-0.6,-0.6,right,R,,,,,0,1,1,1,0,63,63,40,,,,,,,,,,,,,,,,,,,,,,,,,,,,,,,,,,,,,,,,,,,,463.1047756000189,None,right,1,1.9631026000133716,463.6054959000321,464.9082158000092,463.6054959000321,464.4071299000061,463.6054959000321,464.4071299000061,463.6054959000321,464.4071299000061,463.6054959000321,464.4071299000061,463.6054959000321,464.4071299000061,464.3739658999839,464.87395280000055,464.3739658999839,464.87395280000055,464.3739658999839,464.87395280000055,464.3739658999839,464.87395280000055,464.3739658999839,464.87395280000055,464.3739658999839,464.87395280000055,464.3739658999839,464.87395280000055,464.3739658999839,464.87395280000055,463.6054959000321,None,464.87395280000055,466.59379800001625,0.7900000000000005,466.6105061999988,None,467.3614024000126,None,,,,,,,[[1.71]],3.0900000000000025,0.703125,11008,001,2024_Jan_01_1511,MFTM_A_new1021,2021.2.3,60.15417515541008,
,,,,,,,,stim/Instruction_adaptive.png,conditions/adaptive.xlsx,test,0.6,0.6,0.6,-0.6,-0.6,right,R,,,,,0,1,1,1,0,64,64,74,,,,,,,,,,,,,,,,,,,,,,,,,,,,,,,,,,,,,,,,,,,,467.86220269999467,None,left,0,1.94260629999917,468.3624588000239,469.63152210001135,468.3624588000239,469.1303699000273,468.3624588000239,469.1303699000273,468.3624588000239,469.1303699000273,468.3624588000239,469.1303699000273,468.3624588000239,469.1303699000273,469.1148657000158,469.61499050003476,469.1148657000158,469.61499050003476,469.1148657000158,469.61499050003476,469.1148657000158,469.61499050003476,469.1148657000158,469.61499050003476,469.1148657000158,469.61499050003476,469.1148657000158,469.61499050003476,469.1148657000158,469.61499050003476,468.3624588000239,None,469.61499050003476,471.35114739998244,0.7700000000000005,471.3667833000072,None,472.11831719998736,None,,,,,,,[[1.73]],2.9700000000000024,0.6923076923076923,11008,001,2024_Jan_01_1511,MFTM_A_new1021,2021.2.3,60.15417515541008,
,,,,,,,,stim/Instruction_adaptive.png,conditions/adaptive.xlsx,test,0.6,0.6,0.6,-0.6,-0.6,right,R,,,,,0,1,1,1,0,65,65,44,,,,,,,,,,,,,,,,,,,,,,,,,,,,,,,,,,,,,,,,,,,,472.6188469000044,None,right,1,1.104151500039734,473.1206016999786,474.4715376999811,473.1206016999786,473.97095759998774,473.1206016999786,473.97095759998774,473.1206016999786,473.97095759998774,473.1206016999786,473.97095759998774,473.1206016999786,473.97095759998774,473.93759380001575,474.43876450002426,473.93759380001575,474.43876450002426,473.93759380001575,474.43876450002426,473.93759380001575,474.43876450002426,473.93759380001575,474.43876450002426,473.93759380001575,474.43876450002426,473.93759380001575,474.43876450002426,473.93759380001575,474.43876450002426,473.1206016999786,None,474.43876450002426,476.1075015999959,0.8400000000000005,476.1240603000042,None,476.87589329999173,None,,,,,,,[[1.66]],3.0100000000000025,0.696969696969697,11008,001,2024_Jan_01_1511,MFTM_A_new1021,2021.2.3,60.15417515541008,
,,,,,,,,stim/Instruction_adaptive.png,conditions/adaptive.xlsx,test,-0.6,-0.6,-0.6,0.6,0.6,left,L,,,,,0,1,1,1,0,66,66,19,,,,,,,,,,,,,,,,,,,,,,,,,,,,,,,,,,,,,,,,,,,,477.37683239998296,None,right,0,1.2032703000004403,477.8773378999904,479.21270109998295,477.8773378999904,478.71178080001846,477.8773378999904,478.71178080001846,477.8773378999904,478.71178080001846,477.8773378999904,478.71178080001846,477.8773378999904,478.71178080001846,478.67772620002506,479.17876029998297,478.67772620002506,479.17876029998297,478.67772620002506,479.17876029998297,478.67772620002506,479.17876029998297,478.67772620002506,479.17876029998297,478.67772620002506,479.17876029998297,478.67772620002506,479.17876029998297,478.67772620002506,479.17876029998297,477.8773378999904,None,479.17876029998297,480.865279700025,0.8200000000000005,480.88101469998946,None,481.6324430999812,None,,,,,,,[[1.68]],2.880000000000002,0.6865671641791045,11008,001,2024_Jan_01_1511,MFTM_A_new1021,2021.2.3,60.15417515541008,
,,,,,,,,stim/Instruction_adaptive.png,conditions/adaptive.xlsx,test,0.6,0.6,0.6,-0.6,-0.6,right,R,,,,,0,1,1,1,0,67,67,16,,,,,,,,,,,,,,,,,,,,,,,,,,,,,,,,,,,,,,,,,,,,482.13320049998583,None,right,1,2.5425348000135273,482.63428270001896,484.036265200004,482.63428270001896,483.5363153999788,482.63428270001896,483.5363153999788,482.63428270001896,483.5363153999788,482.63428270001896,483.5363153999788,482.63428270001896,483.5363153999788,483.5017296000151,484.0033840999822,483.5017296000151,484.0033840999822,483.5017296000151,484.0033840999822,483.5017296000151,484.0033840999822,483.5017296000151,484.0033840999822,483.5017296000151,484.0033840999822,483.5017296000151,484.0033840999822,483.5017296000151,484.0033840999822,482.63428270001896,None,484.0033840999822,485.6238499000319,0.8900000000000006,485.63752769998973,None,486.38950019999174,None,,,,,,,[[1.61]],2.9300000000000024,0.6911764705882353,11008,001,2024_Jan_01_1511,MFTM_A_new1021,2021.2.3,60.15417515541008,
,,,,,,,,stim/Instruction_adaptive.png,conditions/adaptive.xlsx,test,-0.6,-0.6,-0.6,0.6,0.6,left,L,,,,,0,1,1,1,0,68,68,27,,,,,,,,,,,,,,,,,,,,,,,,,,,,,,,,,,,,,,,,,,,,486.889843699988,None,left,1,1.7300262000062503,487.39074489998166,488.7594564000028,487.39074489998166,488.2591390000307,487.39074489998166,488.2591390000307,487.39074489998166,488.2591390000307,487.39074489998166,488.2591390000307,487.39074489998166,488.2591390000307,488.242131099978,488.7426387000014,488.242131099978,488.7426387000014,488.242131099978,488.7426387000014,488.242131099978,488.7426387000014,488.242131099978,488.7426387000014,488.242131099978,488.7426387000014,488.242131099978,488.7426387000014,488.242131099978,488.7426387000014,487.39074489998166,None,488.7426387000014,None,0.8600000000000005,490.39593240001705,None,491.1471068999963,None,,,,,,,[[1.64]],2.9700000000000024,0.6956521739130435,11008,001,2024_Jan_01_1511,MFTM_A_new1021,2021.2.3,60.15417515541008,
,,,,,,,,stim/Instruction_adaptive.png,conditions/adaptive.xlsx,test,0.6,0.6,0.6,-0.6,-0.6,right,R,,,,,0,1,1,1,0,69,69,82,,,,,,,,,,,,,,,,,,,,,,,,,,,,,,,,,,,,,,,,,,,,491.6477144000237,None,right,1,1.276929999992717,492.1478352000122,493.50058849999914,492.1478352000122,492.9993821000098,492.1478352000122,492.9993821000098,492.1478352000122,492.9993821000098,492.1478352000122,492.9993821000098,492.1478352000122,492.9993821000098,492.9659644999774,493.4668181000161,492.9659644999774,493.4668181000161,492.9659644999774,493.4668181000161,492.9659644999774,493.4668181000161,492.9659644999774,493.4668181000161,492.9659644999774,493.4668181000161,492.9659644999774,493.4668181000161,492.9659644999774,493.4668181000161,492.1478352000122,None,493.4668181000161,495.136032600014,0.8400000000000005,495.1522077000118,None,495.90362430003006,None,,,,,,,[[1.66]],3.0100000000000025,0.7,11008,001,2024_Jan_01_1511,MFTM_A_new1021,2021.2.3,60.15417515541008,
,,,,,,,,stim/Instruction_adaptive.png,conditions/adaptive.xlsx,test,-0.6,-0.6,-0.6,0.6,0.6,left,L,,,,,0,1,1,1,0,70,70,11,,,,,,,,,,,,,,,,,,,,,,,,,,,,,,,,,,,,,,,,,,,,496.4046865000273,None,left,1,1.1520173999597318,496.9048399000312,498.22407519997796,496.9048399000312,497.7400058999774,496.9048399000312,497.7400058999774,496.9048399000312,497.7400058999774,496.9048399000312,497.7400058999774,496.9048399000312,497.7400058999774,497.70672660000855,498.2073421999812,497.70672660000855,498.2073421999812,497.70672660000855,498.2073421999812,497.70672660000855,498.2073421999812,497.70672660000855,498.2073421999812,497.70672660000855,498.2073421999812,497.70672660000855,498.2073421999812,497.70672660000855,498.2073421999812,496.9048399000312,None,498.2073421999812,499.89354850002564,0.8200000000000005,499.9102417000104,None,500.66061999998055,None,,,,,,,[[1.68]],3.0500000000000025,0.704225352112676,11008,001,2024_Jan_01_1511,MFTM_A_new1021,2021.2.3,60.15417515541008,
,,,,,,,,stim/Instruction_adaptive.png,conditions/adaptive.xlsx,test,0.6,0.6,0.6,-0.6,-0.6,right,R,,,,,0,1,1,1,0,71,71,4,,,,,,,,,,,,,,,,,,,,,,,,,,,,,,,,,,,,,,,,,,,,501.160938200017,None,right,1,1.0990212999749929,501.66188159998273,502.96461490000365,501.66188159998273,502.4632198000327,501.66188159998273,502.4632198000327,501.66188159998273,502.4632198000327,501.66188159998273,502.4632198000327,501.66188159998273,502.4632198000327,502.429999999993,502.93117689999053,502.429999999993,502.93117689999053,502.429999999993,502.93117689999053,502.429999999993,502.93117689999053,502.429999999993,502.93117689999053,502.429999999993,502.93117689999053,502.429999999993,502.93117689999053,502.429999999993,502.93117689999053,501.66188159998273,None,502.93117689999053,504.6500137000112,0.7900000000000005,504.66680489998544,None,505.4183335999842,None,,,,,,,[[1.71]],3.0900000000000025,0.7083333333333334,11008,001,2024_Jan_01_1511,MFTM_A_new1021,2021.2.3,60.15417515541008,
,,,,,,,,stim/Instruction_adaptive.png,conditions/adaptive.xlsx,test,-0.6,-0.6,-0.6,0.6,0.6,left,L,,,,,0,1,1,1,0,72,72,85,,,,,,,,,,,,,,,,,,,,,,,,,,,,,,,,,,,,,,,,,,,,505.9182914000121,None,left,1,1.0776022000354715,506.4189102000091,507.6880280000041,506.4189102000091,507.2035472000134,506.4189102000091,507.2035472000134,506.4189102000091,507.2035472000134,506.4189102000091,507.2035472000134,506.4189102000091,507.2035472000134,507.17030649998924,507.67134970001644,507.17030649998924,507.67134970001644,507.17030649998924,507.67134970001644,507.17030649998924,507.67134970001644,507.17030649998924,507.67134970001644,507.17030649998924,507.67134970001644,507.17030649998924,507.67134970001644,507.17030649998924,507.67134970001644,506.4189102000091,None,507.67134970001644,509.4072287000017,0.7700000000000005,509.423543300014,None,510.1751130000339,None,,,,,,,[[1.73]],3.1200000000000023,0.7123287671232876,11008,001,2024_Jan_01_1511,MFTM_A_new1021,2021.2.3,60.15417515541008,
,,,,,,,,stim/Instruction_adaptive.png,conditions/adaptive.xlsx,test,0.6,0.6,0.6,-0.6,-0.6,right,R,,,,,0,1,1,1,0,73,73,46,,,,,,,,,,,,,,,,,,,,,,,,,,,,,,,,,,,,,,,,,,,,510.67565639998065,None,right,1,1.0246320000151172,511.1761555999983,512.4444505000138,511.1761555999983,511.94421620003413,511.1761555999983,511.94421620003413,511.1761555999983,511.94421620003413,511.1761555999983,511.94421620003413,511.1761555999983,511.94421620003413,511.92737570003374,512.4278493000311,511.92737570003374,512.4278493000311,511.92737570003374,512.4278493000311,511.92737570003374,512.4278493000311,511.92737570003374,512.4278493000311,511.92737570003374,512.4278493000311,511.92737570003374,512.4278493000311,511.92737570003374,512.4278493000311,511.1761555999983,None,512.4118255000212,514.1638018999947,0.7600000000000005,514.1804276999901,None,514.9318547000294,None,,,,,,,[[1.74]],3.1600000000000024,0.7162162162162162,11008,001,2024_Jan_01_1511,MFTM_A_new1021,2021.2.3,60.15417515541008,
,,,,,,,,stim/Instruction_adaptive.png,conditions/adaptive.xlsx,test,0.6,0.6,0.6,-0.6,-0.6,right,R,,,,,0,1,1,1,0,74,74,10,,,,,,,,,,,,,,,,,,,,,,,,,,,,,,,,,,,,,,,,,,,,515.4329338999814,None,right,1,0.9960434000240639,515.9330318000284,517.1851396000129,515.9330318000284,516.6849901999813,515.9330318000284,516.6849901999813,515.9330318000284,516.6849901999813,515.9330318000284,516.6849901999813,515.9330318000284,516.6849901999813,516.6516006999882,517.1518135999795,516.6516006999882,517.1518135999795,516.6516006999882,517.1518135999795,516.6516006999882,517.1518135999795,516.6516006999882,517.1518135999795,516.6516006999882,517.1518135999795,516.6516006999882,517.1518135999795,516.6516006999882,517.1518135999795,515.9330318000284,None,517.1518135999795,518.9212226999807,0.7400000000000004,518.9385877000168,None,519.6894556999905,None,,,,,,,[[1.76]],3.190000000000002,0.72,11008,001,2024_Jan_01_1511,MFTM_A_new1021,2021.2.3,60.15417515541008,
,,,,,,,,stim/Instruction_adaptive.png,conditions/adaptive.xlsx,test,-0.6,-0.6,-0.6,0.6,0.6,left,L,,,,,0,1,1,1,0,75,75,43,,,,,,,,,,,,,,,,,,,,,,,,,,,,,,,,,,,,,,,,,,,,520.1897084999946,None,left,1,1.2154613999882713,520.6900411000242,521.9262241999968,520.6900411000242,521.4260034000035,520.6900411000242,521.4260034000035,520.6900411000242,521.4260034000035,520.6900411000242,521.4260034000035,520.6900411000242,521.4260034000035,521.3910709000193,521.8919260000112,521.3910709000193,521.8919260000112,521.3910709000193,521.8919260000112,521.3910709000193,521.8919260000112,521.3910709000193,521.8919260000112,521.3910709000193,521.8919260000112,521.3910709000193,521.8919260000112,521.3910709000193,521.8919260000112,520.6900411000242,None,521.8919260000112,523.6786291000317,0.7200000000000004,523.6949031000258,None,524.446628500009,None,,,,,,,[[1.78]],3.2200000000000024,0.7236842105263158,11008,001,2024_Jan_01_1511,MFTM_A_new1021,2021.2.3,60.15417515541008,
,,,,,,,,stim/Instruction_adaptive.png,conditions/adaptive.xlsx,test,-0.6,-0.6,-0.6,0.6,0.6,left,L,,,,,0,1,1,1,0,76,76,39,,,,,,,,,,,,,,,,,,,,,,,,,,,,,,,,,,,,,,,,,,,,524.9463536000112,None,left,1,1.4094786000205204,525.4471655000234,526.6659251999808,525.4471655000234,526.165120300022,525.4471655000234,526.165120300022,525.4471655000234,526.165120300022,525.4471655000234,526.165120300022,525.4471655000234,526.165120300022,526.1319114000071,526.6322372999857,526.1319114000071,526.6322372999857,526.1319114000071,526.6322372999857,526.1319114000071,526.6322372999857,526.1319114000071,526.6322372999857,526.1319114000071,526.6322372999857,526.1319114000071,526.6322372999857,526.1319114000071,526.6322372999857,525.4471655000234,None,526.6322372999857,528.4350201999769,0.7100000000000004,528.4516794999945,None,529.2027895000065,None,,,,,,,[[1.79]],3.2600000000000025,0.7272727272727273,11008,001,2024_Jan_01_1511,MFTM_A_new1021,2021.2.3,60.15417515541008,
,,,,,,,,stim/Instruction_adaptive.png,conditions/adaptive.xlsx,test,-0.6,-0.6,-0.6,0.6,0.6,left,L,,,,,0,1,1,1,0,77,77,71,,,,,,,,,,,,,,,,,,,,,,,,,,,,,,,,,,,,,,,,,,,,529.704009899986,None,right,0,1.0850898000062443,530.2043234999874,531.4059869000339,530.2043234999874,530.9059201999917,530.2043234999874,530.9059201999917,530.2043234999874,530.9059201999917,530.2043234999874,530.9059201999917,530.2043234999874,530.9059201999917,530.8728706000256,531.373436200025,530.8728706000256,531.373436200025,530.8728706000256,531.373436200025,530.8728706000256,531.373436200025,530.8728706000256,531.373436200025,530.8728706000256,531.373436200025,530.8728706000256,531.373436200025,530.8728706000256,531.373436200025,530.2043234999874,None,531.373436200025,533.191888900008,0.6900000000000004,533.2085528000025,None,533.9599179999786,None,,,,,,,[[1.81]],3.1700000000000026,0.717948717948718,11008,001,2024_Jan_01_1511,MFTM_A_new1021,2021.2.3,60.15417515541008,
,,,,,,,,stim/Instruction_adaptive.png,conditions/adaptive.xlsx,test,-0.6,-0.6,-0.6,0.6,0.6,left,L,,,,,0,1,1,1,0,78,78,51,,,,,,,,,,,,,,,,,,,,,,,,,,,,,,,,,,,,,,,,,,,,534.4607417000225,None,left,1,1.2315526999882422,534.9614531000261,536.1963753000018,534.9614531000261,535.6956826000242,534.9614531000261,535.6956826000242,534.9614531000261,535.6956826000242,534.9614531000261,535.6956826000242,534.9614531000261,535.6956826000242,535.6788303999929,536.1803724000347,535.6788303999929,536.1803724000347,535.6788303999929,536.1803724000347,535.6788303999929,536.1803724000347,535.6788303999929,536.1803724000347,535.6788303999929,536.1803724000347,535.6788303999929,536.1803724000347,535.6788303999929,536.1803724000347,534.9614531000261,None,536.1803724000347,None,0.7300000000000004,537.9656252000132,None,538.7174676000141,None,,,,,,,[[1.77]],3.2000000000000024,0.7215189873417721,11008,001,2024_Jan_01_1511,MFTM_A_new1021,2021.2.3,60.15417515541008,
,,,,,,,,stim/Instruction_adaptive.png,conditions/adaptive.xlsx,test,-0.6,-0.6,-0.6,0.6,0.6,left,L,,,,,0,1,1,1,0,79,79,93,,,,,,,,,,,,,,,,,,,,,,,,,,,,,,,,,,,,,,,,,,,,539.2186945999856,None,right,0,1.0828975000185892,539.7186352999997,540.9541752000223,539.7186352999997,540.4525773000205,539.7186352999997,540.4525773000205,539.7186352999997,540.4525773000205,539.7186352999997,540.4525773000205,539.7186352999997,540.4525773000205,540.4192546000122,540.9200698999921,540.4192546000122,540.9200698999921,540.4192546000122,540.9200698999921,540.4192546000122,540.9200698999921,540.4192546000122,540.9200698999921,540.4192546000122,540.9200698999921,540.4192546000122,540.9200698999921,540.4192546000122,540.9200698999921,539.7186352999997,None,540.9200698999921,542.7059772000066,0.7200000000000004,542.7228004999924,None,543.4739846999873,None,,,,,,,[[1.78]],3.1000000000000023,0.7125,11008,001,2024_Jan_01_1511,MFTM_A_new1021,2021.2.3,60.15417515541008,
,,,,,,,,stim/Instruction_adaptive.png,conditions/adaptive.xlsx,test,-0.6,-0.6,-0.6,0.6,0.6,left,L,,,,,0,1,1,1,0,80,80,77,,,,,,,,,,,,,,,,,,,,,,,,,,,,,,,,,,,,,,,,,,,,543.9745633000275,None,left,1,1.3820210000267252,544.4751251999987,545.7437747999793,544.4751251999987,545.259831000003,544.4751251999987,545.259831000003,544.4751251999987,545.259831000003,544.4751251999987,545.259831000003,544.4751251999987,545.259831000003,545.2270087000215,545.727423000033,545.2270087000215,545.727423000033,545.2270087000215,545.727423000033,545.2270087000215,545.727423000033,545.2270087000215,545.727423000033,545.2270087000215,545.727423000033,545.2270087000215,545.727423000033,545.2270087000215,545.727423000033,544.4751251999987,None,545.727423000033,547.4630189000163,0.7700000000000005,547.4801111000124,None,548.2307941000327,None,,,,,,,[[1.73]],3.1400000000000023,0.7160493827160493,11008,001,2024_Jan_01_1511,MFTM_A_new1021,2021.2.3,60.15417515541008,
,,,,,,,,stim/Instruction_adaptive.png,conditions/adaptive.xlsx,test,0.6,0.6,0.6,-0.6,-0.6,right,R,,,,,0,1,1,1,0,81,81,52,,,,,,,,,,,,,,,,,,,,,,,,,,,,,,,,,,,,,,,,,,,,548.7319394000224,None,right,1,1.1524318999727257,549.2324058000231,550.4849806000129,549.2324058000231,549.9840413000202,549.2324058000231,549.9840413000202,549.2324058000231,549.9840413000202,549.2324058000231,549.9840413000202,549.2324058000231,549.9840413000202,549.9672445000033,550.46809759998,549.9672445000033,550.46809759998,549.9672445000033,550.46809759998,549.9672445000033,550.46809759998,549.9672445000033,550.46809759998,549.9672445000033,550.46809759998,549.9672445000033,550.46809759998,549.9672445000033,550.46809759998,549.2324058000231,None,550.46809759998,552.2218005000032,0.7500000000000004,552.2370254999842,None,552.9879549000179,None,,,,,,,[[1.75]],3.1700000000000026,0.7195121951219512,11008,001,2024_Jan_01_1511,MFTM_A_new1021,2021.2.3,60.15417515541008,
,,,,,,,,stim/Instruction_adaptive.png,conditions/adaptive.xlsx,test,0.6,0.6,0.6,-0.6,-0.6,right,R,,,,,0,1,1,1,0,82,82,76,,,,,,,,,,,,,,,,,,,,,,,,,,,,,,,,,,,,,,,,,,,,553.4887111000135,None,right,1,1.0914122000103816,553.9894062000094,555.224558499991,553.9894062000094,554.7242393000051,553.9894062000094,554.7242393000051,553.9894062000094,554.7242393000051,553.9894062000094,554.7242393000051,553.9894062000094,554.7242393000051,554.707222099998,555.2078904000227,554.707222099998,555.2078904000227,554.707222099998,555.2078904000227,554.707222099998,555.2078904000227,554.707222099998,555.2078904000227,554.707222099998,555.2078904000227,554.707222099998,555.2078904000227,554.707222099998,555.2078904000227,553.9894062000094,None,555.1914344999823,556.9776572000119,0.7300000000000004,556.9940341000329,None,557.7458413999993,None,,,,,,,[[1.77]],3.2000000000000024,0.7228915662650602,11008,001,2024_Jan_01_1511,MFTM_A_new1021,2021.2.3,60.15417515541008,
,,,,,,,,stim/Instruction_adaptive.png,conditions/adaptive.xlsx,test,0.6,0.6,0.6,-0.6,-0.6,right,R,,,,,0,1,1,1,0,83,83,62,,,,,,,,,,,,,,,,,,,,,,,,,,,,,,,,,,,,,,,,,,,,558.2455467000254,None,left,0,0.9985423000180162,558.7467717999825,559.9823725000024,558.7467717999825,559.4809913000208,558.7467717999825,559.4809913000208,558.7467717999825,559.4809913000208,558.7467717999825,559.4809913000208,558.7467717999825,559.4809913000208,559.4478335999884,559.9484134999802,559.4478335999884,559.9484134999802,559.4478335999884,559.9484134999802,559.4478335999884,559.9484134999802,559.4478335999884,559.9484134999802,559.4478335999884,559.9484134999802,559.4478335999884,559.9484134999802,559.4478335999884,559.9484134999802,558.7467717999825,None,559.9484134999802,561.7363940000068,0.7200000000000004,561.7681290000328,None,562.5191589000169,None,,,,,,,[[1.78]],3.110000000000002,0.7142857142857143,11008,001,2024_Jan_01_1511,MFTM_A_new1021,2021.2.3,60.15417515541008,
,,,,,,,,stim/Instruction_adaptive.png,conditions/adaptive.xlsx,test,0.6,0.6,0.6,-0.6,-0.6,right,R,,,,,0,1,1,1,0,84,84,88,,,,,,,,,,,,,,,,,,,,,,,,,,,,,,,,,,,,,,,,,,,,563.0207436000346,None,right,1,1.1365007999702357,563.52052369999,564.7893739999854,563.52052369999,564.2878595999791,563.52052369999,564.2878595999791,563.52052369999,564.2878595999791,563.52052369999,564.2878595999791,563.52052369999,564.2878595999791,564.254998199991,564.7562058999902,564.254998199991,564.7562058999902,564.254998199991,564.7562058999902,564.254998199991,564.7562058999902,564.254998199991,564.7562058999902,564.254998199991,564.7562058999902,564.254998199991,564.7562058999902,564.254998199991,564.7562058999902,563.52052369999,None,564.7562058999902,566.5082777999924,0.7600000000000005,566.5241096999962,None,567.275795100024,None,,,,,,,[[1.74]],3.1400000000000023,0.7176470588235294,11008,001,2024_Jan_01_1511,MFTM_A_new1021,2021.2.3,60.15417515541008,
,,,,,,,,stim/Instruction_adaptive.png,conditions/adaptive.xlsx,test,0.6,0.6,0.6,-0.6,-0.6,right,R,,,,,0,1,1,1,0,85,85,68,,,,,,,,,,,,,,,,,,,,,,,,,,,,,,,,,,,,,,,,,,,,567.7764050000114,None,left,0,1.2430859999731183,568.2777541999822,569.5291935999994,568.2777541999822,569.0291599000338,568.2777541999822,569.0291599000338,568.2777541999822,569.0291599000338,568.2777541999822,569.0291599000338,568.2777541999822,569.0291599000338,569.0121566000162,569.5129666000139,569.0121566000162,569.5129666000139,569.0121566000162,569.5129666000139,569.0121566000162,569.5129666000139,569.0121566000162,569.5129666000139,569.0121566000162,569.5129666000139,569.0121566000162,569.5129666000139,569.0121566000162,569.5129666000139,568.2777541999822,None,569.5129666000139,571.2650508999941,0.7500000000000004,571.2815948000061,None,572.0330318000051,None,,,,,,,[[1.75]],3.0500000000000025,0.7093023255813954,11008,001,2024_Jan_01_1511,MFTM_A_new1021,2021.2.3,60.15417515541008,
,,,,,,,,stim/Instruction_adaptive.png,conditions/adaptive.xlsx,test,0.6,0.6,0.6,-0.6,-0.6,right,R,,,,,0,1,1,1,0,86,86,90,,,,,,,,,,,,,,,,,,,,,,,,,,,,,,,,,,,,,,,,,,,,572.5336476999801,None,right,1,1.310258799989242,573.0347215000074,574.3366224999772,573.0347215000074,573.8354301999789,573.0347215000074,573.8354301999789,573.0347215000074,573.8354301999789,573.0347215000074,573.8354301999789,573.0347215000074,573.8354301999789,573.8020545000327,574.3031638999819,573.8020545000327,574.3031638999819,573.8020545000327,574.3031638999819,573.8020545000327,574.3031638999819,573.8020545000327,574.3031638999819,573.8020545000327,574.3031638999819,573.8020545000327,574.3031638999819,573.8020545000327,574.3031638999819,573.0347215000074,None,574.3031638999819,576.0219111000188,0.7900000000000005,576.0385774000315,None,576.7897708999808,None,,,,,,,[[1.71]],3.0800000000000023,0.7126436781609196,11008,001,2024_Jan_01_1511,MFTM_A_new1021,2021.2.3,60.15417515541008,
,,,,,,,,stim/Instruction_adaptive.png,conditions/adaptive.xlsx,test,-0.6,-0.6,-0.6,0.6,0.6,left,L,,,,,0,1,1,1,0,87,87,9,,,,,,,,,,,,,,,,,,,,,,,,,,,,,,,,,,,,,,,,,,,,577.2906689000083,None,left,1,1.1295041000121273,577.7913971000235,579.0766723999986,577.7913971000235,578.5756440000259,577.7913971000235,578.5756440000259,577.7913971000235,578.5756440000259,577.7913971000235,578.5756440000259,577.7913971000235,578.5756440000259,578.559313100006,579.0598978000344,578.559313100006,579.0598978000344,578.559313100006,579.0598978000344,578.559313100006,579.0598978000344,578.559313100006,579.0598978000344,578.559313100006,579.0598978000344,578.559313100006,579.0598978000344,578.559313100006,579.0598978000344,577.7913971000235,None,579.0598978000344,580.7802837000345,0.7800000000000005,580.7965009000036,None,581.5482020000345,None,,,,,,,[[1.72]],3.110000000000002,0.7159090909090909,11008,001,2024_Jan_01_1511,MFTM_A_new1021,2021.2.3,60.15417515541008,
,,,,,,,,stim/Instruction_adaptive.png,conditions/adaptive.xlsx,test,-0.6,-0.6,-0.6,0.6,0.6,left,L,,,,,0,1,1,1,0,88,88,25,,,,,,,,,,,,,,,,,,,,,,,,,,,,,,,,,,,,,,,,,,,,582.0477186000207,None,right,0,1.1718678000033833,582.5490774000064,583.8174919000012,582.5490774000064,583.3167437000084,582.5490774000064,583.3167437000084,582.5490774000064,583.3167437000084,582.5490774000064,583.3167437000084,582.5490774000064,583.3167437000084,583.2995431000018,583.8004394000163,583.2995431000018,583.8004394000163,583.2995431000018,583.8004394000163,583.2995431000018,583.8004394000163,583.2995431000018,583.8004394000163,583.2995431000018,583.8004394000163,583.2995431000018,583.8004394000163,583.2995431000018,583.8004394000163,582.5490774000064,None,583.8004394000163,None,0.7600000000000005,585.5525941000087,None,586.304833400005,None,,,,,,,[[1.74]],3.030000000000002,0.7078651685393258,11008,001,2024_Jan_01_1511,MFTM_A_new1021,2021.2.3,60.15417515541008,
,,,,,,,,stim/Instruction_adaptive.png,conditions/adaptive.xlsx,test,0.6,0.6,0.6,-0.6,-0.6,right,R,,,,,0,1,1,1,0,89,89,34,,,,,,,,,,,,,,,,,,,,,,,,,,,,,,,,,,,,,,,,,,,,586.8048942000023,None,right,1,1.4793198999832384,587.3055096000317,588.6245457000332,587.3055096000317,588.1234525000327,587.3055096000317,588.1234525000327,587.3055096000317,588.1234525000327,587.3055096000317,588.1234525000327,587.3055096000317,588.1234525000327,588.1066615000018,588.6073529000278,588.1066615000018,588.6073529000278,588.1066615000018,588.6073529000278,588.1066615000018,588.6073529000278,588.1066615000018,588.6073529000278,588.1066615000018,588.6073529000278,588.1066615000018,588.6073529000278,588.1066615000018,588.6073529000278,587.3055096000317,None,588.6073529000278,None,0.8100000000000005,590.3099609999917,None,591.0608947000001,None,,,,,,,[[1.69]],3.0600000000000023,0.7111111111111111,11008,001,2024_Jan_01_1511,MFTM_A_new1021,2021.2.3,60.15417515541008,
,,,,,,,,stim/Instruction_adaptive.png,conditions/adaptive.xlsx,test,0.6,0.6,0.6,-0.6,-0.6,right,R,,,,,0,1,1,1,0,90,90,96,,,,,,,,,,,,,,,,,,,,,,,,,,,,,,,,,,,,,,,,,,,,591.5618517000112,None,left,0,2.8264511000015773,592.0625652000308,593.3652323000133,592.0625652000308,592.8637028000085,592.0625652000308,592.8637028000085,592.0625652000308,592.8637028000085,592.0625652000308,592.8637028000085,592.0625652000308,592.8637028000085,592.8309780000127,593.3310398000176,592.8309780000127,593.3310398000176,592.8309780000127,593.3310398000176,592.8309780000127,593.3310398000176,592.8309780000127,593.3310398000176,592.8309780000127,593.3310398000176,592.8309780000127,593.3310398000176,592.8309780000127,593.3310398000176,592.0625652000308,None,593.3310398000176,595.050332200015,0.7900000000000005,595.0670951000066,None,595.8181000000332,None,,,,,,,[[1.71]],2.9700000000000024,0.7032967032967034,11008,001,2024_Jan_01_1511,MFTM_A_new1021,2021.2.3,60.15417515541008,
,,,,,,,,stim/Instruction_adaptive.png,conditions/adaptive.xlsx,test,-0.6,-0.6,-0.6,0.6,0.6,left,L,,,,,0,1,1,1,0,91,91,97,,,,,,,,,,,,,,,,,,,,,,,,,,,,,,,,,,,,,,,,,,,,596.3188769000117,None,left,1,1.5896719000302255,596.8195227999822,598.1716402000166,596.8195227999822,597.6707798999851,596.8195227999822,597.6707798999851,596.8195227999822,597.6707798999851,596.8195227999822,597.6707798999851,596.8195227999822,597.6707798999851,597.6375151000102,598.1381874000072,597.6375151000102,598.1381874000072,597.6375151000102,598.1381874000072,597.6375151000102,598.1381874000072,597.6375151000102,598.1381874000072,597.6375151000102,598.1381874000072,597.6375151000102,598.1381874000072,597.6375151000102,598.1381874000072,596.8195227999822,None,598.1381874000072,599.8073880000156,0.8400000000000005,599.8240487999865,None,600.5762126999907,None,,,,,,,[[1.66]],3.000000000000002,0.7065217391304348,11008,001,2024_Jan_01_1511,MFTM_A_new1021,2021.2.3,60.15417515541008,
,,,,,,,,stim/Instruction_adaptive.png,conditions/adaptive.xlsx,test,0.6,0.6,0.6,-0.6,-0.6,right,R,,,,,0,1,1,1,0,92,92,22,,,,,,,,,,,,,,,,,,,,,,,,,,,,,,,,,,,,,,,,,,,,601.0763412999804,None,right,1,1.295262300001923,601.5774574999814,602.912564600003,601.5774574999814,602.4112828000216,601.5774574999814,602.4112828000216,601.5774574999814,602.4112828000216,601.5774574999814,602.4112828000216,601.5774574999814,602.4112828000216,602.3778290000046,602.8784507000237,602.3778290000046,602.8784507000237,602.3778290000046,602.8784507000237,602.3778290000046,602.8784507000237,602.3778290000046,602.8784507000237,602.3778290000046,602.8784507000237,602.3778290000046,602.8784507000237,602.3778290000046,602.8784507000237,601.5774574999814,None,602.8784507000237,604.565532699984,0.8200000000000005,604.5812650999869,None,605.3324714000337,None,,,,,,,[[1.68]],3.030000000000002,0.7096774193548387,11008,001,2024_Jan_01_1511,MFTM_A_new1021,2021.2.3,60.15417515541008,
,,,,,,,,stim/Instruction_adaptive.png,conditions/adaptive.xlsx,test,0.6,0.6,0.6,-0.6,-0.6,right,R,,,,,0,1,1,1,0,93,93,66,,,,,,,,,,,,,,,,,,,,,,,,,,,,,,,,,,,,,,,,,,,,605.8329073999776,None,right,1,0.9158109000418335,606.3333604999934,607.6523313000216,606.3333604999934,607.1516783999978,606.3333604999934,607.1516783999978,606.3333604999934,607.1516783999978,606.3333604999934,607.1516783999978,606.3333604999934,607.1516783999978,607.1349012000137,607.6355924999807,607.1349012000137,607.6355924999807,607.1349012000137,607.6355924999807,607.1349012000137,607.6355924999807,607.1349012000137,607.6355924999807,607.1349012000137,607.6355924999807,607.1349012000137,607.6355924999807,607.1349012000137,607.6355924999807,606.3333604999934,None,607.6355924999807,None,0.8100000000000005,609.3379481000011,None,610.0892799000139,None,,,,,,,[[1.69]],3.0600000000000023,0.7127659574468085,11008,001,2024_Jan_01_1511,MFTM_A_new1021,2021.2.3,60.15417515541008,
