arrwidth1,arrwidth2,arrwidth3,arrwidth4,arrwidth5,keyb,type,orientation,instruction_image,block_filename,block_type,arrow11,arrow22,arrow33,arrow44,arrow55,keyb_3,orientation3,trials.thisRepN,trials.thisTrialN,trials.thisN,trials.thisIndex,trials_3.thisRepN,trials_3.thisTrialN,trials_3.thisN,trials_3.thisIndex,trials_2.thisRepN,trials_2.thisTrialN,trials_2.thisN,trials_2.thisIndex,welcome.started,welcome.stopped,key_resp.keys,key_resp.rt,key_resp.started,key_resp.stopped,instruction_example.started,instruction_example.stopped,key_resp_3.keys,key_resp_3.rt,key_resp_3.started,key_resp_3.stopped,instruction_task.started,instruction_task.stopped,key_resp_2.keys,key_resp_2.rt,key_resp_2.started,key_resp_2.stopped,text_2.started,text_2.stopped,A1.started,A1.stopped,A2.started,A2.stopped,A3.started,A3.stopped,A4.started,A4.stopped,A5.started,A5.stopped,key_resp_4.keys,key_resp_4.corr,key_resp_4.rt,key_resp_4.started,key_resp_4.stopped,fb.started,fb.stopped,instruction_block.started,instruction_block.stopped,key_resp_8.keys,key_resp_8.rt,key_resp_8.started,key_resp_8.stopped,text_8.started,text_8.stopped,key_resp_9.keys,key_resp_9.corr,key_resp_9.rt,text_5.started,text_5.stopped,A11_3.started,A11_3.stopped,A22_2.started,A22_2.stopped,A33_2.started,A33_2.stopped,A44_2.started,A44_2.stopped,A55_2.started,A55_2.stopped,M1_3.started,M1_3.stopped,M2_2.started,M2_2.stopped,M3_2.started,M3_2.stopped,M4_2.started,M4_2.stopped,M5_2.started,M5_2.stopped,M6_2.started,M6_2.stopped,M7_2.started,M7_2.stopped,M8_2.started,M8_2.stopped,key_resp_9.started,key_resp_9.stopped,fixation.started,fixation.stopped,ET,fb_3.started,fb_3.stopped,text_9.started,text_9.stopped,fb_4.started,fb_4.stopped,text_7.started,text_7.stopped,endtext.started,endtext.stopped,fixation_ITI,CCC,Acc,participant,session,date,expName,psychopyVersion,frameRate,
,,,,,,,,,,,,,,,,,,,,,,,,,,,,,,18.503184899978805,None,space,10.738760800042655,18.503184899978805,None,,,,,,,,,,,,,,,,,,,,,,,,,,,,,,,,,,,,,,,,,,,,,,,,,,,,,,,,,,,,,,,,,,,,,,,,,,,,,,,,,,,,,,,,,11009,001,2024_Jan_01_1612,MFTM_A_new1021,2021.2.3,59.91062534601744,
,,,,,,,,,,,,,,,,,,,,,,,,,,,,,,,,,,,,29.26938599999994,None,space,29.924507900024764,29.26938599999994,None,,,,,,,,,,,,,,,,,,,,,,,,,,,,,,,,,,,,,,,,,,,,,,,,,,,,,,,,,,,,,,,,,,,,,,,,,,,,,,,,,,,11009,001,2024_Jan_01_1612,MFTM_A_new1021,2021.2.3,59.91062534601744,
,,,,,,,,,,,,,,,,,,,,,,,,,,,,,,,,,,,,,,,,,,59.213736600009724,None,space,11.388313100032974,59.213736600009724,None,,,,,,,,,,,,,,,,,,,,,,,,,,,,,,,,,,,,,,,,,,,,,,,,,,,,,,,,,,,,,,,,,,,,,,,,,,,,,11009,001,2024_Jan_01_1612,MFTM_A_new1021,2021.2.3,59.91062534601744,
0.6,0.6,0.6,-0.6,-0.6,right,3:2,R,,,,,,,,,,,0,0,0,0,,,,,,,,,,,,,,,,,,,,,,,,,,,70.6485647999798,None,70.6485647999798,None,70.6485647999798,None,70.6485647999798,None,70.6485647999798,None,70.6485647999798,None,right,1,2.6339011999662034,70.6485647999798,None,73.32031809998443,None,,,,,,,,,,,,,,,,,,,,,,,,,,,,,,,,,,,,,,,,,,,,,,,,,,,,,,,,,,11009,001,2024_Jan_01_1612,MFTM_A_new1021,2021.2.3,59.91062534601744,
-0.6,-0.6,-0.6,0.6,0.6,left,3:2,L,,,,,,,,,,,0,1,1,1,,,,,,,,,,,,,,,,,,,,,,,,,,,74.06897690001642,None,74.06897690001642,None,74.06897690001642,None,74.06897690001642,None,74.06897690001642,None,74.06897690001642,None,left,1,1.6053126999759115,74.06897690001642,None,75.70487690001028,None,,,,,,,,,,,,,,,,,,,,,,,,,,,,,,,,,,,,,,,,,,,,,,,,,,,,,,,,,,11009,001,2024_Jan_01_1612,MFTM_A_new1021,2021.2.3,59.91062534601744,
-0.6,-0.6,-0.6,0.6,0.6,left,3:2,L,,,,,,,,,,,1,0,2,1,,,,,,,,,,,,,,,,,,,,,,,,,,,76.4568416000111,None,76.4568416000111,None,76.4568416000111,None,76.4568416000111,None,76.4568416000111,None,76.4568416000111,None,left,1,1.1772777999867685,76.4568416000111,None,77.65774669998791,None,,,,,,,,,,,,,,,,,,,,,,,,,,,,,,,,,,,,,,,,,,,,,,,,,,,,,,,,,,11009,001,2024_Jan_01_1612,MFTM_A_new1021,2021.2.3,59.91062534601744,
0.6,0.6,0.6,-0.6,-0.6,right,3:2,R,,,,,,,,,,,1,1,3,0,,,,,,,,,,,,,,,,,,,,,,,,,,,78.40915129997302,None,78.40915129997302,None,78.40915129997302,None,78.40915129997302,None,78.40915129997302,None,78.40915129997302,None,right,1,1.1050407000002451,78.40915129997302,None,79.54389339999761,None,,,,,,,,,,,,,,,,,,,,,,,,,,,,,,,,,,,,,,,,,,,,,,,,,,,,,,,,,,11009,001,2024_Jan_01_1612,MFTM_A_new1021,2021.2.3,59.91062534601744,
,,,,,,,,stim/Instruction_mask.png,conditions/adaptive.xlsx,practice,0.6,0.6,0.6,-0.6,-0.6,right,R,,,,,0,0,0,0,0,0,0,80,,,,,,,,,,,,,,,,,,,,,,,,,,,,,,,,,,,,,,80.54531309998129,None,space,47.49674430000596,80.54531309998129,None,128.14962280000327,None,right,1,1.7156656000297517,128.58348229998956,None,128.58348229998956,131.5882795000216,128.58348229998956,131.5882795000216,128.58348229998956,131.5882795000216,128.58348229998956,131.5882795000216,128.58348229998956,131.5882795000216,131.57100439997157,132.07200450001983,131.57100439997157,132.07200450001983,131.57100439997157,132.07200450001983,131.57100439997157,132.07200450001983,131.57100439997157,132.07200450001983,131.57100439997157,132.07200450001983,131.57100439997157,132.07200450001983,131.57100439997157,132.07200450001983,128.58348229998956,None,132.07200450001983,132.07200450001983,3,132.08865499997046,None,132.83944880001945,None,,,,,,,,,,11009,001,2024_Jan_01_1612,MFTM_A_new1021,2021.2.3,59.91062534601744,
,,,,,,,,stim/Instruction_mask.png,conditions/adaptive.xlsx,practice,-0.6,-0.6,-0.6,0.6,0.6,left,L,,,,,0,0,0,0,0,1,1,49,,,,,,,,,,,,,,,,,,,,,,,,,,,,,,,,,,,,,,,,,,,,133.34038930002134,None,left,1,1.8493331000208855,133.84133149997797,135.8443439999828,133.84133149997797,135.3439988999744,133.84133149997797,135.3439988999744,133.84133149997797,135.3439988999744,133.84133149997797,135.3439988999744,133.84133149997797,135.3439988999744,135.32639689999633,135.82725349999964,135.32639689999633,135.82725349999964,135.32639689999633,135.82725349999964,135.32639689999633,135.82725349999964,135.32639689999633,135.82725349999964,135.32639689999633,135.82725349999964,135.32639689999633,135.82725349999964,135.32639689999633,135.82725349999964,133.84133149997797,None,135.82725349999964,137.33053879998624,1.5,137.34699310001452,None,138.09717720001936,None,,,,,,,,,,11009,001,2024_Jan_01_1612,MFTM_A_new1021,2021.2.3,59.91062534601744,
,,,,,,,,stim/Instruction_mask.png,conditions/adaptive.xlsx,practice,-0.6,-0.6,-0.6,0.6,0.6,left,L,,,,,0,0,0,0,0,2,2,79,,,,,,,,,,,,,,,,,,,,,,,,,,,,,,,,,,,,,,,,,,,,138.59815889998572,None,left,1,1.4468249999918044,139.09937329997774,140.40080319996923,139.09937329997774,139.90072769997641,139.09937329997774,139.90072769997641,139.09937329997774,139.90072769997641,139.09937329997774,139.90072769997641,139.09937329997774,139.90072769997641,139.88333009998314,140.38417759997537,139.88333009998314,140.38417759997537,139.88333009998314,140.38417759997537,139.88333009998314,140.38417759997537,139.88333009998314,140.38417759997537,139.88333009998314,140.38417759997537,139.88333009998314,140.38417759997537,139.88333009998314,140.38417759997537,139.09937329997774,None,140.38417759997537,142.5872714999714,0.8,142.6040644000168,None,143.3554768000031,None,,,,,,,,,,11009,001,2024_Jan_01_1612,MFTM_A_new1021,2021.2.3,59.91062534601744,
,,,,,,,,stim/Instruction_mask.png,conditions/adaptive.xlsx,practice,0.6,0.6,0.6,-0.6,-0.6,right,R,,,,,0,0,0,0,0,3,3,12,,,,,,,,,,,,,,,,,,,,,,,,,,,,,,,,,,,,,,,,,,,,143.85575859999517,None,right,1,0.6694432000513189,144.35681109997677,145.1082567999838,144.35681109997677,144.60753480001586,144.35681109997677,144.60753480001586,144.35681109997677,144.60753480001586,144.35681109997677,144.60753480001586,144.35681109997677,144.60753480001586,144.59022169996751,145.09110670001246,144.59022169996751,145.09110670001246,144.59022169996751,145.09110670001246,144.59022169996751,145.09110670001246,144.59022169996751,145.09110670001246,144.59022169996751,145.09110670001246,144.59022169996751,145.09110670001246,144.59022169996751,145.09110670001246,144.35681109997677,None,145.09110670001246,147.84570609999355,3,147.86193620000267,None,148.61290469998494,None,,,,,,,,,,11009,001,2024_Jan_01_1612,MFTM_A_new1021,2021.2.3,59.91062534601744,
,,,,,,,,stim/Instruction_mask.png,conditions/adaptive.xlsx,practice,,,,,,,,,,,,0,0,0,0,,,,,,,,,,,,,,,,,,,,,,,,,,,,,,,,,,,,,,,,,,,,,,,,,,,,,,,,,,,,,,,,,,,,,,,,,,,,,,,,,,,,,,,,,,149.1317379999673,150.13270109996665,150.0985507000005,150.0985507000005,150.0985507000005,None,,,,11009,001,2024_Jan_01_1612,MFTM_A_new1021,2021.2.3,59.91062534601744,
,,,,,,,,stim/Instruction_adaptive.png,conditions/adaptive.xlsx,test,-0.6,-0.6,-0.6,0.6,0.6,left,L,,,,,0,1,1,1,0,0,0,53,,,,,,,,,,,,,,,,,,,,,,,,,,,,,,,,,,,,,,153.2699773000204,None,space,15.44434220000403,153.2699773000204,None,168.75914360000752,None,left,1,0.7100601000129245,169.26012459996855,None,169.26012459996855,172.26509739999892,169.26012459996855,172.26509739999892,169.26012459996855,172.26509739999892,169.26012459996855,172.26509739999892,169.26012459996855,172.26509739999892,172.24866410001414,172.74942369997734,172.24866410001414,172.74942369997734,172.24866410001414,172.74942369997734,172.24866410001414,172.74942369997734,172.24866410001414,172.74942369997734,172.24866410001414,172.74942369997734,172.24866410001414,172.74942369997734,172.24866410001414,172.74942369997734,169.26012459996855,None,172.74942369997734,172.74942369997734,3,172.7651673000073,None,173.51634370000102,None,,,,,,,0,6.000000000000005,1.0,11009,001,2024_Jan_01_1612,MFTM_A_new1021,2021.2.3,59.91062534601744,
,,,,,,,,stim/Instruction_adaptive.png,conditions/adaptive.xlsx,test,-0.6,-0.6,-0.6,0.6,0.6,left,L,,,,,0,1,1,1,0,1,1,63,,,,,,,,,,,,,,,,,,,,,,,,,,,,,,,,,,,,,,,,,,,,174.01729190000333,None,right,0,0.6201740999822505,174.51796460000332,175.26934930001153,174.51796460000332,174.7688826000085,174.51796460000332,174.7688826000085,174.51796460000332,174.7688826000085,174.51796460000332,174.7688826000085,174.51796460000332,174.7688826000085,174.75244409998413,175.2523199999705,174.75244409998413,175.2523199999705,174.75244409998413,175.2523199999705,174.75244409998413,175.2523199999705,174.75244409998413,175.2523199999705,174.75244409998413,175.2523199999705,174.75244409998413,175.2523199999705,174.75244409998413,175.2523199999705,174.51796460000332,None,175.2523199999705,176.1375277999905,0.25,176.15336759999627,None,176.90484089998063,None,,,,,,,[0.875],2.570000000000002,0.5,11009,001,2024_Jan_01_1612,MFTM_A_new1021,2021.2.3,59.91062534601744,
,,,,,,,,stim/Instruction_adaptive.png,conditions/adaptive.xlsx,test,-0.6,-0.6,-0.6,0.6,0.6,left,L,,,,,0,1,1,1,0,2,2,99,,,,,,,,,,,,,,,,,,,,,,,,,,,,,,,,,,,,,,,,,,,,177.40541760000633,None,left,1,1.312155999999959,177.90614510001615,179.52606120001292,177.90614510001615,179.0246213999926,177.90614510001615,179.0246213999926,177.90614510001615,179.0246213999926,177.90614510001615,179.0246213999926,177.90614510001615,179.0246213999926,178.99115479999455,179.49252939998405,178.99115479999455,179.49252939998405,178.99115479999455,179.49252939998405,178.99115479999455,179.49252939998405,178.99115479999455,179.49252939998405,178.99115479999455,179.49252939998405,178.99115479999455,179.49252939998405,178.99115479999455,179.49252939998405,177.90614510001615,None,179.49252939998405,180.54390180000337,1.1100000000000008,180.57669620000524,None,181.328385300003,None,,,,,,,[1.04666667],3.3800000000000026,0.6666666666666666,11009,001,2024_Jan_01_1612,MFTM_A_new1021,2021.2.3,59.91062534601744,
,,,,,,,,stim/Instruction_adaptive.png,conditions/adaptive.xlsx,test,-0.6,-0.6,-0.6,0.6,0.6,left,L,,,,,0,1,1,1,0,3,3,5,,,,,,,,,,,,,,,,,,,,,,,,,,,,,,,,,,,,,,,,,,,,181.82986940001138,None,left,1,1.0566865999717265,182.32965369999874,183.46475589997135,182.32965369999874,182.96429440000793,182.32965369999874,182.96429440000793,182.32965369999874,182.96429440000793,182.32965369999874,182.96429440000793,182.32965369999874,182.96429440000793,182.94787099998211,183.44779970002128,182.94787099998211,183.44779970002128,182.94787099998211,183.44779970002128,182.94787099998211,183.44779970002128,182.94787099998211,183.44779970002128,182.94787099998211,183.44779970002128,182.94787099998211,183.44779970002128,182.94787099998211,183.44779970002128,182.32965369999874,None,183.44779970002128,184.69992829998955,0.6300000000000003,184.71659309999086,None,185.4677618999849,None,,,,,,,[1.2525],3.940000000000003,0.75,11009,001,2024_Jan_01_1612,MFTM_A_new1021,2021.2.3,59.91062534601744,
,,,,,,,,stim/Instruction_adaptive.png,conditions/adaptive.xlsx,test,0.6,0.6,0.6,-0.6,-0.6,right,R,,,,,0,1,1,1,0,4,4,92,,,,,,,,,,,,,,,,,,,,,,,,,,,,,,,,,,,,,,,,,,,,185.96820130001288,None,right,1,0.8210041999700479,186.46925149997696,187.4036867999821,186.46925149997696,186.90310290001798,186.46925149997696,186.90310290001798,186.46925149997696,186.90310290001798,186.46925149997696,186.90310290001798,186.46925149997696,186.90310290001798,186.88606099999743,187.38785419997294,186.88606099999743,187.38785419997294,186.88606099999743,187.38785419997294,186.88606099999743,187.38785419997294,186.88606099999743,187.38785419997294,186.88606099999743,187.38785419997294,186.88606099999743,187.38785419997294,186.88606099999743,187.38785419997294,186.46925149997696,None,187.38785419997294,188.80624519998673,0.43000000000000016,188.82250740000745,None,189.57421529997373,None,,,,,,,[1.416],4.370000000000004,0.8,11009,001,2024_Jan_01_1612,MFTM_A_new1021,2021.2.3,59.91062534601744,
,,,,,,,,stim/Instruction_adaptive.png,conditions/adaptive.xlsx,test,0.6,0.6,0.6,-0.6,-0.6,right,R,,,,,0,1,1,1,0,5,5,18,,,,,,,,,,,,,,,,,,,,,,,,,,,,,,,,,,,,,,,,,,,,190.07475420000264,None,left,0,0.7000023999717087,190.5751653999905,191.41021399997408,190.5751653999905,190.9090974999708,190.5751653999905,190.9090974999708,190.5751653999905,190.9090974999708,190.5751653999905,190.9090974999708,190.5751653999905,190.9090974999708,190.87548829999287,191.37700380000751,190.87548829999287,191.37700380000751,190.87548829999287,191.37700380000751,190.87548829999287,191.37700380000751,190.87548829999287,191.37700380000751,190.87548829999287,191.37700380000751,190.87548829999287,191.37700380000751,190.87548829999287,191.37700380000751,190.5751653999905,None,191.37700380000751,192.9283884000033,0.32000000000000006,192.94541509996634,None,193.697411799978,None,,,,,,,[1.54333333],3.5400000000000027,0.6666666666666666,11009,001,2024_Jan_01_1612,MFTM_A_new1021,2021.2.3,59.91062534601744,
,,,,,,,,stim/Instruction_adaptive.png,conditions/adaptive.xlsx,test,-0.6,-0.6,-0.6,0.6,0.6,left,L,,,,,0,1,1,1,0,6,6,73,,,,,,,,,,,,,,,,,,,,,,,,,,,,,,,,,,,,,,,,,,,,194.1977175999782,None,right,0,1.3763159000081941,194.6978937999811,195.7828937000013,194.6978937999811,195.28204109997023,194.6978937999811,195.28204109997023,194.6978937999811,195.28204109997023,194.6978937999811,195.28204109997023,194.6978937999811,195.28204109997023,195.24908450001385,195.74942529998953,195.24908450001385,195.74942529998953,195.24908450001385,195.74942529998953,195.24908450001385,195.74942529998953,195.24908450001385,195.74942529998953,195.24908450001385,195.74942529998953,195.24908450001385,195.74942529998953,195.24908450001385,195.74942529998953,194.6978937999811,None,195.74942529998953,197.3517735999776,0.5700000000000003,197.36953460000223,None,198.11956899997313,None,,,,,,,[1.59857143],2.650000000000002,0.5714285714285714,11009,001,2024_Jan_01_1612,MFTM_A_new1021,2021.2.3,59.91062534601744,
,,,,,,,,stim/Instruction_adaptive.png,conditions/adaptive.xlsx,test,-0.6,-0.6,-0.6,0.6,0.6,left,L,,,,,0,1,1,1,0,7,7,13,,,,,,,,,,,,,,,,,,,,,,,,,,,,,,,,,,,,,,,,,,,,198.62068409996573,None,left,1,1.329348100000061,199.12102019996382,200.67381599999499,199.12102019996382,200.17324069997994,199.12102019996382,200.17324069997994,199.12102019996382,200.17324069997994,199.12102019996382,200.17324069997994,199.12102019996382,200.17324069997994,200.15649919997668,200.65659109997796,200.15649919997668,200.65659109997796,200.15649919997668,200.65659109997796,200.15649919997668,200.65659109997796,200.15649919997668,200.65659109997796,200.15649919997668,200.65659109997796,200.15649919997668,200.65659109997796,200.15649919997668,200.65659109997796,199.12102019996382,None,200.65659109997796,202.10943020001287,1.0500000000000007,202.12538919999497,None,202.87654929998098,None,,,,,,,[[1.45]],3.0200000000000022,0.625,11009,001,2024_Jan_01_1612,MFTM_A_new1021,2021.2.3,59.91062534601744,
,,,,,,,,stim/Instruction_adaptive.png,conditions/adaptive.xlsx,test,0.6,0.6,0.6,-0.6,-0.6,right,R,,,,,0,1,1,1,0,8,8,40,,,,,,,,,,,,,,,,,,,,,,,,,,,,,,,,,,,,,,,,,,,,203.3780426000012,None,right,1,1.1167568999808282,203.87810789997457,205.19772880000528,203.87810789997457,204.6963684000075,203.87810789997457,204.6963684000075,203.87810789997457,204.6963684000075,203.87810789997457,204.6963684000075,203.87810789997457,204.6963684000075,204.66352210001787,205.1632447000011,204.66352210001787,205.1632447000011,204.66352210001787,205.1632447000011,204.66352210001787,205.1632447000011,204.66352210001787,205.1632447000011,204.66352210001787,205.1632447000011,204.66352210001787,205.1632447000011,204.66352210001787,205.1632447000011,203.87810789997457,None,205.1632447000011,206.7659254000173,0.8100000000000005,206.78245519998018,None,207.53362449997803,None,,,,,,,[1.59222222],3.3000000000000025,0.6666666666666666,11009,001,2024_Jan_01_1612,MFTM_A_new1021,2021.2.3,59.91062534601744,
,,,,,,,,stim/Instruction_adaptive.png,conditions/adaptive.xlsx,test,-0.6,-0.6,-0.6,0.6,0.6,left,L,,,,,0,1,1,1,0,9,9,43,,,,,,,,,,,,,,,,,,,,,,,,,,,,,,,,,,,,,,,,,,,,208.03433230001247,None,left,1,1.347820299968589,208.53517960000318,209.72084449999966,208.53517960000318,209.21939649997512,208.53517960000318,209.21939649997512,208.53517960000318,209.21939649997512,208.53517960000318,209.21939649997512,208.53517960000318,209.21939649997512,209.18676929996582,209.6870894000167,209.18676929996582,209.6870894000167,209.18676929996582,209.6870894000167,209.18676929996582,209.6870894000167,209.18676929996582,209.6870894000167,209.18676929996582,209.6870894000167,209.18676929996582,209.6870894000167,209.18676929996582,209.6870894000167,208.53517960000318,None,209.6870894000167,211.30687640001997,0.6700000000000004,211.32266880001407,None,212.0734735999722,None,,,,,,,[1.616],3.5100000000000025,0.7,11009,001,2024_Jan_01_1612,MFTM_A_new1021,2021.2.3,59.91062534601744,
,,,,,,,,stim/Instruction_adaptive.png,conditions/adaptive.xlsx,test,0.6,0.6,0.6,-0.6,-0.6,right,R,,,,,0,1,1,1,0,10,10,66,,,,,,,,,,,,,,,,,,,,,,,,,,,,,,,,,,,,,,,,,,,,212.57492240000283,None,right,1,1.2316163000068627,213.07540049997624,214.16048449999653,213.07540049997624,213.6592216999852,213.07540049997624,213.6592216999852,213.07540049997624,213.6592216999852,213.07540049997624,213.6592216999852,213.07540049997624,213.6592216999852,213.6424925000174,214.14395190001233,213.6424925000174,214.14395190001233,213.6424925000174,214.14395190001233,213.6424925000174,214.14395190001233,213.6424925000174,214.14395190001233,213.6424925000174,214.14395190001233,213.6424925000174,214.14395190001233,213.6424925000174,214.14395190001233,213.07540049997624,None,214.14395190001233,215.79654939996544,0.5800000000000003,215.81240850000177,None,216.56388249999145,None,,,,,,,[1.64363636],3.690000000000003,0.7272727272727273,11009,001,2024_Jan_01_1612,MFTM_A_new1021,2021.2.3,59.91062534601744,
,,,,,,,,stim/Instruction_adaptive.png,conditions/adaptive.xlsx,test,0.6,0.6,0.6,-0.6,-0.6,right,R,,,,,0,1,1,1,0,11,11,50,,,,,,,,,,,,,,,,,,,,,,,,,,,,,,,,,,,,,,,,,,,,217.065055700019,None,right,1,1.2209419999853708,217.56536519998917,218.58377769996878,217.56536519998917,218.08243010001024,217.56536519998917,218.08243010001024,217.56536519998917,218.08243010001024,217.56536519998917,218.08243010001024,217.56536519998917,218.08243010001024,218.0659164999961,218.56684829998994,218.0659164999961,218.56684829998994,218.0659164999961,218.56684829998994,218.0659164999961,218.56684829998994,218.0659164999961,218.56684829998994,218.0659164999961,218.56684829998994,218.0659164999961,218.56684829998994,218.0659164999961,218.56684829998994,217.56536519998917,None,218.56684829998994,None,0.5100000000000002,220.25227250001626,None,221.00426259997766,None,,,,,,,[1.6725],3.850000000000003,0.75,11009,001,2024_Jan_01_1612,MFTM_A_new1021,2021.2.3,59.91062534601744,
,,,,,,,,stim/Instruction_adaptive.png,conditions/adaptive.xlsx,test,0.6,0.6,0.6,-0.6,-0.6,right,R,,,,,0,1,1,1,0,12,12,42,,,,,,,,,,,,,,,,,,,,,,,,,,,,,,,,,,,,,,,,,,,,221.50529629999073,None,left,0,0.837223999958951,222.00532579998253,222.97406279999996,222.00532579998253,222.47265579999657,222.00532579998253,222.47265579999657,222.00532579998253,222.47265579999657,222.00532579998253,222.47265579999657,222.00532579998253,222.47265579999657,222.45546859997557,222.95708329998888,222.45546859997557,222.95708329998888,222.45546859997557,222.95708329998888,222.45546859997557,222.95708329998888,222.45546859997557,222.95708329998888,222.45546859997557,222.95708329998888,222.45546859997557,222.95708329998888,222.45546859997557,222.95708329998888,222.00532579998253,None,222.95708329998888,224.65901050000684,0.4600000000000002,224.67554670001846,None,225.42692439997336,None,,,,,,,[1.70076923],3.450000000000003,0.6923076923076923,11009,001,2024_Jan_01_1612,MFTM_A_new1021,2021.2.3,59.91062534601744,
,,,,,,,,stim/Instruction_adaptive.png,conditions/adaptive.xlsx,test,-0.6,-0.6,-0.6,0.6,0.6,left,L,,,,,0,1,1,1,0,13,13,47,,,,,,,,,,,,,,,,,,,,,,,,,,,,,,,,,,,,,,,,,,,,225.92811510001775,None,right,0,0.7904510999796912,226.4281785999774,227.52984079997987,226.4281785999774,227.02913059998536,226.4281785999774,227.02913059998536,226.4281785999774,227.02913059998536,226.4281785999774,227.02913059998536,226.4281785999774,227.02913059998536,227.0122181000188,227.51375109999208,227.0122181000188,227.51375109999208,227.0122181000188,227.51375109999208,227.0122181000188,227.51375109999208,227.0122181000188,227.51375109999208,227.0122181000188,227.51375109999208,227.0122181000188,227.51375109999208,227.0122181000188,227.51375109999208,226.4281785999774,None,227.51375109999208,229.23228210001253,0.6000000000000003,229.24920249998104,None,230.00033159996383,None,,,,,,,[1.715],3.000000000000002,0.6428571428571429,11009,001,2024_Jan_01_1612,MFTM_A_new1021,2021.2.3,59.91062534601744,
,,,,,,,,stim/Instruction_adaptive.png,conditions/adaptive.xlsx,test,-0.6,-0.6,-0.6,0.6,0.6,left,L,,,,,0,1,1,1,0,14,14,29,,,,,,,,,,,,,,,,,,,,,,,,,,,,,,,,,,,,,,,,,,,,230.5016477999743,None,left,1,1.3362669000052847,231.00234750000527,232.33766640000977,231.00234750000527,231.8362277999986,231.00234750000527,231.8362277999986,231.00234750000527,231.8362277999986,231.00234750000527,231.8362277999986,231.00234750000527,231.8362277999986,231.80263099999866,232.30430700001307,231.80263099999866,232.30430700001307,231.80263099999866,232.30430700001307,231.80263099999866,232.30430700001307,231.80263099999866,232.30430700001307,231.80263099999866,232.30430700001307,231.80263099999866,232.30430700001307,231.80263099999866,232.30430700001307,231.00234750000527,None,232.30430700001307,233.98979059996782,0.8200000000000005,234.0059379999875,None,234.75850290001836,None,,,,,,,[[1.68]],3.1800000000000024,0.6666666666666666,11009,001,2024_Jan_01_1612,MFTM_A_new1021,2021.2.3,59.91062534601744,
,,,,,,,,stim/Instruction_adaptive.png,conditions/adaptive.xlsx,test,0.6,0.6,0.6,-0.6,-0.6,right,R,,,,,0,1,1,1,0,15,15,84,,,,,,,,,,,,,,,,,,,,,,,,,,,,,,,,,,,,,,,,,,,,235.2599433999858,None,left,0,1.1957638000021689,235.75866459996905,236.9945445000194,235.75866459996905,236.49310379999224,235.75866459996905,236.49310379999224,235.75866459996905,236.49310379999224,235.75866459996905,236.49310379999224,235.75866459996905,236.49310379999224,236.47698879998643,236.9773371000192,236.47698879998643,236.9773371000192,236.47698879998643,236.9773371000192,236.47698879998643,236.9773371000192,236.47698879998643,236.9773371000192,236.47698879998643,236.9773371000192,236.47698879998643,236.9773371000192,236.47698879998643,236.9773371000192,235.75866459996905,None,236.9773371000192,238.69631440000376,0.7300000000000004,238.71301180002047,None,239.46454610000364,None,,,,,,,[1.71625],2.730000000000002,0.625,11009,001,2024_Jan_01_1612,MFTM_A_new1021,2021.2.3,59.91062534601744,
,,,,,,,,stim/Instruction_adaptive.png,conditions/adaptive.xlsx,test,-0.6,-0.6,-0.6,0.6,0.6,left,L,,,,,0,1,1,1,0,16,16,25,,,,,,,,,,,,,,,,,,,,,,,,,,,,,,,,,,,,,,,,,,,,239.9649272999959,None,left,1,1.8246654000249691,240.4657272999757,241.96984759997576,240.4657272999757,241.4678291999735,240.4657272999757,241.4678291999735,240.4657272999757,241.4678291999735,240.4657272999757,241.4678291999735,240.4657272999757,241.4678291999735,241.4343861999805,241.93467099999543,241.4343861999805,241.93467099999543,241.4343861999805,241.93467099999543,241.4343861999805,241.93467099999543,241.4343861999805,241.93467099999543,241.4343861999805,241.93467099999543,241.4343861999805,241.93467099999543,241.4343861999805,241.93467099999543,240.4657272999757,None,241.93467099999543,243.4538033999852,0.9900000000000007,243.47010769997723,None,244.22161810001126,None,,,,,,,[[1.51]],2.900000000000002,0.6470588235294118,11009,001,2024_Jan_01_1612,MFTM_A_new1021,2021.2.3,59.91062534601744,
,,,,,,,,stim/Instruction_adaptive.png,conditions/adaptive.xlsx,test,0.6,0.6,0.6,-0.6,-0.6,right,R,,,,,0,1,1,1,0,17,17,74,,,,,,,,,,,,,,,,,,,,,,,,,,,,,,,,,,,,,,,,,,,,244.72200900001917,None,right,1,1.6754772000131197,245.22287060000235,246.60851649998222,245.22287060000235,246.1078022000147,245.22287060000235,246.1078022000147,245.22287060000235,246.1078022000147,245.22287060000235,246.1078022000147,245.22287060000235,246.1078022000147,246.090992500016,246.5913979000179,246.090992500016,246.5913979000179,246.090992500016,246.5913979000179,246.090992500016,246.5913979000179,246.090992500016,246.5913979000179,246.090992500016,246.5913979000179,246.090992500016,246.5913979000179,246.090992500016,246.5913979000179,245.22287060000235,None,246.5913979000179,248.2127001999761,0.8800000000000006,248.22693459998118,None,248.97890159999952,None,,,,,,,[[1.62]],3.0500000000000025,0.6666666666666666,11009,001,2024_Jan_01_1612,MFTM_A_new1021,2021.2.3,59.91062534601744,
,,,,,,,,stim/Instruction_adaptive.png,conditions/adaptive.xlsx,test,0.6,0.6,0.6,-0.6,-0.6,right,R,,,,,0,1,1,1,0,18,18,36,,,,,,,,,,,,,,,,,,,,,,,,,,,,,,,,,,,,,,,,,,,,249.47890619997634,None,right,1,1.1588069999706931,249.97968009999022,251.28159039997263,249.97968009999022,250.78140639996855,249.97968009999022,250.78140639996855,249.97968009999022,250.78140639996855,249.97968009999022,250.78140639996855,249.97968009999022,250.78140639996855,250.74822469998617,251.248543899972,250.74822469998617,251.248543899972,250.74822469998617,251.248543899972,250.74822469998617,251.248543899972,250.74822469998617,251.248543899972,250.74822469998617,251.248543899972,250.74822469998617,251.248543899972,250.74822469998617,251.248543899972,249.97968009999022,None,251.248543899972,252.95082680002088,0.7900000000000005,252.98435400001472,None,253.73531279998133,None,,,,,,,[1.7],3.1700000000000026,0.6842105263157895,11009,001,2024_Jan_01_1612,MFTM_A_new1021,2021.2.3,59.91062534601744,
,,,,,,,,stim/Instruction_adaptive.png,conditions/adaptive.xlsx,test,-0.6,-0.6,-0.6,0.6,0.6,left,L,,,,,0,1,1,1,0,19,19,79,,,,,,,,,,,,,,,,,,,,,,,,,,,,,,,,,,,,,,,,,,,,254.23673940001754,None,left,1,1.0965913000400178,254.73777199996402,255.97197919996688,254.73777199996402,255.47098009998444,254.73777199996402,255.47098009998444,254.73777199996402,255.47098009998444,254.73777199996402,255.47098009998444,254.73777199996402,255.47098009998444,255.45491059997585,255.95534210000187,255.45491059997585,255.95534210000187,255.45491059997585,255.95534210000187,255.45491059997585,255.95534210000187,255.45491059997585,255.95534210000187,255.45491059997585,255.95534210000187,255.45491059997585,255.95534210000187,255.45491059997585,255.95534210000187,254.73777199996402,None,255.93874589999905,257.6411186999758,0.7300000000000004,257.67443630000344,None,258.42622560000746,None,,,,,,,[1.7035],3.2800000000000025,0.7,11009,001,2024_Jan_01_1612,MFTM_A_new1021,2021.2.3,59.91062534601744,
,,,,,,,,stim/Instruction_adaptive.png,conditions/adaptive.xlsx,test,0.6,0.6,0.6,-0.6,-0.6,right,R,,,,,0,1,1,1,0,20,20,82,,,,,,,,,,,,,,,,,,,,,,,,,,,,,,,,,,,,,,,,,,,,258.9263666999759,None,right,1,1.095325900008902,259.4271698999801,260.6127467000042,259.4271698999801,260.11188500002027,259.4271698999801,260.11188500002027,259.4271698999801,260.11188500002027,259.4271698999801,260.11188500002027,259.4271698999801,260.11188500002027,260.0948645999888,260.59617209999124,260.0948645999888,260.59617209999124,260.0948645999888,260.59617209999124,260.0948645999888,260.59617209999124,260.0948645999888,260.59617209999124,260.0948645999888,260.59617209999124,260.0948645999888,260.59617209999124,260.0948645999888,260.59617209999124,259.4271698999801,None,260.59617209999124,None,0.6800000000000004,262.31479999999283,None,263.06618769996567,None,,,,,,,[1.70904762],3.3800000000000026,0.7142857142857143,11009,001,2024_Jan_01_1612,MFTM_A_new1021,2021.2.3,59.91062534601744,
,,,,,,,,stim/Instruction_adaptive.png,conditions/adaptive.xlsx,test,0.6,0.6,0.6,-0.6,-0.6,right,R,,,,,0,1,1,1,0,21,21,70,,,,,,,,,,,,,,,,,,,,,,,,,,,,,,,,,,,,,,,,,,,,263.566653100017,None,right,1,0.798697899968829,264.067802799982,265.20363840000937,264.067802799982,264.70215929998085,264.067802799982,264.70215929998085,264.067802799982,264.70215929998085,264.067802799982,264.70215929998085,264.067802799982,264.70215929998085,264.68493170000147,265.1861359999748,264.68493170000147,265.1861359999748,264.68493170000147,265.1861359999748,264.68493170000147,265.1861359999748,264.68493170000147,265.1861359999748,264.68493170000147,265.1861359999748,264.68493170000147,265.1861359999748,264.68493170000147,265.1861359999748,264.067802799982,None,265.1861359999748,266.9050098999869,0.6300000000000003,266.9219698999659,None,267.67263789998833,None,,,,,,,[1.71636364],3.4700000000000024,0.7272727272727273,11009,001,2024_Jan_01_1612,MFTM_A_new1021,2021.2.3,59.91062534601744,
,,,,,,,,stim/Instruction_adaptive.png,conditions/adaptive.xlsx,test,0.6,0.6,0.6,-0.6,-0.6,right,R,,,,,0,1,1,1,0,22,22,88,,,,,,,,,,,,,,,,,,,,,,,,,,,,,,,,,,,,,,,,,,,,268.1742532000062,None,right,1,1.0237453000154346,268.6749380999827,269.7757787000155,268.6749380999827,269.2750726999948,268.6749380999827,269.2750726999948,268.6749380999827,269.2750726999948,268.6749380999827,269.2750726999948,268.6749380999827,269.2750726999948,269.2417952999822,269.7431576999952,269.2417952999822,269.7431576999952,269.2417952999822,269.7431576999952,269.2417952999822,269.7431576999952,269.2417952999822,269.7431576999952,269.2417952999822,269.7431576999952,269.2417952999822,269.7431576999952,269.2417952999822,269.7431576999952,268.6749380999827,None,269.7431576999952,271.47827949997736,0.5900000000000003,271.4949569000164,None,272.2461692999932,None,,,,,,,[1.72478261],3.5500000000000025,0.7391304347826086,11009,001,2024_Jan_01_1612,MFTM_A_new1021,2021.2.3,59.91062534601744,
,,,,,,,,stim/Instruction_adaptive.png,conditions/adaptive.xlsx,test,-0.6,-0.6,-0.6,0.6,0.6,left,L,,,,,0,1,1,1,0,23,23,35,,,,,,,,,,,,,,,,,,,,,,,,,,,,,,,,,,,,,,,,,,,,272.7469094999833,None,left,1,0.8587357999640517,273.2477152000065,274.3167084999732,273.2477152000065,273.81493270001374,273.2477152000065,273.81493270001374,273.2477152000065,273.81493270001374,273.2477152000065,273.81493270001374,273.2477152000065,273.81493270001374,273.7822515000007,274.28265890001785,273.7822515000007,274.28265890001785,273.7822515000007,274.28265890001785,273.7822515000007,274.28265890001785,273.7822515000007,274.28265890001785,273.7822515000007,274.28265890001785,273.7822515000007,274.28265890001785,273.7822515000007,274.28265890001785,273.2477152000065,None,274.28265890001785,276.02050699997926,0.5600000000000003,276.05165689997375,None,276.8028331999667,None,,,,,,,[1.73375],3.6300000000000026,0.75,11009,001,2024_Jan_01_1612,MFTM_A_new1021,2021.2.3,59.91062534601744,
,,,,,,,,stim/Instruction_adaptive.png,conditions/adaptive.xlsx,test,0.6,0.6,0.6,-0.6,-0.6,right,R,,,,,0,1,1,1,0,24,24,90,,,,,,,,,,,,,,,,,,,,,,,,,,,,,,,,,,,,,,,,,,,,277.30414009996457,None,right,1,0.7578786999802105,277.80463069997495,278.83934609999415,277.80463069997495,278.3392112000147,277.80463069997495,278.3392112000147,277.80463069997495,278.3392112000147,277.80463069997495,278.3392112000147,277.80463069997495,278.3392112000147,278.32258939999156,278.82243260001997,278.32258939999156,278.82243260001997,278.32258939999156,278.82243260001997,278.32258939999156,278.82243260001997,278.32258939999156,278.82243260001997,278.32258939999156,278.82243260001997,278.32258939999156,278.82243260001997,278.32258939999156,278.82243260001997,277.80463069997495,None,278.82243260001997,280.57519479998155,0.5300000000000002,280.5916502000182,None,281.343143999984,None,,,,,,,[1.7432],3.700000000000003,0.76,11009,001,2024_Jan_01_1612,MFTM_A_new1021,2021.2.3,59.91062534601744,
,,,,,,,,stim/Instruction_adaptive.png,conditions/adaptive.xlsx,test,-0.6,-0.6,-0.6,0.6,0.6,left,L,,,,,0,1,1,1,0,25,25,9,,,,,,,,,,,,,,,,,,,,,,,,,,,,,,,,,,,,,,,,,,,,281.8440590999671,None,left,1,1.177829499996733,282.34475009999005,283.36336680001114,282.34475009999005,282.86203740001656,282.34475009999005,282.86203740001656,282.34475009999005,282.86203740001656,282.34475009999005,282.86203740001656,282.34475009999005,282.86203740001656,282.84514489996945,283.3465299999807,282.84514489996945,283.3465299999807,282.84514489996945,283.3465299999807,282.84514489996945,283.3465299999807,282.84514489996945,283.3465299999807,282.84514489996945,283.3465299999807,282.84514489996945,283.3465299999807,282.84514489996945,283.3465299999807,282.34475009999005,None,283.3465299999807,285.101021200011,0.5100000000000002,285.11493699997663,None,285.8673182000057,None,,,,,,,[1.75269231],3.770000000000003,0.7692307692307693,11009,001,2024_Jan_01_1612,MFTM_A_new1021,2021.2.3,59.91062534601744,
,,,,,,,,stim/Instruction_adaptive.png,conditions/adaptive.xlsx,test,0.6,0.6,0.6,-0.6,-0.6,right,R,,,,,0,1,1,1,0,26,26,8,,,,,,,,,,,,,,,,,,,,,,,,,,,,,,,,,,,,,,,,,,,,286.3676080000005,None,left,0,0.9021959999809042,286.86853949999204,287.85179210000206,286.86853949999204,287.3517523999908,286.86853949999204,287.3517523999908,286.86853949999204,287.3517523999908,286.86853949999204,287.3517523999908,286.86853949999204,287.3517523999908,287.33514079998713,287.835812299978,287.33514079998713,287.835812299978,287.33514079998713,287.835812299978,287.33514079998713,287.835812299978,287.33514079998713,287.835812299978,287.33514079998713,287.835812299978,287.33514079998713,287.835812299978,287.33514079998713,287.835812299978,286.86853949999204,None,287.835812299978,289.6051678999793,0.4800000000000002,289.6221554999938,None,290.3736632000073,None,,,,,,,[1.76259259],3.5800000000000027,0.7407407407407407,11009,001,2024_Jan_01_1612,MFTM_A_new1021,2021.2.3,59.91062534601744,
,,,,,,,,stim/Instruction_adaptive.png,conditions/adaptive.xlsx,test,0.6,0.6,0.6,-0.6,-0.6,right,R,,,,,0,1,1,1,0,27,27,60,,,,,,,,,,,,,,,,,,,,,,,,,,,,,,,,,,,,,,,,,,,,290.8735341000138,None,right,1,1.4118239999515936,291.374558600015,292.42792859999463,291.374558600015,291.92587109998567,291.374558600015,291.92587109998567,291.374558600015,291.92587109998567,291.374558600015,291.92587109998567,291.374558600015,291.92587109998567,291.90916129999096,292.4093217999907,291.90916129999096,292.4093217999907,291.90916129999096,292.4093217999907,291.90916129999096,292.4093217999907,291.90916129999096,292.4093217999907,291.90916129999096,292.4093217999907,291.90916129999096,292.4093217999907,291.90916129999096,292.4093217999907,291.374558600015,None,292.4093217999907,294.1797611999791,0.5500000000000003,294.19511600001715,None,294.9471313999966,None,,,,,,,[1.76928571],3.650000000000003,0.75,11009,001,2024_Jan_01_1612,MFTM_A_new1021,2021.2.3,59.91062534601744,
,,,,,,,,stim/Instruction_adaptive.png,conditions/adaptive.xlsx,test,-0.6,-0.6,-0.6,0.6,0.6,left,L,,,,,0,1,1,1,0,28,28,27,,,,,,,,,,,,,,,,,,,,,,,,,,,,,,,,,,,,,,,,,,,,295.44734650000464,None,right,0,1.1266789000364952,295.9478977000108,296.96609719999833,295.9478977000108,296.4820114999893,295.9478977000108,296.4820114999893,295.9478977000108,296.4820114999893,295.9478977000108,296.4820114999893,295.9478977000108,296.4820114999893,296.4486049999832,296.9502800999908,296.4486049999832,296.9502800999908,296.4486049999832,296.9502800999908,296.4486049999832,296.9502800999908,296.4486049999832,296.9502800999908,296.4486049999832,296.9502800999908,296.4486049999832,296.9502800999908,296.4486049999832,296.9502800999908,295.9478977000108,None,296.9502800999908,298.7359306999715,0.5200000000000002,298.75179389998084,None,299.50316869997187,None,,,,,,,[1.77655172],3.4700000000000024,0.7241379310344828,11009,001,2024_Jan_01_1612,MFTM_A_new1021,2021.2.3,59.91062534601744,
,,,,,,,,stim/Instruction_adaptive.png,conditions/adaptive.xlsx,test,0.6,0.6,0.6,-0.6,-0.6,right,R,,,,,0,1,1,1,0,29,29,46,,,,,,,,,,,,,,,,,,,,,,,,,,,,,,,,,,,,,,,,,,,,300.00411879998865,None,right,1,1.1461319000227377,300.50458090001484,301.60623370000394,300.50458090001484,301.10649679997005,300.50458090001484,301.10649679997005,300.50458090001484,301.10649679997005,300.50458090001484,301.10649679997005,300.50458090001484,301.10649679997005,301.07283829996595,301.57334150001407,301.07283829996595,301.57334150001407,301.07283829996595,301.57334150001407,301.07283829996595,301.57334150001407,301.07283829996595,301.57334150001407,301.07283829996595,301.57334150001407,301.07283829996595,301.57334150001407,301.07283829996595,301.57334150001407,300.50458090001484,None,301.57334150001407,303.36017980001634,0.5900000000000003,303.37499799998477,None,304.1273102000123,None,,,,,,,[1.781],3.530000000000003,0.7333333333333333,11009,001,2024_Jan_01_1612,MFTM_A_new1021,2021.2.3,59.91062534601744,
,,,,,,,,stim/Instruction_adaptive.png,conditions/adaptive.xlsx,test,-0.6,-0.6,-0.6,0.6,0.6,left,L,,,,,0,1,1,1,0,30,30,45,,,,,,,,,,,,,,,,,,,,,,,,,,,,,,,,,,,,,,,,,,,,304.62871620000806,None,left,1,0.9377867000293918,305.12908230000176,306.21356629999354,305.12908230000176,305.7121328000212,305.12908230000176,305.7121328000212,305.12908230000176,305.7121328000212,305.12908230000176,305.7121328000212,305.12908230000176,305.7121328000212,305.67933549999725,306.179976799991,305.67933549999725,306.179976799991,305.67933549999725,306.179976799991,305.67933549999725,306.179976799991,305.67933549999725,306.179976799991,305.67933549999725,306.179976799991,305.67933549999725,306.179976799991,305.67933549999725,306.179976799991,305.12908230000176,None,306.179976799991,307.96599699999206,0.5700000000000003,307.9992278999998,None,308.75028709997423,None,,,,,,,[1.78580645],3.5900000000000025,0.7419354838709677,11009,001,2024_Jan_01_1612,MFTM_A_new1021,2021.2.3,59.91062534601744,
,,,,,,,,stim/Instruction_adaptive.png,conditions/adaptive.xlsx,test,-0.6,-0.6,-0.6,0.6,0.6,left,L,,,,,0,1,1,1,0,31,31,83,,,,,,,,,,,,,,,,,,,,,,,,,,,,,,,,,,,,,,,,,,,,309.2517101999838,None,left,1,0.979455400025472,309.75157969997963,310.8033179999911,309.75157969997963,310.30235810001614,309.75157969997963,310.30235810001614,309.75157969997963,310.30235810001614,309.75157969997963,310.30235810001614,309.75157969997963,310.30235810001614,310.2857756000012,310.78664219996426,310.2857756000012,310.78664219996426,310.2857756000012,310.78664219996426,310.2857756000012,310.78664219996426,310.2857756000012,310.78664219996426,310.2857756000012,310.78664219996426,310.2857756000012,310.78664219996426,310.2857756000012,310.78664219996426,309.75157969997963,None,310.78664219996426,312.5906599999871,0.5500000000000003,312.60588539997116,None,313.35766909999074,None,,,,,,,[1.7909375],3.650000000000003,0.75,11009,001,2024_Jan_01_1612,MFTM_A_new1021,2021.2.3,59.91062534601744,
,,,,,,,,stim/Instruction_adaptive.png,conditions/adaptive.xlsx,test,-0.6,-0.6,-0.6,0.6,0.6,left,L,,,,,0,1,1,1,0,32,32,93,,,,,,,,,,,,,,,,,,,,,,,,,,,,,,,,,,,,,,,,,,,,313.85849959996995,None,right,0,1.0685331000131555,314.3582893999992,315.39347319997614,314.3582893999992,314.89244680001866,314.3582893999992,314.89244680001866,314.3582893999992,314.89244680001866,314.3582893999992,314.89244680001866,314.3582893999992,314.89244680001866,314.8595750000095,315.360037299979,314.8595750000095,315.360037299979,314.8595750000095,315.360037299979,314.8595750000095,315.360037299979,314.8595750000095,315.360037299979,314.8595750000095,315.360037299979,314.8595750000095,315.360037299979,314.8595750000095,315.360037299979,314.3582893999992,None,315.360037299979,317.1633070000098,0.5200000000000002,317.17881909996504,None,317.9309409999987,None,,,,,,,[1.79666667],3.490000000000003,0.7272727272727273,11009,001,2024_Jan_01_1612,MFTM_A_new1021,2021.2.3,59.91062534601744,
,,,,,,,,stim/Instruction_adaptive.png,conditions/adaptive.xlsx,test,0.6,0.6,0.6,-0.6,-0.6,right,R,,,,,0,1,1,1,0,33,33,20,,,,,,,,,,,,,,,,,,,,,,,,,,,,,,,,,,,,,,,,,,,,318.4314594999887,None,left,0,0.990936599962879,318.93176810001023,320.0332932000165,318.93176810001023,319.5330394000048,318.93176810001023,319.5330394000048,318.93176810001023,319.5330394000048,318.93176810001023,319.5330394000048,318.93176810001023,319.5330394000048,319.4993010999751,320.000289299991,319.4993010999751,320.000289299991,319.4993010999751,320.000289299991,319.4993010999751,320.000289299991,319.4993010999751,320.000289299991,319.4993010999751,320.000289299991,319.4993010999751,320.000289299991,319.4993010999751,320.000289299991,318.93176810001023,None,320.000289299991,321.80294899997534,0.5900000000000003,321.83703130000504,None,322.58801229996607,None,,,,,,,[1.8],3.3100000000000023,0.7058823529411765,11009,001,2024_Jan_01_1612,MFTM_A_new1021,2021.2.3,59.91062534601744,
,,,,,,,,stim/Instruction_adaptive.png,conditions/adaptive.xlsx,test,-0.6,-0.6,-0.6,0.6,0.6,left,L,,,,,0,1,1,1,0,34,34,7,,,,,,,,,,,,,,,,,,,,,,,,,,,,,,,,,,,,,,,,,,,,323.0882568999659,None,right,0,1.325832000002265,323.5887172999792,324.7582414000062,323.5887172999792,324.2563506999868,323.5887172999792,324.2563506999868,323.5887172999792,324.2563506999868,323.5887172999792,324.2563506999868,323.5887172999792,324.2563506999868,324.22317169996677,324.72384679998504,324.22317169996677,324.72384679998504,324.22317169996677,324.72384679998504,324.22317169996677,324.72384679998504,324.22317169996677,324.72384679998504,324.22317169996677,324.72384679998504,324.22317169996677,324.72384679998504,324.22317169996677,324.72384679998504,323.5887172999792,None,324.72384679998504,326.52658299996983,0.6600000000000004,326.55999589996645,None,327.3117142000119,None,,,,,,,[1.80114286],3.1200000000000023,0.6857142857142857,11009,001,2024_Jan_01_1612,MFTM_A_new1021,2021.2.3,59.91062534601744,
,,,,,,,,stim/Instruction_adaptive.png,conditions/adaptive.xlsx,test,-0.6,-0.6,-0.6,0.6,0.6,left,L,,,,,0,1,1,1,0,35,35,11,,,,,,,,,,,,,,,,,,,,,,,,,,,,,,,,,,,,,,,,,,,,327.8123491000151,None,left,1,0.9460285000386648,328.31252109998604,329.582081999979,328.31252109998604,329.08173769997666,328.31252109998604,329.08173769997666,328.31252109998604,329.08173769997666,328.31252109998604,329.08173769997666,328.31252109998604,329.08173769997666,329.06380359997274,329.5653500999906,329.06380359997274,329.5653500999906,329.06380359997274,329.5653500999906,329.06380359997274,329.5653500999906,329.06380359997274,329.5653500999906,329.06380359997274,329.5653500999906,329.06380359997274,329.5653500999906,329.06380359997274,329.5653500999906,328.31252109998604,None,329.5653500999906,None,0.7600000000000005,331.3169751999667,None,332.0680405999883,None,,,,,,,[[1.74]],3.190000000000002,0.6944444444444444,11009,001,2024_Jan_01_1612,MFTM_A_new1021,2021.2.3,59.91062534601744,
,,,,,,,,stim/Instruction_adaptive.png,conditions/adaptive.xlsx,test,0.6,0.6,0.6,-0.6,-0.6,right,R,,,,,0,1,1,1,0,36,36,24,,,,,,,,,,,,,,,,,,,,,,,,,,,,,,,,,,,,,,,,,,,,332.5687222999986,None,right,1,1.2047478999593295,333.0696804000181,334.30487310001627,333.0696804000181,333.8046714999946,333.0696804000181,333.8046714999946,333.0696804000181,333.8046714999946,333.0696804000181,333.8046714999946,333.0696804000181,333.8046714999946,333.77096190000884,334.271983499988,333.77096190000884,334.271983499988,333.77096190000884,334.271983499988,333.77096190000884,334.271983499988,333.77096190000884,334.271983499988,333.77096190000884,334.271983499988,333.77096190000884,334.271983499988,333.77096190000884,334.271983499988,333.0696804000181,None,334.271983499988,336.0579196999897,0.7200000000000004,336.07404159998987,None,336.8251465999638,None,,,,,,,[[1.78]],3.2500000000000027,0.7027027027027027,11009,001,2024_Jan_01_1612,MFTM_A_new1021,2021.2.3,59.91062534601744,
,,,,,,,,stim/Instruction_adaptive.png,conditions/adaptive.xlsx,test,-0.6,-0.6,-0.6,0.6,0.6,left,L,,,,,0,1,1,1,0,37,37,67,,,,,,,,,,,,,,,,,,,,,,,,,,,,,,,,,,,,,,,,,,,,337.326679699996,None,left,1,0.8871559000108391,337.82724750001216,339.02896660001716,337.82724750001216,338.52797130000545,337.82724750001216,338.52797130000545,337.82724750001216,338.52797130000545,337.82724750001216,338.52797130000545,337.82724750001216,338.52797130000545,338.49472700001206,338.9955560999806,338.49472700001206,338.9955560999806,338.49472700001206,338.9955560999806,338.49472700001206,338.9955560999806,338.49472700001206,338.9955560999806,338.49472700001206,338.9955560999806,338.49472700001206,338.9955560999806,338.49472700001206,338.9955560999806,337.82724750001216,None,338.9955560999806,340.79845750000095,0.6900000000000004,340.8313158999663,None,341.5822607000009,None,,,,,,,[1.79921053],3.3100000000000023,0.7105263157894737,11009,001,2024_Jan_01_1612,MFTM_A_new1021,2021.2.3,59.91062534601744,
,,,,,,,,stim/Instruction_adaptive.png,conditions/adaptive.xlsx,test,-0.6,-0.6,-0.6,0.6,0.6,left,L,,,,,0,1,1,1,0,38,38,71,,,,,,,,,,,,,,,,,,,,,,,,,,,,,,,,,,,,,,,,,,,,342.08286969998153,None,right,0,1.5541911000036635,342.5843004999915,343.75261720002163,342.5843004999915,343.251316400012,342.5843004999915,343.251316400012,342.5843004999915,343.251316400012,342.5843004999915,343.251316400012,342.5843004999915,343.251316400012,343.23460899997735,343.7359978000168,343.23460899997735,343.7359978000168,343.23460899997735,343.7359978000168,343.23460899997735,343.7359978000168,343.23460899997735,343.7359978000168,343.23460899997735,343.7359978000168,343.23460899997735,343.7359978000168,343.23460899997735,343.7359978000168,342.5843004999915,None,343.7359978000168,345.5378641000134,0.6600000000000004,345.5547668999643,None,346.30827460001456,None,,,,,,,[1.80025641],3.1400000000000023,0.6923076923076923,11009,001,2024_Jan_01_1612,MFTM_A_new1021,2021.2.3,59.91062534601744,
,,,,,,,,stim/Instruction_adaptive.png,conditions/adaptive.xlsx,test,0.6,0.6,0.6,-0.6,-0.6,right,R,,,,,0,1,1,1,0,39,39,6,,,,,,,,,,,,,,,,,,,,,,,,,,,,,,,,,,,,,,,,,,,,346.82309550000355,None,left,0,1.823344700038433,347.3077179999673,348.55919960001484,347.3077179999673,348.0592704999726,347.3077179999673,348.0592704999726,347.3077179999673,348.0592704999726,347.3077179999673,348.0592704999726,347.3077179999673,348.0592704999726,348.0418556999648,348.54302430001553,348.0418556999648,348.54302430001553,348.0418556999648,348.54302430001553,348.0418556999648,348.54302430001553,348.0418556999648,348.54302430001553,348.0418556999648,348.54302430001553,348.0418556999648,348.54302430001553,348.0418556999648,348.54302430001553,347.3077179999673,None,348.54302430001553,350.2957077000174,0.7500000000000004,350.31160339998314,None,351.0637286999845,None,,,,,,,[[1.75]],2.960000000000002,0.675,11009,001,2024_Jan_01_1612,MFTM_A_new1021,2021.2.3,59.91062534601744,
,,,,,,,,stim/Instruction_adaptive.png,conditions/adaptive.xlsx,test,-0.6,-0.6,-0.6,0.6,0.6,left,L,,,,,0,1,1,1,0,40,40,57,,,,,,,,,,,,,,,,,,,,,,,,,,,,,,,,,,,,,,,,,,,,351.56458359997487,None,right,0,1.2016980000189506,352.0650319000124,353.4174731000094,352.0650319000124,352.91665530001046,352.0650319000124,352.91665530001046,352.0650319000124,352.91665530001046,352.0650319000124,352.91665530001046,352.0650319000124,352.91665530001046,352.8989181999932,353.3995009000064,352.8989181999932,353.3995009000064,352.8989181999932,353.3995009000064,352.8989181999932,353.3995009000064,352.8989181999932,353.3995009000064,352.8989181999932,353.3995009000064,352.8989181999932,353.3995009000064,352.8989181999932,353.3995009000064,352.0650319000124,None,353.3995009000064,355.05220540001756,0.8500000000000005,355.0690234999638,None,355.8205937999883,None,,,,,,,[[1.65]],2.7500000000000018,0.6585365853658537,11009,001,2024_Jan_01_1612,MFTM_A_new1021,2021.2.3,59.91062534601744,
,,,,,,,,stim/Instruction_adaptive.png,conditions/adaptive.xlsx,test,0.6,0.6,0.6,-0.6,-0.6,right,R,,,,,0,1,1,1,0,41,41,2,,,,,,,,,,,,,,,,,,,,,,,,,,,,,,,,,,,,,,,,,,,,356.32067799998913,None,right,1,1.3970634000143036,356.82144839997636,358.30712770001264,356.82144839997636,357.8062961999676,356.82144839997636,357.8062961999676,356.82144839997636,357.8062961999676,356.82144839997636,357.8062961999676,356.82144839997636,357.8062961999676,357.78946519998135,358.29029779997654,357.78946519998135,358.29029779997654,357.78946519998135,358.29029779997654,357.78946519998135,358.29029779997654,357.78946519998135,358.29029779997654,357.78946519998135,358.29029779997654,357.78946519998135,358.29029779997654,357.78946519998135,358.29029779997654,356.82144839997636,None,358.29029779997654,359.80953069997486,0.9800000000000006,359.8256616999861,None,360.577889600012,None,,,,,,,[[1.52]],2.820000000000002,0.6666666666666666,11009,001,2024_Jan_01_1612,MFTM_A_new1021,2021.2.3,59.91062534601744,
,,,,,,,,stim/Instruction_adaptive.png,conditions/adaptive.xlsx,test,0.6,0.6,0.6,-0.6,-0.6,right,R,,,,,0,1,1,1,0,42,42,34,,,,,,,,,,,,,,,,,,,,,,,,,,,,,,,,,,,,,,,,,,,,361.07847730000503,None,right,1,2.1362058999948204,361.5785125999828,363.0132436999702,361.5785125999828,362.51347279996844,361.5785125999828,362.51347279996844,361.5785125999828,362.51347279996844,361.5785125999828,362.51347279996844,361.5785125999828,362.51347279996844,362.4969030999928,362.99770569999237,362.4969030999928,362.99770569999237,362.4969030999928,362.99770569999237,362.4969030999928,362.99770569999237,362.4969030999928,362.99770569999237,362.4969030999928,362.99770569999237,362.4969030999928,362.99770569999237,362.4969030999928,362.99770569999237,361.5785125999828,None,362.99770569999237,None,0.9300000000000006,364.58295790001284,None,365.33377389999805,None,,,,,,,[[1.57]],2.8900000000000023,0.6744186046511628,11009,001,2024_Jan_01_1612,MFTM_A_new1021,2021.2.3,59.91062534601744,
,,,,,,,,stim/Instruction_adaptive.png,conditions/adaptive.xlsx,test,-0.6,-0.6,-0.6,0.6,0.6,left,L,,,,,0,1,1,1,0,43,43,37,,,,,,,,,,,,,,,,,,,,,,,,,,,,,,,,,,,,,,,,,,,,365.8355489000096,None,left,1,1.1711188000044785,366.3357271999703,367.73843019997,366.3357271999703,367.2385134000215,366.3357271999703,367.2385134000215,366.3357271999703,367.2385134000215,366.3357271999703,367.2385134000215,366.3357271999703,367.2385134000215,367.2043648000108,367.705397200014,367.2043648000108,367.705397200014,367.2043648000108,367.705397200014,367.2043648000108,367.705397200014,367.2043648000108,367.705397200014,367.2043648000108,367.705397200014,367.2043648000108,367.705397200014,367.2043648000108,367.705397200014,366.3357271999703,None,367.705397200014,369.32318030000897,0.8900000000000006,369.34004669997375,None,370.0911476999754,None,,,,,,,[[1.61]],2.960000000000002,0.6818181818181818,11009,001,2024_Jan_01_1612,MFTM_A_new1021,2021.2.3,59.91062534601744,
,,,,,,,,stim/Instruction_adaptive.png,conditions/adaptive.xlsx,test,-0.6,-0.6,-0.6,0.6,0.6,left,L,,,,,0,1,1,1,0,44,44,75,,,,,,,,,,,,,,,,,,,,,,,,,,,,,,,,,,,,,,,,,,,,370.5929550000001,None,right,0,1.4458588999696076,371.09266739996383,372.4451486999751,371.09266739996383,371.94363140000496,371.09266739996383,371.94363140000496,371.09266739996383,371.94363140000496,371.09266739996383,371.94363140000496,371.09266739996383,371.94363140000496,371.9272321999888,372.42789539997466,371.9272321999888,372.42789539997466,371.9272321999888,372.42789539997466,371.9272321999888,372.42789539997466,371.9272321999888,372.42789539997466,371.9272321999888,372.42789539997466,371.9272321999888,372.42789539997466,371.9272321999888,372.42789539997466,371.09266739996383,None,372.42789539997466,374.08103399997344,0.8500000000000005,374.09705149999354,None,374.84824339998886,None,,,,,,,[[1.65]],2.7700000000000022,0.6666666666666666,11009,001,2024_Jan_01_1612,MFTM_A_new1021,2021.2.3,59.91062534601744,
,,,,,,,,stim/Instruction_adaptive.png,conditions/adaptive.xlsx,test,0.6,0.6,0.6,-0.6,-0.6,right,R,,,,,0,1,1,1,0,45,45,30,,,,,,,,,,,,,,,,,,,,,,,,,,,,,,,,,,,,,,,,,,,,375.348896600015,None,right,1,2.0484945999924093,375.8498371000169,377.3192167999805,375.8498371000169,376.81828549999045,375.8498371000169,376.81828549999045,375.8498371000169,376.81828549999045,375.8498371000169,376.81828549999045,375.8498371000169,376.81828549999045,376.8010206000181,377.3018770000199,376.8010206000181,377.3018770000199,376.8010206000181,377.3018770000199,376.8010206000181,377.3018770000199,376.8010206000181,377.3018770000199,376.8010206000181,377.3018770000199,376.8010206000181,377.3018770000199,376.8010206000181,377.3018770000199,375.8498371000169,None,377.2851816000184,378.8373672000016,0.9600000000000006,378.8545937999734,None,379.605559299991,None,,,,,,,[[1.54]],2.840000000000002,0.6739130434782609,11009,001,2024_Jan_01_1612,MFTM_A_new1021,2021.2.3,59.91062534601744,
,,,,,,,,stim/Instruction_adaptive.png,conditions/adaptive.xlsx,test,-0.6,-0.6,-0.6,0.6,0.6,left,L,,,,,0,1,1,1,0,46,46,17,,,,,,,,,,,,,,,,,,,,,,,,,,,,,,,,,,,,,,,,,,,,380.10662149998825,None,left,1,1.2266316000022925,380.6077566000167,382.042115499964,380.6077566000167,381.54134980001254,380.6077566000167,381.54134980001254,380.6077566000167,381.54134980001254,380.6077566000167,381.54134980001254,380.6077566000167,381.54134980001254,381.50799690000713,382.00944970001,381.50799690000713,382.00944970001,381.50799690000713,382.00944970001,381.50799690000713,382.00944970001,381.50799690000713,382.00944970001,381.50799690000713,382.00944970001,381.50799690000713,382.00944970001,381.50799690000713,382.00944970001,380.6077566000167,None,382.00944970001,383.59499429998687,0.9200000000000006,383.6111482999986,None,384.3641847000108,None,,,,,,,[[1.58]],2.900000000000002,0.6808510638297872,11009,001,2024_Jan_01_1612,MFTM_A_new1021,2021.2.3,59.91062534601744,
,,,,,,,,stim/Instruction_adaptive.png,conditions/adaptive.xlsx,test,-0.6,-0.6,-0.6,0.6,0.6,left,L,,,,,0,1,1,1,0,47,47,91,,,,,,,,,,,,,,,,,,,,,,,,,,,,,,,,,,,,,,,,,,,,384.88040909997653,None,left,1,1.102314200019464,385.3803665000014,386.76639820000855,385.3803665000014,386.2658290999825,385.3803665000014,386.2658290999825,385.3803665000014,386.2658290999825,385.3803665000014,386.2658290999825,385.3803665000014,386.2658290999825,386.24879709997913,386.7496072999784,386.24879709997913,386.7496072999784,386.24879709997913,386.7496072999784,386.24879709997913,386.7496072999784,386.24879709997913,386.7496072999784,386.24879709997913,386.7496072999784,386.24879709997913,386.7496072999784,386.24879709997913,386.7496072999784,385.3803665000014,None,386.732434000005,388.35151920001954,0.8800000000000006,388.38493619998917,None,389.1360597999883,None,,,,,,,[[1.62]],2.960000000000002,0.6875,11009,001,2024_Jan_01_1612,MFTM_A_new1021,2021.2.3,59.91062534601744,
,,,,,,,,stim/Instruction_adaptive.png,conditions/adaptive.xlsx,test,-0.6,-0.6,-0.6,0.6,0.6,left,L,,,,,0,1,1,1,0,48,48,65,,,,,,,,,,,,,,,,,,,,,,,,,,,,,,,,,,,,,,,,,,,,389.63662649999605,None,right,0,1.3854516000137664,390.1376646999852,391.4901485000155,390.1376646999852,390.9886390999891,390.1376646999852,390.9886390999891,390.1376646999852,390.9886390999891,390.1376646999852,390.9886390999891,390.1376646999852,390.9886390999891,390.9720314000151,391.473348599975,390.9720314000151,391.473348599975,390.9720314000151,391.473348599975,390.9720314000151,391.473348599975,390.9720314000151,391.473348599975,390.9720314000151,391.473348599975,390.9720314000151,391.473348599975,390.9720314000151,391.473348599975,390.1376646999852,None,391.473348599975,393.127482699987,0.8500000000000005,393.1591430999688,None,393.9102101000026,None,,,,,,,[[1.65]],2.790000000000002,0.673469387755102,11009,001,2024_Jan_01_1612,MFTM_A_new1021,2021.2.3,59.91062534601744,
,,,,,,,,stim/Instruction_adaptive.png,conditions/adaptive.xlsx,test,0.6,0.6,0.6,-0.6,-0.6,right,R,,,,,0,1,1,1,0,49,49,48,,,,,,,,,,,,,,,,,,,,,,,,,,,,,,,,,,,,,,,,,,,,394.4114133999683,None,right,1,1.5316715000080876,394.9113230999792,396.3633674000157,394.9113230999792,395.862542799965,394.9113230999792,395.862542799965,394.9113230999792,395.862542799965,394.9113230999792,395.862542799965,394.9113230999792,395.862542799965,395.8459675000049,396.3471075000125,395.8459675000049,396.3471075000125,395.8459675000049,396.3471075000125,395.8459675000049,396.3471075000125,395.8459675000049,396.3471075000125,395.8459675000049,396.3471075000125,395.8459675000049,396.3471075000125,395.8459675000049,396.3471075000125,394.9113230999792,None,396.3471075000125,397.9003037000075,0.9500000000000006,397.91559839999536,None,398.667542900017,None,,,,,,,[[1.55]],2.8500000000000023,0.68,11009,001,2024_Jan_01_1612,MFTM_A_new1021,2021.2.3,59.91062534601744,
,,,,,,,,stim/Instruction_adaptive.png,conditions/adaptive.xlsx,test,0.6,0.6,0.6,-0.6,-0.6,right,R,,,,,0,1,1,1,0,50,50,28,,,,,,,,,,,,,,,,,,,,,,,,,,,,,,,,,,,,,,,,,,,,399.1678102000151,None,left,0,1.4786633999901824,399.66820249997545,401.0871526999981,399.66820249997545,400.586458100006,399.66820249997545,400.586458100006,399.66820249997545,400.586458100006,399.66820249997545,400.586458100006,399.66820249997545,400.586458100006,400.5695608999813,401.0713614000124,400.5695608999813,401.0713614000124,400.5695608999813,401.0713614000124,400.5695608999813,401.0713614000124,400.5695608999813,401.0713614000124,400.5695608999813,401.0713614000124,400.5695608999813,401.0713614000124,400.5695608999813,401.0713614000124,399.66820249997545,None,401.0713614000124,None,0.9100000000000006,402.67245229997206,None,403.4238534999895,None,,,,,,,[[1.59]],2.690000000000002,0.6666666666666666,11009,001,2024_Jan_01_1612,MFTM_A_new1021,2021.2.3,59.91062534601744,
,,,,,,,,stim/Instruction_adaptive.png,conditions/adaptive.xlsx,test,-0.6,-0.6,-0.6,0.6,0.6,left,L,,,,,0,1,1,1,0,51,51,31,,,,,,,,,,,,,,,,,,,,,,,,,,,,,,,,,,,,,,,,,,,,403.92451290000463,None,left,1,2.4174526000279,404.4251927000005,405.9612743000034,404.4251927000005,405.46033059997717,404.4251927000005,405.46033059997717,404.4251927000005,405.46033059997717,404.4251927000005,405.46033059997717,404.4251927000005,405.46033059997717,405.4267493999796,405.9274728000164,405.4267493999796,405.9274728000164,405.4267493999796,405.9274728000164,405.4267493999796,405.9274728000164,405.4267493999796,405.9274728000164,405.4267493999796,405.9274728000164,405.4267493999796,405.9274728000164,405.4267493999796,405.9274728000164,404.4251927000005,None,405.9274728000164,407.4133296000073,1.0200000000000007,407.42973319999874,None,408.18089069996495,None,,,,,,,[[1.48]],2.7500000000000018,0.6730769230769231,11009,001,2024_Jan_01_1612,MFTM_A_new1021,2021.2.3,59.91062534601744,
,,,,,,,,stim/Instruction_adaptive.png,conditions/adaptive.xlsx,test,-0.6,-0.6,-0.6,0.6,0.6,left,L,,,,,0,1,1,1,0,52,52,15,,,,,,,,,,,,,,,,,,,,,,,,,,,,,,,,,,,,,,,,,,,,408.68158689996926,None,right,0,1.6444019999471493,409.18222040002,410.66772229998605,409.18222040002,410.1676977999741,409.18222040002,410.1676977999741,409.18222040002,410.1676977999741,409.18222040002,410.1676977999741,409.18222040002,410.1676977999741,410.15039720002096,410.65156999998726,410.15039720002096,410.65156999998726,410.15039720002096,410.65156999998726,410.15039720002096,410.65156999998726,410.15039720002096,410.65156999998726,410.15039720002096,410.65156999998726,410.15039720002096,410.65156999998726,410.15039720002096,410.65156999998726,409.18222040002,None,410.65156999998726,412.17086710000876,0.9800000000000006,412.1865929000196,None,412.9378987000091,None,,,,,,,[[1.52]],2.580000000000002,0.660377358490566,11009,001,2024_Jan_01_1612,MFTM_A_new1021,2021.2.3,59.91062534601744,
,,,,,,,,stim/Instruction_adaptive.png,conditions/adaptive.xlsx,test,0.6,0.6,0.6,-0.6,-0.6,right,R,,,,,0,1,1,1,0,53,53,54,,,,,,,,,,,,,,,,,,,,,,,,,,,,,,,,,,,,,,,,,,,,413.4389113999787,None,right,1,1.4074184000492096,413.9392993999645,415.5418598999968,413.9392993999645,415.0411842999747,413.9392993999645,415.0411842999747,413.9392993999645,415.0411842999747,413.9392993999645,415.0411842999747,413.9392993999645,415.0411842999747,415.02435660001356,415.5253766999813,415.02435660001356,415.5253766999813,415.02435660001356,415.5253766999813,415.02435660001356,415.5253766999813,415.02435660001356,415.5253766999813,415.02435660001356,415.5253766999813,415.02435660001356,415.5253766999813,415.02435660001356,415.5253766999813,413.9392993999645,None,415.5253766999813,416.92723570001544,1.1000000000000008,416.943837800005,None,417.69577130000107,None,,,,,,,[[1.4]],2.640000000000002,0.6666666666666666,11009,001,2024_Jan_01_1612,MFTM_A_new1021,2021.2.3,59.91062534601744,
,,,,,,,,stim/Instruction_adaptive.png,conditions/adaptive.xlsx,test,0.6,0.6,0.6,-0.6,-0.6,right,R,,,,,0,1,1,1,0,54,54,52,,,,,,,,,,,,,,,,,,,,,,,,,,,,,,,,,,,,,,,,,,,,418.196287299972,None,right,1,1.4984227000386454,418.6965810999973,420.26590020000003,418.6965810999973,419.7647207999835,418.6965810999973,419.7647207999835,418.6965810999973,419.7647207999835,418.6965810999973,419.7647207999835,418.6965810999973,419.7647207999835,419.73202559998026,420.2320834000129,419.73202559998026,420.2320834000129,419.73202559998026,420.2320834000129,419.73202559998026,420.2320834000129,419.73202559998026,420.2320834000129,419.73202559998026,420.2320834000129,419.73202559998026,420.2320834000129,419.73202559998026,420.2320834000129,418.6965810999973,None,420.2320834000129,421.68423289997736,1.0600000000000007,421.7011293999967,None,422.4522277999786,None,,,,,,,[[1.44]],2.690000000000002,0.6727272727272727,11009,001,2024_Jan_01_1612,MFTM_A_new1021,2021.2.3,59.91062534601744,
,,,,,,,,stim/Instruction_adaptive.png,conditions/adaptive.xlsx,test,0.6,0.6,0.6,-0.6,-0.6,right,R,,,,,0,1,1,1,0,55,55,68,,,,,,,,,,,,,,,,,,,,,,,,,,,,,,,,,,,,,,,,,,,,422.9536353999865,None,right,1,2.0926727000041865,423.4540318999789,424.97240699996473,423.4540318999789,424.4890026000212,423.4540318999789,424.4890026000212,423.4540318999789,424.4890026000212,423.4540318999789,424.4890026000212,423.4540318999789,424.4890026000212,424.4553302999702,424.9567645000061,424.4553302999702,424.9567645000061,424.4553302999702,424.9567645000061,424.4553302999702,424.9567645000061,424.4553302999702,424.9567645000061,424.4553302999702,424.9567645000061,424.4553302999702,424.9567645000061,424.4553302999702,424.9567645000061,423.4540318999789,None,424.9567645000061,426.4431520999642,1.0200000000000007,426.4578299999703,None,427.2092445999733,None,,,,,,,[[1.48]],2.7500000000000018,0.6785714285714286,11009,001,2024_Jan_01_1612,MFTM_A_new1021,2021.2.3,59.91062534601744,
,,,,,,,,stim/Instruction_adaptive.png,conditions/adaptive.xlsx,test,0.6,0.6,0.6,-0.6,-0.6,right,R,,,,,0,1,1,1,0,56,56,62,,,,,,,,,,,,,,,,,,,,,,,,,,,,,,,,,,,,,,,,,,,,427.70973250002135,None,right,1,1.4489928999682888,428.2105462999898,429.6964816999971,428.2105462999898,429.1953199999989,428.2105462999898,429.1953199999989,428.2105462999898,429.1953199999989,428.2105462999898,429.1953199999989,428.2105462999898,429.1953199999989,429.1787888999679,429.6797366999672,429.1787888999679,429.6797366999672,429.1787888999679,429.6797366999672,429.1787888999679,429.6797366999672,429.1787888999679,429.6797366999672,429.1787888999679,429.6797366999672,429.1787888999679,429.6797366999672,429.1787888999679,429.6797366999672,428.2105462999898,None,429.6797366999672,None,0.9800000000000006,431.2150523000164,None,431.96693880000385,None,,,,,,,[[1.52]],2.800000000000002,0.6842105263157895,11009,001,2024_Jan_01_1612,MFTM_A_new1021,2021.2.3,59.91062534601744,
,,,,,,,,stim/Instruction_adaptive.png,conditions/adaptive.xlsx,test,-0.6,-0.6,-0.6,0.6,0.6,left,L,,,,,0,1,1,1,0,57,57,41,,,,,,,,,,,,,,,,,,,,,,,,,,,,,,,,,,,,,,,,,,,,432.4675639999914,None,left,1,1.3708570000017062,432.9677125000162,434.42039649997605,432.9677125000162,433.9190199999721,432.9677125000162,433.9190199999721,432.9677125000162,433.9190199999721,432.9677125000162,433.9190199999721,432.9677125000162,433.9190199999721,433.88564340001903,434.3864215000067,433.88564340001903,434.3864215000067,433.88564340001903,434.3864215000067,433.88564340001903,434.3864215000067,433.88564340001903,434.3864215000067,433.88564340001903,434.3864215000067,433.88564340001903,434.3864215000067,433.88564340001903,434.3864215000067,432.9677125000162,None,434.3864215000067,435.95523690001573,0.9400000000000006,435.9721365000005,None,436.72358240000904,None,,,,,,,[[1.56]],2.840000000000002,0.6896551724137931,11009,001,2024_Jan_01_1612,MFTM_A_new1021,2021.2.3,59.91062534601744,
,,,,,,,,stim/Instruction_adaptive.png,conditions/adaptive.xlsx,test,-0.6,-0.6,-0.6,0.6,0.6,left,L,,,,,0,1,1,1,0,58,58,61,,,,,,,,,,,,,,,,,,,,,,,,,,,,,,,,,,,,,,,,,,,,437.2237909999676,None,left,1,1.149723099952098,437.72515770001337,439.1434743999853,437.72515770001337,438.6600307999761,437.72515770001337,438.6600307999761,437.72515770001337,438.6600307999761,437.72515770001337,438.6600307999761,437.72515770001337,438.6600307999761,438.62624539999524,439.1275910999975,438.62624539999524,439.1275910999975,438.62624539999524,439.1275910999975,438.62624539999524,439.1275910999975,438.62624539999524,439.1275910999975,438.62624539999524,439.1275910999975,438.62624539999524,439.1275910999975,438.62624539999524,439.1275910999975,437.72515770001337,None,439.1275910999975,440.7128656000132,0.9200000000000006,440.7300399999949,None,441.48038480000105,None,,,,,,,[[1.58]],2.8900000000000023,0.6949152542372882,11009,001,2024_Jan_01_1612,MFTM_A_new1021,2021.2.3,59.91062534601744,
,,,,,,,,stim/Instruction_adaptive.png,conditions/adaptive.xlsx,test,-0.6,-0.6,-0.6,0.6,0.6,left,L,,,,,0,1,1,1,0,59,59,3,,,,,,,,,,,,,,,,,,,,,,,,,,,,,,,,,,,,,,,,,,,,441.9815437999787,None,left,1,1.6412598000024445,442.48163729999214,443.88409639999736,442.48163729999214,443.3834346999647,442.48163729999214,443.3834346999647,442.48163729999214,443.3834346999647,442.48163729999214,443.3834346999647,442.48163729999214,443.3834346999647,443.3496553999721,443.85127599997213,443.3496553999721,443.85127599997213,443.3496553999721,443.85127599997213,443.3496553999721,443.85127599997213,443.3496553999721,443.85127599997213,443.3496553999721,443.85127599997213,443.3496553999721,443.85127599997213,443.3496553999721,443.85127599997213,442.48163729999214,None,443.85127599997213,445.46947509999154,0.8900000000000006,445.48613370000385,None,446.2380297000054,None,,,,,,,[[1.61]],2.9300000000000024,0.7,11009,001,2024_Jan_01_1612,MFTM_A_new1021,2021.2.3,59.91062534601744,
,,,,,,,,stim/Instruction_adaptive.png,conditions/adaptive.xlsx,test,0.6,0.6,0.6,-0.6,-0.6,right,R,,,,,0,1,1,1,0,60,60,4,,,,,,,,,,,,,,,,,,,,,,,,,,,,,,,,,,,,,,,,,,,,446.738844699983,None,left,0,2.05185710004298,447.23881670000264,448.6082144000102,447.23881670000264,448.1074736000155,447.23881670000264,448.1074736000155,447.23881670000264,448.1074736000155,447.23881670000264,448.1074736000155,447.23881670000264,448.1074736000155,448.09001210000133,448.5912839999655,448.09001210000133,448.5912839999655,448.09001210000133,448.5912839999655,448.09001210000133,448.5912839999655,448.09001210000133,448.5912839999655,448.09001210000133,448.5912839999655,448.09001210000133,448.5912839999655,448.09001210000133,448.5912839999655,447.23881670000264,None,448.57417929999065,450.2264947000076,0.8600000000000005,450.2431671000086,None,450.9948113000137,None,,,,,,,[[1.64]],2.8100000000000023,0.6885245901639344,11009,001,2024_Jan_01_1612,MFTM_A_new1021,2021.2.3,59.91062534601744,
,,,,,,,,stim/Instruction_adaptive.png,conditions/adaptive.xlsx,test,-0.6,-0.6,-0.6,0.6,0.6,left,L,,,,,0,1,1,1,0,61,61,69,,,,,,,,,,,,,,,,,,,,,,,,,,,,,,,,,,,,,,,,,,,,451.49559479998425,None,left,1,1.5519548999727704,451.9958023999934,453.4486596999923,451.9958023999934,452.9471923999954,451.9958023999934,452.9471923999954,451.9958023999934,452.9471923999954,451.9958023999934,452.9471923999954,451.9958023999934,452.9471923999954,452.91374669998186,453.4147426999989,452.91374669998186,453.4147426999989,452.91374669998186,453.4147426999989,452.91374669998186,453.4147426999989,452.91374669998186,453.4147426999989,452.91374669998186,453.4147426999989,452.91374669998186,453.4147426999989,452.91374669998186,453.4147426999989,451.9958023999934,None,453.4147426999989,454.98368379997555,0.9400000000000006,455.00031319999835,None,455.7519723000005,None,,,,,,,[[1.56]],2.8500000000000023,0.6935483870967742,11009,001,2024_Jan_01_1612,MFTM_A_new1021,2021.2.3,59.91062534601744,
,,,,,,,,stim/Instruction_adaptive.png,conditions/adaptive.xlsx,test,0.6,0.6,0.6,-0.6,-0.6,right,R,,,,,0,1,1,1,0,62,62,26,,,,,,,,,,,,,,,,,,,,,,,,,,,,,,,,,,,,,,,,,,,,456.25271669996437,None,left,0,1.4182388999615796,456.7529548999737,458.1717932000174,456.7529548999737,457.67083580000326,456.7529548999737,457.67083580000326,456.7529548999737,457.67083580000326,456.7529548999737,457.67083580000326,456.7529548999737,457.67083580000326,457.6374884999823,458.1391824000166,457.6374884999823,458.1391824000166,457.6374884999823,458.1391824000166,457.6374884999823,458.1391824000166,457.6374884999823,458.1391824000166,457.6374884999823,458.1391824000166,457.6374884999823,458.1391824000166,457.6374884999823,458.1391824000166,456.7529548999737,None,458.1391824000166,459.7429359999951,0.9100000000000006,459.75709749996895,None,460.5084828999825,None,,,,,,,[[1.59]],2.730000000000002,0.6825396825396826,11009,001,2024_Jan_01_1612,MFTM_A_new1021,2021.2.3,59.91062534601744,
,,,,,,,,stim/Instruction_adaptive.png,conditions/adaptive.xlsx,test,0.6,0.6,0.6,-0.6,-0.6,right,R,,,,,0,1,1,1,0,63,63,72,,,,,,,,,,,,,,,,,,,,,,,,,,,,,,,,,,,,,,,,,,,,461.0098080000025,None,right,1,1.2450577999697998,461.50990419997834,463.01222179998877,461.50990419997834,462.51136730000144,461.50990419997834,462.51136730000144,461.50990419997834,462.51136730000144,461.50990419997834,462.51136730000144,461.50990419997834,462.51136730000144,462.47800549998647,462.9786612999742,462.47800549998647,462.9786612999742,462.47800549998647,462.9786612999742,462.47800549998647,462.9786612999742,462.47800549998647,462.9786612999742,462.47800549998647,462.9786612999742,462.47800549998647,462.9786612999742,462.47800549998647,462.9786612999742,461.50990419997834,None,462.9786612999742,464.4976276999805,0.9900000000000007,464.5149876999785,None,465.26604219997535,None,,,,,,,[[1.51]],2.7700000000000022,0.6875,11009,001,2024_Jan_01_1612,MFTM_A_new1021,2021.2.3,59.91062534601744,
,,,,,,,,stim/Instruction_adaptive.png,conditions/adaptive.xlsx,test,-0.6,-0.6,-0.6,0.6,0.6,left,L,,,,,0,1,1,1,0,64,64,59,,,,,,,,,,,,,,,,,,,,,,,,,,,,,,,,,,,,,,,,,,,,465.76708249998046,None,right,0,1.4631313999998383,466.2677560999873,467.73578390001785,466.2677560999873,467.23520190001,466.2677560999873,467.23520190001,466.2677560999873,467.23520190001,466.2677560999873,467.23520190001,466.2677560999873,467.23520190001,467.20151019998593,467.7022075999994,467.20151019998593,467.7022075999994,467.20151019998593,467.7022075999994,467.20151019998593,467.7022075999994,467.20151019998593,467.7022075999994,467.20151019998593,467.7022075999994,467.20151019998593,467.7022075999994,467.20151019998593,467.7022075999994,466.2677560999873,None,467.7022075999994,469.25525360001484,0.9600000000000006,469.2719662999734,None,470.022720900015,None,,,,,,,[[1.54]],2.650000000000002,0.676923076923077,11009,001,2024_Jan_01_1612,MFTM_A_new1021,2021.2.3,59.91062534601744,
,,,,,,,,stim/Instruction_adaptive.png,conditions/adaptive.xlsx,test,0.6,0.6,0.6,-0.6,-0.6,right,R,,,,,0,1,1,1,0,65,65,38,,,,,,,,,,,,,,,,,,,,,,,,,,,,,,,,,,,,,,,,,,,,470.52350750000915,None,right,1,1.170244199980516,471.02446729998337,472.576923399989,471.02446729998337,472.0759700000053,471.02446729998337,472.0759700000053,471.02446729998337,472.0759700000053,471.02446729998337,472.0759700000053,471.02446729998337,472.0759700000053,472.05898480000906,472.5596976999659,472.05898480000906,472.5596976999659,472.05898480000906,472.5596976999659,472.05898480000906,472.5596976999659,472.05898480000906,472.5596976999659,472.05898480000906,472.5596976999659,472.05898480000906,472.5596976999659,472.05898480000906,472.5596976999659,471.02446729998337,None,472.5596976999659,474.01169119996484,1.0500000000000007,474.02841189998435,None,474.77957899996545,None,,,,,,,[[1.45]],2.690000000000002,0.6818181818181818,11009,001,2024_Jan_01_1612,MFTM_A_new1021,2021.2.3,59.91062534601744,
,,,,,,,,stim/Instruction_adaptive.png,conditions/adaptive.xlsx,test,-0.6,-0.6,-0.6,0.6,0.6,left,L,,,,,0,1,1,1,0,66,66,1,,,,,,,,,,,,,,,,,,,,,,,,,,,,,,,,,,,,,,,,,,,,475.2816800000146,None,left,1,1.1183139000204392,475.7809319999651,477.30020389996935,475.7809319999651,476.8160431999713,475.7809319999651,476.8160431999713,475.7809319999651,476.8160431999713,475.7809319999651,476.8160431999713,475.7809319999651,476.8160431999713,476.78251140000066,477.2834006000194,476.78251140000066,477.2834006000194,476.78251140000066,477.2834006000194,476.78251140000066,477.2834006000194,476.78251140000066,477.2834006000194,476.78251140000066,477.2834006000194,476.78251140000066,477.2834006000194,476.78251140000066,477.2834006000194,475.7809319999651,None,477.2834006000194,478.770346299978,1.0200000000000007,478.7858087000204,None,479.5371309000184,None,,,,,,,[[1.48]],2.730000000000002,0.6865671641791045,11009,001,2024_Jan_01_1612,MFTM_A_new1021,2021.2.3,59.91062534601744,
,,,,,,,,stim/Instruction_adaptive.png,conditions/adaptive.xlsx,test,0.6,0.6,0.6,-0.6,-0.6,right,R,,,,,0,1,1,1,0,67,67,16,,,,,,,,,,,,,,,,,,,,,,,,,,,,,,,,,,,,,,,,,,,,480.03796689998126,None,right,1,1.10530049999943,480.5379282999784,482.0414003999904,480.5379282999784,481.5395688000135,480.5379282999784,481.5395688000135,480.5379282999784,481.5395688000135,480.5379282999784,481.5395688000135,480.5379282999784,481.5395688000135,481.5062453999999,482.0067614999716,481.5062453999999,482.0067614999716,481.5062453999999,482.0067614999716,481.5062453999999,482.0067614999716,481.5062453999999,482.0067614999716,481.5062453999999,482.0067614999716,481.5062453999999,482.0067614999716,481.5062453999999,482.0067614999716,480.5379282999784,None,482.0067614999716,483.5265465999837,0.9900000000000007,483.54246819997206,None,484.2936825999641,None,,,,,,,[[1.51]],2.7700000000000022,0.6911764705882353,11009,001,2024_Jan_01_1612,MFTM_A_new1021,2021.2.3,59.91062534601744,
,,,,,,,,stim/Instruction_adaptive.png,conditions/adaptive.xlsx,test,0.6,0.6,0.6,-0.6,-0.6,right,R,,,,,0,1,1,1,0,68,68,44,,,,,,,,,,,,,,,,,,,,,,,,,,,,,,,,,,,,,,,,,,,,484.7943547000177,None,left,0,0.914629899954889,485.2966425999766,486.7642180999974,485.2966425999766,486.26404659997206,485.2966425999766,486.26404659997206,485.2966425999766,486.26404659997206,485.2966425999766,486.26404659997206,485.2966425999766,486.26404659997206,486.22972449997906,486.73063110001385,486.22972449997906,486.73063110001385,486.22972449997906,486.73063110001385,486.22972449997906,486.73063110001385,486.22972449997906,486.73063110001385,486.22972449997906,486.73063110001385,486.22972449997906,486.73063110001385,486.22972449997906,486.73063110001385,485.2966425999766,None,486.73063110001385,488.2833304000087,0.9600000000000006,488.2995871999883,None,489.052228000015,None,,,,,,,[[1.54]],2.660000000000002,0.6811594202898551,11009,001,2024_Jan_01_1612,MFTM_A_new1021,2021.2.3,59.91062534601744,
,,,,,,,,stim/Instruction_adaptive.png,conditions/adaptive.xlsx,test,0.6,0.6,0.6,-0.6,-0.6,right,R,,,,,0,1,1,1,0,69,69,96,,,,,,,,,,,,,,,,,,,,,,,,,,,,,,,,,,,,,,,,,,,,489.5516478000209,None,right,1,1.094635899993591,490.05217119998997,491.6048627999844,490.05217119998997,491.1040783000062,490.05217119998997,491.1040783000062,490.05217119998997,491.1040783000062,490.05217119998997,491.1040783000062,490.05217119998997,491.1040783000062,491.07052790001035,491.5716777999769,491.07052790001035,491.5716777999769,491.07052790001035,491.5716777999769,491.07052790001035,491.5716777999769,491.07052790001035,491.5716777999769,491.07052790001035,491.5716777999769,491.07052790001035,491.5716777999769,491.07052790001035,491.5716777999769,490.05217119998997,None,491.5716777999769,493.0401344000129,1.0400000000000007,493.05662779998966,None,493.8082483999897,None,,,,,,,[[1.46]],2.700000000000002,0.6857142857142857,11009,001,2024_Jan_01_1612,MFTM_A_new1021,2021.2.3,59.91062534601744,
,,,,,,,,stim/Instruction_adaptive.png,conditions/adaptive.xlsx,test,-0.6,-0.6,-0.6,0.6,0.6,left,L,,,,,0,1,1,1,0,70,70,81,,,,,,,,,,,,,,,,,,,,,,,,,,,,,,,,,,,,,,,,,,,,494.3093911000178,None,left,1,1.0496026999899186,494.8092690000194,496.3280400999938,494.8092690000194,495.8274386000121,494.8092690000194,495.8274386000121,494.8092690000194,495.8274386000121,494.8092690000194,495.8274386000121,494.8092690000194,495.8274386000121,495.7939363999758,496.29556619998766,495.7939363999758,496.29556619998766,495.7939363999758,496.29556619998766,495.7939363999758,496.29556619998766,495.7939363999758,496.29556619998766,495.7939363999758,496.29556619998766,495.7939363999758,496.29556619998766,495.7939363999758,496.29556619998766,494.8092690000194,None,496.29556619998766,497.79693020001287,1.0100000000000007,497.8143145000213,None,498.56501730001764,None,,,,,,,[[1.49]],2.740000000000002,0.6901408450704225,11009,001,2024_Jan_01_1612,MFTM_A_new1021,2021.2.3,59.91062534601744,
,,,,,,,,stim/Instruction_adaptive.png,conditions/adaptive.xlsx,test,0.6,0.6,0.6,-0.6,-0.6,right,R,,,,,0,1,1,1,0,71,71,14,,,,,,,,,,,,,,,,,,,,,,,,,,,,,,,,,,,,,,,,,,,,499.0656832999666,None,right,1,1.8923091000178829,499.5663232000079,501.0517408999731,499.5663232000079,500.5516462000087,499.5663232000079,500.5516462000087,499.5663232000079,500.5516462000087,499.5663232000079,500.5516462000087,499.5663232000079,500.5516462000087,500.5348462999682,501.035742499982,500.5348462999682,501.035742499982,500.5348462999682,501.035742499982,500.5348462999682,501.035742499982,500.5348462999682,501.035742499982,500.5348462999682,501.035742499982,500.5348462999682,501.035742499982,500.5348462999682,501.035742499982,499.5663232000079,None,501.035742499982,None,0.9800000000000006,502.5706544999848,None,503.32180129998596,None,,,,,,,[[1.52]],2.7700000000000022,0.6944444444444444,11009,001,2024_Jan_01_1612,MFTM_A_new1021,2021.2.3,59.91062534601744,
,,,,,,,,stim/Instruction_adaptive.png,conditions/adaptive.xlsx,test,-0.6,-0.6,-0.6,0.6,0.6,left,L,,,,,0,1,1,1,0,72,72,55,,,,,,,,,,,,,,,,,,,,,,,,,,,,,,,,,,,,,,,,,,,,503.82294129999354,None,left,1,1.1428994000307284,504.323980199988,505.7921608000179,504.323980199988,505.29143390001263,504.323980199988,505.29143390001263,504.323980199988,505.29143390001263,504.323980199988,505.29143390001263,504.323980199988,505.29143390001263,505.2580653000041,505.75889180001104,505.2580653000041,505.75889180001104,505.2580653000041,505.75889180001104,505.2580653000041,505.75889180001104,505.2580653000041,505.75889180001104,505.2580653000041,505.75889180001104,505.2580653000041,505.75889180001104,505.2580653000041,505.75889180001104,504.323980199988,None,505.75889180001104,507.3109419000102,0.9600000000000006,507.3285328000202,None,508.07893030002015,None,,,,,,,[[1.54]],2.8100000000000023,0.6986301369863014,11009,001,2024_Jan_01_1612,MFTM_A_new1021,2021.2.3,59.91062534601744,
,,,,,,,,stim/Instruction_adaptive.png,conditions/adaptive.xlsx,test,-0.6,-0.6,-0.6,0.6,0.6,left,L,,,,,0,1,1,1,0,73,73,33,,,,,,,,,,,,,,,,,,,,,,,,,,,,,,,,,,,,,,,,,,,,508.5805360999657,None,right,0,1.6510220000054687,509.0804299999727,510.5332118999795,509.0804299999727,510.0324545999756,509.0804299999727,510.0324545999756,509.0804299999727,510.0324545999756,509.0804299999727,510.0324545999756,509.0804299999727,510.0324545999756,509.9985045999638,510.49931139999535,509.9985045999638,510.49931139999535,509.9985045999638,510.49931139999535,509.9985045999638,510.49931139999535,509.9985045999638,510.49931139999535,509.9985045999638,510.49931139999535,509.9985045999638,510.49931139999535,509.9985045999638,510.49931139999535,509.0804299999727,None,510.49931139999535,512.0691559999832,0.9400000000000006,512.0844077999936,None,512.8359037999762,None,,,,,,,[[1.56]],2.700000000000002,0.6891891891891891,11009,001,2024_Jan_01_1612,MFTM_A_new1021,2021.2.3,59.91062534601744,
,,,,,,,,stim/Instruction_adaptive.png,conditions/adaptive.xlsx,test,-0.6,-0.6,-0.6,0.6,0.6,left,L,,,,,0,1,1,1,0,74,74,49,,,,,,,,,,,,,,,,,,,,,,,,,,,,,,,,,,,,,,,,,,,,513.3367398999981,None,left,1,1.1734077000292018,513.8374342999887,515.3566702000098,513.8374342999887,514.8558266999898,513.8374342999887,514.8558266999898,513.8374342999887,514.8558266999898,513.8374342999887,514.8558266999898,513.8374342999887,514.8558266999898,514.8389227999724,515.3397607000079,514.8389227999724,515.3397607000079,514.8389227999724,515.3397607000079,514.8389227999724,515.3397607000079,514.8389227999724,515.3397607000079,514.8389227999724,515.3397607000079,514.8389227999724,515.3397607000079,514.8389227999724,515.3397607000079,513.8374342999887,None,515.3239352999954,516.8258991999901,1.0100000000000007,516.8417873000144,None,517.5941181000089,None,,,,,,,[[1.49]],2.740000000000002,0.6933333333333334,11009,001,2024_Jan_01_1612,MFTM_A_new1021,2021.2.3,59.91062534601744,
,,,,,,,,stim/Instruction_adaptive.png,conditions/adaptive.xlsx,test,-0.6,-0.6,-0.6,0.6,0.6,left,L,,,,,0,1,1,1,0,75,75,51,,,,,,,,,,,,,,,,,,,,,,,,,,,,,,,,,,,,,,,,,,,,518.0938450999674,None,right,0,2.2090485999942757,518.5945062999963,520.0801233999664,518.5945062999963,519.5793110000086,518.5945062999963,519.5793110000086,518.5945062999963,519.5793110000086,518.5945062999963,519.5793110000086,518.5945062999963,519.5793110000086,519.5627211999963,520.0638501999783,519.5627211999963,520.0638501999783,519.5627211999963,520.0638501999783,519.5627211999963,520.0638501999783,519.5627211999963,520.0638501999783,519.5627211999963,520.0638501999783,519.5627211999963,520.0638501999783,519.5627211999963,520.0638501999783,518.5945062999963,None,520.0638501999783,521.5823353999876,0.9800000000000006,521.5990500000189,None,522.3507222000044,None,,,,,,,[[1.52]],2.640000000000002,0.6842105263157895,11009,001,2024_Jan_01_1612,MFTM_A_new1021,2021.2.3,59.91062534601744,
,,,,,,,,stim/Instruction_adaptive.png,conditions/adaptive.xlsx,test,-0.6,-0.6,-0.6,0.6,0.6,left,L,,,,,0,1,1,1,0,76,76,23,,,,,,,,,,,,,,,,,,,,,,,,,,,,,,,,,,,,,,,,,,,,522.8508083000197,None,left,1,1.3868973999633454,523.3517458999995,524.9204123999807,523.3517458999995,524.419779399992,523.3517458999995,524.419779399992,523.3517458999995,524.419779399992,523.3517458999995,524.419779399992,523.3517458999995,524.419779399992,524.3863082000171,524.8872563000186,524.3863082000171,524.8872563000186,524.3863082000171,524.8872563000186,524.3863082000171,524.8872563000186,524.3863082000171,524.8872563000186,524.3863082000171,524.8872563000186,524.3863082000171,524.8872563000186,524.3863082000171,524.8872563000186,523.3517458999995,None,524.8872563000186,526.339384299994,1.0600000000000007,526.3560081999749,None,527.1071350999991,None,,,,,,,[[1.44]],2.6700000000000017,0.6883116883116883,11009,001,2024_Jan_01_1612,MFTM_A_new1021,2021.2.3,59.91062534601744,
,,,,,,,,stim/Instruction_adaptive.png,conditions/adaptive.xlsx,test,-0.6,-0.6,-0.6,0.6,0.6,left,L,,,,,0,1,1,1,0,77,77,21,,,,,,,,,,,,,,,,,,,,,,,,,,,,,,,,,,,,,,,,,,,,527.6085485999938,None,right,0,1.0940614999854006,528.1087173999986,529.6452189999982,528.1087173999986,529.1432796000154,528.1087173999986,529.1432796000154,528.1087173999986,529.1432796000154,528.1087173999986,529.1432796000154,528.1087173999986,529.1432796000154,529.1266112999874,529.627946899971,529.1266112999874,529.627946899971,529.1266112999874,529.627946899971,529.1266112999874,529.627946899971,529.1266112999874,529.627946899971,529.1266112999874,529.627946899971,529.1266112999874,529.627946899971,529.1266112999874,529.627946899971,528.1087173999986,None,529.627946899971,None,1.0300000000000007,531.1131103999796,None,531.8647656000103,None,,,,,,,[[1.47]],2.570000000000002,0.6794871794871795,11009,001,2024_Jan_01_1612,MFTM_A_new1021,2021.2.3,59.91062534601744,
,,,,,,,,stim/Instruction_adaptive.png,conditions/adaptive.xlsx,test,0.6,0.6,0.6,-0.6,-0.6,right,R,,,,,0,1,1,1,0,78,78,12,,,,,,,,,,,,,,,,,,,,,,,,,,,,,,,,,,,,,,,,,,,,532.3650288999779,None,left,0,1.3131626999820583,532.8657195999986,534.4858395999763,532.8657195999986,533.9840278999764,532.8657195999986,533.9840278999764,532.8657195999986,533.9840278999764,532.8657195999986,533.9840278999764,532.8657195999986,533.9840278999764,533.9506059999694,534.4520926999976,533.9506059999694,534.4520926999976,533.9506059999694,534.4520926999976,533.9506059999694,534.4520926999976,533.9506059999694,534.4520926999976,533.9506059999694,534.4520926999976,533.9506059999694,534.4520926999976,533.9506059999694,534.4520926999976,532.8657195999986,None,534.4520926999976,535.8546375000151,1.1100000000000008,535.8706292000134,None,536.621825899987,None,,,,,,,[[1.39]],2.450000000000002,0.6708860759493671,11009,001,2024_Jan_01_1612,MFTM_A_new1021,2021.2.3,59.91062534601744,
,,,,,,,,stim/Instruction_adaptive.png,conditions/adaptive.xlsx,test,0.6,0.6,0.6,-0.6,-0.6,right,R,,,,,0,1,1,1,0,79,79,86,,,,,,,,,,,,,,,,,,,,,,,,,,,,,,,,,,,,,,,,,,,,537.121907099965,None,right,1,1.2032371000386775,537.6233349000104,539.3251252999762,537.6233349000104,538.8249927000143,537.6233349000104,538.8249927000143,537.6233349000104,538.8249927000143,537.6233349000104,538.8249927000143,537.6233349000104,538.8249927000143,538.8083329999936,539.308425700001,538.8083329999936,539.308425700001,538.8083329999936,539.308425700001,538.8083329999936,539.308425700001,538.8083329999936,539.308425700001,538.8083329999936,539.308425700001,538.8083329999936,539.308425700001,538.8083329999936,539.308425700001,537.6233349000104,None,539.308425700001,540.6109586000093,1.2000000000000008,540.6272419000161,None,541.3783186000073,None,,,,,,,[[1.3]],2.490000000000002,0.675,11009,001,2024_Jan_01_1612,MFTM_A_new1021,2021.2.3,59.91062534601744,
,,,,,,,,stim/Instruction_adaptive.png,conditions/adaptive.xlsx,test,-0.6,-0.6,-0.6,0.6,0.6,left,L,,,,,0,1,1,1,0,80,80,39,,,,,,,,,,,,,,,,,,,,,,,,,,,,,,,,,,,,,,,,,,,,541.8797010999988,None,right,0,1.720145900035277,542.379983699997,544.0502043999732,542.379983699997,543.5654765999643,542.379983699997,543.5654765999643,542.379983699997,543.5654765999643,542.379983699997,543.5654765999643,542.379983699997,543.5654765999643,543.5315743999672,544.0341315999976,543.5315743999672,544.0341315999976,543.5315743999672,544.0341315999976,543.5315743999672,544.0341315999976,543.5315743999672,544.0341315999976,543.5315743999672,544.0341315999976,543.5315743999672,544.0341315999976,543.5315743999672,544.0341315999976,542.379983699997,None,544.0341315999976,545.3683165999828,1.1700000000000008,545.3845744999708,None,546.1357022000011,None,,,,,,,[[1.33]],2.370000000000002,0.6666666666666666,11009,001,2024_Jan_01_1612,MFTM_A_new1021,2021.2.3,59.91062534601744,
,,,,,,,,stim/Instruction_adaptive.png,conditions/adaptive.xlsx,test,-0.6,-0.6,-0.6,0.6,0.6,left,L,,,,,0,1,1,1,0,81,81,95,,,,,,,,,,,,,,,,,,,,,,,,,,,,,,,,,,,,,,,,,,,,546.636305699998,None,left,1,1.2422506000148132,547.1367600999656,548.9064133999636,547.1367600999656,548.4220289000077,547.1367600999656,548.4220289000077,547.1367600999656,548.4220289000077,547.1367600999656,548.4220289000077,547.1367600999656,548.4220289000077,548.3890677000163,548.8900117999874,548.3890677000163,548.8900117999874,548.3890677000163,548.8900117999874,548.3890677000163,548.8900117999874,548.3890677000163,548.8900117999874,548.3890677000163,548.8900117999874,548.3890677000163,548.8900117999874,548.3890677000163,548.8900117999874,547.1367600999656,None,548.8900117999874,550.1248029000126,1.270000000000001,550.1412342999829,None,550.8924006000161,None,,,,,,,[[1.23]],2.410000000000002,0.6707317073170732,11009,001,2024_Jan_01_1612,MFTM_A_new1021,2021.2.3,59.91062534601744,
,,,,,,,,stim/Instruction_adaptive.png,conditions/adaptive.xlsx,test,0.6,0.6,0.6,-0.6,-0.6,right,R,,,,,0,1,1,1,0,82,82,98,,,,,,,,,,,,,,,,,,,,,,,,,,,,,,,,,,,,,,,,,,,,551.3933313000016,None,right,1,1.5409367000102066,551.8939781999798,553.6465721999994,551.8939781999798,553.1461064000032,551.8939781999798,553.1461064000032,551.8939781999798,553.1461064000032,551.8939781999798,553.1461064000032,551.8939781999798,553.1461064000032,553.1129240000155,553.6135394999874,553.1129240000155,553.6135394999874,553.1129240000155,553.6135394999874,553.1129240000155,553.6135394999874,553.1129240000155,553.6135394999874,553.1129240000155,553.6135394999874,553.1129240000155,553.6135394999874,553.1129240000155,553.6135394999874,551.8939781999798,None,553.6135394999874,554.8819821000216,1.2400000000000009,554.8987914000172,None,555.6497137999977,None,,,,,,,[[1.26]],2.450000000000002,0.6746987951807228,11009,001,2024_Jan_01_1612,MFTM_A_new1021,2021.2.3,59.91062534601744,
,,,,,,,,stim/Instruction_adaptive.png,conditions/adaptive.xlsx,test,0.6,0.6,0.6,-0.6,-0.6,right,R,,,,,0,1,1,1,0,83,83,10,,,,,,,,,,,,,,,,,,,,,,,,,,,,,,,,,,,,,,,,,,,,556.150555500004,None,right,1,2.0008106000022963,556.6507390000043,558.3534561999841,556.6507390000043,557.8527416000143,556.6507390000043,557.8527416000143,556.6507390000043,557.8527416000143,556.6507390000043,557.8527416000143,556.6507390000043,557.8527416000143,557.8359490999719,558.3372548000189,557.8359490999719,558.3372548000189,557.8359490999719,558.3372548000189,557.8359490999719,558.3372548000189,557.8359490999719,558.3372548000189,557.8359490999719,558.3372548000189,557.8359490999719,558.3372548000189,557.8359490999719,558.3372548000189,556.6507390000043,None,558.3372548000189,559.6391944999923,1.2000000000000008,559.6560515000019,None,560.4070035999757,None,,,,,,,[[1.3]],2.490000000000002,0.6785714285714286,11009,001,2024_Jan_01_1612,MFTM_A_new1021,2021.2.3,59.91062534601744,
,,,,,,,,stim/Instruction_adaptive.png,conditions/adaptive.xlsx,test,-0.6,-0.6,-0.6,0.6,0.6,left,L,,,,,0,1,1,1,0,84,84,85,,,,,,,,,,,,,,,,,,,,,,,,,,,,,,,,,,,,,,,,,,,,560.9072936999728,None,None,0,0,561.4079984999844,563.0777070000186,561.4079984999844,562.593027099967,561.4079984999844,562.593027099967,561.4079984999844,562.593027099967,561.4079984999844,562.593027099967,561.4079984999844,562.593027099967,562.5601091000135,563.060402699979,562.5601091000135,563.060402699979,562.5601091000135,563.060402699979,562.5601091000135,563.060402699979,562.5601091000135,563.060402699979,562.5601091000135,563.060402699979,562.5601091000135,563.060402699979,562.5601091000135,563.060402699979,561.4079984999844,None,563.060402699979,564.8970019000117,1.1700000000000008,564.9126658000168,None,565.66416819999,None,,,,,,,[[1.83]],2.3800000000000017,0.6705882352941176,11009,001,2024_Jan_01_1612,MFTM_A_new1021,2021.2.3,59.91062534601744,
,,,,,,,,stim/Instruction_adaptive.png,conditions/adaptive.xlsx,test,0.6,0.6,0.6,-0.6,-0.6,right,R,,,,,0,1,1,1,0,85,85,32,,,,,,,,,,,,,,,,,,,,,,,,,,,,,,,,,,,,,,,,,,,,566.1658939999761,None,right,1,1.880942799965851,566.6657915000105,568.4350412000204,566.6657915000105,567.9348913999856,566.6657915000105,567.9348913999856,566.6657915000105,567.9348913999856,566.6657915000105,567.9348913999856,566.6657915000105,567.9348913999856,567.9008722999715,568.4031230999972,567.9008722999715,568.4031230999972,567.9008722999715,568.4031230999972,567.9008722999715,568.4031230999972,567.9008722999715,568.4031230999972,567.9008722999715,568.4031230999972,567.9008722999715,568.4031230999972,567.9008722999715,568.4031230999972,566.6657915000105,None,568.4031230999972,569.6539268000051,1.260000000000001,569.6700779999956,None,570.4214689999935,None,,,,,,,[[1.24]],2.4200000000000017,0.6744186046511628,11009,001,2024_Jan_01_1612,MFTM_A_new1021,2021.2.3,59.91062534601744,
,,,,,,,,stim/Instruction_adaptive.png,conditions/adaptive.xlsx,test,0.6,0.6,0.6,-0.6,-0.6,right,R,,,,,0,1,1,1,0,86,86,22,,,,,,,,,,,,,,,,,,,,,,,,,,,,,,,,,,,,,,,,,,,,570.9220807999955,None,right,1,1.9795965000521392,571.4233499999973,573.1595436999924,571.4233499999973,572.6581862000166,571.4233499999973,572.6581862000166,571.4233499999973,572.6581862000166,571.4233499999973,572.6581862000166,571.4233499999973,572.6581862000166,572.6422728999751,573.1429049000144,572.6422728999751,573.1429049000144,572.6422728999751,573.1429049000144,572.6422728999751,573.1429049000144,572.6422728999751,573.1429049000144,572.6422728999751,573.1429049000144,572.6422728999751,573.1429049000144,572.6422728999751,573.1429049000144,571.4233499999973,None,573.1429049000144,None,1.2300000000000009,574.4273639000021,None,575.1781933999737,None,,,,,,,[[1.27]],2.4600000000000017,0.6781609195402298,11009,001,2024_Jan_01_1612,MFTM_A_new1021,2021.2.3,59.91062534601744,
,,,,,,,,stim/Instruction_adaptive.png,conditions/adaptive.xlsx,test,0.6,0.6,0.6,-0.6,-0.6,right,R,,,,,0,1,1,1,0,87,87,94,,,,,,,,,,,,,,,,,,,,,,,,,,,,,,,,,,,,,,,,,,,,575.6791335999733,None,right,1,1.454825000022538,576.1799449999817,577.8827007999644,576.1799449999817,577.3823472000076,576.1799449999817,577.3823472000076,576.1799449999817,577.3823472000076,576.1799449999817,577.3823472000076,576.1799449999817,577.3823472000076,577.3661877000122,577.8661086999928,577.3661877000122,577.8661086999928,577.3661877000122,577.8661086999928,577.3661877000122,577.8661086999928,577.3661877000122,577.8661086999928,577.3661877000122,577.8661086999928,577.3661877000122,577.8661086999928,577.3661877000122,577.8661086999928,576.1799449999817,None,577.8661086999928,579.1676324,1.2000000000000008,579.1842177999788,None,579.9352901999955,None,,,,,,,[[1.3]],2.490000000000002,0.6818181818181818,11009,001,2024_Jan_01_1612,MFTM_A_new1021,2021.2.3,59.91062534601744,
,,,,,,,,stim/Instruction_adaptive.png,conditions/adaptive.xlsx,test,0.6,0.6,0.6,-0.6,-0.6,right,R,,,,,0,1,1,1,0,88,88,64,,,,,,,,,,,,,,,,,,,,,,,,,,,,,,,,,,,,,,,,,,,,580.4366388000199,None,right,1,1.9135765999672003,580.9372170999995,582.6067470000125,580.9372170999995,582.1227297000005,580.9372170999995,582.1227297000005,580.9372170999995,582.1227297000005,580.9372170999995,582.1227297000005,580.9372170999995,582.1227297000005,582.0885873999796,582.5900398999802,582.0885873999796,582.5900398999802,582.0885873999796,582.5900398999802,582.0885873999796,582.5900398999802,582.0885873999796,582.5900398999802,582.0885873999796,582.5900398999802,582.0885873999796,582.5900398999802,582.0885873999796,582.5900398999802,580.9372170999995,None,582.5900398999802,583.9252133999835,1.1700000000000008,583.9418556999881,None,584.6924776000087,None,,,,,,,[[1.33]],2.520000000000002,0.6853932584269663,11009,001,2024_Jan_01_1612,MFTM_A_new1021,2021.2.3,59.91062534601744,
,,,,,,,,stim/Instruction_adaptive.png,conditions/adaptive.xlsx,test,-0.6,-0.6,-0.6,0.6,0.6,left,L,,,,,0,1,1,1,0,89,89,87,,,,,,,,,,,,,,,,,,,,,,,,,,,,,,,,,,,,,,,,,,,,585.1936143999919,None,left,1,1.548734300013166,585.6945581000182,587.3463551999885,585.6945581000182,586.8456811999786,585.6945581000182,586.8456811999786,585.6945581000182,586.8456811999786,585.6945581000182,586.8456811999786,585.6945581000182,586.8456811999786,586.8292911999743,587.3296653999714,586.8292911999743,587.3296653999714,586.8292911999743,587.3296653999714,586.8292911999743,587.3296653999714,586.8292911999743,587.3296653999714,586.8292911999743,587.3296653999714,586.8292911999743,587.3296653999714,586.8292911999743,587.3296653999714,585.6945581000182,None,587.3296653999714,588.6817207999993,1.1500000000000008,588.6983893999713,None,589.4498558000196,None,,,,,,,[[1.35]],2.560000000000002,0.6888888888888889,11009,001,2024_Jan_01_1612,MFTM_A_new1021,2021.2.3,59.91062534601744,
,,,,,,,,stim/Instruction_adaptive.png,conditions/adaptive.xlsx,test,-0.6,-0.6,-0.6,0.6,0.6,left,L,,,,,0,1,1,1,0,90,90,97,,,,,,,,,,,,,,,,,,,,,,,,,,,,,,,,,,,,,,,,,,,,589.9511530000018,None,left,1,1.2640439000097103,590.4510445999913,592.0872205999913,590.4510445999913,591.5863666000078,590.4510445999913,591.5863666000078,590.4510445999913,591.5863666000078,590.4510445999913,591.5863666000078,590.4510445999913,591.5863666000078,591.5527974999859,592.0532266999944,591.5527974999859,592.0532266999944,591.5527974999859,592.0532266999944,591.5527974999859,592.0532266999944,591.5527974999859,592.0532266999944,591.5527974999859,592.0532266999944,591.5527974999859,592.0532266999944,591.5527974999859,592.0532266999944,590.4510445999913,None,592.0532266999944,593.4395777999889,1.1200000000000008,593.4551318999729,None,594.2072803999763,None,,,,,,,[[1.38]],2.5900000000000016,0.6923076923076923,11009,001,2024_Jan_01_1612,MFTM_A_new1021,2021.2.3,59.91062534601744,
,,,,,,,,stim/Instruction_adaptive.png,conditions/adaptive.xlsx,test,0.6,0.6,0.6,-0.6,-0.6,right,R,,,,,0,1,1,1,0,91,91,0,,,,,,,,,,,,,,,,,,,,,,,,,,,,,,,,,,,,,,,,,,,,594.7077196000027,None,right,1,1.2750076000229456,595.2079961000127,596.8103734999895,595.2079961000127,596.3095898000174,595.2079961000127,596.3095898000174,595.2079961000127,596.3095898000174,595.2079961000127,596.3095898000174,595.2079961000127,596.3095898000174,596.2762721999898,596.7771552000195,596.2762721999898,596.7771552000195,596.2762721999898,596.7771552000195,596.2762721999898,596.7771552000195,596.2762721999898,596.7771552000195,596.2762721999898,596.7771552000195,596.2762721999898,596.7771552000195,596.2762721999898,596.7771552000195,595.2079961000127,None,596.7771552000195,598.1963960999856,1.0900000000000007,598.2125294000143,None,598.9637219000142,None,,,,,,,[[1.41]],2.620000000000002,0.6956521739130435,11009,001,2024_Jan_01_1612,MFTM_A_new1021,2021.2.3,59.91062534601744,
,,,,,,,,stim/Instruction_adaptive.png,conditions/adaptive.xlsx,test,0.6,0.6,0.6,-0.6,-0.6,right,R,,,,,0,1,1,1,0,92,92,58,,,,,,,,,,,,,,,,,,,,,,,,,,,,,,,,,,,,,,,,,,,,599.4644146999926,None,right,1,1.2546414999524131,599.9649945999845,601.5346219000057,599.9649945999845,601.0498878000071,599.9649945999845,601.0498878000071,599.9649945999845,601.0498878000071,599.9649945999845,601.0498878000071,599.9649945999845,601.0498878000071,601.0166659000097,601.5174419999821,601.0166659000097,601.5174419999821,601.0166659000097,601.5174419999821,601.0166659000097,601.5174419999821,601.0166659000097,601.5174419999821,601.0166659000097,601.5174419999821,601.0166659000097,601.5174419999821,601.0166659000097,601.5174419999821,599.9649945999845,None,601.5174419999821,602.9527510000044,1.0700000000000007,602.9702205000212,None,603.7206863000174,None,,,,,,,[[1.43]],2.650000000000002,0.6989247311827957,11009,001,2024_Jan_01_1612,MFTM_A_new1021,2021.2.3,59.91062534601744,
,,,,,,,,stim/Instruction_adaptive.png,conditions/adaptive.xlsx,test,0.6,0.6,0.6,-0.6,-0.6,right,R,,,,,0,1,1,1,0,93,93,76,,,,,,,,,,,,,,,,,,,,,,,,,,,,,,,,,,,,,,,,,,,,604.2219325000187,None,right,1,1.5757837999844924,604.7230958999717,606.2744355999748,604.7230958999717,605.7741867000004,604.7230958999717,605.7741867000004,604.7230958999717,605.7741867000004,604.7230958999717,605.7741867000004,604.7230958999717,605.7741867000004,605.757408800011,606.25784809998,605.757408800011,606.25784809998,605.757408800011,606.25784809998,605.757408800011,606.25784809998,605.757408800011,606.25784809998,605.757408800011,606.25784809998,605.757408800011,606.25784809998,605.757408800011,606.25784809998,604.7230958999717,None,606.25784809998,607.7102585000102,1.0500000000000007,607.7271887999959,None,608.4782533000107,None,,,,,,,[[1.45]],2.6700000000000017,0.7021276595744681,11009,001,2024_Jan_01_1612,MFTM_A_new1021,2021.2.3,59.91062534601744,
