arrwidth1,arrwidth2,arrwidth3,arrwidth4,arrwidth5,keyb,type,orientation,instruction_image,block_filename,block_type,arrow11,arrow22,arrow33,arrow44,arrow55,keyb_3,orientation3,trials.thisRepN,trials.thisTrialN,trials.thisN,trials.thisIndex,trials_3.thisRepN,trials_3.thisTrialN,trials_3.thisN,trials_3.thisIndex,trials_2.thisRepN,trials_2.thisTrialN,trials_2.thisN,trials_2.thisIndex,welcome.started,welcome.stopped,key_resp.keys,key_resp.rt,key_resp.started,key_resp.stopped,instruction_example.started,instruction_example.stopped,key_resp_3.keys,key_resp_3.rt,key_resp_3.started,key_resp_3.stopped,instruction_task.started,instruction_task.stopped,key_resp_2.keys,key_resp_2.rt,key_resp_2.started,key_resp_2.stopped,text_2.started,text_2.stopped,A1.started,A1.stopped,A2.started,A2.stopped,A3.started,A3.stopped,A4.started,A4.stopped,A5.started,A5.stopped,key_resp_4.keys,key_resp_4.corr,key_resp_4.rt,key_resp_4.started,key_resp_4.stopped,fb.started,fb.stopped,instruction_block.started,instruction_block.stopped,key_resp_8.keys,key_resp_8.rt,key_resp_8.started,key_resp_8.stopped,text_8.started,text_8.stopped,key_resp_9.keys,key_resp_9.corr,key_resp_9.rt,text_5.started,text_5.stopped,A11_3.started,A11_3.stopped,A22_2.started,A22_2.stopped,A33_2.started,A33_2.stopped,A44_2.started,A44_2.stopped,A55_2.started,A55_2.stopped,M1_3.started,M1_3.stopped,M2_2.started,M2_2.stopped,M3_2.started,M3_2.stopped,M4_2.started,M4_2.stopped,M5_2.started,M5_2.stopped,M6_2.started,M6_2.stopped,M7_2.started,M7_2.stopped,M8_2.started,M8_2.stopped,key_resp_9.started,key_resp_9.stopped,fixation.started,fixation.stopped,ET,fb_3.started,fb_3.stopped,text_9.started,text_9.stopped,fb_4.started,fb_4.stopped,text_7.started,text_7.stopped,endtext.started,endtext.stopped,fixation_ITI,CCC,Acc,participant,session,date,expName,psychopyVersion,frameRate,
,,,,,,,,,,,,,,,,,,,,,,,,,,,,,,14.142883799999254,None,space,2.0227317000026233,14.142883799999254,None,,,,,,,,,,,,,,,,,,,,,,,,,,,,,,,,,,,,,,,,,,,,,,,,,,,,,,,,,,,,,,,,,,,,,,,,,,,,,,,,,,,,,,,,,11002,002,2023_Dec_29_1740,MFTM_A_new1021,2021.2.3,59.910445865367855,
,,,,,,,,,,,,,,,,,,,,,,,,,,,,,,,,,,,,16.196272100001806,None,space,10.937367899998208,16.196272100001806,None,,,,,,,,,,,,,,,,,,,,,,,,,,,,,,,,,,,,,,,,,,,,,,,,,,,,,,,,,,,,,,,,,,,,,,,,,,,,,,,,,,,11002,002,2023_Dec_29_1740,MFTM_A_new1021,2021.2.3,59.910445865367855,
,,,,,,,,,,,,,,,,,,,,,,,,,,,,,,,,,,,,,,,,,,27.16243889999896,None,space,10.315360299995518,27.16243889999896,None,,,,,,,,,,,,,,,,,,,,,,,,,,,,,,,,,,,,,,,,,,,,,,,,,,,,,,,,,,,,,,,,,,,,,,,,,,,,,11002,002,2023_Dec_29_1740,MFTM_A_new1021,2021.2.3,59.910445865367855,
0.6,0.6,0.6,-0.6,-0.6,right,3:2,R,,,,,,,,,,,0,0,0,0,,,,,,,,,,,,,,,,,,,,,,,,,,,37.511374000001524,None,37.511374000001524,None,37.511374000001524,None,37.511374000001524,None,37.511374000001524,None,37.511374000001524,None,right,1,6.39846679999755,37.511374000001524,None,43.955078500002855,None,,,,,,,,,,,,,,,,,,,,,,,,,,,,,,,,,,,,,,,,,,,,,,,,,,,,,,,,,,11002,002,2023_Dec_29_1740,MFTM_A_new1021,2021.2.3,59.910445865367855,
-0.6,-0.6,-0.6,0.6,0.6,left,3:2,L,,,,,,,,,,,0,1,1,1,,,,,,,,,,,,,,,,,,,,,,,,,,,44.70589650000329,None,44.70589650000329,None,44.70589650000329,None,44.70589650000329,None,44.70589650000329,None,44.70589650000329,None,left,1,2.163992599998892,44.70589650000329,None,46.89173550000123,None,,,,,,,,,,,,,,,,,,,,,,,,,,,,,,,,,,,,,,,,,,,,,,,,,,,,,,,,,,11002,002,2023_Dec_29_1740,MFTM_A_new1021,2021.2.3,59.910445865367855,
-0.6,-0.6,-0.6,0.6,0.6,left,3:2,L,,,,,,,,,,,1,0,2,1,,,,,,,,,,,,,,,,,,,,,,,,,,,47.64334219999728,None,47.64334219999728,None,47.64334219999728,None,47.64334219999728,None,47.64334219999728,None,47.64334219999728,None,left,1,2.1626533000016934,47.64334219999728,None,49.829376200003026,None,,,,,,,,,,,,,,,,,,,,,,,,,,,,,,,,,,,,,,,,,,,,,,,,,,,,,,,,,,11002,002,2023_Dec_29_1740,MFTM_A_new1021,2021.2.3,59.910445865367855,
0.6,0.6,0.6,-0.6,-0.6,right,3:2,R,,,,,,,,,,,1,1,3,0,,,,,,,,,,,,,,,,,,,,,,,,,,,50.580456600000616,None,50.580456600000616,None,50.580456600000616,None,50.580456600000616,None,50.580456600000616,None,50.580456600000616,None,right,1,2.5615867000014987,50.580456600000616,None,53.168208900002355,None,,,,,,,,,,,,,,,,,,,,,,,,,,,,,,,,,,,,,,,,,,,,,,,,,,,,,,,,,,11002,002,2023_Dec_29_1740,MFTM_A_new1021,2021.2.3,59.910445865367855,
,,,,,,,,stim/Instruction_mask.png,conditions/adaptive.xlsx,practice,-0.6,-0.6,-0.6,0.6,0.6,left,L,,,,,0,0,0,0,0,0,0,9,,,,,,,,,,,,,,,,,,,,,,,,,,,,,,,,,,,,,,54.10220570000092,None,space,6.6156656999955885,54.10220570000092,None,60.82925619999878,None,left,1,1.8310751000026357,61.26305439999851,None,61.26305439999851,64.26794650000375,61.26305439999851,64.26794650000375,61.26305439999851,64.26794650000375,61.26305439999851,64.26794650000375,61.26305439999851,64.26794650000375,64.25161870000011,64.75188740000158,64.25161870000011,64.75188740000158,64.25161870000011,64.75188740000158,64.25161870000011,64.75188740000158,64.25161870000011,64.75188740000158,64.25161870000011,64.75188740000158,64.25161870000011,64.75188740000158,64.25161870000011,64.75188740000158,61.26305439999851,None,64.75188740000158,64.75188740000158,3,64.76855880000221,None,65.51949469999818,None,,,,,,,,,,11002,002,2023_Dec_29_1740,MFTM_A_new1021,2021.2.3,59.910445865367855,
,,,,,,,,stim/Instruction_mask.png,conditions/adaptive.xlsx,practice,-0.6,-0.6,-0.6,0.6,0.6,left,L,,,,,0,0,0,0,0,1,1,15,,,,,,,,,,,,,,,,,,,,,,,,,,,,,,,,,,,,,,,,,,,,66.02062180000212,None,left,1,1.8773442000019713,66.52068590000272,68.52394939999795,66.52068590000272,68.02311899999768,66.52068590000272,68.02311899999768,66.52068590000272,68.02311899999768,66.52068590000272,68.02311899999768,66.52068590000272,68.02311899999768,68.00699570000143,68.50698269999702,68.00699570000143,68.50698269999702,68.00699570000143,68.50698269999702,68.00699570000143,68.50698269999702,68.00699570000143,68.50698269999702,68.00699570000143,68.50698269999702,68.00699570000143,68.50698269999702,68.00699570000143,68.50698269999702,66.52068590000272,None,68.50698269999702,70.00922480000008,1.5,70.02607130000251,None,70.77760249999847,None,,,,,,,,,,11002,002,2023_Dec_29_1740,MFTM_A_new1021,2021.2.3,59.910445865367855,
,,,,,,,,stim/Instruction_mask.png,conditions/adaptive.xlsx,practice,-0.6,-0.6,-0.6,0.6,0.6,left,L,,,,,0,0,0,0,0,2,2,79,,,,,,,,,,,,,,,,,,,,,,,,,,,,,,,,,,,,,,,,,,,,71.27803899999708,None,left,1,1.1553869000053965,71.77838429999974,73.08112260000053,71.77838429999974,72.58005709999998,71.77838429999974,72.58005709999998,71.77838429999974,72.58005709999998,71.77838429999974,72.58005709999998,71.77838429999974,72.58005709999998,72.56301240000175,73.06497749999835,72.56301240000175,73.06497749999835,72.56301240000175,73.06497749999835,72.56301240000175,73.06497749999835,72.56301240000175,73.06497749999835,72.56301240000175,73.06497749999835,72.56301240000175,73.06497749999835,72.56301240000175,73.06497749999835,71.77838429999974,None,73.06497749999835,75.26740189999691,0.8,75.2837858999992,None,76.03502619999927,None,,,,,,,,,,11002,002,2023_Dec_29_1740,MFTM_A_new1021,2021.2.3,59.910445865367855,
,,,,,,,,stim/Instruction_mask.png,conditions/adaptive.xlsx,practice,-0.6,-0.6,-0.6,0.6,0.6,left,L,,,,,0,0,0,0,0,3,3,11,,,,,,,,,,,,,,,,,,,,,,,,,,,,,,,,,,,,,,,,,,,,76.53630890000204,None,right,0,0.9211657999985619,77.03670389999752,77.78893550000066,77.03670389999752,77.28692160000355,77.03670389999752,77.28692160000355,77.03670389999752,77.28692160000355,77.03670389999752,77.28692160000355,77.03670389999752,77.28692160000355,77.27000499999849,77.7710017999998,77.27000499999849,77.7710017999998,77.27000499999849,77.7710017999998,77.27000499999849,77.7710017999998,77.27000499999849,77.7710017999998,77.27000499999849,77.7710017999998,77.27000499999849,77.7710017999998,77.27000499999849,77.7710017999998,77.03670389999752,None,77.7710017999998,80.52491600000212,3,80.54160879999836,None,81.294372999997,None,,,,,,,,,,11002,002,2023_Dec_29_1740,MFTM_A_new1021,2021.2.3,59.910445865367855,
,,,,,,,,stim/Instruction_mask.png,conditions/adaptive.xlsx,practice,,,,,,,,,,,,0,0,0,0,,,,,,,,,,,,,,,,,,,,,,,,,,,,,,,,,,,,,,,,,,,,,,,,,,,,,,,,,,,,,,,,,,,,,,,,,,,,,,,,,,,,,,,,,,81.81103009999788,82.81289590000233,82.7794486999992,82.7794486999992,82.7794486999992,None,,,,11002,002,2023_Dec_29_1740,MFTM_A_new1021,2021.2.3,59.910445865367855,
,,,,,,,,stim/Instruction_adaptive.png,conditions/adaptive.xlsx,test,-0.6,-0.6,-0.6,0.6,0.6,left,L,,,,,0,1,1,1,0,0,0,59,,,,,,,,,,,,,,,,,,,,,,,,,,,,,,,,,,,,,,85.89965269999811,None,space,5.794053700003133,85.89965269999811,None,91.74127980000048,None,left,1,3.4674785000024713,92.24288730000262,None,92.24288730000262,95.24776459999703,92.24288730000262,95.24776459999703,92.24288730000262,95.24776459999703,92.24288730000262,95.24776459999703,92.24288730000262,95.24776459999703,95.23136579999846,95.73101599999791,95.23136579999846,95.73101599999791,95.23136579999846,95.73101599999791,95.23136579999846,95.73101599999791,95.23136579999846,95.73101599999791,95.23136579999846,95.73101599999791,95.23136579999846,95.73101599999791,95.23136579999846,95.73101599999791,92.24288730000262,None,95.73101599999791,95.73101599999791,3,95.74737160000223,None,96.49857170000178,None,,,,,,,0,6.000000000000005,1.0,11002,002,2023_Dec_29_1740,MFTM_A_new1021,2021.2.3,59.910445865367855,
,,,,,,,,stim/Instruction_adaptive.png,conditions/adaptive.xlsx,test,0.6,0.6,0.6,-0.6,-0.6,right,R,,,,,0,1,1,1,0,1,1,40,,,,,,,,,,,,,,,,,,,,,,,,,,,,,,,,,,,,,,,,,,,,96.99985310000193,None,right,1,1.0261399000009988,97.49996909999754,98.25185330000386,97.49996909999754,97.7511525000009,97.49996909999754,97.7511525000009,97.49996909999754,97.7511525000009,97.49996909999754,97.7511525000009,97.49996909999754,97.7511525000009,97.73380550000002,98.2350277000005,97.73380550000002,98.2350277000005,97.73380550000002,98.2350277000005,97.73380550000002,98.2350277000005,97.73380550000002,98.2350277000005,97.73380550000002,98.2350277000005,97.73380550000002,98.2350277000005,97.73380550000002,98.2350277000005,97.49996909999754,None,98.2350277000005,99.11918049999804,0.25,99.13562690000253,None,99.8881881999987,None,,,,,,,[0.875],6.000000000000005,1.0,11002,002,2023_Dec_29_1740,MFTM_A_new1021,2021.2.3,59.910445865367855,
,,,,,,,,stim/Instruction_adaptive.png,conditions/adaptive.xlsx,test,-0.6,-0.6,-0.6,0.6,0.6,left,L,,,,,0,1,1,1,0,2,2,95,,,,,,,,,,,,,,,,,,,,,,,,,,,,,,,,,,,,,,,,,,,,100.38851699999941,None,left,1,0.6126942000046256,100.88918939999712,101.63951059999818,100.88918939999712,101.1387401000029,100.88918939999712,101.1387401000029,100.88918939999712,101.1387401000029,100.88918939999712,101.1387401000029,100.88918939999712,101.1387401000029,101.1221211000011,101.62301360000129,101.1221211000011,101.62301360000129,101.1221211000011,101.62301360000129,101.1221211000011,101.62301360000129,101.1221211000011,101.62301360000129,101.1221211000011,101.62301360000129,101.1221211000011,101.62301360000129,101.1221211000011,101.62301360000129,100.88918939999712,None,101.62301360000129,102.95960650000052,0.25,102.97534460000315,None,103.72603170000366,None,,,,,,,[1.33333333],6.000000000000005,1.0,11002,002,2023_Dec_29_1740,MFTM_A_new1021,2021.2.3,59.910445865367855,
,,,,,,,,stim/Instruction_adaptive.png,conditions/adaptive.xlsx,test,-0.6,-0.6,-0.6,0.6,0.6,left,L,,,,,0,1,1,1,0,3,3,63,,,,,,,,,,,,,,,,,,,,,,,,,,,,,,,,,,,,,,,,,,,,104.22661360000347,None,right,0,0.8865807999973185,104.72753090000333,105.47951499999908,104.72753090000333,104.97790440000244,104.72753090000333,104.97790440000244,104.72753090000333,104.97790440000244,104.72753090000333,104.97790440000244,104.72753090000333,104.97790440000244,104.96089819999906,105.46219230000133,104.96089819999906,105.46219230000133,104.96089819999906,105.46219230000133,104.96089819999906,105.46219230000133,104.96089819999906,105.46219230000133,104.96089819999906,105.46219230000133,104.96089819999906,105.46219230000133,104.96089819999906,105.46219230000133,104.72753090000333,None,105.46219230000133,107.03097510000225,0.25,107.04725930000131,None,107.79920239999774,None,,,,,,,[1.5625],4.030000000000003,0.75,11002,002,2023_Dec_29_1740,MFTM_A_new1021,2021.2.3,59.910445865367855,
,,,,,,,,stim/Instruction_adaptive.png,conditions/adaptive.xlsx,test,-0.6,-0.6,-0.6,0.6,0.6,left,L,,,,,0,1,1,1,0,4,4,23,,,,,,,,,,,,,,,,,,,,,,,,,,,,,,,,,,,,,,,,,,,,108.29933619999792,None,left,1,0.685823599997093,108.80095430000074,109.70136490000004,108.80095430000074,109.20136469999852,108.80095430000074,109.20136469999852,108.80095430000074,109.20136469999852,108.80095430000074,109.20136469999852,108.80095430000074,109.20136469999852,109.184728799999,109.68536380000296,109.184728799999,109.68536380000296,109.184728799999,109.68536380000296,109.184728799999,109.68536380000296,109.184728799999,109.68536380000296,109.184728799999,109.68536380000296,109.184728799999,109.68536380000296,109.184728799999,109.68536380000296,108.80095430000074,None,109.68536380000296,111.35456910000357,0.40000000000000013,111.37038380000013,None,112.12168940000265,None,,,,,,,[1.67],4.700000000000004,0.8,11002,002,2023_Dec_29_1740,MFTM_A_new1021,2021.2.3,59.910445865367855,
,,,,,,,,stim/Instruction_adaptive.png,conditions/adaptive.xlsx,test,0.6,0.6,0.6,-0.6,-0.6,right,R,,,,,0,1,1,1,0,5,5,88,,,,,,,,,,,,,,,,,,,,,,,,,,,,,,,,,,,,,,,,,,,,112.6231534000035,None,right,1,0.6191131000014138,113.12308959999791,113.87474240000302,113.12308959999791,113.37333129999752,113.12308959999791,113.37333129999752,113.12308959999791,113.37333129999752,113.12308959999791,113.37333129999752,113.12308959999791,113.37333129999752,113.35693580000225,113.85821510000096,113.35693580000225,113.85821510000096,113.35693580000225,113.85821510000096,113.35693580000225,113.85821510000096,113.35693580000225,113.85821510000096,113.35693580000225,113.85821510000096,113.35693580000225,113.85821510000096,113.35693580000225,113.85821510000096,113.12308959999791,None,113.85821510000096,115.62787730000127,0.25,115.64489540000068,None,116.39546249999694,None,,,,,,,[1.76666667],5.070000000000004,0.8333333333333334,11002,002,2023_Dec_29_1740,MFTM_A_new1021,2021.2.3,59.910445865367855,
,,,,,,,,stim/Instruction_adaptive.png,conditions/adaptive.xlsx,test,0.6,0.6,0.6,-0.6,-0.6,right,R,,,,,0,1,1,1,0,6,6,54,,,,,,,,,,,,,,,,,,,,,,,,,,,,,,,,,,,,,,,,,,,,116.89660530000401,None,right,1,0.6656678999934229,117.39664800000173,118.1470319,117.39664800000173,117.64707089999865,117.39664800000173,117.64707089999865,117.39664800000173,117.64707089999865,117.39664800000173,117.64707089999865,117.39664800000173,117.64707089999865,117.62987099999737,118.13047219999862,117.62987099999737,118.13047219999862,117.62987099999737,118.13047219999862,117.62987099999737,118.13047219999862,117.62987099999737,118.13047219999862,117.62987099999737,118.13047219999862,117.62987099999737,118.13047219999862,117.62987099999737,118.13047219999862,117.39664800000173,None,118.13047219999862,119.9675417000035,0.25,119.98436539999966,None,120.73448500000086,None,,,,,,,[1.83571429],5.3300000000000045,0.8571428571428571,11002,002,2023_Dec_29_1740,MFTM_A_new1021,2021.2.3,59.910445865367855,
,,,,,,,,stim/Instruction_adaptive.png,conditions/adaptive.xlsx,test,0.6,0.6,0.6,-0.6,-0.6,right,R,,,,,0,1,1,1,0,7,7,8,,,,,,,,,,,,,,,,,,,,,,,,,,,,,,,,,,,,,,,,,,,,121.23621110000386,None,left,0,0.9497807000007015,121.73637320000125,122.48760439999751,121.73637320000125,121.98700590000226,121.73637320000125,121.98700590000226,121.73637320000125,121.98700590000226,121.73637320000125,121.98700590000226,121.73637320000125,121.98700590000226,121.97033460000239,122.47098360000382,121.97033460000239,122.47098360000382,121.97033460000239,122.47098360000382,121.97033460000239,122.47098360000382,121.97033460000239,122.47098360000382,121.97033460000239,122.47098360000382,121.97033460000239,122.47098360000382,121.97033460000239,122.47098360000382,121.73637320000125,None,122.47098360000382,None,0.25,124.3729142000011,None,125.12501740000152,None,,,,,,,[1.8875],4.4200000000000035,0.75,11002,002,2023_Dec_29_1740,MFTM_A_new1021,2021.2.3,59.910445865367855,
,,,,,,,,stim/Instruction_adaptive.png,conditions/adaptive.xlsx,test,-0.6,-0.6,-0.6,0.6,0.6,left,L,,,,,0,1,1,1,0,8,8,21,,,,,,,,,,,,,,,,,,,,,,,,,,,,,,,,,,,,,,,,,,,,125.62512350000179,None,left,1,0.8241265999968164,126.12578670000221,126.94355299999734,126.12578670000221,126.4438702999978,126.12578670000221,126.4438702999978,126.12578670000221,126.4438702999978,126.12578670000221,126.4438702999978,126.12578670000221,126.4438702999978,126.42699300000095,126.92758080000203,126.42699300000095,126.92758080000203,126.42699300000095,126.92758080000203,126.42699300000095,126.92758080000203,126.42699300000095,126.92758080000203,126.42699300000095,126.92758080000203,126.42699300000095,126.92758080000203,126.42699300000095,126.92758080000203,126.12578670000221,None,126.92758080000203,None,0.31000000000000005,128.8637469000023,None,129.61480110000412,None,,,,,,,[1.92111111],4.7100000000000035,0.7777777777777778,11002,002,2023_Dec_29_1740,MFTM_A_new1021,2021.2.3,59.910445865367855,
,,,,,,,,stim/Instruction_adaptive.png,conditions/adaptive.xlsx,test,0.6,0.6,0.6,-0.6,-0.6,right,R,,,,,0,1,1,1,0,9,9,32,,,,,,,,,,,,,,,,,,,,,,,,,,,,,,,,,,,,,,,,,,,,130.11502979999932,None,right,1,0.7347682999970857,130.61579750000237,131.36742439999944,130.61579750000237,130.86719760000415,130.61579750000237,130.86719760000415,130.61579750000237,130.86719760000415,130.61579750000237,130.86719760000415,130.61579750000237,130.86719760000415,130.8493460000027,131.3508142999999,130.8493460000027,131.3508142999999,130.8493460000027,131.3508142999999,130.8493460000027,131.3508142999999,130.8493460000027,131.3508142999999,130.8493460000027,131.3508142999999,130.8493460000027,131.3508142999999,130.8493460000027,131.3508142999999,130.61579750000237,None,131.3508142999999,None,0.25,133.32022519999737,None,134.0712616000019,None,,,,,,,[1.954],4.9200000000000035,0.8,11002,002,2023_Dec_29_1740,MFTM_A_new1021,2021.2.3,59.910445865367855,
,,,,,,,,stim/Instruction_adaptive.png,conditions/adaptive.xlsx,test,0.6,0.6,0.6,-0.6,-0.6,right,R,,,,,0,1,1,1,0,10,10,98,,,,,,,,,,,,,,,,,,,,,,,,,,,,,,,,,,,,,,,,,,,,134.57264679999935,None,right,1,0.846011699999508,135.0724554999979,135.8249233000024,135.0724554999979,135.32279240000207,135.0724554999979,135.32279240000207,135.0724554999979,135.32279240000207,135.0724554999979,135.32279240000207,135.0724554999979,135.32279240000207,135.30676649999805,135.80786310000258,135.30676649999805,135.80786310000258,135.30676649999805,135.80786310000258,135.30676649999805,135.80786310000258,135.30676649999805,135.80786310000258,135.30676649999805,135.80786310000258,135.30676649999805,135.80786310000258,135.30676649999805,135.80786310000258,135.0724554999979,None,135.80786310000258,137.79441690000385,0.25,137.81042069999967,None,138.56148309999844,None,,,,,,,[1.98090909],5.090000000000004,0.8181818181818182,11002,002,2023_Dec_29_1740,MFTM_A_new1021,2021.2.3,59.910445865367855,
,,,,,,,,stim/Instruction_adaptive.png,conditions/adaptive.xlsx,test,-0.6,-0.6,-0.6,0.6,0.6,left,L,,,,,0,1,1,1,0,11,11,27,,,,,,,,,,,,,,,,,,,,,,,,,,,,,,,,,,,,,,,,,,,,139.06135090000316,None,right,0,0.6517690999971819,139.56244130000414,140.31555520000256,139.56244130000414,139.81272739999986,139.56244130000414,139.81272739999986,139.56244130000414,139.81272739999986,139.56244130000414,139.81272739999986,139.56244130000414,139.81272739999986,139.79698479999934,140.29688059999899,139.79698479999934,140.29688059999899,139.79698479999934,140.29688059999899,139.79698479999934,140.29688059999899,139.79698479999934,140.29688059999899,139.79698479999934,140.29688059999899,139.79698479999934,140.29688059999899,139.79698479999934,140.29688059999899,139.56244130000414,None,140.29688059999899,142.30080830000225,0.25,142.31677430000127,None,143.06741650000185,None,,,,,,,[2.00333333],4.530000000000004,0.75,11002,002,2023_Dec_29_1740,MFTM_A_new1021,2021.2.3,59.910445865367855,
,,,,,,,,stim/Instruction_adaptive.png,conditions/adaptive.xlsx,test,-0.6,-0.6,-0.6,0.6,0.6,left,L,,,,,0,1,1,1,0,12,12,15,,,,,,,,,,,,,,,,,,,,,,,,,,,,,,,,,,,,,,,,,,,,143.56839980000223,None,left,1,0.9515331000002334,144.0702777999977,144.85368520000338,144.0702777999977,144.35347080000065,144.0702777999977,144.35347080000065,144.0702777999977,144.35347080000065,144.0702777999977,144.35347080000065,144.0702777999977,144.35347080000065,144.33702820000326,144.83680540000205,144.33702820000326,144.83680540000205,144.33702820000326,144.83680540000205,144.33702820000326,144.83680540000205,144.33702820000326,144.83680540000205,144.33702820000326,144.83680540000205,144.33702820000326,144.83680540000205,144.33702820000326,144.83680540000205,144.0702777999977,None,144.83680540000205,146.85815100000036,0.28,146.87288930000068,None,147.6243478000033,None,,,,,,,[2.02],4.7100000000000035,0.7692307692307693,11002,002,2023_Dec_29_1740,MFTM_A_new1021,2021.2.3,59.910445865367855,
,,,,,,,,stim/Instruction_adaptive.png,conditions/adaptive.xlsx,test,-0.6,-0.6,-0.6,0.6,0.6,left,L,,,,,0,1,1,1,0,13,13,25,,,,,,,,,,,,,,,,,,,,,,,,,,,,,,,,,,,,,,,,,,,,148.1257547999994,None,right,0,0.7712211000034586,148.62685639999836,149.37685000000056,148.62685639999836,148.8775753000009,148.62685639999836,148.8775753000009,148.62685639999836,148.8775753000009,148.62685639999836,148.8775753000009,148.62685639999836,148.8775753000009,148.8600729000027,149.3602983000019,148.8600729000027,149.3602983000019,148.8600729000027,149.3602983000019,148.8600729000027,149.3602983000019,148.8600729000027,149.3602983000019,148.8600729000027,149.3602983000019,148.8600729000027,149.3602983000019,148.8600729000027,149.3602983000019,148.62685639999836,None,149.3602983000019,151.3972106000001,0.25,151.41326449999906,None,152.16427929999918,None,,,,,,,[2.03642857],4.240000000000004,0.7142857142857143,11002,002,2023_Dec_29_1740,MFTM_A_new1021,2021.2.3,59.910445865367855,
,,,,,,,,stim/Instruction_adaptive.png,conditions/adaptive.xlsx,test,-0.6,-0.6,-0.6,0.6,0.6,left,L,,,,,0,1,1,1,0,14,14,93,,,,,,,,,,,,,,,,,,,,,,,,,,,,,,,,,,,,,,,,,,,,152.6651325999992,None,right,0,0.5919334999998682,153.16596700000082,154.01739710000402,153.16596700000082,153.51663779999944,153.16596700000082,153.51663779999944,153.16596700000082,153.51663779999944,153.16596700000082,153.51663779999944,153.16596700000082,153.51663779999944,153.50038060000225,154.00042660000327,153.50038060000225,154.00042660000327,153.50038060000225,154.00042660000327,153.50038060000225,154.00042660000327,153.50038060000225,154.00042660000327,153.50038060000225,154.00042660000327,153.50038060000225,154.00042660000327,153.50038060000225,154.00042660000327,153.16596700000082,None,154.00042660000327,156.05347230000189,0.3500000000000001,156.07015130000218,None,156.821305999998,None,,,,,,,[2.044],3.6300000000000026,0.6666666666666666,11002,002,2023_Dec_29_1740,MFTM_A_new1021,2021.2.3,59.910445865367855,
,,,,,,,,stim/Instruction_adaptive.png,conditions/adaptive.xlsx,test,-0.6,-0.6,-0.6,0.6,0.6,left,L,,,,,0,1,1,1,0,15,15,31,,,,,,,,,,,,,,,,,,,,,,,,,,,,,,,,,,,,,,,,,,,,157.322906100002,None,left,1,0.9747380999979214,157.8234897000002,158.85750630000257,157.8234897000002,158.3568920999969,157.8234897000002,158.3568920999969,157.8234897000002,158.3568920999969,157.8234897000002,158.3568920999969,157.8234897000002,158.3568920999969,158.3405494000035,158.84091540000372,158.3405494000035,158.84091540000372,158.3405494000035,158.84091540000372,158.3405494000035,158.84091540000372,158.3405494000035,158.84091540000372,158.3405494000035,158.84091540000372,158.3405494000035,158.84091540000372,158.3405494000035,158.84091540000372,157.8234897000002,None,158.84091540000372,160.81127379999816,0.5300000000000002,160.82728309999948,None,161.5792139999976,None,,,,,,,[[1.97]],3.8900000000000032,0.6875,11002,002,2023_Dec_29_1740,MFTM_A_new1021,2021.2.3,59.910445865367855,
,,,,,,,,stim/Instruction_adaptive.png,conditions/adaptive.xlsx,test,0.6,0.6,0.6,-0.6,-0.6,right,R,,,,,0,1,1,1,0,16,16,22,,,,,,,,,,,,,,,,,,,,,,,,,,,,,,,,,,,,,,,,,,,,162.0797500999979,None,right,1,0.8185192000019015,162.5797248000017,163.53118460000405,162.5797248000017,163.03053999999975,162.5797248000017,163.03053999999975,162.5797248000017,163.03053999999975,162.5797248000017,163.03053999999975,162.5797248000017,163.03053999999975,162.99710600000253,163.4980402000001,162.99710600000253,163.4980402000001,162.99710600000253,163.4980402000001,162.99710600000253,163.4980402000001,162.99710600000253,163.4980402000001,162.99710600000253,163.4980402000001,162.99710600000253,163.4980402000001,162.99710600000253,163.4980402000001,162.5797248000017,None,163.4980402000001,165.5508295000036,0.44000000000000017,165.56802849999804,None,166.31871970000066,None,,,,,,,[2.04058824],4.080000000000004,0.7058823529411765,11002,002,2023_Dec_29_1740,MFTM_A_new1021,2021.2.3,59.910445865367855,
,,,,,,,,stim/Instruction_adaptive.png,conditions/adaptive.xlsx,test,0.6,0.6,0.6,-0.6,-0.6,right,R,,,,,0,1,1,1,0,17,17,96,,,,,,,,,,,,,,,,,,,,,,,,,,,,,,,,,,,,,,,,,,,,166.81921870000224,None,right,1,1.1186238000009325,167.31996120000258,168.2226210000008,167.31996120000258,167.72072660000413,167.31996120000258,167.72072660000413,167.31996120000258,167.72072660000413,167.31996120000258,167.72072660000413,167.31996120000258,167.72072660000413,167.68827320000128,168.1882220999978,167.68827320000128,168.1882220999978,167.68827320000128,168.1882220999978,167.68827320000128,168.1882220999978,167.68827320000128,168.1882220999978,167.68827320000128,168.1882220999978,167.68827320000128,168.1882220999978,167.68827320000128,168.1882220999978,167.31996120000258,None,168.1882220999978,170.24185869999928,0.3900000000000001,170.25901750000048,None,171.01146860000154,None,,,,,,,[2.04444444],4.240000000000004,0.7222222222222222,11002,002,2023_Dec_29_1740,MFTM_A_new1021,2021.2.3,59.910445865367855,
,,,,,,,,stim/Instruction_adaptive.png,conditions/adaptive.xlsx,test,-0.6,-0.6,-0.6,0.6,0.6,left,L,,,,,0,1,1,1,0,18,18,43,,,,,,,,,,,,,,,,,,,,,,,,,,,,,,,,,,,,,,,,,,,,171.5268231000009,None,left,1,1.2580077000020538,172.02786470000137,172.87872020000214,172.02786470000137,172.37761650000175,172.02786470000137,172.37761650000175,172.02786470000137,172.37761650000175,172.02786470000137,172.37761650000175,172.02786470000137,172.37761650000175,172.36204320000252,172.86167369999748,172.36204320000252,172.86167369999748,172.36204320000252,172.86167369999748,172.36204320000252,172.86167369999748,172.36204320000252,172.86167369999748,172.36204320000252,172.86167369999748,172.36204320000252,172.86167369999748,172.36204320000252,172.86167369999748,172.02786470000137,None,172.86167369999748,174.91490879999765,0.3500000000000001,174.93205970000417,None,175.68264279999858,None,,,,,,,[2.05],4.370000000000004,0.7368421052631579,11002,002,2023_Dec_29_1740,MFTM_A_new1021,2021.2.3,59.910445865367855,
,,,,,,,,stim/Instruction_adaptive.png,conditions/adaptive.xlsx,test,0.6,0.6,0.6,-0.6,-0.6,right,R,,,,,0,1,1,1,0,19,19,44,,,,,,,,,,,,,,,,,,,,,,,,,,,,,,,,,,,,,,,,,,,,176.18315740000253,None,right,1,0.7938085999994655,176.68418850000307,177.51873109999724,176.68418850000307,177.01842380000016,176.68418850000307,177.01842380000016,176.68418850000307,177.01842380000016,176.68418850000307,177.01842380000016,176.68418850000307,177.01842380000016,176.98507560000144,177.48517800000263,176.98507560000144,177.48517800000263,176.98507560000144,177.48517800000263,176.98507560000144,177.48517800000263,176.98507560000144,177.48517800000263,176.98507560000144,177.48517800000263,176.98507560000144,177.48517800000263,176.98507560000144,177.48517800000263,176.68418850000307,None,177.48517800000263,179.55596810000134,0.32000000000000006,179.57169350000186,None,180.32358419999946,None,,,,,,,[2.0565],4.480000000000004,0.75,11002,002,2023_Dec_29_1740,MFTM_A_new1021,2021.2.3,59.910445865367855,
,,,,,,,,stim/Instruction_adaptive.png,conditions/adaptive.xlsx,test,-0.6,-0.6,-0.6,0.6,0.6,left,L,,,,,0,1,1,1,0,20,20,1,,,,,,,,,,,,,,,,,,,,,,,,,,,,,,,,,,,,,,,,,,,,180.82388390000415,None,left,1,0.8410633000021335,181.3248816999985,182.12652150000213,181.3248816999985,181.62552439999854,181.3248816999985,181.62552439999854,181.3248816999985,181.62552439999854,181.3248816999985,181.62552439999854,181.3248816999985,181.62552439999854,181.59124090000114,182.09207949999836,181.59124090000114,182.09207949999836,181.59124090000114,182.09207949999836,181.59124090000114,182.09207949999836,181.59124090000114,182.09207949999836,181.59124090000114,182.09207949999836,181.59124090000114,182.09207949999836,181.59124090000114,182.09207949999836,181.3248816999985,None,182.09207949999836,184.1631417000026,0.29000000000000004,184.17776500000036,None,184.92956060000142,None,,,,,,,[2.06380952],4.580000000000004,0.7619047619047619,11002,002,2023_Dec_29_1740,MFTM_A_new1021,2021.2.3,59.910445865367855,
,,,,,,,,stim/Instruction_adaptive.png,conditions/adaptive.xlsx,test,0.6,0.6,0.6,-0.6,-0.6,right,R,,,,,0,1,1,1,0,21,21,24,,,,,,,,,,,,,,,,,,,,,,,,,,,,,,,,,,,,,,,,,,,,185.43059640000138,None,right,1,0.602282899999409,185.93167320000066,186.71668219999992,185.93167320000066,186.2150258000038,185.93167320000066,186.2150258000038,185.93167320000066,186.2150258000038,185.93167320000066,186.2150258000038,185.93167320000066,186.2150258000038,186.1980889999977,186.69907260000036,186.1980889999977,186.69907260000036,186.1980889999977,186.69907260000036,186.1980889999977,186.69907260000036,186.1980889999977,186.69907260000036,186.1980889999977,186.69907260000036,186.1980889999977,186.69907260000036,186.1980889999977,186.69907260000036,185.93167320000066,None,186.69907260000036,None,0.28,188.78512770000088,None,189.53629080000246,None,,,,,,,[2.07090909],4.6700000000000035,0.7727272727272727,11002,002,2023_Dec_29_1740,MFTM_A_new1021,2021.2.3,59.910445865367855,
,,,,,,,,stim/Instruction_adaptive.png,conditions/adaptive.xlsx,test,0.6,0.6,0.6,-0.6,-0.6,right,R,,,,,0,1,1,1,0,22,22,42,,,,,,,,,,,,,,,,,,,,,,,,,,,,,,,,,,,,,,,,,,,,190.03722050000215,None,left,0,0.8042156000010436,190.5378667000041,191.30633520000265,190.5378667000041,190.80492380000214,190.5378667000041,190.80492380000214,190.5378667000041,190.80492380000214,190.5378667000041,190.80492380000214,190.5378667000041,190.80492380000214,190.78829389999737,191.2890985999984,190.78829389999737,191.2890985999984,190.78829389999737,191.2890985999984,190.78829389999737,191.2890985999984,190.78829389999737,191.2890985999984,190.78829389999737,191.2890985999984,190.78829389999737,191.2890985999984,190.78829389999737,191.2890985999984,190.5378667000041,None,191.2890985999984,None,0.26,193.3756063000037,None,194.12688280000293,None,,,,,,,[2.07826087],4.4200000000000035,0.7391304347826086,11002,002,2023_Dec_29_1740,MFTM_A_new1021,2021.2.3,59.910445865367855,
,,,,,,,,stim/Instruction_adaptive.png,conditions/adaptive.xlsx,test,0.6,0.6,0.6,-0.6,-0.6,right,R,,,,,0,1,1,1,0,23,23,38,,,,,,,,,,,,,,,,,,,,,,,,,,,,,,,,,,,,,,,,,,,,194.6272594999973,None,right,1,0.9510274000058416,195.12801949999994,195.945885000001,195.12801949999994,195.44575659999828,195.12801949999994,195.44575659999828,195.12801949999994,195.44575659999828,195.12801949999994,195.44575659999828,195.12801949999994,195.44575659999828,195.4118632000027,195.91236760000174,195.4118632000027,195.91236760000174,195.4118632000027,195.91236760000174,195.4118632000027,195.91236760000174,195.4118632000027,195.91236760000174,195.4118632000027,195.91236760000174,195.4118632000027,195.91236760000174,195.4118632000027,195.91236760000174,195.12801949999994,None,195.91236760000174,198.00036220000038,0.31000000000000005,198.03237539999827,None,198.7838722000015,None,,,,,,,[2.08291667],4.510000000000003,0.75,11002,002,2023_Dec_29_1740,MFTM_A_new1021,2021.2.3,59.910445865367855,
,,,,,,,,stim/Instruction_adaptive.png,conditions/adaptive.xlsx,test,0.6,0.6,0.6,-0.6,-0.6,right,R,,,,,0,1,1,1,0,24,24,20,,,,,,,,,,,,,,,,,,,,,,,,,,,,,,,,,,,,,,,,,,,,199.2840750000032,None,right,1,1.9252783000047202,199.78492859999824,200.58652840000286,199.78492859999824,200.08538869999757,199.78492859999824,200.08538869999757,199.78492859999824,200.08538869999757,199.78492859999824,200.08538869999757,199.78492859999824,200.08538869999757,200.0518671000027,200.5534095999974,200.0518671000027,200.5534095999974,200.0518671000027,200.5534095999974,200.0518671000027,200.5534095999974,200.0518671000027,200.5534095999974,200.0518671000027,200.5534095999974,200.0518671000027,200.5534095999974,200.0518671000027,200.5534095999974,199.78492859999824,None,200.5534095999974,202.6565819000025,0.29000000000000004,202.67352609999944,None,203.4244359000004,None,,,,,,,[2.088],4.590000000000003,0.76,11002,002,2023_Dec_29_1740,MFTM_A_new1021,2021.2.3,59.910445865367855,
,,,,,,,,stim/Instruction_adaptive.png,conditions/adaptive.xlsx,test,-0.6,-0.6,-0.6,0.6,0.6,left,L,,,,,0,1,1,1,0,25,25,91,,,,,,,,,,,,,,,,,,,,,,,,,,,,,,,,,,,,,,,,,,,,203.92441410000174,None,left,1,1.1728801999997813,204.42557300000044,205.2097455999974,204.42557300000044,204.71010009999736,204.42557300000044,204.71010009999736,204.42557300000044,204.71010009999736,204.42557300000044,204.71010009999736,204.42557300000044,204.71010009999736,204.67654500000208,205.1761458999972,204.67654500000208,205.1761458999972,204.67654500000208,205.1761458999972,204.67654500000208,205.1761458999972,204.67654500000208,205.1761458999972,204.67654500000208,205.1761458999972,204.67654500000208,205.1761458999972,204.67654500000208,205.1761458999972,204.42557300000044,None,205.1761458999972,207.2797217999978,0.27,207.29597459999786,None,208.04820660000405,None,,,,,,,[2.09346154],4.6700000000000035,0.7692307692307693,11002,002,2023_Dec_29_1740,MFTM_A_new1021,2021.2.3,59.910445865367855,
,,,,,,,,stim/Instruction_adaptive.png,conditions/adaptive.xlsx,test,-0.6,-0.6,-0.6,0.6,0.6,left,L,,,,,0,1,1,1,0,26,26,61,,,,,,,,,,,,,,,,,,,,,,,,,,,,,,,,,,,,,,,,,,,,208.54849690000265,None,right,0,0.8452638000017032,209.04867940000258,209.81668139999965,209.04867940000258,209.31673969999974,209.04867940000258,209.31673969999974,209.04867940000258,209.31673969999974,209.04867940000258,209.31673969999974,209.04867940000258,209.31673969999974,209.2988933000015,209.8003349999999,209.2988933000015,209.8003349999999,209.2988933000015,209.8003349999999,209.2988933000015,209.8003349999999,209.2988933000015,209.8003349999999,209.2988933000015,209.8003349999999,209.2988933000015,209.8003349999999,209.2988933000015,209.8003349999999,209.04867940000258,None,209.8003349999999,211.90349419999984,0.26,211.9191043000028,None,212.6720714999974,None,,,,,,,[2.09888889],4.4600000000000035,0.7407407407407407,11002,002,2023_Dec_29_1740,MFTM_A_new1021,2021.2.3,59.910445865367855,
,,,,,,,,stim/Instruction_adaptive.png,conditions/adaptive.xlsx,test,-0.6,-0.6,-0.6,0.6,0.6,left,L,,,,,0,1,1,1,0,27,27,51,,,,,,,,,,,,,,,,,,,,,,,,,,,,,,,,,,,,,,,,,,,,213.17228440000326,None,right,0,0.7418293000009726,213.67251830000168,214.47445680000237,213.67251830000168,213.97253869999986,213.67251830000168,213.97253869999986,213.67251830000168,213.97253869999986,213.67251830000168,213.97253869999986,213.67251830000168,213.97253869999986,213.95659909999813,214.45795000000362,213.95659909999813,214.45795000000362,213.95659909999813,214.45795000000362,213.95659909999813,214.45795000000362,213.95659909999813,214.45795000000362,213.95659909999813,214.45795000000362,213.95659909999813,214.45795000000362,213.95659909999813,214.45795000000362,213.67251830000168,None,214.45795000000362,216.55997809999826,0.30000000000000004,216.57640730000276,None,217.32839190000232,None,,,,,,,[2.1025],4.220000000000003,0.7142857142857143,11002,002,2023_Dec_29_1740,MFTM_A_new1021,2021.2.3,59.910445865367855,
,,,,,,,,stim/Instruction_adaptive.png,conditions/adaptive.xlsx,test,-0.6,-0.6,-0.6,0.6,0.6,left,L,,,,,0,1,1,1,0,28,28,19,,,,,,,,,,,,,,,,,,,,,,,,,,,,,,,,,,,,,,,,,,,,217.82891029999882,None,left,1,1.3077745999980834,218.33021849999932,219.18122260000382,218.33021849999932,218.67958080000244,218.33021849999932,218.67958080000244,218.33021849999932,218.67958080000244,218.33021849999932,218.67958080000244,218.33021849999932,218.67958080000244,218.66329950000363,219.16421809999883,218.66329950000363,219.16421809999883,218.66329950000363,219.16421809999883,218.66329950000363,219.16421809999883,218.66329950000363,219.16421809999883,218.66329950000363,219.16421809999883,218.66329950000363,219.16421809999883,218.66329950000363,219.16421809999883,218.33021849999932,None,219.16421809999883,221.26657120000164,0.3500000000000001,221.30008180000004,None,222.0517334000033,None,,,,,,,[2.10413793],4.310000000000003,0.7241379310344828,11002,002,2023_Dec_29_1740,MFTM_A_new1021,2021.2.3,59.910445865367855,
,,,,,,,,stim/Instruction_adaptive.png,conditions/adaptive.xlsx,test,0.6,0.6,0.6,-0.6,-0.6,right,R,,,,,0,1,1,1,0,29,29,10,,,,,,,,,,,,,,,,,,,,,,,,,,,,,,,,,,,,,,,,,,,,222.552674999999,None,right,1,0.7290321999971638,223.05306939999718,223.8873076000018,223.05306939999718,223.38661980000325,223.05306939999718,223.38661980000325,223.05306939999718,223.38661980000325,223.05306939999718,223.38661980000325,223.05306939999718,223.38661980000325,223.37040620000334,223.8712811000005,223.37040620000334,223.8712811000005,223.37040620000334,223.8712811000005,223.37040620000334,223.8712811000005,223.37040620000334,223.8712811000005,223.37040620000334,223.8712811000005,223.37040620000334,223.8712811000005,223.37040620000334,223.8712811000005,223.05306939999718,None,223.8712811000005,None,0.33000000000000007,225.99053760000243,None,226.74261500000284,None,,,,,,,[2.10633333],4.3800000000000034,0.7333333333333333,11002,002,2023_Dec_29_1740,MFTM_A_new1021,2021.2.3,59.910445865367855,
,,,,,,,,stim/Instruction_adaptive.png,conditions/adaptive.xlsx,test,-0.6,-0.6,-0.6,0.6,0.6,left,L,,,,,0,1,1,1,0,30,30,65,,,,,,,,,,,,,,,,,,,,,,,,,,,,,,,,,,,,,,,,,,,,227.2431932000036,None,left,1,0.654710900002101,227.7433361000003,228.56087370000023,227.7433361000003,228.07823890000145,227.7433361000003,228.07823890000145,227.7433361000003,228.07823890000145,227.7433361000003,228.07823890000145,227.7433361000003,228.07823890000145,228.04427079999732,228.54644450000342,228.04427079999732,228.54644450000342,228.04427079999732,228.54644450000342,228.04427079999732,228.54644450000342,228.04427079999732,228.54644450000342,228.04427079999732,228.54644450000342,228.04427079999732,228.54644450000342,228.04427079999732,228.54644450000342,227.7433361000003,None,228.54644450000342,230.66454299999896,0.32000000000000006,230.6813547999991,None,231.431917300004,None,,,,,,,[2.10870968],4.4600000000000035,0.7419354838709677,11002,002,2023_Dec_29_1740,MFTM_A_new1021,2021.2.3,59.910445865367855,
,,,,,,,,stim/Instruction_adaptive.png,conditions/adaptive.xlsx,test,-0.6,-0.6,-0.6,0.6,0.6,left,L,,,,,0,1,1,1,0,31,31,97,,,,,,,,,,,,,,,,,,,,,,,,,,,,,,,,,,,,,,,,,,,,231.93291319999844,None,right,0,0.669523600001412,232.43319129999873,233.23451670000213,232.43319129999873,232.73374870000407,232.43319129999873,232.73374870000407,232.43319129999873,232.73374870000407,232.43319129999873,232.73374870000407,232.43319129999873,232.73374870000407,232.7176369000008,233.21974110000156,232.7176369000008,233.21974110000156,232.7176369000008,233.21974110000156,232.7176369000008,233.21974110000156,232.7176369000008,233.21974110000156,232.7176369000008,233.21974110000156,232.7176369000008,233.21974110000156,232.7176369000008,233.21974110000156,232.43319129999873,None,233.21974110000156,235.33824090000417,0.30000000000000004,235.35496129999956,None,236.10660410000128,None,,,,,,,[2.1115625],4.2500000000000036,0.71875,11002,002,2023_Dec_29_1740,MFTM_A_new1021,2021.2.3,59.910445865367855,
,,,,,,,,stim/Instruction_adaptive.png,conditions/adaptive.xlsx,test,0.6,0.6,0.6,-0.6,-0.6,right,R,,,,,0,1,1,1,0,32,32,86,,,,,,,,,,,,,,,,,,,,,,,,,,,,,,,,,,,,,,,,,,,,236.60712839999906,None,left,0,1.098655100002361,237.1075564999992,237.96050249999826,237.1075564999992,237.45762739999918,237.1075564999992,237.45762739999918,237.1075564999992,237.45762739999918,237.1075564999992,237.45762739999918,237.1075564999992,237.45762739999918,237.44105500000296,237.94134450000274,237.44105500000296,237.94134450000274,237.44105500000296,237.94134450000274,237.44105500000296,237.94134450000274,237.44105500000296,237.94134450000274,237.44105500000296,237.94134450000274,237.44105500000296,237.94134450000274,237.44105500000296,237.94134450000274,237.1075564999992,None,237.94134450000274,240.06250420000288,0.3500000000000001,240.07808929999737,None,240.82985770000232,None,,,,,,,[2.11272727],4.020000000000003,0.696969696969697,11002,002,2023_Dec_29_1740,MFTM_A_new1021,2021.2.3,59.910445865367855,
,,,,,,,,stim/Instruction_adaptive.png,conditions/adaptive.xlsx,test,0.6,0.6,0.6,-0.6,-0.6,right,R,,,,,0,1,1,1,0,33,33,80,,,,,,,,,,,,,,,,,,,,,,,,,,,,,,,,,,,,,,,,,,,,241.33019310000236,None,right,1,1.1024685000011232,241.8316543999972,242.7490573000032,241.8316543999972,242.24782669999695,241.8316543999972,242.24782669999695,241.8316543999972,242.24782669999695,241.8316543999972,242.24782669999695,241.8316543999972,242.24782669999695,242.23171150000417,242.7318324000007,242.23171150000417,242.7318324000007,242.23171150000417,242.7318324000007,242.23171150000417,242.7318324000007,242.23171150000417,242.7318324000007,242.23171150000417,242.7318324000007,242.23171150000417,242.7318324000007,242.23171150000417,242.7318324000007,241.8316543999972,None,242.7318324000007,None,0.41000000000000014,244.8344075999994,None,245.58677460000035,None,,,,,,,[[2.09]],4.100000000000003,0.7058823529411765,11002,002,2023_Dec_29_1740,MFTM_A_new1021,2021.2.3,59.910445865367855,
,,,,,,,,stim/Instruction_adaptive.png,conditions/adaptive.xlsx,test,0.6,0.6,0.6,-0.6,-0.6,right,R,,,,,0,1,1,1,0,34,34,62,,,,,,,,,,,,,,,,,,,,,,,,,,,,,,,,,,,,,,,,,,,,246.087554800004,None,right,1,1.106632200004242,246.5877313000019,247.47268020000047,246.5877313000019,246.97146700000303,246.5877313000019,246.97146700000303,246.5877313000019,246.97146700000303,246.5877313000019,246.97146700000303,246.5877313000019,246.97146700000303,246.9558720999994,247.45623779999733,246.9558720999994,247.45623779999733,246.9558720999994,247.45623779999733,246.9558720999994,247.45623779999733,246.9558720999994,247.45623779999733,246.9558720999994,247.45623779999733,246.9558720999994,247.45623779999733,246.9558720999994,247.45623779999733,246.5877313000019,None,247.45623779999733,249.57619530000375,0.3800000000000001,249.59214729999803,None,250.34362440000405,None,,,,,,,[2.11228571],4.180000000000003,0.7142857142857143,11002,002,2023_Dec_29_1740,MFTM_A_new1021,2021.2.3,59.910445865367855,
,,,,,,,,stim/Instruction_adaptive.png,conditions/adaptive.xlsx,test,-0.6,-0.6,-0.6,0.6,0.6,left,L,,,,,0,1,1,1,0,35,35,73,,,,,,,,,,,,,,,,,,,,,,,,,,,,,,,,,,,,,,,,,,,,250.8439778000029,None,right,0,1.4457236000016565,251.34445889999915,252.21319790000416,251.34445889999915,251.71200669999962,251.34445889999915,251.71200669999962,251.34445889999915,251.71200669999962,251.34445889999915,251.71200669999962,251.34445889999915,251.71200669999962,251.69584529999702,252.19676880000043,251.69584529999702,252.19676880000043,251.69584529999702,252.19676880000043,251.69584529999702,252.19676880000043,251.69584529999702,252.19676880000043,251.69584529999702,252.19676880000043,251.69584529999702,252.19676880000043,251.69584529999702,252.19676880000043,251.34445889999915,None,252.19676880000043,254.31566770000063,0.3600000000000001,254.33232590000262,None,255.0841692000031,None,,,,,,,[2.11305556],3.9700000000000033,0.6944444444444444,11002,002,2023_Dec_29_1740,MFTM_A_new1021,2021.2.3,59.910445865367855,
,,,,,,,,stim/Instruction_adaptive.png,conditions/adaptive.xlsx,test,-0.6,-0.6,-0.6,0.6,0.6,left,L,,,,,0,1,1,1,0,36,36,53,,,,,,,,,,,,,,,,,,,,,,,,,,,,,,,,,,,,,,,,,,,,255.58412939999835,None,left,1,0.8337153999964357,256.08486699999776,257.00371769999765,256.08486699999776,256.51899440000125,256.08486699999776,256.51899440000125,256.08486699999776,256.51899440000125,256.08486699999776,256.51899440000125,256.08486699999776,256.51899440000125,256.4861858000004,256.98749659999885,256.4861858000004,256.98749659999885,256.4861858000004,256.98749659999885,256.4861858000004,256.98749659999885,256.4861858000004,256.98749659999885,256.4861858000004,256.98749659999885,256.4861858000004,256.98749659999885,256.4861858000004,256.98749659999885,256.08486699999776,None,256.98749659999885,259.07297839999956,0.42000000000000015,259.08944060000067,None,259.8405475999971,None,,,,,,,[[2.08]],4.050000000000003,0.7027027027027027,11002,002,2023_Dec_29_1740,MFTM_A_new1021,2021.2.3,59.910445865367855,
,,,,,,,,stim/Instruction_adaptive.png,conditions/adaptive.xlsx,test,-0.6,-0.6,-0.6,0.6,0.6,left,L,,,,,0,1,1,1,0,37,37,83,,,,,,,,,,,,,,,,,,,,,,,,,,,,,,,,,,,,,,,,,,,,260.34259539999766,None,left,1,0.8527541000003112,260.84193080000114,261.7448981999987,260.84193080000114,261.2427164999972,260.84193080000114,261.2427164999972,260.84193080000114,261.2427164999972,260.84193080000114,261.2427164999972,260.84193080000114,261.2427164999972,261.2261499000015,261.7267303999979,261.2261499000015,261.7267303999979,261.2261499000015,261.7267303999979,261.2261499000015,261.7267303999979,261.2261499000015,261.7267303999979,261.2261499000015,261.7267303999979,261.2261499000015,261.7267303999979,261.2261499000015,261.7267303999979,260.84193080000114,None,261.7267303999979,263.83089740000287,0.40000000000000013,263.8466799000016,None,264.59798299999966,None,,,,,,,[[2.1]],4.120000000000003,0.7105263157894737,11002,002,2023_Dec_29_1740,MFTM_A_new1021,2021.2.3,59.910445865367855,
,,,,,,,,stim/Instruction_adaptive.png,conditions/adaptive.xlsx,test,0.6,0.6,0.6,-0.6,-0.6,right,R,,,,,0,1,1,1,0,38,38,76,,,,,,,,,,,,,,,,,,,,,,,,,,,,,,,,,,,,,,,,,,,,265.0990623000034,None,left,0,1.1998588000060408,265.5990316000025,266.4844918000017,265.5990316000025,265.98381650000374,265.5990316000025,265.98381650000374,265.5990316000025,265.98381650000374,265.5990316000025,265.98381650000374,265.5990316000025,265.98381650000374,265.9663825000025,266.46728760000406,265.9663825000025,266.46728760000406,265.9663825000025,266.46728760000406,265.9663825000025,266.46728760000406,265.9663825000025,266.46728760000406,265.9663825000025,266.46728760000406,265.9663825000025,266.46728760000406,265.9663825000025,266.46728760000406,265.5990316000025,None,266.46728760000406,268.5877676000018,0.3800000000000001,268.60412989999895,None,269.3549897999983,None,,,,,,,[2.11205128],3.910000000000003,0.6923076923076923,11002,002,2023_Dec_29_1740,MFTM_A_new1021,2021.2.3,59.910445865367855,
,,,,,,,,stim/Instruction_adaptive.png,conditions/adaptive.xlsx,test,-0.6,-0.6,-0.6,0.6,0.6,left,L,,,,,0,1,1,1,0,39,39,69,,,,,,,,,,,,,,,,,,,,,,,,,,,,,,,,,,,,,,,,,,,,269.8552304000041,None,right,0,0.9698863999947207,270.356332000003,271.3085427000042,270.356332000003,270.80703319999884,270.356332000003,270.80703319999884,270.356332000003,270.80703319999884,270.356332000003,270.80703319999884,270.356332000003,270.80703319999884,270.7731930000009,271.27422579999984,270.7731930000009,271.27422579999984,270.7731930000009,271.27422579999984,270.7731930000009,271.27422579999984,270.7731930000009,271.27422579999984,270.7731930000009,271.27422579999984,270.7731930000009,271.27422579999984,270.7731930000009,271.27422579999984,270.356332000003,None,271.27422579999984,273.34391999999934,0.44000000000000017,273.360574600003,None,274.1129731000037,None,,,,,,,[[2.06]],3.680000000000003,0.675,11002,002,2023_Dec_29_1740,MFTM_A_new1021,2021.2.3,59.910445865367855,
,,,,,,,,stim/Instruction_adaptive.png,conditions/adaptive.xlsx,test,-0.6,-0.6,-0.6,0.6,0.6,left,L,,,,,0,1,1,1,0,40,40,3,,,,,,,,,,,,,,,,,,,,,,,,,,,,,,,,,,,,,,,,,,,,274.61325950000173,None,right,0,1.3643880000017816,275.1136744000032,276.1330889000019,275.1136744000032,275.6306356999994,275.1136744000032,275.6306356999994,275.1136744000032,275.6306356999994,275.1136744000032,275.6306356999994,275.1136744000032,275.6306356999994,275.5974847000034,276.09841640000377,275.5974847000034,276.09841640000377,275.5974847000034,276.09841640000377,275.5974847000034,276.09841640000377,275.5974847000034,276.09841640000377,275.5974847000034,276.09841640000377,275.5974847000034,276.09841640000377,275.5974847000034,276.09841640000377,275.1136744000032,None,276.09841640000377,278.1009484000024,0.5100000000000002,278.11750700000266,None,278.8687543999986,None,,,,,,,[[1.99]],3.410000000000003,0.6585365853658537,11002,002,2023_Dec_29_1740,MFTM_A_new1021,2021.2.3,59.910445865367855,
,,,,,,,,stim/Instruction_adaptive.png,conditions/adaptive.xlsx,test,-0.6,-0.6,-0.6,0.6,0.6,left,L,,,,,0,1,1,1,0,41,41,45,,,,,,,,,,,,,,,,,,,,,,,,,,,,,,,,,,,,,,,,,,,,279.3708783000038,None,right,0,1.1530194000006304,279.8703871999969,281.0059573000035,279.8703871999969,280.50439840000035,279.8703871999969,280.50439840000035,279.8703871999969,280.50439840000035,279.8703871999969,280.50439840000035,279.8703871999969,280.50439840000035,280.47097580000263,280.97246460000315,280.47097580000263,280.97246460000315,280.47097580000263,280.97246460000315,280.47097580000263,280.97246460000315,280.47097580000263,280.97246460000315,280.47097580000263,280.97246460000315,280.47097580000263,280.97246460000315,280.47097580000263,280.97246460000315,279.8703871999969,None,280.97246460000315,282.8597679000013,0.6200000000000003,282.87454550000257,None,283.62715169999865,None,,,,,,,[[1.88]],3.0800000000000023,0.6428571428571429,11002,002,2023_Dec_29_1740,MFTM_A_new1021,2021.2.3,59.910445865367855,
,,,,,,,,stim/Instruction_adaptive.png,conditions/adaptive.xlsx,test,0.6,0.6,0.6,-0.6,-0.6,right,R,,,,,0,1,1,1,0,42,42,48,,,,,,,,,,,,,,,,,,,,,,,,,,,,,,,,,,,,,,,,,,,,284.1267203000025,None,right,1,1.130798700003652,284.62735149999935,285.9144773000007,284.62735149999935,285.41254630000185,284.62735149999935,285.41254630000185,284.62735149999935,285.41254630000185,284.62735149999935,285.41254630000185,284.62735149999935,285.41254630000185,285.39516130000266,285.8961705999973,285.39516130000266,285.8961705999973,285.39516130000266,285.8961705999973,285.39516130000266,285.8961705999973,285.39516130000266,285.8961705999973,285.39516130000266,285.8961705999973,285.39516130000266,285.8961705999973,285.39516130000266,285.8961705999973,284.62735149999935,None,285.8961705999973,287.6158834000016,0.7800000000000005,287.63177030000224,None,288.3826095999975,None,,,,,,,[[1.72]],3.2100000000000026,0.6511627906976745,11002,002,2023_Dec_29_1740,MFTM_A_new1021,2021.2.3,59.910445865367855,
,,,,,,,,stim/Instruction_adaptive.png,conditions/adaptive.xlsx,test,0.6,0.6,0.6,-0.6,-0.6,right,R,,,,,0,1,1,1,0,43,43,26,,,,,,,,,,,,,,,,,,,,,,,,,,,,,,,,,,,,,,,,,,,,288.88428569999814,None,left,0,1.1490889000051538,289.38510680000036,290.60313080000196,289.38510680000036,290.102724999997,289.38510680000036,290.102724999997,289.38510680000036,290.102724999997,289.38510680000036,290.102724999997,289.38510680000036,290.102724999997,290.0853704999972,290.5869163000025,290.0853704999972,290.5869163000025,290.0853704999972,290.5869163000025,290.0853704999972,290.5869163000025,290.0853704999972,290.5869163000025,290.0853704999972,290.5869163000025,290.0853704999972,290.5869163000025,290.0853704999972,290.5869163000025,289.38510680000036,None,290.5702400000009,292.37230499999714,0.7100000000000004,292.3887925000017,None,293.1409453000015,None,,,,,,,[[1.79]],2.8500000000000023,0.6363636363636364,11002,002,2023_Dec_29_1740,MFTM_A_new1021,2021.2.3,59.910445865367855,
,,,,,,,,stim/Instruction_adaptive.png,conditions/adaptive.xlsx,test,-0.6,-0.6,-0.6,0.6,0.6,left,L,,,,,0,1,1,1,0,44,44,47,,,,,,,,,,,,,,,,,,,,,,,,,,,,,,,,,,,,,,,,,,,,293.64145129999815,None,right,0,1.7525806999983615,294.14208399999916,295.5601969999989,294.14208399999916,295.06003890000284,294.14208399999916,295.06003890000284,294.14208399999916,295.06003890000284,294.14208399999916,295.06003890000284,294.14208399999916,295.06003890000284,295.0433553999974,295.5434518000038,295.0433553999974,295.5434518000038,295.0433553999974,295.5434518000038,295.0433553999974,295.5434518000038,295.0433553999974,295.5434518000038,295.0433553999974,295.5434518000038,295.0433553999974,295.5434518000038,295.0433553999974,295.5434518000038,294.14208399999916,None,295.5434518000038,None,0.9100000000000006,297.14641349999874,None,297.8978561999975,None,,,,,,,[[1.59]],2.3900000000000015,0.6222222222222222,11002,002,2023_Dec_29_1740,MFTM_A_new1021,2021.2.3,59.910445865367855,
,,,,,,,,stim/Instruction_adaptive.png,conditions/adaptive.xlsx,test,0.6,0.6,0.6,-0.6,-0.6,right,R,,,,,0,1,1,1,0,45,45,78,,,,,,,,,,,,,,,,,,,,,,,,,,,,,,,,,,,,,,,,,,,,298.3982643999989,None,left,0,1.4515821000022697,298.8987304999973,300.66770279999764,298.8987304999973,300.1673019000009,298.8987304999973,300.1673019000009,298.8987304999973,300.1673019000009,298.8987304999973,300.1673019000009,298.8987304999973,300.1673019000009,300.15052480000304,300.6511920999983,300.15052480000304,300.6511920999983,300.15052480000304,300.6511920999983,300.15052480000304,300.6511920999983,300.15052480000304,300.6511920999983,300.15052480000304,300.6511920999983,300.15052480000304,300.6511920999983,300.15052480000304,300.6511920999983,298.8987304999973,None,300.6350289999973,301.88630209999974,1.260000000000001,301.9034384999977,None,302.653997399997,None,,,,,,,[[1.24]],1.690000000000001,0.6086956521739131,11002,002,2023_Dec_29_1740,MFTM_A_new1021,2021.2.3,59.910445865367855,
,,,,,,,,stim/Instruction_adaptive.png,conditions/adaptive.xlsx,test,-0.6,-0.6,-0.6,0.6,0.6,left,L,,,,,0,1,1,1,0,46,46,71,,,,,,,,,,,,,,,,,,,,,,,,,,,,,,,,,,,,,,,,,,,,303.1553705999977,None,left,1,1.046912699996028,303.65552050000406,306.2094378999973,303.65552050000406,305.70867089999956,303.65552050000406,305.70867089999956,303.65552050000406,305.70867089999956,303.65552050000406,305.70867089999956,303.65552050000406,305.70867089999956,305.6756585000039,306.176123199999,305.6756585000039,306.176123199999,305.6756585000039,306.176123199999,305.6756585000039,306.176123199999,305.6756585000039,306.176123199999,305.6756585000039,306.176123199999,305.6756585000039,306.176123199999,305.6756585000039,306.176123199999,303.65552050000406,None,306.176123199999,306.6441625000007,2.040000000000002,306.6600436000008,None,307.41113829999813,None,,,,,,,[[0.46]],2.0000000000000013,0.6170212765957447,11002,002,2023_Dec_29_1740,MFTM_A_new1021,2021.2.3,59.910445865367855,
,,,,,,,,stim/Instruction_adaptive.png,conditions/adaptive.xlsx,test,0.6,0.6,0.6,-0.6,-0.6,right,R,,,,,0,1,1,1,0,47,47,72,,,,,,,,,,,,,,,,,,,,,,,,,,,,,,,,,,,,,,,,,,,,307.9126025000005,None,right,1,1.8657755999956862,308.4127385000029,310.5663970000023,308.4127385000029,310.065637300002,308.4127385000029,310.065637300002,308.4127385000029,310.065637300002,308.4127385000029,310.065637300002,308.4127385000029,310.065637300002,310.03242260000115,310.53322579999804,310.03242260000115,310.53322579999804,310.03242260000115,310.53322579999804,310.03242260000115,310.53322579999804,310.03242260000115,310.53322579999804,310.03242260000115,310.53322579999804,310.03242260000115,310.53322579999804,310.03242260000115,310.53322579999804,308.4127385000029,None,310.53322579999804,311.4004625000016,1.6400000000000012,311.41766140000254,None,312.16886160000286,None,,,,,,,[[0.86]],2.2200000000000015,0.625,11002,002,2023_Dec_29_1740,MFTM_A_new1021,2021.2.3,59.910445865367855,
,,,,,,,,stim/Instruction_adaptive.png,conditions/adaptive.xlsx,test,-0.6,-0.6,-0.6,0.6,0.6,left,L,,,,,0,1,1,1,0,48,48,17,,,,,,,,,,,,,,,,,,,,,,,,,,,,,,,,,,,,,,,,,,,,312.6693230000019,None,right,0,1.8284937999997055,313.1696899000017,315.08918590000394,313.1696899000017,314.5894077999983,313.1696899000017,314.5894077999983,313.1696899000017,314.5894077999983,313.1696899000017,314.5894077999983,313.1696899000017,314.5894077999983,314.55505450000055,315.0566390000022,314.55505450000055,315.0566390000022,314.55505450000055,315.0566390000022,314.55505450000055,315.0566390000022,314.55505450000055,315.0566390000022,314.55505450000055,315.0566390000022,314.55505450000055,315.0566390000022,314.55505450000055,315.0566390000022,313.1696899000017,None,315.0566390000022,316.15793929999927,1.410000000000001,316.1734847999978,None,316.92529160000413,None,,,,,,,[[1.09]],1.660000000000001,0.6122448979591837,11002,002,2023_Dec_29_1740,MFTM_A_new1021,2021.2.3,59.910445865367855,
,,,,,,,,stim/Instruction_adaptive.png,conditions/adaptive.xlsx,test,0.6,0.6,0.6,-0.6,-0.6,right,R,,,,,0,1,1,1,0,49,49,66,,,,,,,,,,,,,,,,,,,,,,,,,,,,,,,,,,,,,,,,,,,,317.42603200000303,None,right,1,2.0316688000020804,317.92660839999735,320.5146278000029,317.92660839999735,320.01382430000376,317.92660839999735,320.01382430000376,317.92660839999735,320.01382430000376,317.92660839999735,320.01382430000376,317.92660839999735,320.01382430000376,319.996696000002,320.49719280000136,319.996696000002,320.49719280000136,319.996696000002,320.49719280000136,319.996696000002,320.49719280000136,319.996696000002,320.49719280000136,319.996696000002,320.49719280000136,319.996696000002,320.49719280000136,319.996696000002,320.49719280000136,317.92660839999735,None,320.49719280000136,None,2.080000000000002,320.9310689999984,None,321.68233950000285,None,,,,,,,[[0.42]],1.9000000000000012,0.62,11002,002,2023_Dec_29_1740,MFTM_A_new1021,2021.2.3,59.910445865367855,
,,,,,,,,stim/Instruction_adaptive.png,conditions/adaptive.xlsx,test,0.6,0.6,0.6,-0.6,-0.6,right,R,,,,,0,1,1,1,0,50,50,90,,,,,,,,,,,,,,,,,,,,,,,,,,,,,,,,,,,,,,,,,,,,322.1831646999999,None,right,1,1.5305691000030492,322.68369050000183,324.95422900000267,322.68369050000183,324.45427259999997,322.68369050000183,324.45427259999997,322.68369050000183,324.45427259999997,322.68369050000183,324.45427259999997,322.68369050000183,324.45427259999997,324.41964780000126,324.921717600002,324.41964780000126,324.921717600002,324.41964780000126,324.921717600002,324.41964780000126,324.921717600002,324.41964780000126,324.921717600002,324.41964780000126,324.921717600002,324.41964780000126,324.921717600002,324.41964780000126,324.921717600002,322.68369050000183,None,324.921717600002,325.67184960000304,1.7600000000000013,325.6882446000018,None,326.4393428999974,None,,,,,,,[[0.74]],2.070000000000001,0.6274509803921569,11002,002,2023_Dec_29_1740,MFTM_A_new1021,2021.2.3,59.910445865367855,
,,,,,,,,stim/Instruction_adaptive.png,conditions/adaptive.xlsx,test,-0.6,-0.6,-0.6,0.6,0.6,left,L,,,,,0,1,1,1,0,51,51,99,,,,,,,,,,,,,,,,,,,,,,,,,,,,,,,,,,,,,,,,,,,,326.9411462999997,None,right,0,1.8454530000017257,327.44069650000165,329.51177879999886,327.44069650000165,329.009785000002,327.44069650000165,329.009785000002,327.44069650000165,329.009785000002,327.44069650000165,329.009785000002,327.44069650000165,329.009785000002,328.99366290000034,329.4950966000033,328.99366290000034,329.4950966000033,328.99366290000034,329.4950966000033,328.99366290000034,329.4950966000033,328.99366290000034,329.4950966000033,328.99366290000034,329.4950966000033,328.99366290000034,329.4950966000033,328.99366290000034,329.4950966000033,327.44069650000165,None,329.4950966000033,330.42889209999703,1.5700000000000012,330.4451212999993,None,331.19697019999876,None,,,,,,,[[0.93]],1.600000000000001,0.6153846153846154,11002,002,2023_Dec_29_1740,MFTM_A_new1021,2021.2.3,59.910445865367855,
,,,,,,,,stim/Instruction_adaptive.png,conditions/adaptive.xlsx,test,0.6,0.6,0.6,-0.6,-0.6,right,R,,,,,0,1,1,1,0,52,52,0,,,,,,,,,,,,,,,,,,,,,,,,,,,,,,,,,,,,,,,,,,,,331.6977876000019,None,right,1,1.9845276000050944,332.1976947000003,334.8692080999972,332.1976947000003,334.3678071000031,332.1976947000003,334.3678071000031,332.1976947000003,334.3678071000031,332.1976947000003,334.3678071000031,332.1976947000003,334.3678071000031,334.35192670000106,334.85308839999925,334.35192670000106,334.85308839999925,334.35192670000106,334.85308839999925,334.35192670000106,334.85308839999925,334.35192670000106,334.85308839999925,334.35192670000106,334.85308839999925,334.35192670000106,334.85308839999925,334.35192670000106,334.85308839999925,332.1976947000003,None,334.85308839999925,335.1861721000023,2.1700000000000017,335.2026036000025,None,335.9538995000039,None,,,,,,,[[0.33]],1.7900000000000011,0.6226415094339622,11002,002,2023_Dec_29_1740,MFTM_A_new1021,2021.2.3,59.910445865367855,
,,,,,,,,stim/Instruction_adaptive.png,conditions/adaptive.xlsx,test,0.6,0.6,0.6,-0.6,-0.6,right,R,,,,,0,1,1,1,0,53,53,28,,,,,,,,,,,,,,,,,,,,,,,,,,,,,,,,,,,,,,,,,,,,336.4550937000022,None,right,1,1.7945934000017587,336.9556135000021,339.35915560000285,336.9556135000021,338.8582832000029,336.9556135000021,338.8582832000029,336.9556135000021,338.8582832000029,336.9556135000021,338.8582832000029,336.9556135000021,338.8582832000029,338.8410042000032,339.3416628999985,338.8410042000032,339.3416628999985,338.8410042000032,339.3416628999985,338.8410042000032,339.3416628999985,338.8410042000032,339.3416628999985,338.8410042000032,339.3416628999985,338.8410042000032,339.3416628999985,338.8410042000032,339.3416628999985,336.9556135000021,None,339.3416628999985,339.94361560000107,1.9000000000000015,339.95932670000184,None,340.7104752000014,None,,,,,,,[[0.6]],1.9400000000000013,0.6296296296296297,11002,002,2023_Dec_29_1740,MFTM_A_new1021,2021.2.3,59.910445865367855,
,,,,,,,,stim/Instruction_adaptive.png,conditions/adaptive.xlsx,test,0.6,0.6,0.6,-0.6,-0.6,right,R,,,,,0,1,1,1,0,54,54,52,,,,,,,,,,,,,,,,,,,,,,,,,,,,,,,,,,,,,,,,,,,,341.21144910000294,None,right,1,1.2704627999992226,341.7119506000017,343.93180170000414,341.7119506000017,343.43149149999954,341.7119506000017,343.43149149999954,341.7119506000017,343.43149149999954,341.7119506000017,343.43149149999954,341.7119506000017,343.43149149999954,343.41429269999935,343.91560670000035,343.41429269999935,343.91560670000035,343.41429269999935,343.91560670000035,343.41429269999935,343.91560670000035,343.41429269999935,343.91560670000035,343.41429269999935,343.91560670000035,343.41429269999935,343.91560670000035,343.41429269999935,343.91560670000035,341.7119506000017,None,343.8992264999979,344.69958079999924,1.7100000000000013,344.71634440000344,None,345.46730959999695,None,,,,,,,[[0.79]],2.070000000000001,0.6363636363636364,11002,002,2023_Dec_29_1740,MFTM_A_new1021,2021.2.3,59.910445865367855,
,,,,,,,,stim/Instruction_adaptive.png,conditions/adaptive.xlsx,test,0.6,0.6,0.6,-0.6,-0.6,right,R,,,,,0,1,1,1,0,55,55,68,,,,,,,,,,,,,,,,,,,,,,,,,,,,,,,,,,,,,,,,,,,,345.96921609999845,None,right,1,1.7542193999979645,346.46904950000317,348.5396538999994,346.46904950000317,348.0391222000035,346.46904950000317,348.0391222000035,346.46904950000317,348.0391222000035,346.46904950000317,348.0391222000035,346.46904950000317,348.0391222000035,348.02187609999964,348.52221070000087,348.02187609999964,348.52221070000087,348.02187609999964,348.52221070000087,348.02187609999964,348.52221070000087,348.02187609999964,348.52221070000087,348.02187609999964,348.52221070000087,348.02187609999964,348.52221070000087,348.02187609999964,348.52221070000087,346.46904950000317,None,348.52221070000087,349.4575511000003,1.5700000000000012,349.47450519999984,None,350.22566150000057,None,,,,,,,[[0.93]],2.1800000000000015,0.6428571428571429,11002,002,2023_Dec_29_1740,MFTM_A_new1021,2021.2.3,59.910445865367855,
,,,,,,,,stim/Instruction_adaptive.png,conditions/adaptive.xlsx,test,0.6,0.6,0.6,-0.6,-0.6,right,R,,,,,0,1,1,1,0,56,56,46,,,,,,,,,,,,,,,,,,,,,,,,,,,,,,,,,,,,,,,,,,,,350.72534019999875,None,right,1,2.0682384000028833,351.22605949999706,353.17897780000203,351.22605949999706,352.6781900999995,351.22605949999706,352.6781900999995,351.22605949999706,352.6781900999995,351.22605949999706,352.6781900999995,351.22605949999706,352.6781900999995,352.6615166999982,353.1632006,352.6615166999982,353.1632006,352.6615166999982,353.1632006,352.6615166999982,353.1632006,352.6615166999982,353.1632006,352.6615166999982,353.1632006,352.6615166999982,353.1632006,352.6615166999982,353.1632006,351.22605949999706,None,353.1632006,354.21509080000396,1.450000000000001,354.23041560000274,None,354.98303560000204,None,,,,,,,[[1.05]],2.2700000000000014,0.6491228070175439,11002,002,2023_Dec_29_1740,MFTM_A_new1021,2021.2.3,59.910445865367855,
,,,,,,,,stim/Instruction_adaptive.png,conditions/adaptive.xlsx,test,0.6,0.6,0.6,-0.6,-0.6,right,R,,,,,0,1,1,1,0,57,57,92,,,,,,,,,,,,,,,,,,,,,,,,,,,,,,,,,,,,,,,,,,,,355.4823603000041,None,right,1,1.6705670999945141,355.98366089999763,357.8536521999995,355.98366089999763,357.3518897000031,355.98366089999763,357.3518897000031,355.98366089999763,357.3518897000031,355.98366089999763,357.3518897000031,355.98366089999763,357.3518897000031,357.3348591000031,357.83589960000245,357.3348591000031,357.83589960000245,357.3348591000031,357.83589960000245,357.3348591000031,357.83589960000245,357.3348591000031,357.83589960000245,357.3348591000031,357.83589960000245,357.3348591000031,357.83589960000245,357.3348591000031,357.83589960000245,355.98366089999763,None,357.81913019999774,358.97175589999824,1.360000000000001,358.9882987000019,None,359.73947279999993,None,,,,,,,[[1.14]],2.3600000000000017,0.6551724137931034,11002,002,2023_Dec_29_1740,MFTM_A_new1021,2021.2.3,59.910445865367855,
,,,,,,,,stim/Instruction_adaptive.png,conditions/adaptive.xlsx,test,0.6,0.6,0.6,-0.6,-0.6,right,R,,,,,0,1,1,1,0,58,58,82,,,,,,,,,,,,,,,,,,,,,,,,,,,,,,,,,,,,,,,,,,,,360.2394767000005,None,left,0,1.5778128999954788,360.74045130000013,362.52655770000274,360.74045130000013,362.0259874999974,360.74045130000013,362.0259874999974,360.74045130000013,362.0259874999974,360.74045130000013,362.0259874999974,360.74045130000013,362.0259874999974,362.00925930000085,362.5099448999972,362.00925930000085,362.5099448999972,362.00925930000085,362.5099448999972,362.00925930000085,362.5099448999972,362.00925930000085,362.5099448999972,362.00925930000085,362.5099448999972,362.00925930000085,362.5099448999972,362.00925930000085,362.5099448999972,360.74045130000013,None,362.5099448999972,None,1.280000000000001,363.74430030000076,None,364.49568230000295,None,,,,,,,[[1.22]],2.1200000000000014,0.6440677966101694,11002,002,2023_Dec_29_1740,MFTM_A_new1021,2021.2.3,59.910445865367855,
,,,,,,,,stim/Instruction_adaptive.png,conditions/adaptive.xlsx,test,-0.6,-0.6,-0.6,0.6,0.6,left,L,,,,,0,1,1,1,0,59,59,11,,,,,,,,,,,,,,,,,,,,,,,,,,,,,,,,,,,,,,,,,,,,364.9971472000034,None,left,1,2.493378599996504,365.4970828000005,367.51745030000166,365.4970828000005,367.01714370000263,365.4970828000005,367.01714370000263,365.4970828000005,367.01714370000263,365.4970828000005,367.01714370000263,365.4970828000005,367.01714370000263,366.9826713000002,367.48337860000174,366.9826713000002,367.48337860000174,366.9826713000002,367.48337860000174,366.9826713000002,367.48337860000174,366.9826713000002,367.48337860000174,366.9826713000002,367.48337860000174,366.9826713000002,367.48337860000174,366.9826713000002,367.48337860000174,365.4970828000005,None,367.48337860000174,368.48547210000106,1.5100000000000011,368.50226490000205,None,369.25249769999937,None,,,,,,,[[0.99]],2.2100000000000017,0.65,11002,002,2023_Dec_29_1740,MFTM_A_new1021,2021.2.3,59.910445865367855,
,,,,,,,,stim/Instruction_adaptive.png,conditions/adaptive.xlsx,test,-0.6,-0.6,-0.6,0.6,0.6,left,L,,,,,0,1,1,1,0,60,60,85,,,,,,,,,,,,,,,,,,,,,,,,,,,,,,,,,,,,,,,,,,,,369.7545538999984,None,left,1,1.1921976000012364,370.2542514000015,372.17348330000095,370.2542514000015,371.6898512999978,370.2542514000015,371.6898512999978,370.2542514000015,371.6898512999978,370.2542514000015,371.6898512999978,370.2542514000015,371.6898512999978,371.6560430000027,372.15739430000394,371.6560430000027,372.15739430000394,371.6560430000027,372.15739430000394,371.6560430000027,372.15739430000394,371.6560430000027,372.15739430000394,371.6560430000027,372.15739430000394,371.6560430000027,372.15739430000394,371.6560430000027,372.15739430000394,370.2542514000015,None,372.15739430000394,373.242620099998,1.420000000000001,373.2587721000018,None,374.0105119,None,,,,,,,[[1.08]],2.290000000000002,0.6557377049180327,11002,002,2023_Dec_29_1740,MFTM_A_new1021,2021.2.3,59.910445865367855,
,,,,,,,,stim/Instruction_adaptive.png,conditions/adaptive.xlsx,test,0.6,0.6,0.6,-0.6,-0.6,right,R,,,,,0,1,1,1,0,61,61,70,,,,,,,,,,,,,,,,,,,,,,,,,,,,,,,,,,,,,,,,,,,,374.51134679999814,None,right,1,1.7391866000034497,375.0115014999974,376.8646047000002,375.0115014999974,376.3639105999973,375.0115014999974,376.3639105999973,375.0115014999974,376.3639105999973,375.0115014999974,376.3639105999973,375.0115014999974,376.3639105999973,376.34664870000415,376.84744769999816,376.34664870000415,376.84744769999816,376.34664870000415,376.84744769999816,376.34664870000415,376.84744769999816,376.34664870000415,376.84744769999816,376.34664870000415,376.84744769999816,376.34664870000415,376.84744769999816,376.34664870000415,376.84744769999816,375.0115014999974,None,376.84744769999816,377.9996631000031,1.350000000000001,378.0164253999974,None,378.7675378999993,None,,,,,,,[[1.15]],2.3600000000000017,0.6612903225806451,11002,002,2023_Dec_29_1740,MFTM_A_new1021,2021.2.3,59.910445865367855,
,,,,,,,,stim/Instruction_adaptive.png,conditions/adaptive.xlsx,test,-0.6,-0.6,-0.6,0.6,0.6,left,L,,,,,0,1,1,1,0,62,62,75,,,,,,,,,,,,,,,,,,,,,,,,,,,,,,,,,,,,,,,,,,,,379.26758249999693,None,left,1,1.5095823000010569,379.76865810000163,381.55418449999706,379.76865810000163,381.053645400003,379.76865810000163,381.053645400003,379.76865810000163,381.053645400003,379.76865810000163,381.053645400003,379.76865810000163,381.053645400003,381.036989500004,381.53754969999864,381.036989500004,381.53754969999864,381.036989500004,381.53754969999864,381.036989500004,381.53754969999864,381.036989500004,381.53754969999864,381.036989500004,381.53754969999864,381.036989500004,381.53754969999864,381.036989500004,381.53754969999864,379.76865810000163,None,381.53754969999864,382.7571687000018,1.280000000000001,382.7731119000018,None,383.5239995000011,None,,,,,,,[[1.22]],2.4300000000000015,0.6666666666666666,11002,002,2023_Dec_29_1740,MFTM_A_new1021,2021.2.3,59.910445865367855,
,,,,,,,,stim/Instruction_adaptive.png,conditions/adaptive.xlsx,test,-0.6,-0.6,-0.6,0.6,0.6,left,L,,,,,0,1,1,1,0,63,63,9,,,,,,,,,,,,,,,,,,,,,,,,,,,,,,,,,,,,,,,,,,,,384.02453100000275,None,left,1,2.1289217000012286,384.52543909999804,386.2452942000018,384.52543909999804,385.7605517999982,384.52543909999804,385.7605517999982,384.52543909999804,385.7605517999982,384.52543909999804,385.7605517999982,384.52543909999804,385.7605517999982,385.7271936000034,386.22803170000407,385.7271936000034,386.22803170000407,385.7271936000034,386.22803170000407,385.7271936000034,386.22803170000407,385.7271936000034,386.22803170000407,385.7271936000034,386.22803170000407,385.7271936000034,386.22803170000407,385.7271936000034,386.22803170000407,384.52543909999804,None,386.22803170000407,387.51311559999886,1.2200000000000009,387.5297514999984,None,388.2816097000032,None,,,,,,,[[1.28]],2.490000000000002,0.671875,11002,002,2023_Dec_29_1740,MFTM_A_new1021,2021.2.3,59.910445865367855,
,,,,,,,,stim/Instruction_adaptive.png,conditions/adaptive.xlsx,test,0.6,0.6,0.6,-0.6,-0.6,right,R,,,,,0,1,1,1,0,64,64,4,,,,,,,,,,,,,,,,,,,,,,,,,,,,,,,,,,,,,,,,,,,,388.78221060000214,None,right,1,2.3391379000022425,389.28301540000393,390.95312679999915,389.28301540000393,390.4674814000027,389.28301540000393,390.4674814000027,389.28301540000393,390.4674814000027,389.28301540000393,390.4674814000027,389.28301540000393,390.4674814000027,390.43431930000224,390.93590969999786,390.43431930000224,390.93590969999786,390.43431930000224,390.93590969999786,390.43431930000224,390.93590969999786,390.43431930000224,390.93590969999786,390.43431930000224,390.93590969999786,390.43431930000224,390.93590969999786,390.43431930000224,390.93590969999786,389.28301540000393,None,390.93590969999786,392.2703384999986,1.1700000000000008,392.2869095999995,None,393.03866689999995,None,,,,,,,[[1.33]],2.540000000000002,0.676923076923077,11002,002,2023_Dec_29_1740,MFTM_A_new1021,2021.2.3,59.910445865367855,
,,,,,,,,stim/Instruction_adaptive.png,conditions/adaptive.xlsx,test,-0.6,-0.6,-0.6,0.6,0.6,left,L,,,,,0,1,1,1,0,65,65,57,,,,,,,,,,,,,,,,,,,,,,,,,,,,,,,,,,,,,,,,,,,,393.5392873000019,None,left,1,2.5832201999946847,394.03928850000375,395.6750439000025,394.03928850000375,395.1746787000011,394.03928850000375,395.1746787000011,394.03928850000375,395.1746787000011,394.03928850000375,395.1746787000011,394.03928850000375,395.1746787000011,395.1584626999975,395.6591834999999,395.1584626999975,395.6591834999999,395.1584626999975,395.6591834999999,395.1584626999975,395.6591834999999,395.1584626999975,395.6591834999999,395.1584626999975,395.6591834999999,395.1584626999975,395.6591834999999,395.1584626999975,395.6591834999999,394.03928850000375,None,395.6591834999999,397.02801129999716,1.1300000000000008,397.0432776000016,None,397.7957699000035,None,,,,,,,[[1.37]],2.600000000000002,0.6818181818181818,11002,002,2023_Dec_29_1740,MFTM_A_new1021,2021.2.3,59.910445865367855,
,,,,,,,,stim/Instruction_adaptive.png,conditions/adaptive.xlsx,test,-0.6,-0.6,-0.6,0.6,0.6,left,L,,,,,0,1,1,1,0,66,66,29,,,,,,,,,,,,,,,,,,,,,,,,,,,,,,,,,,,,,,,,,,,,398.29574619999767,None,right,0,1.6096962000010535,398.79668089999905,400.39912390000245,398.79668089999905,399.89953940000123,398.79668089999905,399.89953940000123,398.79668089999905,399.89953940000123,398.79668089999905,399.89953940000123,398.79668089999905,399.89953940000123,399.8648392000032,400.36606459999894,399.8648392000032,400.36606459999894,399.8648392000032,400.36606459999894,399.8648392000032,400.36606459999894,399.8648392000032,400.36606459999894,399.8648392000032,400.36606459999894,399.8648392000032,400.36606459999894,399.8648392000032,400.36606459999894,398.79668089999905,None,400.36606459999894,401.7855686999974,1.0900000000000007,401.8003005999999,None,402.5526938999974,None,,,,,,,[[1.41]],2.4400000000000017,0.6716417910447762,11002,002,2023_Dec_29_1740,MFTM_A_new1021,2021.2.3,59.910445865367855,
,,,,,,,,stim/Instruction_adaptive.png,conditions/adaptive.xlsx,test,-0.6,-0.6,-0.6,0.6,0.6,left,L,,,,,0,1,1,1,0,67,67,81,,,,,,,,,,,,,,,,,,,,,,,,,,,,,,,,,,,,,,,,,,,,403.05377959999896,None,left,1,1.4690319000001182,403.553496499997,405.2728270000007,403.553496499997,404.7720103000029,403.553496499997,404.7720103000029,403.553496499997,404.7720103000029,403.553496499997,404.7720103000029,403.553496499997,404.7720103000029,404.7554225999993,405.2561302000031,404.7554225999993,405.2561302000031,404.7554225999993,405.2561302000031,404.7554225999993,405.2561302000031,404.7554225999993,405.2561302000031,404.7554225999993,405.2561302000031,404.7554225999993,405.2561302000031,404.7554225999993,405.2561302000031,403.553496499997,None,405.2561302000031,None,1.2100000000000009,406.55780349999986,None,407.30952139999863,None,,,,,,,[[1.29]],2.5000000000000018,0.6764705882352942,11002,002,2023_Dec_29_1740,MFTM_A_new1021,2021.2.3,59.910445865367855,
,,,,,,,,stim/Instruction_adaptive.png,conditions/adaptive.xlsx,test,0.6,0.6,0.6,-0.6,-0.6,right,R,,,,,0,1,1,1,0,68,68,74,,,,,,,,,,,,,,,,,,,,,,,,,,,,,,,,,,,,,,,,,,,,407.81050530000357,None,left,0,2.0559663999956683,408.3105569000036,409.9804823000013,408.3105569000036,409.4789146999974,408.3105569000036,409.4789146999974,408.3105569000036,409.4789146999974,408.3105569000036,409.4789146999974,408.3105569000036,409.4789146999974,409.4632844000007,409.9638675000024,409.4632844000007,409.9638675000024,409.4632844000007,409.9638675000024,409.4632844000007,409.9638675000024,409.4632844000007,409.9638675000024,409.4632844000007,409.9638675000024,409.4632844000007,409.9638675000024,409.4632844000007,409.9638675000024,408.3105569000036,None,409.9463895000008,411.29829730000347,1.1600000000000008,411.31510100000014,None,412.0667824999982,None,,,,,,,[[1.34]],2.3400000000000016,0.6666666666666666,11002,002,2023_Dec_29_1740,MFTM_A_new1021,2021.2.3,59.910445865367855,
,,,,,,,,stim/Instruction_adaptive.png,conditions/adaptive.xlsx,test,0.6,0.6,0.6,-0.6,-0.6,right,R,,,,,0,1,1,1,0,69,69,30,,,,,,,,,,,,,,,,,,,,,,,,,,,,,,,,,,,,,,,,,,,,412.5681175999998,None,left,0,2.2905148999998346,413.0677528000015,414.87068179999915,413.0677528000015,414.3695093999995,413.0677528000015,414.3695093999995,413.0677528000015,414.3695093999995,413.0677528000015,414.3695093999995,413.0677528000015,414.3695093999995,414.35299400000076,414.854164700002,414.35299400000076,414.854164700002,414.35299400000076,414.854164700002,414.35299400000076,414.854164700002,414.35299400000076,414.854164700002,414.35299400000076,414.854164700002,414.35299400000076,414.854164700002,414.35299400000076,414.854164700002,413.0677528000015,None,414.854164700002,416.0564968000035,1.300000000000001,416.0720852000013,None,416.8232444000023,None,,,,,,,[[1.2]],2.1700000000000017,0.6571428571428571,11002,002,2023_Dec_29_1740,MFTM_A_new1021,2021.2.3,59.910445865367855,
,,,,,,,,stim/Instruction_adaptive.png,conditions/adaptive.xlsx,test,-0.6,-0.6,-0.6,0.6,0.6,left,L,,,,,0,1,1,1,0,70,70,13,,,,,,,,,,,,,,,,,,,,,,,,,,,,,,,,,,,,,,,,,,,,417.32400990000315,None,left,1,2.020788599998923,417.825405399999,419.7945799000008,417.825405399999,419.29353609999816,417.825405399999,419.29353609999816,417.825405399999,419.29353609999816,417.825405399999,419.29353609999816,417.825405399999,419.29353609999816,419.2605861999982,419.761794799997,419.2605861999982,419.761794799997,419.2605861999982,419.761794799997,419.2605861999982,419.761794799997,419.2605861999982,419.761794799997,419.2605861999982,419.761794799997,419.2605861999982,419.761794799997,419.2605861999982,419.761794799997,417.825405399999,None,419.761794799997,420.81241939999745,1.460000000000001,420.8292889000004,None,421.58041460000095,None,,,,,,,[[1.04]],2.2300000000000013,0.6619718309859155,11002,002,2023_Dec_29_1740,MFTM_A_new1021,2021.2.3,59.910445865367855,
,,,,,,,,stim/Instruction_adaptive.png,conditions/adaptive.xlsx,test,-0.6,-0.6,-0.6,0.6,0.6,left,L,,,,,0,1,1,1,0,71,71,55,,,,,,,,,,,,,,,,,,,,,,,,,,,,,,,,,,,,,,,,,,,,422.08112170000095,None,left,1,1.8724723999985144,422.58177740000247,424.48489800000243,422.58177740000247,423.98375410000153,422.58177740000247,423.98375410000153,422.58177740000247,423.98375410000153,422.58177740000247,423.98375410000153,422.58177740000247,423.98375410000153,423.9670735000036,424.46799660000397,423.9670735000036,424.46799660000397,423.9670735000036,424.46799660000397,423.9670735000036,424.46799660000397,423.9670735000036,424.46799660000397,423.9670735000036,424.46799660000397,423.9670735000036,424.46799660000397,423.9670735000036,424.46799660000397,422.58177740000247,None,424.46799660000397,425.5693611000024,1.400000000000001,425.5859896999973,None,426.3373090000023,None,,,,,,,[[1.1]],2.290000000000002,0.6666666666666666,11002,002,2023_Dec_29_1740,MFTM_A_new1021,2021.2.3,59.910445865367855,
,,,,,,,,stim/Instruction_adaptive.png,conditions/adaptive.xlsx,test,0.6,0.6,0.6,-0.6,-0.6,right,R,,,,,0,1,1,1,0,72,72,94,,,,,,,,,,,,,,,,,,,,,,,,,,,,,,,,,,,,,,,,,,,,426.8385246999969,None,left,0,1.67521829999896,427.3391988000003,429.19221839999955,427.3391988000003,428.6905681999997,427.3391988000003,428.6905681999997,427.3391988000003,428.6905681999997,427.3391988000003,428.6905681999997,427.3391988000003,428.6905681999997,428.67421009999816,429.1746284000037,428.67421009999816,429.1746284000037,428.67421009999816,429.1746284000037,428.67421009999816,429.1746284000037,428.67421009999816,429.1746284000037,428.67421009999816,429.1746284000037,428.67421009999816,429.1746284000037,428.67421009999816,429.1746284000037,427.3391988000003,None,429.1746284000037,430.32858719999786,1.350000000000001,430.3620707000009,None,431.1127220999988,None,,,,,,,[[1.15]],2.1200000000000014,0.6575342465753424,11002,002,2023_Dec_29_1740,MFTM_A_new1021,2021.2.3,59.910445865367855,
,,,,,,,,stim/Instruction_adaptive.png,conditions/adaptive.xlsx,test,0.6,0.6,0.6,-0.6,-0.6,right,R,,,,,0,1,1,1,0,73,73,12,,,,,,,,,,,,,,,,,,,,,,,,,,,,,,,,,,,,,,,,,,,,431.61179919999995,None,right,1,2.045360800002527,432.1129965,434.13264080000226,432.1129965,433.6325058000002,432.1129965,433.6325058000002,432.1129965,433.6325058000002,432.1129965,433.6325058000002,432.1129965,433.6325058000002,433.59900010000274,434.09954509999807,433.59900010000274,434.09954509999807,433.59900010000274,434.09954509999807,433.59900010000274,434.09954509999807,433.59900010000274,434.09954509999807,433.59900010000274,434.09954509999807,433.59900010000274,434.09954509999807,433.59900010000274,434.09954509999807,432.1129965,None,434.09954509999807,435.1010843999975,1.5100000000000011,435.1168128999998,None,435.8686766000028,None,,,,,,,[[0.99]],2.1800000000000015,0.6621621621621622,11002,002,2023_Dec_29_1740,MFTM_A_new1021,2021.2.3,59.910445865367855,
,,,,,,,,stim/Instruction_adaptive.png,conditions/adaptive.xlsx,test,0.6,0.6,0.6,-0.6,-0.6,right,R,,,,,0,1,1,1,0,74,74,84,,,,,,,,,,,,,,,,,,,,,,,,,,,,,,,,,,,,,,,,,,,,436.36907659999997,None,right,1,1.7283811999950558,436.8699717999989,438.823750800002,436.8699717999989,438.32208869999886,436.8699717999989,438.32208869999886,436.8699717999989,438.32208869999886,436.8699717999989,438.32208869999886,436.8699717999989,438.32208869999886,438.30648730000394,438.8057387000008,438.30648730000394,438.8057387000008,438.30648730000394,438.8057387000008,438.30648730000394,438.8057387000008,438.30648730000394,438.8057387000008,438.30648730000394,438.8057387000008,438.30648730000394,438.8057387000008,438.30648730000394,438.8057387000008,436.8699717999989,None,438.8057387000008,439.8575825000007,1.450000000000001,439.87494850000076,None,440.625921699997,None,,,,,,,[[1.05]],2.2400000000000015,0.6666666666666666,11002,002,2023_Dec_29_1740,MFTM_A_new1021,2021.2.3,59.910445865367855,
,,,,,,,,stim/Instruction_adaptive.png,conditions/adaptive.xlsx,test,-0.6,-0.6,-0.6,0.6,0.6,left,L,,,,,0,1,1,1,0,75,75,79,,,,,,,,,,,,,,,,,,,,,,,,,,,,,,,,,,,,,,,,,,,,441.12693020000006,None,left,1,1.0991199000054621,441.6273894000042,443.52939860000333,441.6273894000042,443.029778600001,441.6273894000042,443.029778600001,441.6273894000042,443.029778600001,441.6273894000042,443.029778600001,441.6273894000042,443.029778600001,442.99588409999706,443.49651650000305,442.99588409999706,443.49651650000305,442.99588409999706,443.49651650000305,442.99588409999706,443.49651650000305,442.99588409999706,443.49651650000305,442.99588409999706,443.49651650000305,442.99588409999706,443.49651650000305,442.99588409999706,443.49651650000305,441.6273894000042,None,443.49651650000305,444.6144779000024,1.390000000000001,444.63187969999854,None,445.38319140000385,None,,,,,,,[[1.11]],2.290000000000002,0.6710526315789473,11002,002,2023_Dec_29_1740,MFTM_A_new1021,2021.2.3,59.910445865367855,
,,,,,,,,stim/Instruction_adaptive.png,conditions/adaptive.xlsx,test,-0.6,-0.6,-0.6,0.6,0.6,left,L,,,,,0,1,1,1,0,76,76,35,,,,,,,,,,,,,,,,,,,,,,,,,,,,,,,,,,,,,,,,,,,,445.88380000000325,None,left,1,1.8626354000007268,446.3838653999992,448.2371357000011,446.3838653999992,447.73654220000026,446.3838653999992,447.73654220000026,446.3838653999992,447.73654220000026,446.3838653999992,447.73654220000026,446.3838653999992,447.73654220000026,447.7198933000036,448.2204600000041,447.7198933000036,448.2204600000041,447.7198933000036,448.2204600000041,447.7198933000036,448.2204600000041,447.7198933000036,448.2204600000041,447.7198933000036,448.2204600000041,447.7198933000036,448.2204600000041,447.7198933000036,448.2204600000041,446.3838653999992,None,448.2204600000041,449.37226050000027,1.350000000000001,449.3882611000008,None,450.1401270999995,None,,,,,,,[[1.15]],2.3400000000000016,0.6753246753246753,11002,002,2023_Dec_29_1740,MFTM_A_new1021,2021.2.3,59.910445865367855,
,,,,,,,,stim/Instruction_adaptive.png,conditions/adaptive.xlsx,test,0.6,0.6,0.6,-0.6,-0.6,right,R,,,,,0,1,1,1,0,77,77,36,,,,,,,,,,,,,,,,,,,,,,,,,,,,,,,,,,,,,,,,,,,,450.640561799999,None,right,1,1.2895429999989574,451.14098860000377,452.94402360000095,451.14098860000377,452.4426783000017,451.14098860000377,452.4426783000017,451.14098860000377,452.4426783000017,451.14098860000377,452.4426783000017,451.14098860000377,452.4426783000017,452.4259564000022,452.92724969999836,452.4259564000022,452.92724969999836,452.4259564000022,452.92724969999836,452.4259564000022,452.92724969999836,452.4259564000022,452.92724969999836,452.4259564000022,452.92724969999836,452.4259564000022,452.92724969999836,452.4259564000022,452.92724969999836,451.14098860000377,None,452.92724969999836,454.129543199997,1.300000000000001,454.14584350000223,None,454.896994499999,None,,,,,,,[[1.2]],2.3800000000000017,0.6794871794871795,11002,002,2023_Dec_29_1740,MFTM_A_new1021,2021.2.3,59.910445865367855,
,,,,,,,,stim/Instruction_adaptive.png,conditions/adaptive.xlsx,test,-0.6,-0.6,-0.6,0.6,0.6,left,L,,,,,0,1,1,1,0,78,78,33,,,,,,,,,,,,,,,,,,,,,,,,,,,,,,,,,,,,,,,,,,,,455.3976298999987,None,left,1,1.8689410999941174,455.89805960000376,457.6678436000002,455.89805960000376,457.16736359999777,455.89805960000376,457.16736359999777,455.89805960000376,457.16736359999777,455.89805960000376,457.16736359999777,455.89805960000376,457.16736359999777,457.1328844000018,457.63475019999896,457.1328844000018,457.63475019999896,457.1328844000018,457.63475019999896,457.1328844000018,457.63475019999896,457.1328844000018,457.63475019999896,457.1328844000018,457.63475019999896,457.1328844000018,457.63475019999896,457.1328844000018,457.63475019999896,455.89805960000376,None,457.63475019999896,458.8861593000038,1.260000000000001,458.90260220000346,None,459.6544200999997,None,,,,,,,[[1.24]],2.4300000000000015,0.6835443037974683,11002,002,2023_Dec_29_1740,MFTM_A_new1021,2021.2.3,59.910445865367855,
,,,,,,,,stim/Instruction_adaptive.png,conditions/adaptive.xlsx,test,0.6,0.6,0.6,-0.6,-0.6,right,R,,,,,0,1,1,1,0,79,79,60,,,,,,,,,,,,,,,,,,,,,,,,,,,,,,,,,,,,,,,,,,,,460.15488390000246,None,right,1,1.5434415000054287,460.65496189999976,462.3746414999987,460.65496189999976,461.89076339999883,460.65496189999976,461.89076339999883,460.65496189999976,461.89076339999883,460.65496189999976,461.89076339999883,460.65496189999976,461.89076339999883,461.85687730000063,462.3581636000017,461.85687730000063,462.3581636000017,461.85687730000063,462.3581636000017,461.85687730000063,462.3581636000017,461.85687730000063,462.3581636000017,461.85687730000063,462.3581636000017,461.85687730000063,462.3581636000017,461.85687730000063,462.3581636000017,460.65496189999976,None,462.3581636000017,463.6432812999992,1.2200000000000009,463.6593969000023,None,464.4114907000039,None,,,,,,,[[1.28]],2.4700000000000015,0.6875,11002,002,2023_Dec_29_1740,MFTM_A_new1021,2021.2.3,59.910445865367855,
,,,,,,,,stim/Instruction_adaptive.png,conditions/adaptive.xlsx,test,0.6,0.6,0.6,-0.6,-0.6,right,R,,,,,0,1,1,1,0,80,80,50,,,,,,,,,,,,,,,,,,,,,,,,,,,,,,,,,,,,,,,,,,,,464.91191889999754,None,right,1,1.2665538000001106,465.41237510000065,467.115314900002,465.41237510000065,466.61414309999964,465.41237510000065,466.61414309999964,465.41237510000065,466.61414309999964,465.41237510000065,466.61414309999964,465.41237510000065,466.61414309999964,466.58084200000303,467.08101909999823,466.58084200000303,467.08101909999823,466.58084200000303,467.08101909999823,466.58084200000303,467.08101909999823,466.58084200000303,467.08101909999823,466.58084200000303,467.08101909999823,466.58084200000303,467.08101909999823,466.58084200000303,467.08101909999823,465.41237510000065,None,467.08101909999823,468.39990340000077,1.1900000000000008,468.41664789999777,None,469.1675982000015,None,,,,,,,[[1.31]],2.5100000000000016,0.691358024691358,11002,002,2023_Dec_29_1740,MFTM_A_new1021,2021.2.3,59.910445865367855,
,,,,,,,,stim/Instruction_adaptive.png,conditions/adaptive.xlsx,test,-0.6,-0.6,-0.6,0.6,0.6,left,L,,,,,0,1,1,1,0,81,81,39,,,,,,,,,,,,,,,,,,,,,,,,,,,,,,,,,,,,,,,,,,,,469.6681599000003,None,left,1,1.2935708000004524,470.1688303999981,471.82216250000056,470.1688303999981,471.3209872000007,470.1688303999981,471.3209872000007,470.1688303999981,471.3209872000007,470.1688303999981,471.3209872000007,470.1688303999981,471.3209872000007,471.30399659999966,471.8046334000028,471.30399659999966,471.8046334000028,471.30399659999966,471.8046334000028,471.30399659999966,471.8046334000028,471.30399659999966,471.8046334000028,471.30399659999966,471.8046334000028,471.30399659999966,471.8046334000028,471.30399659999966,471.8046334000028,470.1688303999981,None,471.8046334000028,473.1573791999981,1.1500000000000008,473.17407549999916,None,473.9245243000041,None,,,,,,,[[1.35]],2.540000000000002,0.6951219512195121,11002,002,2023_Dec_29_1740,MFTM_A_new1021,2021.2.3,59.910445865367855,
,,,,,,,,stim/Instruction_adaptive.png,conditions/adaptive.xlsx,test,-0.6,-0.6,-0.6,0.6,0.6,left,L,,,,,0,1,1,1,0,82,82,7,,,,,,,,,,,,,,,,,,,,,,,,,,,,,,,,,,,,,,,,,,,,474.42541750000237,None,left,1,1.2806899999995949,474.92620590000297,476.5627284000002,474.92620590000297,476.061286199998,474.92620590000297,476.061286199998,474.92620590000297,476.061286199998,474.92620590000297,476.061286199998,474.92620590000297,476.061286199998,476.04440969999996,476.5452121999988,476.04440969999996,476.5452121999988,476.04440969999996,476.5452121999988,476.04440969999996,476.5452121999988,476.04440969999996,476.5452121999988,476.04440969999996,476.5452121999988,476.04440969999996,476.5452121999988,476.04440969999996,476.5452121999988,474.92620590000297,None,476.5452121999988,None,1.1300000000000008,477.93077079999784,None,478.6818398000032,None,,,,,,,[[1.37]],2.580000000000002,0.6987951807228916,11002,002,2023_Dec_29_1740,MFTM_A_new1021,2021.2.3,59.910445865367855,
,,,,,,,,stim/Instruction_adaptive.png,conditions/adaptive.xlsx,test,-0.6,-0.6,-0.6,0.6,0.6,left,L,,,,,0,1,1,1,0,83,83,49,,,,,,,,,,,,,,,,,,,,,,,,,,,,,,,,,,,,,,,,,,,,479.1834127999973,None,left,1,1.034404199999699,479.6848345000035,481.28758630000084,479.6848345000035,480.78497849999985,479.6848345000035,480.78497849999985,479.6848345000035,480.78497849999985,479.6848345000035,480.78497849999985,479.6848345000035,480.78497849999985,480.7679319000017,481.2686642999979,480.7679319000017,481.2686642999979,480.7679319000017,481.2686642999979,480.7679319000017,481.2686642999979,480.7679319000017,481.2686642999979,480.7679319000017,481.2686642999979,480.7679319000017,481.2686642999979,480.7679319000017,481.2686642999979,479.6848345000035,None,481.2686642999979,482.6707322000002,1.1000000000000008,482.6875263000038,None,483.43854499999725,None,,,,,,,[[1.4]],2.610000000000002,0.7023809523809523,11002,002,2023_Dec_29_1740,MFTM_A_new1021,2021.2.3,59.910445865367855,
,,,,,,,,stim/Instruction_adaptive.png,conditions/adaptive.xlsx,test,-0.6,-0.6,-0.6,0.6,0.6,left,L,,,,,0,1,1,1,0,84,84,77,,,,,,,,,,,,,,,,,,,,,,,,,,,,,,,,,,,,,,,,,,,,483.93942219999735,None,left,1,1.3505882000026759,484.4400228000013,486.0264928000033,484.4400228000013,485.52495949999866,484.4400228000013,485.52495949999866,484.4400228000013,485.52495949999866,484.4400228000013,485.52495949999866,484.4400228000013,485.52495949999866,485.5085478000037,486.0094606999992,485.5085478000037,486.0094606999992,485.5085478000037,486.0094606999992,485.5085478000037,486.0094606999992,485.5085478000037,486.0094606999992,485.5085478000037,486.0094606999992,485.5085478000037,486.0094606999992,485.5085478000037,486.0094606999992,484.4400228000013,None,486.0094606999992,487.4285145000031,1.0800000000000007,487.44446600000083,None,488.1956763999988,None,,,,,,,[[1.42]],2.650000000000002,0.7058823529411765,11002,002,2023_Dec_29_1740,MFTM_A_new1021,2021.2.3,59.910445865367855,
,,,,,,,,stim/Instruction_adaptive.png,conditions/adaptive.xlsx,test,-0.6,-0.6,-0.6,0.6,0.6,left,L,,,,,0,1,1,1,0,85,85,5,,,,,,,,,,,,,,,,,,,,,,,,,,,,,,,,,,,,,,,,,,,,488.69674040000245,None,left,1,1.3129275000028429,489.1977398000017,490.74954920000164,489.1977398000017,490.24928000000364,489.1977398000017,490.24928000000364,489.1977398000017,490.24928000000364,489.1977398000017,490.24928000000364,489.1977398000017,490.24928000000364,490.2320267000032,490.7326838000008,490.2320267000032,490.7326838000008,490.2320267000032,490.7326838000008,490.2320267000032,490.7326838000008,490.2320267000032,490.7326838000008,490.2320267000032,490.7326838000008,490.2320267000032,490.7326838000008,490.2320267000032,490.7326838000008,489.1977398000017,None,490.7326838000008,492.1859898000039,1.0500000000000007,492.20169090000127,None,492.9543025000021,None,,,,,,,[[1.45]],2.680000000000002,0.7093023255813954,11002,002,2023_Dec_29_1740,MFTM_A_new1021,2021.2.3,59.910445865367855,
,,,,,,,,stim/Instruction_adaptive.png,conditions/adaptive.xlsx,test,-0.6,-0.6,-0.6,0.6,0.6,left,L,,,,,0,1,1,1,0,86,86,87,,,,,,,,,,,,,,,,,,,,,,,,,,,,,,,,,,,,,,,,,,,,493.45351259999734,None,left,1,1.1797910999957821,493.9551638999983,495.489974600001,493.9551638999983,494.98931209999864,493.9551638999983,494.98931209999864,493.9551638999983,494.98931209999864,493.9551638999983,494.98931209999864,493.9551638999983,494.98931209999864,494.97246689999884,495.472969800001,494.97246689999884,495.472969800001,494.97246689999884,495.472969800001,494.97246689999884,495.472969800001,494.97246689999884,495.472969800001,494.97246689999884,495.472969800001,494.97246689999884,495.472969800001,494.97246689999884,495.472969800001,493.9551638999983,None,495.472969800001,496.94262850000086,1.0300000000000007,496.9585139999981,None,497.71027499999764,None,,,,,,,[[1.47]],2.7100000000000017,0.7126436781609196,11002,002,2023_Dec_29_1740,MFTM_A_new1021,2021.2.3,59.910445865367855,
,,,,,,,,stim/Instruction_adaptive.png,conditions/adaptive.xlsx,test,0.6,0.6,0.6,-0.6,-0.6,right,R,,,,,0,1,1,1,0,87,87,18,,,,,,,,,,,,,,,,,,,,,,,,,,,,,,,,,,,,,,,,,,,,498.21072419999837,None,right,1,1.1754905999987386,498.71152950000396,500.22997600000235,498.71152950000396,499.7294925000024,498.71152950000396,499.7294925000024,498.71152950000396,499.7294925000024,498.71152950000396,499.7294925000024,498.71152950000396,499.7294925000024,499.69736340000236,500.19753659999697,499.69736340000236,500.19753659999697,499.69736340000236,500.19753659999697,499.69736340000236,500.19753659999697,499.69736340000236,500.19753659999697,499.69736340000236,500.19753659999697,499.69736340000236,500.19753659999697,499.69736340000236,500.19753659999697,498.71152950000396,None,500.19753659999697,501.6998887000009,1.0100000000000007,501.71564260000014,None,502.467115200001,None,,,,,,,[[1.49]],2.740000000000002,0.7159090909090909,11002,002,2023_Dec_29_1740,MFTM_A_new1021,2021.2.3,59.910445865367855,
,,,,,,,,stim/Instruction_adaptive.png,conditions/adaptive.xlsx,test,0.6,0.6,0.6,-0.6,-0.6,right,R,,,,,0,1,1,1,0,88,88,2,,,,,,,,,,,,,,,,,,,,,,,,,,,,,,,,,,,,,,,,,,,,502.96746580000035,None,right,1,1.1943663000056404,503.46826370000053,504.954361600001,503.46826370000053,504.4542000000001,503.46826370000053,504.4542000000001,503.46826370000053,504.4542000000001,503.46826370000053,504.4542000000001,503.46826370000053,504.4542000000001,504.43623910000315,504.9371867000009,504.43623910000315,504.9371867000009,504.43623910000315,504.9371867000009,504.43623910000315,504.9371867000009,504.43623910000315,504.9371867000009,504.43623910000315,504.9371867000009,504.43623910000315,504.9371867000009,504.43623910000315,504.9371867000009,503.46826370000053,None,504.9371867000009,None,0.9800000000000006,506.4725147999998,None,507.22379779999756,None,,,,,,,[[1.52]],2.7700000000000022,0.7191011235955056,11002,002,2023_Dec_29_1740,MFTM_A_new1021,2021.2.3,59.910445865367855,
,,,,,,,,stim/Instruction_adaptive.png,conditions/adaptive.xlsx,test,0.6,0.6,0.6,-0.6,-0.6,right,R,,,,,0,1,1,1,0,89,89,6,,,,,,,,,,,,,,,,,,,,,,,,,,,,,,,,,,,,,,,,,,,,507.7253208999973,None,left,0,1.1573889999999665,508.22540429999935,509.69432139999844,508.22540429999935,509.19341749999876,508.22540429999935,509.19341749999876,508.22540429999935,509.19341749999876,508.22540429999935,509.19341749999876,508.22540429999935,509.19341749999876,509.1612103000007,509.6608772000036,509.1612103000007,509.6608772000036,509.1612103000007,509.6608772000036,509.1612103000007,509.6608772000036,509.1612103000007,509.6608772000036,509.1612103000007,509.6608772000036,509.1612103000007,509.6608772000036,509.1612103000007,509.6608772000036,508.22540429999935,None,509.6608772000036,511.2135844000004,0.9600000000000006,511.229167999998,None,511.9819792999988,None,,,,,,,[[1.54]],2.680000000000002,0.7111111111111111,11002,002,2023_Dec_29_1740,MFTM_A_new1021,2021.2.3,59.910445865367855,
,,,,,,,,stim/Instruction_adaptive.png,conditions/adaptive.xlsx,test,0.6,0.6,0.6,-0.6,-0.6,right,R,,,,,0,1,1,1,0,90,90,56,,,,,,,,,,,,,,,,,,,,,,,,,,,,,,,,,,,,,,,,,,,,512.4826446000006,None,right,1,1.118670199997723,512.9838673999984,514.5190077000007,512.9838673999984,514.0180043,512.9838673999984,514.0180043,512.9838673999984,514.0180043,512.9838673999984,514.0180043,512.9838673999984,514.0180043,514.000709699998,514.502255899999,514.000709699998,514.502255899999,514.000709699998,514.502255899999,514.000709699998,514.502255899999,514.000709699998,514.502255899999,514.000709699998,514.502255899999,514.000709699998,514.502255899999,514.000709699998,514.502255899999,512.9838673999984,None,514.502255899999,None,1.0300000000000007,515.9866688999973,None,516.738282600003,None,,,,,,,[[1.47]],2.7100000000000017,0.7142857142857143,11002,002,2023_Dec_29_1740,MFTM_A_new1021,2021.2.3,59.910445865367855,
,,,,,,,,stim/Instruction_adaptive.png,conditions/adaptive.xlsx,test,0.6,0.6,0.6,-0.6,-0.6,right,R,,,,,0,1,1,1,0,91,91,14,,,,,,,,,,,,,,,,,,,,,,,,,,,,,,,,,,,,,,,,,,,,517.2388485999982,None,right,1,1.371159099995566,517.739430200003,519.258421700004,517.739430200003,518.7575215000033,517.739430200003,518.7575215000033,517.739430200003,518.7575215000033,517.739430200003,518.7575215000033,517.739430200003,518.7575215000033,518.7247639999987,519.2250252000013,518.7247639999987,519.2250252000013,518.7247639999987,519.2250252000013,518.7247639999987,519.2250252000013,518.7247639999987,519.2250252000013,518.7247639999987,519.2250252000013,518.7247639999987,519.2250252000013,518.7247639999987,519.2250252000013,517.739430200003,None,519.2250252000013,520.7277708999973,1.0100000000000007,520.7439273999989,None,521.4956499999971,None,,,,,,,[[1.49]],2.740000000000002,0.717391304347826,11002,002,2023_Dec_29_1740,MFTM_A_new1021,2021.2.3,59.910445865367855,
,,,,,,,,stim/Instruction_adaptive.png,conditions/adaptive.xlsx,test,0.6,0.6,0.6,-0.6,-0.6,right,R,,,,,0,1,1,1,0,92,92,34,,,,,,,,,,,,,,,,,,,,,,,,,,,,,,,,,,,,,,,,,,,,521.9962637999997,None,right,1,1.4532974999965518,522.4970822000032,523.9829642999975,522.4970822000032,523.4819021000003,522.4970822000032,523.4819021000003,522.4970822000032,523.4819021000003,522.4970822000032,523.4819021000003,522.4970822000032,523.4819021000003,523.4646114999996,523.9660836000039,523.4646114999996,523.9660836000039,523.4646114999996,523.9660836000039,523.4646114999996,523.9660836000039,523.4646114999996,523.9660836000039,523.4646114999996,523.9660836000039,523.4646114999996,523.9660836000039,523.4646114999996,523.9660836000039,522.4970822000032,None,523.9660836000039,None,0.9800000000000006,525.501007400002,None,526.2528502999994,None,,,,,,,[[1.52]],2.7700000000000022,0.7204301075268817,11002,002,2023_Dec_29_1740,MFTM_A_new1021,2021.2.3,59.910445865367855,
,,,,,,,,stim/Instruction_adaptive.png,conditions/adaptive.xlsx,test,0.6,0.6,0.6,-0.6,-0.6,right,R,,,,,0,1,1,1,0,93,93,58,,,,,,,,,,,,,,,,,,,,,,,,,,,,,,,,,,,,,,,,,,,,526.7528164000032,None,left,0,1.3450320999982068,527.2535105999996,528.7230905000033,527.2535105999996,528.2217840000012,527.2535105999996,528.2217840000012,527.2535105999996,528.2217840000012,527.2535105999996,528.2217840000012,527.2535105999996,528.2217840000012,528.1882030999986,528.6890480000002,528.1882030999986,528.6890480000002,528.1882030999986,528.6890480000002,528.1882030999986,528.6890480000002,528.1882030999986,528.6890480000002,528.1882030999986,528.6890480000002,528.1882030999986,528.6890480000002,528.1882030999986,528.6890480000002,527.2535105999996,None,528.6890480000002,530.2418069999985,0.9600000000000006,530.2580250000028,None,531.0097117000041,None,,,,,,,[[1.54]],2.690000000000002,0.7127659574468085,11002,002,2023_Dec_29_1740,MFTM_A_new1021,2021.2.3,59.910445865367855,
