arrwidth1,arrwidth2,arrwidth3,arrwidth4,arrwidth5,keyb,type,orientation,instruction_image,block_filename,block_type,arrow11,arrow22,arrow33,arrow44,arrow55,keyb_3,orientation3,trials.thisRepN,trials.thisTrialN,trials.thisN,trials.thisIndex,trials_3.thisRepN,trials_3.thisTrialN,trials_3.thisN,trials_3.thisIndex,trials_2.thisRepN,trials_2.thisTrialN,trials_2.thisN,trials_2.thisIndex,welcome.started,welcome.stopped,key_resp.keys,key_resp.rt,key_resp.started,key_resp.stopped,instruction_example.started,instruction_example.stopped,key_resp_3.keys,key_resp_3.rt,key_resp_3.started,key_resp_3.stopped,instruction_task.started,instruction_task.stopped,key_resp_2.keys,key_resp_2.rt,key_resp_2.started,key_resp_2.stopped,text_2.started,text_2.stopped,A1.started,A1.stopped,A2.started,A2.stopped,A3.started,A3.stopped,A4.started,A4.stopped,A5.started,A5.stopped,key_resp_4.keys,key_resp_4.corr,key_resp_4.rt,key_resp_4.started,key_resp_4.stopped,fb.started,fb.stopped,instruction_block.started,instruction_block.stopped,key_resp_8.keys,key_resp_8.rt,key_resp_8.started,key_resp_8.stopped,text_8.started,text_8.stopped,key_resp_9.keys,key_resp_9.corr,key_resp_9.rt,text_5.started,text_5.stopped,A11_3.started,A11_3.stopped,A22_2.started,A22_2.stopped,A33_2.started,A33_2.stopped,A44_2.started,A44_2.stopped,A55_2.started,A55_2.stopped,M1_3.started,M1_3.stopped,M2_2.started,M2_2.stopped,M3_2.started,M3_2.stopped,M4_2.started,M4_2.stopped,M5_2.started,M5_2.stopped,M6_2.started,M6_2.stopped,M7_2.started,M7_2.stopped,M8_2.started,M8_2.stopped,key_resp_9.started,key_resp_9.stopped,fixation.started,fixation.stopped,ET,fb_3.started,fb_3.stopped,text_9.started,text_9.stopped,fb_4.started,fb_4.stopped,text_7.started,text_7.stopped,endtext.started,endtext.stopped,fixation_ITI,CCC,Acc,participant,session,date,expName,psychopyVersion,frameRate,
,,,,,,,,,,,,,,,,,,,,,,,,,,,,,,17.311057700018864,None,down,7.5038823000504635,17.311057700018864,None,,,,,,,,,,,,,,,,,,,,,,,,,,,,,,,,,,,,,,,,,,,,,,,,,,,,,,,,,,,,,,,,,,,,,,,,,,,,,,,,,,,,,,,,,11007,002,2024_Jan_01_1836,MFTM_A_new1021,2021.2.3,59.920641112492724,
,,,,,,,,,,,,,,,,,,,,,,,,,,,,,,,,,,,,24.838849499996286,None,down,2.343791199964471,24.838849499996286,None,,,,,,,,,,,,,,,,,,,,,,,,,,,,,,,,,,,,,,,,,,,,,,,,,,,,,,,,,,,,,,,,,,,,,,,,,,,,,,,,,,,11007,002,2024_Jan_01_1836,MFTM_A_new1021,2021.2.3,59.920641112492724,
,,,,,,,,,,,,,,,,,,,,,,,,,,,,,,,,,,,,,,,,,,27.208995199995115,None,space,1.717463199980557,27.208995199995115,None,,,,,,,,,,,,,,,,,,,,,,,,,,,,,,,,,,,,,,,,,,,,,,,,,,,,,,,,,,,,,,,,,,,,,,,,,,,,,11007,002,2024_Jan_01_1836,MFTM_A_new1021,2021.2.3,59.920641112492724,
-0.6,-0.6,-0.6,0.6,0.6,left,3:2,L,,,,,,,,,,,0,0,0,1,,,,,,,,,,,,,,,,,,,,,,,,,,,28.961830999993253,None,28.961830999993253,None,28.961830999993253,None,28.961830999993253,None,28.961830999993253,None,28.961830999993253,None,left,1,2.00482800003374,28.961830999993253,None,30.998107600025833,None,,,,,,,,,,,,,,,,,,,,,,,,,,,,,,,,,,,,,,,,,,,,,,,,,,,,,,,,,,11007,002,2024_Jan_01_1836,MFTM_A_new1021,2021.2.3,59.920641112492724,
0.6,0.6,0.6,-0.6,-0.6,right,3:2,R,,,,,,,,,,,0,1,1,0,,,,,,,,,,,,,,,,,,,,,,,,,,,31.74906760000158,None,31.74906760000158,None,31.74906760000158,None,31.74906760000158,None,31.74906760000158,None,31.74906760000158,None,right,1,1.9940710999653675,31.74906760000158,None,33.76878139999462,None,,,,,,,,,,,,,,,,,,,,,,,,,,,,,,,,,,,,,,,,,,,,,,,,,,,,,,,,,,11007,002,2024_Jan_01_1836,MFTM_A_new1021,2021.2.3,59.920641112492724,
-0.6,-0.6,-0.6,0.6,0.6,left,3:2,L,,,,,,,,,,,1,0,2,1,,,,,,,,,,,,,,,,,,,,,,,,,,,34.51976029999787,None,34.51976029999787,None,34.51976029999787,None,34.51976029999787,None,34.51976029999787,None,34.51976029999787,None,left,1,2.0549186000134796,34.51976029999787,None,36.60643530002562,None,,,,,,,,,,,,,,,,,,,,,,,,,,,,,,,,,,,,,,,,,,,,,,,,,,,,,,,,,,11007,002,2024_Jan_01_1836,MFTM_A_new1021,2021.2.3,59.920641112492724,
0.6,0.6,0.6,-0.6,-0.6,right,3:2,R,,,,,,,,,,,1,1,3,0,,,,,,,,,,,,,,,,,,,,,,,,,,,37.357577899994794,None,37.357577899994794,None,37.357577899994794,None,37.357577899994794,None,37.357577899994794,None,37.357577899994794,None,right,1,1.4811365000205114,37.357577899994794,None,38.8599975000252,None,,,,,,,,,,,,,,,,,,,,,,,,,,,,,,,,,,,,,,,,,,,,,,,,,,,,,,,,,,11007,002,2024_Jan_01_1836,MFTM_A_new1021,2021.2.3,59.920641112492724,
,,,,,,,,stim/Instruction_mask.png,conditions/adaptive.xlsx,practice,-0.6,-0.6,-0.6,0.6,0.6,left,L,,,,,0,0,0,0,0,0,0,81,,,,,,,,,,,,,,,,,,,,,,,,,,,,,,,,,,,,,,39.86123740003677,None,down,2.6736811000155285,39.86123740003677,None,42.66557360003935,None,left,1,2.3401659000082873,43.08247980003944,None,43.08247980003944,46.087230500008445,43.08247980003944,46.087230500008445,43.08247980003944,46.087230500008445,43.08247980003944,46.087230500008445,43.08247980003944,46.087230500008445,46.07031390001066,46.571002700016834,46.07031390001066,46.571002700016834,46.07031390001066,46.571002700016834,46.07031390001066,46.571002700016834,46.07031390001066,46.571002700016834,46.07031390001066,46.571002700016834,46.07031390001066,46.571002700016834,46.07031390001066,46.571002700016834,43.08247980003944,None,46.571002700016834,46.571002700016834,3,46.5877010000404,None,47.33886180003174,None,,,,,,,,,,11007,002,2024_Jan_01_1836,MFTM_A_new1021,2021.2.3,59.920641112492724,
,,,,,,,,stim/Instruction_mask.png,conditions/adaptive.xlsx,practice,-0.6,-0.6,-0.6,0.6,0.6,left,L,,,,,0,0,0,0,0,1,1,27,,,,,,,,,,,,,,,,,,,,,,,,,,,,,,,,,,,,,,,,,,,,47.839749500039034,None,left,1,1.2824481999850832,48.34036800003378,50.34331090003252,48.34036800003378,49.84274320001714,48.34036800003378,49.84274320001714,48.34036800003378,49.84274320001714,48.34036800003378,49.84274320001714,48.34036800003378,49.84274320001714,49.826032700017095,50.32658829999855,49.826032700017095,50.32658829999855,49.826032700017095,50.32658829999855,49.826032700017095,50.32658829999855,49.826032700017095,50.32658829999855,49.826032700017095,50.32658829999855,49.826032700017095,50.32658829999855,49.826032700017095,50.32658829999855,48.34036800003378,None,50.32658829999855,51.829724700015504,1.5,51.845735700044315,None,52.5968185000238,None,,,,,,,,,,11007,002,2024_Jan_01_1836,MFTM_A_new1021,2021.2.3,59.920641112492724,
,,,,,,,,stim/Instruction_mask.png,conditions/adaptive.xlsx,practice,-0.6,-0.6,-0.6,0.6,0.6,left,L,,,,,0,0,0,0,0,2,2,67,,,,,,,,,,,,,,,,,,,,,,,,,,,,,,,,,,,,,,,,,,,,53.09740240004612,None,left,1,1.4408929999917746,53.59816900000442,54.90006519999588,53.59816900000442,54.39942690002499,53.59816900000442,54.39942690002499,53.59816900000442,54.39942690002499,53.59816900000442,54.39942690002499,53.59816900000442,54.39942690002499,54.38293270004215,54.88336860004347,54.38293270004215,54.88336860004347,54.38293270004215,54.88336860004347,54.38293270004215,54.88336860004347,54.38293270004215,54.88336860004347,54.38293270004215,54.88336860004347,54.38293270004215,54.88336860004347,54.38293270004215,54.88336860004347,53.59816900000442,None,54.88336860004347,57.08666540001286,0.8,57.10338050004793,None,57.85450180002954,None,,,,,,,,,,11007,002,2024_Jan_01_1836,MFTM_A_new1021,2021.2.3,59.920641112492724,
,,,,,,,,stim/Instruction_mask.png,conditions/adaptive.xlsx,practice,-0.6,-0.6,-0.6,0.6,0.6,left,L,,,,,0,0,0,0,0,3,3,75,,,,,,,,,,,,,,,,,,,,,,,,,,,,,,,,,,,,,,,,,,,,58.355226600018796,None,right,0,1.078881299996283,58.855857000045944,59.607133500045165,58.855857000045944,59.10652040003333,58.855857000045944,59.10652040003333,58.855857000045944,59.10652040003333,58.855857000045944,59.10652040003333,58.855857000045944,59.10652040003333,59.08982809999725,59.59072090004338,59.08982809999725,59.59072090004338,59.08982809999725,59.59072090004338,59.08982809999725,59.59072090004338,59.08982809999725,59.59072090004338,59.08982809999725,59.59072090004338,59.08982809999725,59.59072090004338,59.08982809999725,59.59072090004338,58.855857000045944,None,59.59072090004338,62.3444033000269,3,62.361051200015936,None,63.112236300017685,None,,,,,,,,,,11007,002,2024_Jan_01_1836,MFTM_A_new1021,2021.2.3,59.920641112492724,
,,,,,,,,stim/Instruction_mask.png,conditions/adaptive.xlsx,practice,,,,,,,,,,,,0,0,0,0,,,,,,,,,,,,,,,,,,,,,,,,,,,,,,,,,,,,,,,,,,,,,,,,,,,,,,,,,,,,,,,,,,,,,,,,,,,,,,,,,,,,,,,,,,63.62960490002297,64.63121920003323,64.61561370000709,64.61561370000709,64.61561370000709,None,,,,11007,002,2024_Jan_01_1836,MFTM_A_new1021,2021.2.3,59.920641112492724,
,,,,,,,,stim/Instruction_adaptive.png,conditions/adaptive.xlsx,test,-0.6,-0.6,-0.6,0.6,0.6,left,L,,,,,0,1,1,1,0,0,0,69,,,,,,,,,,,,,,,,,,,,,,,,,,,,,,,,,,,,,,67.78529560001334,None,down,10.269747200014535,67.78529560001334,None,78.11915070004761,None,left,1,2.5006525000208057,78.60263710003346,None,78.60263710003346,81.60676190000959,78.60263710003346,81.60676190000959,78.60263710003346,81.60676190000959,78.60263710003346,81.60676190000959,78.60263710003346,81.60676190000959,81.58981690002838,82.09092500002589,81.58981690002838,82.09092500002589,81.58981690002838,82.09092500002589,81.58981690002838,82.09092500002589,81.58981690002838,82.09092500002589,81.58981690002838,82.09092500002589,81.58981690002838,82.09092500002589,81.58981690002838,82.09092500002589,78.60263710003346,None,82.09092500002589,82.09092500002589,3,82.10742630000459,None,82.85881550004706,None,,,,,,,0,6.000000000000005,1.0,11007,002,2024_Jan_01_1836,MFTM_A_new1021,2021.2.3,59.920641112492724,
,,,,,,,,stim/Instruction_adaptive.png,conditions/adaptive.xlsx,test,-0.6,-0.6,-0.6,0.6,0.6,left,L,,,,,0,1,1,1,0,1,1,93,,,,,,,,,,,,,,,,,,,,,,,,,,,,,,,,,,,,,,,,,,,,83.35928520001471,None,left,1,1.3153538999613374,83.85963820002507,84.61082810000516,83.85963820002507,84.11040579999099,83.85963820002507,84.11040579999099,83.85963820002507,84.11040579999099,83.85963820002507,84.11040579999099,83.85963820002507,84.11040579999099,84.09372920001624,84.59409600001527,84.09372920001624,84.59409600001527,84.09372920001624,84.59409600001527,84.09372920001624,84.59409600001527,84.09372920001624,84.59409600001527,84.09372920001624,84.59409600001527,84.09372920001624,84.59409600001527,84.09372920001624,84.59409600001527,83.85963820002507,None,84.59409600001527,85.47944530000677,0.25,85.49538130004657,None,86.24648970004637,None,,,,,,,[0.875],6.000000000000005,1.0,11007,002,2024_Jan_01_1836,MFTM_A_new1021,2021.2.3,59.920641112492724,
,,,,,,,,stim/Instruction_adaptive.png,conditions/adaptive.xlsx,test,-0.6,-0.6,-0.6,0.6,0.6,left,L,,,,,0,1,1,1,0,2,2,67,,,,,,,,,,,,,,,,,,,,,,,,,,,,,,,,,,,,,,,,,,,,86.74724610004341,None,left,1,1.1823293000343256,87.24895219999598,87.99953710002592,87.24895219999598,87.49927840003511,87.24895219999598,87.49927840003511,87.24895219999598,87.49927840003511,87.24895219999598,87.49927840003511,87.24895219999598,87.49927840003511,87.48278860002756,87.98302780004451,87.48278860002756,87.98302780004451,87.48278860002756,87.98302780004451,87.48278860002756,87.98302780004451,87.48278860002756,87.98302780004451,87.48278860002756,87.98302780004451,87.48278860002756,87.98302780004451,87.48278860002756,87.98302780004451,87.24895219999598,None,87.98302780004451,89.31935130001511,0.25,89.33436620002612,None,90.08560740004759,None,,,,,,,[1.33333333],6.000000000000005,1.0,11007,002,2024_Jan_01_1836,MFTM_A_new1021,2021.2.3,59.920641112492724,
,,,,,,,,stim/Instruction_adaptive.png,conditions/adaptive.xlsx,test,-0.6,-0.6,-0.6,0.6,0.6,left,L,,,,,0,1,1,1,0,3,3,87,,,,,,,,,,,,,,,,,,,,,,,,,,,,,,,,,,,,,,,,,,,,90.58746690000407,None,right,0,1.1912202999810688,91.08782370004337,91.83827740000561,91.08782370004337,91.33860200003255,91.08782370004337,91.33860200003255,91.08782370004337,91.33860200003255,91.08782370004337,91.33860200003255,91.08782370004337,91.33860200003255,91.32177020004019,91.82168150000507,91.32177020004019,91.82168150000507,91.32177020004019,91.82168150000507,91.32177020004019,91.82168150000507,91.32177020004019,91.82168150000507,91.32177020004019,91.82168150000507,91.32177020004019,91.82168150000507,91.32177020004019,91.82168150000507,91.08782370004337,None,91.82168150000507,93.39120760001242,0.25,93.40704489999916,None,94.15828190004686,None,,,,,,,[1.5625],4.030000000000003,0.75,11007,002,2024_Jan_01_1836,MFTM_A_new1021,2021.2.3,59.920641112492724,
,,,,,,,,stim/Instruction_adaptive.png,conditions/adaptive.xlsx,test,-0.6,-0.6,-0.6,0.6,0.6,left,L,,,,,0,1,1,1,0,4,4,25,,,,,,,,,,,,,,,,,,,,,,,,,,,,,,,,,,,,,,,,,,,,94.65985580004053,None,left,1,1.0627496999804862,95.16020859999117,96.06124250002904,95.16020859999117,95.56031090003671,95.16020859999117,95.56031090003671,95.16020859999117,95.56031090003671,95.16020859999117,95.56031090003671,95.16020859999117,95.56031090003671,95.5442342000315,96.04451380000683,95.5442342000315,96.04451380000683,95.5442342000315,96.04451380000683,95.5442342000315,96.04451380000683,95.5442342000315,96.04451380000683,95.5442342000315,96.04451380000683,95.5442342000315,96.04451380000683,95.5442342000315,96.04451380000683,95.16020859999117,None,96.04451380000683,97.71370399999432,0.40000000000000013,97.73033460002625,None,98.48143610003171,None,,,,,,,[1.67],4.700000000000004,0.8,11007,002,2024_Jan_01_1836,MFTM_A_new1021,2021.2.3,59.920641112492724,
,,,,,,,,stim/Instruction_adaptive.png,conditions/adaptive.xlsx,test,-0.6,-0.6,-0.6,0.6,0.6,left,L,,,,,0,1,1,1,0,5,5,79,,,,,,,,,,,,,,,,,,,,,,,,,,,,,,,,,,,,,,,,,,,,98.98261200002162,None,right,0,1.2522695999941789,99.48333900002763,100.23428890004288,99.48333900002763,99.73335700004827,99.48333900002763,99.73335700004827,99.48333900002763,99.73335700004827,99.48333900002763,99.73335700004827,99.48333900002763,99.73335700004827,99.71663730003638,100.21732150000753,99.71663730003638,100.21732150000753,99.71663730003638,100.21732150000753,99.71663730003638,100.21732150000753,99.71663730003638,100.21732150000753,99.71663730003638,100.21732150000753,99.71663730003638,100.21732150000753,99.71663730003638,100.21732150000753,99.48333900002763,None,100.21732150000753,101.98670050001238,0.25,102.00319930003025,None,102.75436700001592,None,,,,,,,[1.76666667],3.5600000000000027,0.6666666666666666,11007,002,2024_Jan_01_1836,MFTM_A_new1021,2021.2.3,59.920641112492724,
,,,,,,,,stim/Instruction_adaptive.png,conditions/adaptive.xlsx,test,0.6,0.6,0.6,-0.6,-0.6,right,R,,,,,0,1,1,1,0,6,6,30,,,,,,,,,,,,,,,,,,,,,,,,,,,,,,,,,,,,,,,,,,,,103.2561344000278,None,right,1,0.8264070999575779,103.75649210001575,104.82457630004501,103.75649210001575,104.32382049999433,103.75649210001575,104.32382049999433,103.75649210001575,104.32382049999433,103.75649210001575,104.32382049999433,103.75649210001575,104.32382049999433,104.30682100000558,104.80744639999466,104.30682100000558,104.80744639999466,104.30682100000558,104.80744639999466,104.30682100000558,104.80744639999466,104.30682100000558,104.80744639999466,104.30682100000558,104.80744639999466,104.30682100000558,104.80744639999466,104.30682100000558,104.80744639999466,103.75649210001575,None,104.80744639999466,None,0.5600000000000003,106.61012329999357,None,107.36152480001329,None,,,,,,,[1.79142857],4.080000000000004,0.7142857142857143,11007,002,2024_Jan_01_1836,MFTM_A_new1021,2021.2.3,59.920641112492724,
,,,,,,,,stim/Instruction_adaptive.png,conditions/adaptive.xlsx,test,-0.6,-0.6,-0.6,0.6,0.6,left,L,,,,,0,1,1,1,0,7,7,71,,,,,,,,,,,,,,,,,,,,,,,,,,,,,,,,,,,,,,,,,,,,107.86259090004023,None,left,1,1.6281166999833658,108.36283930001082,109.26473930000793,108.36283930001082,108.76442620001035,108.36283930001082,108.76442620001035,108.36283930001082,108.76442620001035,108.36283930001082,108.76442620001035,108.36283930001082,108.76442620001035,108.73070020001614,109.23144420003518,108.73070020001614,109.23144420003518,108.73070020001614,109.23144420003518,108.73070020001614,109.23144420003518,108.73070020001614,109.23144420003518,108.73070020001614,109.23144420003518,108.73070020001614,109.23144420003518,108.73070020001614,109.23144420003518,108.36283930001082,None,109.23144420003518,111.06886540004052,0.3900000000000001,111.08330400002887,None,111.8346519000479,None,,,,,,,[1.83125],4.410000000000004,0.75,11007,002,2024_Jan_01_1836,MFTM_A_new1021,2021.2.3,59.920641112492724,
,,,,,,,,stim/Instruction_adaptive.png,conditions/adaptive.xlsx,test,-0.6,-0.6,-0.6,0.6,0.6,left,L,,,,,0,1,1,1,0,8,8,45,,,,,,,,,,,,,,,,,,,,,,,,,,,,,,,,,,,,,,,,,,,,112.33594090002589,None,left,1,1.3057636999874376,112.83752460003598,113.65454519999912,112.83752460003598,113.15328690002207,112.83752460003598,113.15328690002207,112.83752460003598,113.15328690002207,112.83752460003598,113.15328690002207,112.83752460003598,113.15328690002207,113.13724830001593,113.63793760002591,113.13724830001593,113.63793760002591,113.13724830001593,113.63793760002591,113.13724830001593,113.63793760002591,113.13724830001593,113.63793760002591,113.13724830001593,113.63793760002591,113.13724830001593,113.63793760002591,113.13724830001593,113.63793760002591,112.83752460003598,None,113.63793760002591,None,0.31000000000000005,115.52325260004727,None,116.27500740002142,None,,,,,,,[1.87111111],4.660000000000004,0.7777777777777778,11007,002,2024_Jan_01_1836,MFTM_A_new1021,2021.2.3,59.920641112492724,
,,,,,,,,stim/Instruction_adaptive.png,conditions/adaptive.xlsx,test,-0.6,-0.6,-0.6,0.6,0.6,left,L,,,,,0,1,1,1,0,9,9,73,,,,,,,,,,,,,,,,,,,,,,,,,,,,,,,,,,,,,,,,,,,,116.77544110000599,None,right,0,1.507663499971386,117.27585239999462,118.04446250002366,117.27585239999462,117.54305840004236,117.27585239999462,117.54305840004236,117.27585239999462,117.54305840004236,117.27585239999462,117.54305840004236,117.27585239999462,117.54305840004236,117.52686889999313,118.02771370002301,117.52686889999313,118.02771370002301,117.52686889999313,118.02771370002301,117.52686889999313,118.02771370002301,117.52686889999313,118.02771370002301,117.52686889999313,118.02771370002301,117.52686889999313,118.02771370002301,117.52686889999313,118.02771370002301,117.27585239999462,None,118.02771370002301,None,0.26,119.94632119999733,None,120.69862020004075,None,,,,,,,[1.908],4.070000000000003,0.7,11007,002,2024_Jan_01_1836,MFTM_A_new1021,2021.2.3,59.920641112492724,
,,,,,,,,stim/Instruction_adaptive.png,conditions/adaptive.xlsx,test,-0.6,-0.6,-0.6,0.6,0.6,left,L,,,,,0,1,1,1,0,10,10,41,,,,,,,,,,,,,,,,,,,,,,,,,,,,,,,,,,,,,,,,,,,,121.19874340004753,None,left,1,1.3874760000035167,121.6995383000467,122.60045970004285,121.6995383000467,122.10051250003744,121.6995383000467,122.10051250003744,121.6995383000467,122.10051250003744,121.6995383000467,122.10051250003744,121.6995383000467,122.10051250003744,122.06683300004806,122.56699730001856,122.06683300004806,122.56699730001856,122.06683300004806,122.56699730001856,122.06683300004806,122.56699730001856,122.06683300004806,122.56699730001856,122.06683300004806,122.56699730001856,122.06683300004806,122.56699730001856,122.06683300004806,122.56699730001856,121.6995383000467,None,122.56699730001856,124.50347880000481,0.3900000000000001,124.52137510001194,None,125.27103530004388,None,,,,,,,[1.92636364],4.310000000000003,0.7272727272727273,11007,002,2024_Jan_01_1836,MFTM_A_new1021,2021.2.3,59.920641112492724,
,,,,,,,,stim/Instruction_adaptive.png,conditions/adaptive.xlsx,test,-0.6,-0.6,-0.6,0.6,0.6,left,L,,,,,0,1,1,1,0,11,11,99,,,,,,,,,,,,,,,,,,,,,,,,,,,,,,,,,,,,,,,,,,,,125.77192490000743,None,right,0,1.542360900028143,126.27258230000734,127.107723299996,126.27258230000734,126.60759329999564,126.27258230000734,126.60759329999564,126.27258230000734,126.60759329999564,126.27258230000734,126.60759329999564,126.27258230000734,126.60759329999564,126.58965500001796,127.09111269999994,126.58965500001796,127.09111269999994,126.58965500001796,127.09111269999994,126.58965500001796,127.09111269999994,126.58965500001796,127.09111269999994,126.58965500001796,127.09111269999994,126.58965500001796,127.09111269999994,126.58965500001796,127.09111269999994,126.27258230000734,None,127.09111269999994,129.0440532999928,0.33000000000000007,129.07786950003356,None,129.8290448000189,None,,,,,,,[1.94666667],3.730000000000003,0.6666666666666666,11007,002,2024_Jan_01_1836,MFTM_A_new1021,2021.2.3,59.920641112492724,
,,,,,,,,stim/Instruction_adaptive.png,conditions/adaptive.xlsx,test,-0.6,-0.6,-0.6,0.6,0.6,left,L,,,,,0,1,1,1,0,12,12,75,,,,,,,,,,,,,,,,,,,,,,,,,,,,,,,,,,,,,,,,,,,,130.32860460004304,None,left,1,1.808521099970676,130.83052150002914,131.83124590001535,130.83052150002914,131.3310152000049,130.83052150002914,131.3310152000049,130.83052150002914,131.3310152000049,130.83052150002914,131.3310152000049,130.83052150002914,131.3310152000049,131.313474900031,131.81450740003493,131.313474900031,131.81450740003493,131.313474900031,131.81450740003493,131.313474900031,131.81450740003493,131.313474900031,131.81450740003493,131.313474900031,131.81450740003493,131.313474900031,131.81450740003493,131.313474900031,131.81450740003493,130.83052150002914,None,131.81450740003493,133.7676863000379,0.5000000000000002,133.7837087000371,None,134.53520350001054,None,,,,,,,[1.95076923],3.960000000000003,0.6923076923076923,11007,002,2024_Jan_01_1836,MFTM_A_new1021,2021.2.3,59.920641112492724,
,,,,,,,,stim/Instruction_adaptive.png,conditions/adaptive.xlsx,test,-0.6,-0.6,-0.6,0.6,0.6,left,L,,,,,0,1,1,1,0,13,13,15,,,,,,,,,,,,,,,,,,,,,,,,,,,,,,,,,,,,,,,,,,,,135.03554730000906,None,right,0,1.2472909999778494,135.535892600019,136.47175389999757,135.535892600019,135.97054830001434,135.535892600019,135.97054830001434,135.535892600019,135.97054830001434,135.535892600019,135.97054830001434,135.535892600019,135.97054830001434,135.93694640003378,136.43771389999893,135.93694640003378,136.43771389999893,135.93694640003378,136.43771389999893,135.93694640003378,136.43771389999893,135.93694640003378,136.43771389999893,135.93694640003378,136.43771389999893,135.93694640003378,136.43771389999893,135.93694640003378,136.43771389999893,135.535892600019,None,136.43771389999893,138.40779389999807,0.42000000000000015,138.4239720000187,None,139.1754290999961,None,,,,,,,[1.96],3.3800000000000026,0.6428571428571429,11007,002,2024_Jan_01_1836,MFTM_A_new1021,2021.2.3,59.920641112492724,
,,,,,,,,stim/Instruction_adaptive.png,conditions/adaptive.xlsx,test,-0.6,-0.6,-0.6,0.6,0.6,left,L,,,,,0,1,1,1,0,14,14,37,,,,,,,,,,,,,,,,,,,,,,,,,,,,,,,,,,,,,,,,,,,,139.6758276000037,None,left,1,2.0302186000044458,140.17686770000728,141.31216400000267,140.17686770000728,140.81141190003837,140.17686770000728,140.81141190003837,140.17686770000728,140.81141190003837,140.17686770000728,140.81141190003837,140.17686770000728,140.81141190003837,140.7945617000223,141.29551500000525,140.7945617000223,141.29551500000525,140.7945617000223,141.29551500000525,140.7945617000223,141.29551500000525,140.7945617000223,141.29551500000525,140.7945617000223,141.29551500000525,140.7945617000223,141.29551500000525,140.7945617000223,141.29551500000525,140.17686770000728,None,141.29551500000525,143.16462620004313,0.6300000000000003,143.18104060000041,None,143.93225370004075,None,,,,,,,[[1.87]],3.6200000000000028,0.6666666666666666,11007,002,2024_Jan_01_1836,MFTM_A_new1021,2021.2.3,59.920641112492724,
,,,,,,,,stim/Instruction_adaptive.png,conditions/adaptive.xlsx,test,0.6,0.6,0.6,-0.6,-0.6,right,R,,,,,0,1,1,1,0,15,15,38,,,,,,,,,,,,,,,,,,,,,,,,,,,,,,,,,,,,,,,,,,,,144.4328372000018,None,left,0,1.3057009000331163,144.93345450004563,145.9856252000318,144.93345450004563,145.48477540002204,144.93345450004563,145.48477540002204,144.93345450004563,145.48477540002204,144.93345450004563,145.48477540002204,144.93345450004563,145.48477540002204,145.45154310000362,145.95240510004805,145.45154310000362,145.95240510004805,145.45154310000362,145.95240510004805,145.45154310000362,145.95240510004805,145.45154310000362,145.95240510004805,145.45154310000362,145.95240510004805,145.45154310000362,145.95240510004805,145.45154310000362,145.95240510004805,144.93345450004563,None,145.95240510004805,147.92136189999292,0.5400000000000003,147.93858580000233,None,148.6896112000104,None,,,,,,,[1.954375],3.030000000000002,0.625,11007,002,2024_Jan_01_1836,MFTM_A_new1021,2021.2.3,59.920641112492724,
,,,,,,,,stim/Instruction_adaptive.png,conditions/adaptive.xlsx,test,0.6,0.6,0.6,-0.6,-0.6,right,R,,,,,0,1,1,1,0,16,16,60,,,,,,,,,,,,,,,,,,,,,,,,,,,,,,,,,,,,,,,,,,,,149.18992830003845,None,left,0,2.156473500013817,149.69058230001247,151.00942970003234,149.69058230001247,150.5085556000122,149.69058230001247,150.5085556000122,149.69058230001247,150.5085556000122,149.69058230001247,150.5085556000122,149.69058230001247,150.5085556000122,150.49181680002948,150.99292779999087,150.49181680002948,150.99292779999087,150.49181680002948,150.99292779999087,150.49181680002948,150.99292779999087,150.49181680002948,150.99292779999087,150.49181680002948,150.99292779999087,150.49181680002948,150.99292779999087,150.49181680002948,150.99292779999087,149.69058230001247,None,150.97621640004218,152.67843309999444,0.8100000000000005,152.69592190004187,None,153.44649480003864,None,,,,,,,[[1.69]],2.2300000000000013,0.5882352941176471,11007,002,2024_Jan_01_1836,MFTM_A_new1021,2021.2.3,59.920641112492724,
,,,,,,,,stim/Instruction_adaptive.png,conditions/adaptive.xlsx,test,0.6,0.6,0.6,-0.6,-0.6,right,R,,,,,0,1,1,1,0,17,17,26,,,,,,,,,,,,,,,,,,,,,,,,,,,,,,,,,,,,,,,,,,,,153.9475797000341,None,right,1,1.8628467000089586,154.4482770000468,156.35117040004116,154.4482770000468,155.84981899999548,154.4482770000468,155.84981899999548,154.4482770000468,155.84981899999548,154.4482770000468,155.84981899999548,154.4482770000468,155.84981899999548,155.83332790003624,156.33379980002064,155.83332790003624,156.33379980002064,155.83332790003624,156.33379980002064,155.83332790003624,156.33379980002064,155.83332790003624,156.33379980002064,155.83332790003624,156.33379980002064,155.83332790003624,156.33379980002064,155.83332790003624,156.33379980002064,154.4482770000468,None,156.33379980002064,157.43538820004323,1.400000000000001,157.45255640003597,None,158.2039449000149,None,,,,,,,[[1.1]],2.580000000000002,0.6111111111111112,11007,002,2024_Jan_01_1836,MFTM_A_new1021,2021.2.3,59.920641112492724,
,,,,,,,,stim/Instruction_adaptive.png,conditions/adaptive.xlsx,test,0.6,0.6,0.6,-0.6,-0.6,right,R,,,,,0,1,1,1,0,18,18,12,,,,,,,,,,,,,,,,,,,,,,,,,,,,,,,,,,,,,,,,,,,,158.70463220000966,None,right,1,1.3141693999641575,159.20521869999357,160.80720530002145,159.20521869999357,160.30626330000814,159.20521869999357,160.30626330000814,159.20521869999357,160.30626330000814,159.20521869999357,160.30626330000814,159.20521869999357,160.30626330000814,160.29021760000614,160.79067370004486,160.29021760000614,160.79067370004486,160.29021760000614,160.79067370004486,160.29021760000614,160.79067370004486,160.29021760000614,160.79067370004486,160.29021760000614,160.79067370004486,160.29021760000614,160.79067370004486,160.29021760000614,160.79067370004486,159.20521869999357,None,160.79067370004486,162.19300020002993,1.1000000000000008,162.21050899999682,None,162.96036150003783,None,,,,,,,[[1.4]],2.830000000000002,0.631578947368421,11007,002,2024_Jan_01_1836,MFTM_A_new1021,2021.2.3,59.920641112492724,
,,,,,,,,stim/Instruction_adaptive.png,conditions/adaptive.xlsx,test,-0.6,-0.6,-0.6,0.6,0.6,left,L,,,,,0,1,1,1,0,19,19,3,,,,,,,,,,,,,,,,,,,,,,,,,,,,,,,,,,,,,,,,,,,,163.46211230003973,None,None,0,0,163.98003259999678,165.41474720003316,163.98003259999678,164.91386960004456,163.98003259999678,164.91386960004456,163.98003259999678,164.91386960004456,163.98003259999678,164.91386960004456,163.98003259999678,164.91386960004456,164.88037940004142,165.38114569999743,164.88037940004142,165.38114569999743,164.88037940004142,165.38114569999743,164.88037940004142,165.38114569999743,164.88037940004142,165.38114569999743,164.88037940004142,165.38114569999743,164.88037940004142,165.38114569999743,164.88037940004142,165.38114569999743,163.98003259999678,None,165.38114569999743,167.45087570004398,0.9300000000000006,167.50081120000686,None,168.2522504000226,None,,,,,,,[[2.07]],2.2300000000000013,0.6,11007,002,2024_Jan_01_1836,MFTM_A_new1021,2021.2.3,59.920641112492724,
,,,,,,,,stim/Instruction_adaptive.png,conditions/adaptive.xlsx,test,-0.6,-0.6,-0.6,0.6,0.6,left,L,,,,,0,1,1,1,0,20,20,61,,,,,,,,,,,,,,,,,,,,,,,,,,,,,,,,,,,,,,,,,,,,168.75310390000232,None,left,1,1.5695039000129327,169.2538475000183,171.15673919999972,169.2538475000183,170.65584340004716,169.2538475000183,170.65584340004716,169.2538475000183,170.65584340004716,169.2538475000183,170.65584340004716,169.2538475000183,170.65584340004716,170.63830610003788,171.1400144000072,170.63830610003788,171.1400144000072,170.63830610003788,171.1400144000072,170.63830610003788,171.1400144000072,170.63830610003788,171.1400144000072,170.63830610003788,171.1400144000072,170.63830610003788,171.1400144000072,170.63830610003788,171.1400144000072,169.2538475000183,None,171.1400144000072,172.24168500001542,1.400000000000001,172.25727060000645,None,173.00962250004523,None,,,,,,,[[1.1]],2.4700000000000015,0.6190476190476191,11007,002,2024_Jan_01_1836,MFTM_A_new1021,2021.2.3,59.920641112492724,
,,,,,,,,stim/Instruction_adaptive.png,conditions/adaptive.xlsx,test,-0.6,-0.6,-0.6,0.6,0.6,left,L,,,,,0,1,1,1,0,21,21,81,,,,,,,,,,,,,,,,,,,,,,,,,,,,,,,,,,,,,,,,,,,,173.5091843000264,None,left,1,1.2687561999773607,174.010872200015,175.71314850001363,174.010872200015,175.21295980003197,174.010872200015,175.21295980003197,174.010872200015,175.21295980003197,174.010872200015,175.21295980003197,174.010872200015,175.21295980003197,175.17835590004688,175.6792456000112,175.17835590004688,175.6792456000112,175.17835590004688,175.6792456000112,175.17835590004688,175.6792456000112,175.17835590004688,175.6792456000112,175.17835590004688,175.6792456000112,175.17835590004688,175.6792456000112,175.17835590004688,175.6792456000112,174.010872200015,None,175.6792456000112,176.9978702000226,1.1900000000000008,177.01564350002445,None,177.76626760000363,None,,,,,,,[[1.31]],2.660000000000002,0.6363636363636364,11007,002,2024_Jan_01_1836,MFTM_A_new1021,2021.2.3,59.920641112492724,
,,,,,,,,stim/Instruction_adaptive.png,conditions/adaptive.xlsx,test,0.6,0.6,0.6,-0.6,-0.6,right,R,,,,,0,1,1,1,0,22,22,20,,,,,,,,,,,,,,,,,,,,,,,,,,,,,,,,,,,,,,,,,,,,178.2670458999928,None,left,0,2.4081121999770403,178.76708340004552,180.31990210001823,178.76708340004552,179.8191873000469,178.76708340004552,179.8191873000469,178.76708340004552,179.8191873000469,178.76708340004552,179.8191873000469,178.76708340004552,179.8191873000469,179.78596820001258,180.2871293000062,179.78596820001258,180.2871293000062,179.78596820001258,180.2871293000062,179.78596820001258,180.2871293000062,179.78596820001258,180.2871293000062,179.78596820001258,180.2871293000062,179.78596820001258,180.2871293000062,179.78596820001258,180.2871293000062,178.76708340004552,None,180.2871293000062,181.75555920001352,1.0400000000000007,181.77130540000508,None,182.52255260001402,None,,,,,,,[[1.46]],2.1700000000000017,0.6086956521739131,11007,002,2024_Jan_01_1836,MFTM_A_new1021,2021.2.3,59.920641112492724,
,,,,,,,,stim/Instruction_adaptive.png,conditions/adaptive.xlsx,test,0.6,0.6,0.6,-0.6,-0.6,right,R,,,,,0,1,1,1,0,23,23,44,,,,,,,,,,,,,,,,,,,,,,,,,,,,,,,,,,,,,,,,,,,,183.02449909999268,None,right,1,1.4107966999872588,183.5248615000164,185.49408309999853,183.5248615000164,184.99367290001828,183.5248615000164,184.99367290001828,183.5248615000164,184.99367290001828,183.5248615000164,184.99367290001828,183.5248615000164,184.99367290001828,184.95957490004366,185.46025090001058,184.95957490004366,185.46025090001058,184.95957490004366,185.46025090001058,184.95957490004366,185.46025090001058,184.95957490004366,185.46025090001058,184.95957490004366,185.46025090001058,184.95957490004366,185.46025090001058,184.95957490004366,185.46025090001058,183.5248615000164,None,185.46025090001058,186.51257840002654,1.460000000000001,186.52837670000736,None,187.2808772000135,None,,,,,,,[[1.04]],2.370000000000002,0.625,11007,002,2024_Jan_01_1836,MFTM_A_new1021,2021.2.3,59.920641112492724,
,,,,,,,,stim/Instruction_adaptive.png,conditions/adaptive.xlsx,test,-0.6,-0.6,-0.6,0.6,0.6,left,L,,,,,0,1,1,1,0,24,24,33,,,,,,,,,,,,,,,,,,,,,,,,,,,,,,,,,,,,,,,,,,,,187.7804976000334,None,left,1,1.1979934999835677,188.28116060001776,190.05090150004253,188.28116060001776,189.5501471000025,188.28116060001776,189.5501471000025,188.28116060001776,189.5501471000025,188.28116060001776,189.5501471000025,188.28116060001776,189.5501471000025,189.53379390004557,190.03454510000302,189.53379390004557,190.03454510000302,189.53379390004557,190.03454510000302,189.53379390004557,190.03454510000302,189.53379390004557,190.03454510000302,189.53379390004557,190.03454510000302,189.53379390004557,190.03454510000302,189.53379390004557,190.03454510000302,188.28116060001776,None,190.03454510000302,191.26933780004038,1.270000000000001,191.28607390000252,None,192.03734760003863,None,,,,,,,[[1.23]],2.530000000000002,0.64,11007,002,2024_Jan_01_1836,MFTM_A_new1021,2021.2.3,59.920641112492724,
,,,,,,,,stim/Instruction_adaptive.png,conditions/adaptive.xlsx,test,0.6,0.6,0.6,-0.6,-0.6,right,R,,,,,0,1,1,1,0,25,25,52,,,,,,,,,,,,,,,,,,,,,,,,,,,,,,,,,,,,,,,,,,,,192.5375272000092,None,right,1,1.9368629000382498,193.03832140000304,194.69097769999644,193.03832140000304,194.18995590001578,193.03832140000304,194.18995590001578,193.03832140000304,194.18995590001578,193.03832140000304,194.18995590001578,193.03832140000304,194.18995590001578,194.15651760000037,194.65797719999682,194.15651760000037,194.65797719999682,194.15651760000037,194.65797719999682,194.15651760000037,194.65797719999682,194.15651760000037,194.65797719999682,194.15651760000037,194.65797719999682,194.15651760000037,194.65797719999682,194.15651760000037,194.65797719999682,193.03832140000304,None,194.65797719999682,196.0260297000059,1.1400000000000008,196.0432587999967,None,196.79467410000507,None,,,,,,,[[1.36]],2.660000000000002,0.6538461538461539,11007,002,2024_Jan_01_1836,MFTM_A_new1021,2021.2.3,59.920641112492724,
,,,,,,,,stim/Instruction_adaptive.png,conditions/adaptive.xlsx,test,0.6,0.6,0.6,-0.6,-0.6,right,R,,,,,0,1,1,1,0,26,26,56,,,,,,,,,,,,,,,,,,,,,,,,,,,,,,,,,,,,,,,,,,,,197.2945682000136,None,right,1,1.4910117000108585,197.79603760002647,199.34762539999792,197.79603760002647,198.8474808000028,197.79603760002647,198.8474808000028,197.79603760002647,198.8474808000028,197.79603760002647,198.8474808000028,197.79603760002647,198.8474808000028,198.81441759999143,199.31424040003913,198.81441759999143,199.31424040003913,198.81441759999143,199.31424040003913,198.81441759999143,199.31424040003913,198.81441759999143,199.31424040003913,198.81441759999143,199.31424040003913,198.81441759999143,199.31424040003913,198.81441759999143,199.31424040003913,197.79603760002647,None,199.31424040003913,200.78351030003978,1.0400000000000007,200.80093870003475,None,201.55092130001867,None,,,,,,,[[1.46]],2.780000000000002,0.6666666666666666,11007,002,2024_Jan_01_1836,MFTM_A_new1021,2021.2.3,59.920641112492724,
,,,,,,,,stim/Instruction_adaptive.png,conditions/adaptive.xlsx,test,-0.6,-0.6,-0.6,0.6,0.6,left,L,,,,,0,1,1,1,0,27,27,9,,,,,,,,,,,,,,,,,,,,,,,,,,,,,,,,,,,,,,,,,,,,202.0515452999971,None,left,1,1.4854094000183977,202.55354069999885,204.02108890004456,202.55354069999885,203.5208125000354,202.55354069999885,203.5208125000354,202.55354069999885,203.5208125000354,202.55354069999885,203.5208125000354,202.55354069999885,203.5208125000354,203.48721150000347,203.98821850004606,203.48721150000347,203.98821850004606,203.48721150000347,203.98821850004606,203.48721150000347,203.98821850004606,203.48721150000347,203.98821850004606,203.48721150000347,203.98821850004606,203.48721150000347,203.98821850004606,203.48721150000347,203.98821850004606,202.55354069999885,None,203.98821850004606,205.5405427000369,0.9600000000000006,205.55727240000851,None,206.30863640003372,None,,,,,,,[[1.54]],2.880000000000002,0.6785714285714286,11007,002,2024_Jan_01_1836,MFTM_A_new1021,2021.2.3,59.920641112492724,
,,,,,,,,stim/Instruction_adaptive.png,conditions/adaptive.xlsx,test,0.6,0.6,0.6,-0.6,-0.6,right,R,,,,,0,1,1,1,0,28,28,94,,,,,,,,,,,,,,,,,,,,,,,,,,,,,,,,,,,,,,,,,,,,206.8089534000028,None,right,1,1.345838199951686,207.30929659999674,208.71212929999456,207.30929659999674,208.21135580004193,207.30929659999674,208.21135580004193,207.30929659999674,208.21135580004193,207.30929659999674,208.21135580004193,207.30929659999674,208.21135580004193,208.178127399995,208.67814180004643,208.178127399995,208.67814180004643,208.178127399995,208.67814180004643,208.178127399995,208.67814180004643,208.178127399995,208.67814180004643,208.178127399995,208.67814180004643,208.178127399995,208.67814180004643,208.178127399995,208.67814180004643,207.30929659999674,None,208.67814180004643,210.2976134000346,0.8900000000000006,210.3146971000242,None,211.06523559999187,None,,,,,,,[[1.61]],2.9700000000000024,0.6896551724137931,11007,002,2024_Jan_01_1836,MFTM_A_new1021,2021.2.3,59.920641112492724,
,,,,,,,,stim/Instruction_adaptive.png,conditions/adaptive.xlsx,test,-0.6,-0.6,-0.6,0.6,0.6,left,L,,,,,0,1,1,1,0,29,29,59,,,,,,,,,,,,,,,,,,,,,,,,,,,,,,,,,,,,,,,,,,,,211.5665818999987,None,left,1,1.3892789999954402,212.06638229999226,213.41916240000864,212.06638229999226,212.91773740004282,212.06638229999226,212.91773740004282,212.06638229999226,212.91773740004282,212.06638229999226,212.91773740004282,212.06638229999226,212.91773740004282,212.8845889000222,213.38586500001838,212.8845889000222,213.38586500001838,212.8845889000222,213.38586500001838,212.8845889000222,213.38586500001838,212.8845889000222,213.38586500001838,212.8845889000222,213.38586500001838,212.8845889000222,213.38586500001838,212.8845889000222,213.38586500001838,212.06638229999226,None,213.38586500001838,215.05419970001094,0.8400000000000005,215.0713037000387,None,215.8220064000343,None,,,,,,,[[1.66]],3.0500000000000025,0.7,11007,002,2024_Jan_01_1836,MFTM_A_new1021,2021.2.3,59.920641112492724,
,,,,,,,,stim/Instruction_adaptive.png,conditions/adaptive.xlsx,test,-0.6,-0.6,-0.6,0.6,0.6,left,L,,,,,0,1,1,1,0,30,30,39,,,,,,,,,,,,,,,,,,,,,,,,,,,,,,,,,,,,,,,,,,,,216.32326800003648,None,right,0,1.3027682999963872,216.8242953000008,218.12534760002745,216.8242953000008,217.6246153000393,216.8242953000008,217.6246153000393,216.8242953000008,217.6246153000393,216.8242953000008,217.6246153000393,216.8242953000008,217.6246153000393,217.59416350000538,218.1086063000257,217.59416350000538,218.1086063000257,217.59416350000538,218.1086063000257,217.59416350000538,218.1086063000257,217.59416350000538,218.1086063000257,217.59416350000538,218.1086063000257,217.59416350000538,218.1086063000257,217.59416350000538,218.1086063000257,216.8242953000008,None,218.0920701000141,219.79447910003364,0.7900000000000005,219.82826830004342,None,220.57906499999808,None,,,,,,,[1.69387097],2.820000000000002,0.6774193548387096,11007,002,2024_Jan_01_1836,MFTM_A_new1021,2021.2.3,59.920641112492724,
,,,,,,,,stim/Instruction_adaptive.png,conditions/adaptive.xlsx,test,0.6,0.6,0.6,-0.6,-0.6,right,R,,,,,0,1,1,1,0,31,31,86,,,,,,,,,,,,,,,,,,,,,,,,,,,,,,,,,,,,,,,,,,,,221.08117890002904,None,right,1,1.3306084999931045,221.5804217000259,223.01651600003242,221.5804217000259,222.5156175000011,221.5804217000259,222.5156175000011,221.5804217000259,222.5156175000011,221.5804217000259,222.5156175000011,221.5804217000259,222.5156175000011,222.49998540000524,222.9995870999992,222.49998540000524,222.9995870999992,222.49998540000524,222.9995870999992,222.49998540000524,222.9995870999992,222.49998540000524,222.9995870999992,222.49998540000524,222.9995870999992,222.49998540000524,222.9995870999992,222.49998540000524,222.9995870999992,221.5804217000259,None,222.9995870999992,224.56898870004807,0.9300000000000006,224.58478380000452,None,225.33683570002904,None,,,,,,,[[1.57]],2.910000000000002,0.6875,11007,002,2024_Jan_01_1836,MFTM_A_new1021,2021.2.3,59.920641112492724,
,,,,,,,,stim/Instruction_adaptive.png,conditions/adaptive.xlsx,test,0.6,0.6,0.6,-0.6,-0.6,right,R,,,,,0,1,1,1,0,32,32,98,,,,,,,,,,,,,,,,,,,,,,,,,,,,,,,,,,,,,,,,,,,,225.83675400004722,None,right,1,1.8613762999884784,226.33842040004674,227.72633670002688,226.33842040004674,227.2227287000278,226.33842040004674,227.2227287000278,226.33842040004674,227.2227287000278,226.33842040004674,227.2227287000278,226.33842040004674,227.2227287000278,227.20606769999722,227.70662290003384,227.20606769999722,227.70662290003384,227.20606769999722,227.70662290003384,227.20606769999722,227.70662290003384,227.20606769999722,227.70662290003384,227.20606769999722,227.70662290003384,227.20606769999722,227.70662290003384,227.20606769999722,227.70662290003384,226.33842040004674,None,227.70662290003384,229.32519360003062,0.8800000000000006,229.34194240003126,None,230.09354800003348,None,,,,,,,[[1.62]],2.980000000000002,0.696969696969697,11007,002,2024_Jan_01_1836,MFTM_A_new1021,2021.2.3,59.920641112492724,
,,,,,,,,stim/Instruction_adaptive.png,conditions/adaptive.xlsx,test,-0.6,-0.6,-0.6,0.6,0.6,left,L,,,,,0,1,1,1,0,33,33,5,,,,,,,,,,,,,,,,,,,,,,,,,,,,,,,,,,,,,,,,,,,,230.59477060002973,None,left,1,1.1842047999962233,231.09534580004402,232.42988270003116,231.09534580004402,231.92914870003005,231.09534580004402,231.92914870003005,231.09534580004402,231.92914870003005,231.09534580004402,231.92914870003005,231.09534580004402,231.92914870003005,231.91289080004208,232.41364810004598,231.91289080004208,232.41364810004598,231.91289080004208,232.41364810004598,231.91289080004208,232.41364810004598,231.91289080004208,232.41364810004598,231.91289080004208,232.41364810004598,231.91289080004208,232.41364810004598,231.91289080004208,232.41364810004598,231.09534580004402,None,232.41364810004598,None,0.8300000000000005,234.11702780000633,None,234.86797990003834,None,,,,,,,[[1.67]],3.0500000000000025,0.7058823529411765,11007,002,2024_Jan_01_1836,MFTM_A_new1021,2021.2.3,59.920641112492724,
,,,,,,,,stim/Instruction_adaptive.png,conditions/adaptive.xlsx,test,0.6,0.6,0.6,-0.6,-0.6,right,R,,,,,0,1,1,1,0,34,34,66,,,,,,,,,,,,,,,,,,,,,,,,,,,,,,,,,,,,,,,,,,,,235.36805980000645,None,right,1,1.0421182000427507,235.86894880002365,237.1711012000451,235.86894880002365,236.67015750001883,235.86894880002365,236.67015750001883,235.86894880002365,236.67015750001883,235.86894880002365,236.67015750001883,235.86894880002365,236.67015750001883,236.63671420002356,237.136971800006,236.63671420002356,237.136971800006,236.63671420002356,237.136971800006,236.63671420002356,237.136971800006,236.63671420002356,237.136971800006,236.63671420002356,237.136971800006,236.63671420002356,237.136971800006,236.63671420002356,237.136971800006,235.86894880002365,None,237.136971800006,238.83954790001735,0.7900000000000005,238.85593439999502,None,239.6081541000167,None,,,,,,,[1.688],3.1200000000000023,0.7142857142857143,11007,002,2024_Jan_01_1836,MFTM_A_new1021,2021.2.3,59.920641112492724,
,,,,,,,,stim/Instruction_adaptive.png,conditions/adaptive.xlsx,test,0.6,0.6,0.6,-0.6,-0.6,right,R,,,,,0,1,1,1,0,35,35,48,,,,,,,,,,,,,,,,,,,,,,,,,,,,,,,,,,,,,,,,,,,,240.10927000001539,None,right,1,1.2300179999438114,240.6091789000202,241.8775257000234,240.6091789000202,241.37706600001547,240.6091789000202,241.37706600001547,240.6091789000202,241.37706600001547,240.6091789000202,241.37706600001547,240.6091789000202,241.37706600001547,241.36055590002798,241.8609069000231,241.36055590002798,241.8609069000231,241.36055590002798,241.8609069000231,241.36055590002798,241.8609069000231,241.36055590002798,241.8609069000231,241.36055590002798,241.8609069000231,241.36055590002798,241.8609069000231,241.36055590002798,241.8609069000231,240.6091789000202,None,241.84409190004226,243.54687740001827,0.7600000000000005,243.56365660001757,None,244.31416460004402,None,,,,,,,[1.68944444],3.1800000000000024,0.7222222222222222,11007,002,2024_Jan_01_1836,MFTM_A_new1021,2021.2.3,59.920641112492724,
,,,,,,,,stim/Instruction_adaptive.png,conditions/adaptive.xlsx,test,0.6,0.6,0.6,-0.6,-0.6,right,R,,,,,0,1,1,1,0,36,36,74,,,,,,,,,,,,,,,,,,,,,,,,,,,,,,,,,,,,,,,,,,,,244.81537850003224,None,left,0,1.6828650999814272,245.31660220003687,246.5512765000458,245.31660220003687,246.0507238000282,245.31660220003687,246.0507238000282,245.31660220003687,246.0507238000282,245.31660220003687,246.0507238000282,245.31660220003687,246.0507238000282,246.03344369999832,246.5347418000456,246.03344369999832,246.5347418000456,246.03344369999832,246.5347418000456,246.03344369999832,246.5347418000456,246.03344369999832,246.5347418000456,246.03344369999832,246.5347418000456,246.03344369999832,246.5347418000456,246.03344369999832,246.5347418000456,245.31660220003687,None,246.5347418000456,None,0.7300000000000004,248.23658510000678,None,248.98824900004547,None,,,,,,,[1.69162162],3.0100000000000025,0.7027027027027027,11007,002,2024_Jan_01_1836,MFTM_A_new1021,2021.2.3,59.920641112492724,
,,,,,,,,stim/Instruction_adaptive.png,conditions/adaptive.xlsx,test,0.6,0.6,0.6,-0.6,-0.6,right,R,,,,,0,1,1,1,0,37,37,68,,,,,,,,,,,,,,,,,,,,,,,,,,,,,,,,,,,,,,,,,,,,249.48936960002175,None,right,1,1.1531252000131644,249.99000730004627,251.3254071000265,249.99000730004627,250.82450149999931,249.99000730004627,250.82450149999931,249.99000730004627,250.82450149999931,249.99000730004627,250.82450149999931,249.99000730004627,250.82450149999931,250.790937200014,251.29186110000592,250.790937200014,251.29186110000592,250.790937200014,251.29186110000592,250.790937200014,251.29186110000592,250.790937200014,251.29186110000592,250.790937200014,251.29186110000592,250.790937200014,251.29186110000592,250.790937200014,251.29186110000592,249.99000730004627,None,251.29186110000592,252.9769322000211,0.8200000000000005,252.99447480001254,None,253.74585920001846,None,,,,,,,[[1.68]],3.070000000000002,0.7105263157894737,11007,002,2024_Jan_01_1836,MFTM_A_new1021,2021.2.3,59.920641112492724,
,,,,,,,,stim/Instruction_adaptive.png,conditions/adaptive.xlsx,test,0.6,0.6,0.6,-0.6,-0.6,right,R,,,,,0,1,1,1,0,38,38,36,,,,,,,,,,,,,,,,,,,,,,,,,,,,,,,,,,,,,,,,,,,,254.2466653000447,None,right,1,1.685218500031624,254.7463737000362,256.0320738000446,254.7463737000362,255.53147480002372,254.7463737000362,255.53147480002372,254.7463737000362,255.53147480002372,254.7463737000362,255.53147480002372,254.7463737000362,255.53147480002372,255.51486809999915,256.01535300002433,255.51486809999915,256.01535300002433,255.51486809999915,256.01535300002433,255.51486809999915,256.01535300002433,255.51486809999915,256.01535300002433,255.51486809999915,256.01535300002433,255.51486809999915,256.01535300002433,255.51486809999915,256.01535300002433,254.7463737000362,None,256.01535300002433,None,0.7800000000000005,257.7174633000395,None,258.46888310002396,None,,,,,,,[1.69205128],3.1300000000000026,0.717948717948718,11007,002,2024_Jan_01_1836,MFTM_A_new1021,2021.2.3,59.920641112492724,
,,,,,,,,stim/Instruction_adaptive.png,conditions/adaptive.xlsx,test,-0.6,-0.6,-0.6,0.6,0.6,left,L,,,,,0,1,1,1,0,39,39,55,,,,,,,,,,,,,,,,,,,,,,,,,,,,,,,,,,,,,,,,,,,,258.9697943000356,None,left,1,1.489063700020779,259.47020989999874,260.7223202000023,259.47020989999874,260.22153660003096,259.47020989999874,260.22153660003096,259.47020989999874,260.22153660003096,259.47020989999874,260.22153660003096,259.47020989999874,260.22153660003096,260.20441080001183,260.7055951000075,260.20441080001183,260.7055951000075,260.20441080001183,260.7055951000075,260.20441080001183,260.7055951000075,260.20441080001183,260.7055951000075,260.20441080001183,260.7055951000075,260.20441080001183,260.7055951000075,260.20441080001183,260.7055951000075,259.47020989999874,None,260.7055951000075,262.4084581999923,0.7500000000000004,262.4242818999919,None,263.1762128000264,None,,,,,,,[1.6935],3.1800000000000024,0.725,11007,002,2024_Jan_01_1836,MFTM_A_new1021,2021.2.3,59.920641112492724,
,,,,,,,,stim/Instruction_adaptive.png,conditions/adaptive.xlsx,test,-0.6,-0.6,-0.6,0.6,0.6,left,L,,,,,0,1,1,1,0,40,40,63,,,,,,,,,,,,,,,,,,,,,,,,,,,,,,,,,,,,,,,,,,,,263.67637770000147,None,left,1,1.214428199979011,264.17686720000347,265.4122566000442,264.17686720000347,264.9123145000194,264.17686720000347,264.9123145000194,264.17686720000347,264.9123145000194,264.17686720000347,264.9123145000194,264.17686720000347,264.9123145000194,264.89532230002806,265.3955457000411,264.89532230002806,265.3955457000411,264.89532230002806,265.3955457000411,264.89532230002806,265.3955457000411,264.89532230002806,265.3955457000411,264.89532230002806,265.3955457000411,264.89532230002806,265.3955457000411,264.89532230002806,265.3955457000411,264.17686720000347,None,265.3955457000411,267.09856250003213,0.7300000000000004,267.1146279000095,None,267.8665384000051,None,,,,,,,[1.69536585],3.230000000000002,0.7317073170731707,11007,002,2024_Jan_01_1836,MFTM_A_new1021,2021.2.3,59.920641112492724,
,,,,,,,,stim/Instruction_adaptive.png,conditions/adaptive.xlsx,test,-0.6,-0.6,-0.6,0.6,0.6,left,L,,,,,0,1,1,1,0,41,41,31,,,,,,,,,,,,,,,,,,,,,,,,,,,,,,,,,,,,,,,,,,,,268.3678023000248,None,left,1,1.2997277000104077,268.8678113000351,270.069768699992,268.8678113000351,269.5683501000167,268.8678113000351,269.5683501000167,268.8678113000351,269.5683501000167,268.8678113000351,269.5683501000167,268.8678113000351,269.5683501000167,269.5515985999955,270.0534106999985,269.5515985999955,270.0534106999985,269.5515985999955,270.0534106999985,269.5515985999955,270.0534106999985,269.5515985999955,270.0534106999985,269.5515985999955,270.0534106999985,269.5515985999955,270.0534106999985,269.5515985999955,270.0534106999985,268.8678113000351,None,270.0534106999985,271.7556661000126,0.7000000000000004,271.7715335999965,None,272.52265630004695,None,,,,,,,[1.69785714],3.2800000000000025,0.7380952380952381,11007,002,2024_Jan_01_1836,MFTM_A_new1021,2021.2.3,59.920641112492724,
,,,,,,,,stim/Instruction_adaptive.png,conditions/adaptive.xlsx,test,0.6,0.6,0.6,-0.6,-0.6,right,R,,,,,0,1,1,1,0,42,42,78,,,,,,,,,,,,,,,,,,,,,,,,,,,,,,,,,,,,,,,,,,,,273.0238496999955,None,right,1,0.8582252999767661,273.52483940002276,274.70925410004565,273.52483940002276,274.2091582000139,273.52483940002276,274.2091582000139,273.52483940002276,274.2091582000139,273.52483940002276,274.2091582000139,273.52483940002276,274.2091582000139,274.1926683000056,274.693413400033,274.1926683000056,274.693413400033,274.1926683000056,274.693413400033,274.1926683000056,274.693413400033,274.1926683000056,274.693413400033,274.1926683000056,274.693413400033,274.1926683000056,274.693413400033,274.1926683000056,274.693413400033,273.52483940002276,None,274.693413400033,276.3954265000066,0.6800000000000004,276.4127640000079,None,277.1628899000352,None,,,,,,,[1.70069767],3.3300000000000027,0.7441860465116279,11007,002,2024_Jan_01_1836,MFTM_A_new1021,2021.2.3,59.920641112492724,
,,,,,,,,stim/Instruction_adaptive.png,conditions/adaptive.xlsx,test,0.6,0.6,0.6,-0.6,-0.6,right,R,,,,,0,1,1,1,0,43,43,96,,,,,,,,,,,,,,,,,,,,,,,,,,,,,,,,,,,,,,,,,,,,277.66365410003345,None,right,1,1.1950410000281408,278.16427070001373,279.31613960000686,278.16427070001373,278.8158150000381,278.16427070001373,278.8158150000381,278.16427070001373,278.8158150000381,278.16427070001373,278.8158150000381,278.16427070001373,278.8158150000381,278.7990421000286,279.29941300000064,278.7990421000286,279.29941300000064,278.7990421000286,279.29941300000064,278.7990421000286,279.29941300000064,278.7990421000286,279.29941300000064,278.7990421000286,279.29941300000064,278.7990421000286,279.29941300000064,278.7990421000286,279.29941300000064,278.16427070001373,None,279.29941300000064,None,0.6500000000000004,281.0186625000206,None,281.76979350001784,None,,,,,,,[1.70409091],3.3700000000000028,0.75,11007,002,2024_Jan_01_1836,MFTM_A_new1021,2021.2.3,59.920641112492724,
,,,,,,,,stim/Instruction_adaptive.png,conditions/adaptive.xlsx,test,-0.6,-0.6,-0.6,0.6,0.6,left,L,,,,,0,1,1,1,0,44,44,23,,,,,,,,,,,,,,,,,,,,,,,,,,,,,,,,,,,,,,,,,,,,282.27053530002013,None,left,1,1.3801437000511214,282.7713899000082,283.923008200014,282.7713899000082,283.4231906000059,282.7713899000082,283.4231906000059,282.7713899000082,283.4231906000059,282.7713899000082,283.4231906000059,282.7713899000082,283.4231906000059,283.38933279999765,283.8897883000318,283.38933279999765,283.8897883000318,283.38933279999765,283.8897883000318,283.38933279999765,283.8897883000318,283.38933279999765,283.8897883000318,283.38933279999765,283.8897883000318,283.38933279999765,283.8897883000318,283.38933279999765,283.8897883000318,282.7713899000082,None,283.8897883000318,285.6088404000038,0.6400000000000003,285.62533830001485,None,286.3775109000271,None,,,,,,,[1.70755556],3.410000000000003,0.7555555555555555,11007,002,2024_Jan_01_1836,MFTM_A_new1021,2021.2.3,59.920641112492724,
,,,,,,,,stim/Instruction_adaptive.png,conditions/adaptive.xlsx,test,-0.6,-0.6,-0.6,0.6,0.6,left,L,,,,,0,1,1,1,0,45,45,51,,,,,,,,,,,,,,,,,,,,,,,,,,,,,,,,,,,,,,,,,,,,286.87770900002215,None,left,1,1.2131046999711543,287.3780982000171,288.51357130002,287.3780982000171,288.01316309999675,287.3780982000171,288.01316309999675,287.3780982000171,288.01316309999675,287.3780982000171,288.01316309999675,287.3780982000171,288.01316309999675,287.9790236999979,288.4797184999916,287.9790236999979,288.4797184999916,287.9790236999979,288.4797184999916,287.9790236999979,288.4797184999916,287.9790236999979,288.4797184999916,287.9790236999979,288.4797184999916,287.9790236999979,288.4797184999916,287.9790236999979,288.4797184999916,287.3780982000171,None,288.4797184999916,290.19987170002423,0.6200000000000003,290.21549050003523,None,290.9666020000004,None,,,,,,,[1.71130435],3.450000000000003,0.7608695652173914,11007,002,2024_Jan_01_1836,MFTM_A_new1021,2021.2.3,59.920641112492724,
,,,,,,,,stim/Instruction_adaptive.png,conditions/adaptive.xlsx,test,0.6,0.6,0.6,-0.6,-0.6,right,R,,,,,0,1,1,1,0,46,46,50,,,,,,,,,,,,,,,,,,,,,,,,,,,,,,,,,,,,,,,,,,,,291.46793590002926,None,right,1,0.871121000032872,291.96823370002676,293.0702872000402,291.96823370002676,292.5696377000422,291.96823370002676,292.5696377000422,291.96823370002676,292.5696377000422,291.96823370002676,292.5696377000422,291.96823370002676,292.5696377000422,292.55314299999736,293.053562999994,292.55314299999736,293.053562999994,292.55314299999736,293.053562999994,292.55314299999736,293.053562999994,292.55314299999736,293.053562999994,292.55314299999736,293.053562999994,292.55314299999736,293.053562999994,292.55314299999736,293.053562999994,291.96823370002676,None,293.053562999994,294.772391800012,0.6000000000000003,294.7895741999964,None,295.54098029999295,None,,,,,,,[1.71531915],3.490000000000003,0.7659574468085106,11007,002,2024_Jan_01_1836,MFTM_A_new1021,2021.2.3,59.920641112492724,
,,,,,,,,stim/Instruction_adaptive.png,conditions/adaptive.xlsx,test,-0.6,-0.6,-0.6,0.6,0.6,left,L,,,,,0,1,1,1,0,47,47,43,,,,,,,,,,,,,,,,,,,,,,,,,,,,,,,,,,,,,,,,,,,,296.04092699999455,None,left,1,1.3210465000011027,296.54211040004157,297.64381209999556,296.54211040004157,297.1428395000403,296.54211040004157,297.1428395000403,296.54211040004157,297.1428395000403,296.54211040004157,297.1428395000403,296.54211040004157,297.1428395000403,297.1095556000364,297.61053500004346,297.1095556000364,297.61053500004346,297.1095556000364,297.61053500004346,297.1095556000364,297.61053500004346,297.1095556000364,297.61053500004346,297.1095556000364,297.61053500004346,297.1095556000364,297.61053500004346,297.1095556000364,297.61053500004346,296.54211040004157,None,297.61053500004346,299.3294606000418,0.5900000000000003,299.36256959999446,None,300.11442520003766,None,,,,,,,[1.719375],3.530000000000003,0.7708333333333334,11007,002,2024_Jan_01_1836,MFTM_A_new1021,2021.2.3,59.920641112492724,
,,,,,,,,stim/Instruction_adaptive.png,conditions/adaptive.xlsx,test,0.6,0.6,0.6,-0.6,-0.6,right,R,,,,,0,1,1,1,0,48,48,0,,,,,,,,,,,,,,,,,,,,,,,,,,,,,,,,,,,,,,,,,,,,300.61493929999415,None,right,1,1.1878261999809183,301.1155138000031,302.199934400036,301.1155138000031,301.69998500001384,301.1155138000031,301.69998500001384,301.1155138000031,301.69998500001384,301.1155138000031,301.69998500001384,301.1155138000031,301.69998500001384,301.66600359999575,302.16651280003134,301.66600359999575,302.16651280003134,301.66600359999575,302.16651280003134,301.66600359999575,302.16651280003134,301.66600359999575,302.16651280003134,301.66600359999575,302.16651280003134,301.66600359999575,302.16651280003134,301.66600359999575,302.16651280003134,301.1155138000031,None,302.16651280003134,303.90311489999294,0.5700000000000003,303.9198935000459,None,304.6708934000344,None,,,,,,,[1.72367347],3.570000000000003,0.7755102040816326,11007,002,2024_Jan_01_1836,MFTM_A_new1021,2021.2.3,59.920641112492724,
,,,,,,,,stim/Instruction_adaptive.png,conditions/adaptive.xlsx,test,-0.6,-0.6,-0.6,0.6,0.6,left,L,,,,,0,1,1,1,0,49,49,85,,,,,,,,,,,,,,,,,,,,,,,,,,,,,,,,,,,,,,,,,,,,305.1713927999954,None,left,1,1.2234684000140987,305.67172070004744,306.7245690000127,305.67172070004744,306.22252310003387,305.67172070004744,306.22252310003387,305.67172070004744,306.22252310003387,305.67172070004744,306.22252310003387,305.67172070004744,306.22252310003387,306.20581850002054,306.7066729000071,306.20581850002054,306.7066729000071,306.20581850002054,306.7066729000071,306.20581850002054,306.7066729000071,306.20581850002054,306.7066729000071,306.20581850002054,306.7066729000071,306.20581850002054,306.7066729000071,306.20581850002054,306.7066729000071,305.67172070004744,None,306.7066729000071,308.4433208000264,0.5500000000000003,308.4591148000327,None,309.210404500016,None,,,,,,,[1.7282],3.6000000000000028,0.78,11007,002,2024_Jan_01_1836,MFTM_A_new1021,2021.2.3,59.920641112492724,
,,,,,,,,stim/Instruction_adaptive.png,conditions/adaptive.xlsx,test,-0.6,-0.6,-0.6,0.6,0.6,left,L,,,,,0,1,1,1,0,50,50,49,,,,,,,,,,,,,,,,,,,,,,,,,,,,,,,,,,,,,,,,,,,,309.71144500002265,None,right,0,1.25943230005214,310.2117527000373,311.2642000000342,310.2117527000373,310.7634559000144,310.2117527000373,310.7634559000144,310.2117527000373,310.7634559000144,310.2117527000373,310.7634559000144,310.2117527000373,310.7634559000144,310.73014860000694,311.23058690002654,310.73014860000694,311.23058690002654,310.73014860000694,311.23058690002654,310.73014860000694,311.23058690002654,310.73014860000694,311.23058690002654,310.73014860000694,311.23058690002654,310.73014860000694,311.23058690002654,310.73014860000694,311.23058690002654,310.2117527000373,None,311.23058690002654,312.9669203000376,0.5400000000000003,313.00023950001923,None,313.75122730003204,None,,,,,,,[1.7327451],3.5000000000000027,0.7647058823529411,11007,002,2024_Jan_01_1836,MFTM_A_new1021,2021.2.3,59.920641112492724,
,,,,,,,,stim/Instruction_adaptive.png,conditions/adaptive.xlsx,test,-0.6,-0.6,-0.6,0.6,0.6,left,L,,,,,0,1,1,1,0,51,51,29,,,,,,,,,,,,,,,,,,,,,,,,,,,,,,,,,,,,,,,,,,,,314.25126839999575,None,left,1,1.53540500003146,314.7524054000387,315.8369815000333,314.7524054000387,315.3374267000472,314.7524054000387,315.3374267000472,314.7524054000387,315.3374267000472,314.7524054000387,315.3374267000472,314.7524054000387,315.3374267000472,315.320245800016,315.82062469999073,315.320245800016,315.82062469999073,315.320245800016,315.82062469999073,315.320245800016,315.82062469999073,315.320245800016,315.82062469999073,315.320245800016,315.82062469999073,315.320245800016,315.82062469999073,315.320245800016,315.82062469999073,314.7524054000387,None,315.80416580004385,317.5568728999933,0.5800000000000003,317.57289960002527,None,318.3237474000198,None,,,,,,,[1.73634615],3.5400000000000027,0.7692307692307693,11007,002,2024_Jan_01_1836,MFTM_A_new1021,2021.2.3,59.920641112492724,
,,,,,,,,stim/Instruction_adaptive.png,conditions/adaptive.xlsx,test,0.6,0.6,0.6,-0.6,-0.6,right,R,,,,,0,1,1,1,0,52,52,92,,,,,,,,,,,,,,,,,,,,,,,,,,,,,,,,,,,,,,,,,,,,318.8256157000433,None,right,1,1.145938700006809,319.3253660000046,320.3943012999953,319.3253660000046,319.91014779999387,319.3253660000046,319.91014779999387,319.3253660000046,319.91014779999387,319.3253660000046,319.91014779999387,319.3253660000046,319.91014779999387,319.8772697999957,320.37801660003606,319.8772697999957,320.37801660003606,319.8772697999957,320.37801660003606,319.8772697999957,320.37801660003606,319.8772697999957,320.37801660003606,319.8772697999957,320.37801660003606,319.8772697999957,320.37801660003606,319.8772697999957,320.37801660003606,319.3253660000046,None,320.37801660003606,322.12981090001995,0.5700000000000003,322.1460827999981,None,322.8972613000078,None,,,,,,,[1.74],3.570000000000003,0.7735849056603774,11007,002,2024_Jan_01_1836,MFTM_A_new1021,2021.2.3,59.920641112492724,
,,,,,,,,stim/Instruction_adaptive.png,conditions/adaptive.xlsx,test,0.6,0.6,0.6,-0.6,-0.6,right,R,,,,,0,1,1,1,0,53,53,6,,,,,,,,,,,,,,,,,,,,,,,,,,,,,,,,,,,,,,,,,,,,323.39889010001207,None,right,1,1.292920799984131,323.89878430002136,324.9503650999977,323.89878430002136,324.4500673000002,323.89878430002136,324.4500673000002,323.89878430002136,324.4500673000002,323.89878430002136,324.4500673000002,323.89878430002136,324.4500673000002,324.4329527000082,324.9336378000444,324.4329527000082,324.9336378000444,324.4329527000082,324.9336378000444,324.4329527000082,324.9336378000444,324.4329527000082,324.9336378000444,324.4329527000082,324.9336378000444,324.4329527000082,324.9336378000444,324.4329527000082,324.9336378000444,323.89878430002136,None,324.9336378000444,326.6868952999939,0.5500000000000003,326.7028769000317,None,327.4539397000335,None,,,,,,,[1.74388889],3.6000000000000028,0.7777777777777778,11007,002,2024_Jan_01_1836,MFTM_A_new1021,2021.2.3,59.920641112492724,
,,,,,,,,stim/Instruction_adaptive.png,conditions/adaptive.xlsx,test,0.6,0.6,0.6,-0.6,-0.6,right,R,,,,,0,1,1,1,0,54,54,46,,,,,,,,,,,,,,,,,,,,,,,,,,,,,,,,,,,,,,,,,,,,327.95536030002404,None,right,1,1.4478051000041887,328.45604560000356,329.50812960002804,328.45604560000356,329.00690450001275,328.45604560000356,329.00690450001275,328.45604560000356,329.00690450001275,328.45604560000356,329.00690450001275,328.45604560000356,329.00690450001275,328.9737807000056,329.473878000048,328.9737807000056,329.473878000048,328.9737807000056,329.473878000048,328.9737807000056,329.473878000048,328.9737807000056,329.473878000048,328.9737807000056,329.473878000048,328.9737807000056,329.473878000048,328.9737807000056,329.473878000048,328.45604560000356,None,329.473878000048,331.22635620000074,0.5400000000000003,331.243718600017,None,331.99421840003924,None,,,,,,,[1.74781818],3.640000000000003,0.7818181818181819,11007,002,2024_Jan_01_1836,MFTM_A_new1021,2021.2.3,59.920641112492724,
,,,,,,,,stim/Instruction_adaptive.png,conditions/adaptive.xlsx,test,-0.6,-0.6,-0.6,0.6,0.6,left,L,,,,,0,1,1,1,0,55,55,47,,,,,,,,,,,,,,,,,,,,,,,,,,,,,,,,,,,,,,,,,,,,332.49515030003386,None,left,1,1.2272125000017695,332.99598500004504,334.03115080000134,332.99598500004504,333.5305729000247,332.99598500004504,333.5305729000247,332.99598500004504,333.5305729000247,332.99598500004504,333.5305729000247,332.99598500004504,333.5305729000247,333.5136623000144,334.0143634999986,333.5136623000144,334.0143634999986,333.5136623000144,334.0143634999986,333.5136623000144,334.0143634999986,333.5136623000144,334.0143634999986,333.5136623000144,334.0143634999986,333.5136623000144,334.0143634999986,333.5136623000144,334.0143634999986,332.99598500004504,None,334.0143634999986,335.7664111999911,0.5300000000000002,335.78308449999895,None,336.5348486000439,None,,,,,,,[1.75178571],3.6700000000000026,0.7857142857142857,11007,002,2024_Jan_01_1836,MFTM_A_new1021,2021.2.3,59.920641112492724,
,,,,,,,,stim/Instruction_adaptive.png,conditions/adaptive.xlsx,test,-0.6,-0.6,-0.6,0.6,0.6,left,L,,,,,0,1,1,1,0,56,56,97,,,,,,,,,,,,,,,,,,,,,,,,,,,,,,,,,,,,,,,,,,,,337.0348263999913,None,left,1,1.0555357999983244,337.5357394000166,338.5706134000211,337.5357394000166,338.0704095000401,337.5357394000166,338.0704095000401,337.5357394000166,338.0704095000401,337.5357394000166,338.0704095000401,337.5357394000166,338.0704095000401,338.0371281999978,338.5377790000057,338.0371281999978,338.5377790000057,338.0371281999978,338.5377790000057,338.0371281999978,338.5377790000057,338.0371281999978,338.5377790000057,338.0371281999978,338.5377790000057,338.0371281999978,338.5377790000057,338.0371281999978,338.5377790000057,337.5357394000166,None,338.5377790000057,340.30640140001196,0.5200000000000002,340.32353510003304,None,341.074526100012,None,,,,,,,[1.75578947],3.700000000000003,0.7894736842105263,11007,002,2024_Jan_01_1836,MFTM_A_new1021,2021.2.3,59.920641112492724,
,,,,,,,,stim/Instruction_adaptive.png,conditions/adaptive.xlsx,test,-0.6,-0.6,-0.6,0.6,0.6,left,L,,,,,0,1,1,1,0,57,57,7,,,,,,,,,,,,,,,,,,,,,,,,,,,,,,,,,,,,,,,,,,,,341.57616789999884,None,right,0,1.0587377999909222,342.07639320002636,343.095201899996,342.07639320002636,342.59313900000416,342.07639320002636,342.59313900000416,342.07639320002636,342.59313900000416,342.07639320002636,342.59313900000416,342.07639320002636,342.59313900000416,342.57711120002205,343.0777708000387,342.57711120002205,343.0777708000387,342.57711120002205,343.0777708000387,342.57711120002205,343.0777708000387,342.57711120002205,343.0777708000387,342.57711120002205,343.0777708000387,342.57711120002205,343.0777708000387,342.57711120002205,343.0777708000387,342.07639320002636,None,343.0777708000387,None,0.5100000000000002,344.84696590004023,None,345.5977072000387,None,,,,,,,[1.75982759],3.610000000000003,0.7758620689655172,11007,002,2024_Jan_01_1836,MFTM_A_new1021,2021.2.3,59.920641112492724,
,,,,,,,,stim/Instruction_adaptive.png,conditions/adaptive.xlsx,test,-0.6,-0.6,-0.6,0.6,0.6,left,L,,,,,0,1,1,1,0,58,58,95,,,,,,,,,,,,,,,,,,,,,,,,,,,,,,,,,,,,,,,,,,,,346.09893090004334,None,right,0,1.3439981999690644,346.5997238000273,347.65137060004054,346.5997238000273,347.1501632000436,346.5997238000273,347.1501632000436,346.5997238000273,347.1501632000436,346.5997238000273,347.1501632000436,346.5997238000273,347.1501632000436,347.1175765999942,347.6177824999904,347.1175765999942,347.6177824999904,347.1175765999942,347.6177824999904,347.1175765999942,347.6177824999904,347.1175765999942,347.6177824999904,347.1175765999942,347.6177824999904,347.1175765999942,347.6177824999904,347.1175765999942,347.6177824999904,346.5997238000273,None,347.6177824999904,349.38657920004334,0.5400000000000003,349.40332030004356,None,350.15448329999344,None,,,,,,,[1.76322034],3.5200000000000027,0.7627118644067796,11007,002,2024_Jan_01_1836,MFTM_A_new1021,2021.2.3,59.920641112492724,
,,,,,,,,stim/Instruction_adaptive.png,conditions/adaptive.xlsx,test,0.6,0.6,0.6,-0.6,-0.6,right,R,,,,,0,1,1,1,0,59,59,4,,,,,,,,,,,,,,,,,,,,,,,,,,,,,,,,,,,,,,,,,,,,350.6558151000063,None,right,1,1.3703115999815054,351.15697640000144,352.24072430003434,351.15697640000144,351.7400722000166,351.15697640000144,351.7400722000166,351.15697640000144,351.7400722000166,351.15697640000144,351.7400722000166,351.15697640000144,351.7400722000166,351.70763990003616,352.20786419999786,351.70763990003616,352.20786419999786,351.70763990003616,352.20786419999786,351.70763990003616,352.20786419999786,351.70763990003616,352.20786419999786,351.70763990003616,352.20786419999786,351.70763990003616,352.20786419999786,351.70763990003616,352.20786419999786,351.15697640000144,None,352.20786419999786,353.9770342000411,0.5700000000000003,353.99371200002497,None,354.7444464000291,None,,,,,,,[1.766],3.5500000000000025,0.7666666666666667,11007,002,2024_Jan_01_1836,MFTM_A_new1021,2021.2.3,59.920641112492724,
,,,,,,,,stim/Instruction_adaptive.png,conditions/adaptive.xlsx,test,0.6,0.6,0.6,-0.6,-0.6,right,R,,,,,0,1,1,1,0,60,60,80,,,,,,,,,,,,,,,,,,,,,,,,,,,,,,,,,,,,,,,,,,,,355.2452643000288,None,left,0,1.3578851000056602,355.7459440000239,356.8149621000048,355.7459440000239,356.31423640000867,355.7459440000239,356.31423640000867,355.7459440000239,356.31423640000867,355.7459440000239,356.31423640000867,355.7459440000239,356.31423640000867,356.29749060003087,356.79814080003416,356.29749060003087,356.79814080003416,356.29749060003087,356.79814080003416,356.29749060003087,356.79814080003416,356.29749060003087,356.79814080003416,356.29749060003087,356.79814080003416,356.29749060003087,356.79814080003416,356.29749060003087,356.79814080003416,355.7459440000239,None,356.79814080003416,358.56703040003777,0.5600000000000003,358.58329270000104,None,359.33527610002784,None,,,,,,,[1.76885246],3.4600000000000026,0.7540983606557377,11007,002,2024_Jan_01_1836,MFTM_A_new1021,2021.2.3,59.920641112492724,
,,,,,,,,stim/Instruction_adaptive.png,conditions/adaptive.xlsx,test,0.6,0.6,0.6,-0.6,-0.6,right,R,,,,,0,1,1,1,0,61,61,64,,,,,,,,,,,,,,,,,,,,,,,,,,,,,,,,,,,,,,,,,,,,359.8359077000059,None,right,1,1.054469499969855,360.33687400002964,361.437764900038,360.33687400002964,360.93779250001535,360.33687400002964,360.93779250001535,360.33687400002964,360.93779250001535,360.33687400002964,360.93779250001535,360.33687400002964,360.93779250001535,360.92077550000977,361.42106010002317,360.92077550000977,361.42106010002317,360.92077550000977,361.42106010002317,360.92077550000977,361.42106010002317,360.92077550000977,361.42106010002317,360.92077550000977,361.42106010002317,360.92077550000977,361.42106010002317,360.92077550000977,361.42106010002317,360.33687400002964,None,361.42106010002317,None,0.6000000000000003,363.2079389000428,None,363.9581027000095,None,,,,,,,[1.77096774],3.490000000000003,0.7580645161290323,11007,002,2024_Jan_01_1836,MFTM_A_new1021,2021.2.3,59.920641112492724,
,,,,,,,,stim/Instruction_adaptive.png,conditions/adaptive.xlsx,test,-0.6,-0.6,-0.6,0.6,0.6,left,L,,,,,0,1,1,1,0,62,62,89,,,,,,,,,,,,,,,,,,,,,,,,,,,,,,,,,,,,,,,,,,,,364.4596371999942,None,left,1,1.271055500023067,364.960335700016,366.06138269999065,364.960335700016,365.56062260002363,364.960335700016,365.56062260002363,364.960335700016,365.56062260002363,364.960335700016,365.56062260002363,364.960335700016,365.56062260002363,365.52713330002734,366.028553000011,365.52713330002734,366.028553000011,365.52713330002734,366.028553000011,365.52713330002734,366.028553000011,365.52713330002734,366.028553000011,365.52713330002734,366.028553000011,365.52713330002734,366.028553000011,365.52713330002734,366.028553000011,364.960335700016,None,366.028553000011,367.8145727000083,0.5900000000000003,367.83118219999596,None,368.58231190004153,None,,,,,,,[1.7731746],3.5200000000000027,0.7619047619047619,11007,002,2024_Jan_01_1836,MFTM_A_new1021,2021.2.3,59.920641112492724,
,,,,,,,,stim/Instruction_adaptive.png,conditions/adaptive.xlsx,test,-0.6,-0.6,-0.6,0.6,0.6,left,L,,,,,0,1,1,1,0,63,63,11,,,,,,,,,,,,,,,,,,,,,,,,,,,,,,,,,,,,,,,,,,,,369.08290870004566,None,left,1,1.4249491000082344,369.58326340001076,370.66868510004133,369.58326340001076,370.1678707000101,369.58326340001076,370.1678707000101,369.58326340001076,370.1678707000101,369.58326340001076,370.1678707000101,369.58326340001076,370.1678707000101,370.1346298000426,370.635413800017,370.1346298000426,370.635413800017,370.1346298000426,370.635413800017,370.1346298000426,370.635413800017,370.1346298000426,370.635413800017,370.1346298000426,370.635413800017,370.1346298000426,370.635413800017,370.1346298000426,370.635413800017,369.58326340001076,None,370.635413800017,372.42177090002224,0.5700000000000003,372.4550489000394,None,373.20548990002135,None,,,,,,,[1.775625],3.5500000000000025,0.765625,11007,002,2024_Jan_01_1836,MFTM_A_new1021,2021.2.3,59.920641112492724,
,,,,,,,,stim/Instruction_adaptive.png,conditions/adaptive.xlsx,test,0.6,0.6,0.6,-0.6,-0.6,right,R,,,,,0,1,1,1,0,64,64,34,,,,,,,,,,,,,,,,,,,,,,,,,,,,,,,,,,,,,,,,,,,,373.70677290001186,None,right,1,1.096299899974838,374.20735480001895,375.2754779999959,374.20735480001895,374.77434290002566,374.20735480001895,374.77434290002566,374.20735480001895,374.77434290002566,374.20735480001895,374.77434290002566,374.20735480001895,374.77434290002566,374.7408041000017,375.24213740002597,374.7408041000017,375.24213740002597,374.7408041000017,375.24213740002597,374.7408041000017,375.24213740002597,374.7408041000017,375.24213740002597,374.7408041000017,375.24213740002597,374.7408041000017,375.24213740002597,374.7408041000017,375.24213740002597,374.20735480001895,None,375.24213740002597,377.027424000029,0.5600000000000003,377.0610631000018,None,377.81246030004695,None,,,,,,,[1.77815385],3.5800000000000027,0.7692307692307693,11007,002,2024_Jan_01_1836,MFTM_A_new1021,2021.2.3,59.920641112492724,
,,,,,,,,stim/Instruction_adaptive.png,conditions/adaptive.xlsx,test,-0.6,-0.6,-0.6,0.6,0.6,left,L,,,,,0,1,1,1,0,65,65,21,,,,,,,,,,,,,,,,,,,,,,,,,,,,,,,,,,,,,,,,,,,,378.3127887000446,None,left,1,1.3456056000432,378.813855800021,379.86507260001963,378.813855800021,379.36494340002537,378.813855800021,379.36494340002537,378.813855800021,379.36494340002537,378.813855800021,379.36494340002537,378.813855800021,379.36494340002537,379.34794720000355,379.848288600042,379.34794720000355,379.848288600042,379.34794720000355,379.848288600042,379.34794720000355,379.848288600042,379.34794720000355,379.848288600042,379.34794720000355,379.848288600042,379.34794720000355,379.848288600042,379.34794720000355,379.848288600042,378.813855800021,None,379.848288600042,381.63577400002396,0.5500000000000003,381.65101450000657,None,382.40211570000974,None,,,,,,,[1.78075758],3.610000000000003,0.7727272727272727,11007,002,2024_Jan_01_1836,MFTM_A_new1021,2021.2.3,59.920641112492724,
,,,,,,,,stim/Instruction_adaptive.png,conditions/adaptive.xlsx,test,0.6,0.6,0.6,-0.6,-0.6,right,R,,,,,0,1,1,1,0,66,66,40,,,,,,,,,,,,,,,,,,,,,,,,,,,,,,,,,,,,,,,,,,,,382.90290300000925,None,right,1,1.3470505000441335,383.4043269000249,384.45569120004075,383.4043269000249,383.95459810004104,383.4043269000249,383.95459810004104,383.4043269000249,383.95459810004104,383.4043269000249,383.95459810004104,383.4043269000249,383.95459810004104,383.9211430000141,384.4225122000207,383.9211430000141,384.4225122000207,383.9211430000141,384.4225122000207,383.9211430000141,384.4225122000207,383.9211430000141,384.4225122000207,383.9211430000141,384.4225122000207,383.9211430000141,384.4225122000207,383.9211430000141,384.4225122000207,383.4043269000249,None,384.4225122000207,386.2089891000069,0.5400000000000003,386.2421968000126,None,386.9922687000362,None,,,,,,,[1.78343284],3.6300000000000026,0.7761194029850746,11007,002,2024_Jan_01_1836,MFTM_A_new1021,2021.2.3,59.920641112492724,
,,,,,,,,stim/Instruction_adaptive.png,conditions/adaptive.xlsx,test,0.6,0.6,0.6,-0.6,-0.6,right,R,,,,,0,1,1,1,0,67,67,10,,,,,,,,,,,,,,,,,,,,,,,,,,,,,,,,,,,,,,,,,,,,387.49372389999917,None,right,1,1.2777833000291139,387.9936508000246,389.0288714999915,387.9936508000246,388.5279997000471,387.9936508000246,388.5279997000471,387.9936508000246,388.5279997000471,387.9936508000246,388.5279997000471,387.9936508000246,388.5279997000471,388.5113465000177,389.0119306000415,388.5113465000177,389.0119306000415,388.5113465000177,389.0119306000415,388.5113465000177,389.0119306000415,388.5113465000177,389.0119306000415,388.5113465000177,389.0119306000415,388.5113465000177,389.0119306000415,388.5113465000177,389.0119306000415,387.9936508000246,None,389.0119306000415,390.79860340000596,0.5300000000000002,390.81460460001836,None,391.5656461000326,None,,,,,,,[1.78617647],3.660000000000003,0.7794117647058824,11007,002,2024_Jan_01_1836,MFTM_A_new1021,2021.2.3,59.920641112492724,
,,,,,,,,stim/Instruction_adaptive.png,conditions/adaptive.xlsx,test,0.6,0.6,0.6,-0.6,-0.6,right,R,,,,,0,1,1,1,0,68,68,2,,,,,,,,,,,,,,,,,,,,,,,,,,,,,,,,,,,,,,,,,,,,392.0664378000074,None,left,0,1.496039199992083,392.5673240000033,393.6030289999908,392.5673240000033,393.10145790001843,392.5673240000033,393.10145790001843,392.5673240000033,393.10145790001843,392.5673240000033,393.10145790001843,392.5673240000033,393.10145790001843,393.0686275000335,393.56901410000864,393.0686275000335,393.56901410000864,393.0686275000335,393.56901410000864,393.0686275000335,393.56901410000864,393.0686275000335,393.56901410000864,393.0686275000335,393.56901410000864,393.0686275000335,393.56901410000864,393.0686275000335,393.56901410000864,392.5673240000033,None,393.56901410000864,395.37211950001074,0.5200000000000002,395.4054580000229,None,396.15613010001834,None,,,,,,,[1.78898551],3.5800000000000027,0.7681159420289855,11007,002,2024_Jan_01_1836,MFTM_A_new1021,2021.2.3,59.920641112492724,
,,,,,,,,stim/Instruction_adaptive.png,conditions/adaptive.xlsx,test,0.6,0.6,0.6,-0.6,-0.6,right,R,,,,,0,1,1,1,0,69,69,72,,,,,,,,,,,,,,,,,,,,,,,,,,,,,,,,,,,,,,,,,,,,396.657722700038,None,right,1,1.514892700011842,397.1412363999989,398.19256809999933,397.1412363999989,397.69194250000874,397.1412363999989,397.69194250000874,397.1412363999989,397.69194250000874,397.1412363999989,397.69194250000874,397.1412363999989,397.69194250000874,397.6751820000354,398.1766284000478,397.6751820000354,398.1766284000478,397.6751820000354,398.1766284000478,397.6751820000354,398.1766284000478,397.6751820000354,398.1766284000478,397.6751820000354,398.1766284000478,397.6751820000354,398.1766284000478,397.6751820000354,398.1766284000478,397.1412363999989,None,398.1766284000478,399.97819260001415,0.5500000000000003,399.99472890002653,None,400.7463507000357,None,,,,,,,[1.79128571],3.610000000000003,0.7714285714285715,11007,002,2024_Jan_01_1836,MFTM_A_new1021,2021.2.3,59.920641112492724,
,,,,,,,,stim/Instruction_adaptive.png,conditions/adaptive.xlsx,test,-0.6,-0.6,-0.6,0.6,0.6,left,L,,,,,0,1,1,1,0,70,70,53,,,,,,,,,,,,,,,,,,,,,,,,,,,,,,,,,,,,,,,,,,,,401.24755520001054,None,left,1,1.9790159999975003,401.7483230000362,402.8001931000035,401.7483230000362,402.29889420000836,401.7483230000362,402.29889420000836,401.7483230000362,402.29889420000836,401.7483230000362,402.29889420000836,401.7483230000362,402.29889420000836,402.26498380000703,402.7657120000222,402.26498380000703,402.7657120000222,402.26498380000703,402.7657120000222,402.26498380000703,402.7657120000222,402.26498380000703,402.7657120000222,402.26498380000703,402.7657120000222,402.26498380000703,402.7657120000222,402.26498380000703,402.7657120000222,401.7483230000362,None,402.7657120000222,404.5689863000298,0.5400000000000003,404.58561710000504,None,405.3361424000468,None,,,,,,,[1.79366197],3.6300000000000026,0.7746478873239436,11007,002,2024_Jan_01_1836,MFTM_A_new1021,2021.2.3,59.920641112492724,
,,,,,,,,stim/Instruction_adaptive.png,conditions/adaptive.xlsx,test,-0.6,-0.6,-0.6,0.6,0.6,left,L,,,,,0,1,1,1,0,71,71,57,,,,,,,,,,,,,,,,,,,,,,,,,,,,,,,,,,,,,,,,,,,,405.8375533000217,None,right,0,1.0851896000094712,406.33883330004755,407.37298470002133,406.33883330004755,406.8718645000481,406.33883330004755,406.8718645000481,406.33883330004755,406.8718645000481,406.33883330004755,406.8718645000481,406.33883330004755,406.8718645000481,406.8559088000329,407.35636720003095,406.8559088000329,407.35636720003095,406.8559088000329,407.35636720003095,406.8559088000329,407.35636720003095,406.8559088000329,407.35636720003095,406.8559088000329,407.35636720003095,406.8559088000329,407.35636720003095,406.8559088000329,407.35636720003095,406.33883330004755,None,407.35636720003095,409.1592830000445,0.5300000000000002,409.1927798000397,None,409.9434049000265,None,,,,,,,[1.79611111],3.5600000000000027,0.7638888888888888,11007,002,2024_Jan_01_1836,MFTM_A_new1021,2021.2.3,59.920641112492724,
,,,,,,,,stim/Instruction_adaptive.png,conditions/adaptive.xlsx,test,-0.6,-0.6,-0.6,0.6,0.6,left,L,,,,,0,1,1,1,0,72,72,83,,,,,,,,,,,,,,,,,,,,,,,,,,,,,,,,,,,,,,,,,,,,410.44457730004797,None,left,1,1.3435477999737486,410.94505129999015,412.0126473000273,410.94505129999015,411.5125078000128,410.94505129999015,411.5125078000128,410.94505129999015,411.5125078000128,410.94505129999015,411.5125078000128,410.94505129999015,411.5125078000128,411.47924800001783,411.9797186999931,411.47924800001783,411.9797186999931,411.47924800001783,411.9797186999931,411.47924800001783,411.9797186999931,411.47924800001783,411.9797186999931,411.47924800001783,411.9797186999931,411.47924800001783,411.9797186999931,411.47924800001783,411.9797186999931,410.94505129999015,None,411.9797186999931,413.7824930000352,0.5600000000000003,413.81585499999346,None,414.5667722999933,None,,,,,,,[1.79808219],3.5900000000000025,0.7671232876712328,11007,002,2024_Jan_01_1836,MFTM_A_new1021,2021.2.3,59.920641112492724,
,,,,,,,,stim/Instruction_adaptive.png,conditions/adaptive.xlsx,test,0.6,0.6,0.6,-0.6,-0.6,right,R,,,,,0,1,1,1,0,73,73,28,,,,,,,,,,,,,,,,,,,,,,,,,,,,,,,,,,,,,,,,,,,,415.06820580002386,None,left,0,1.479334799980279,415.5680649999995,416.6198206000263,415.5680649999995,416.11913890001597,415.5680649999995,416.11913890001597,415.5680649999995,416.11913890001597,415.5680649999995,416.11913890001597,415.5680649999995,416.11913890001597,416.10217250004644,416.6034305000212,416.10217250004644,416.6034305000212,416.10217250004644,416.6034305000212,416.10217250004644,416.6034305000212,416.10217250004644,416.6034305000212,416.10217250004644,416.6034305000212,416.10217250004644,416.6034305000212,416.10217250004644,416.6034305000212,415.5680649999995,None,416.6034305000212,418.4061794000445,0.5500000000000003,418.44104520004475,None,419.190045299998,None,,,,,,,[1.80013514],3.5100000000000025,0.7567567567567568,11007,002,2024_Jan_01_1836,MFTM_A_new1021,2021.2.3,59.920641112492724,
,,,,,,,,stim/Instruction_adaptive.png,conditions/adaptive.xlsx,test,0.6,0.6,0.6,-0.6,-0.6,right,R,,,,,0,1,1,1,0,74,74,54,,,,,,,,,,,,,,,,,,,,,,,,,,,,,,,,,,,,,,,,,,,,419.67399490001844,None,right,1,1.2644218999776058,420.17552520002937,421.2605436000158,420.17552520002937,420.75900000002,420.17552520002937,420.75900000002,420.17552520002937,420.75900000002,420.17552520002937,420.75900000002,420.17552520002937,420.75900000002,420.7429176000296,421.2436250000028,420.7429176000296,421.2436250000028,420.7429176000296,421.2436250000028,420.7429176000296,421.2436250000028,420.7429176000296,421.2436250000028,420.7429176000296,421.2436250000028,420.7429176000296,421.2436250000028,420.7429176000296,421.2436250000028,420.17552520002937,None,421.2436250000028,423.0457723000436,0.5800000000000003,423.0629448000109,None,423.814247500035,None,,,,,,,[1.80173333],3.5400000000000027,0.76,11007,002,2024_Jan_01_1836,MFTM_A_new1021,2021.2.3,59.920641112492724,
,,,,,,,,stim/Instruction_adaptive.png,conditions/adaptive.xlsx,test,0.6,0.6,0.6,-0.6,-0.6,right,R,,,,,0,1,1,1,0,75,75,22,,,,,,,,,,,,,,,,,,,,,,,,,,,,,,,,,,,,,,,,,,,,424.31451250001555,None,right,1,1.631689900008496,424.81603899999755,425.90097290003905,424.81603899999755,425.39988570002606,424.81603899999755,425.39988570002606,424.81603899999755,425.39988570002606,424.81603899999755,425.39988570002606,424.81603899999755,425.39988570002606,425.36655560001964,425.8671135000186,425.36655560001964,425.8671135000186,425.36655560001964,425.8671135000186,425.36655560001964,425.8671135000186,425.36655560001964,425.8671135000186,425.36655560001964,425.8671135000186,425.36655560001964,425.8671135000186,425.36655560001964,425.8671135000186,424.81603899999755,None,425.8671135000186,427.6866278999951,0.5700000000000003,427.7026967999991,None,428.4537355999928,None,,,,,,,[1.80342105],3.5600000000000027,0.7631578947368421,11007,002,2024_Jan_01_1836,MFTM_A_new1021,2021.2.3,59.920641112492724,
,,,,,,,,stim/Instruction_adaptive.png,conditions/adaptive.xlsx,test,0.6,0.6,0.6,-0.6,-0.6,right,R,,,,,0,1,1,1,0,76,76,70,,,,,,,,,,,,,,,,,,,,,,,,,,,,,,,,,,,,,,,,,,,,428.9552044000011,None,right,1,1.0725635000271723,429.45520710002165,430.52408470003866,429.45520710002165,430.02325550001115,429.45520710002165,430.02325550001115,429.45520710002165,430.02325550001115,429.45520710002165,430.02325550001115,429.45520710002165,430.02325550001115,430.0067112999968,430.5080052000121,430.0067112999968,430.5080052000121,430.0067112999968,430.5080052000121,430.0067112999968,430.5080052000121,430.0067112999968,430.5080052000121,430.0067112999968,430.5080052000121,430.0067112999968,430.5080052000121,430.0067112999968,430.5080052000121,429.45520710002165,None,430.5080052000121,None,0.5600000000000003,432.3262045000447,None,433.07805250003,None,,,,,,,[1.80519481],3.5900000000000025,0.7662337662337663,11007,002,2024_Jan_01_1836,MFTM_A_new1021,2021.2.3,59.920641112492724,
,,,,,,,,stim/Instruction_adaptive.png,conditions/adaptive.xlsx,test,0.6,0.6,0.6,-0.6,-0.6,right,R,,,,,0,1,1,1,0,77,77,62,,,,,,,,,,,,,,,,,,,,,,,,,,,,,,,,,,,,,,,,,,,,433.57858830003534,None,left,0,1.3613721000147052,434.0788279999979,435.13099920004606,434.0788279999979,434.6294674000237,434.0788279999979,434.6294674000237,434.0788279999979,434.6294674000237,434.0788279999979,434.6294674000237,434.0788279999979,434.6294674000237,434.613178300031,435.1143767000176,434.613178300031,435.1143767000176,434.613178300031,435.1143767000176,434.613178300031,435.1143767000176,434.613178300031,435.1143767000176,434.613178300031,435.1143767000176,434.613178300031,435.1143767000176,434.613178300031,435.1143767000176,434.0788279999979,None,435.1143767000176,436.93373650003923,0.5500000000000003,436.94949650001945,None,437.70145430002594,None,,,,,,,[1.80705128],3.5100000000000025,0.7564102564102564,11007,002,2024_Jan_01_1836,MFTM_A_new1021,2021.2.3,59.920641112492724,
,,,,,,,,stim/Instruction_adaptive.png,conditions/adaptive.xlsx,test,0.6,0.6,0.6,-0.6,-0.6,right,R,,,,,0,1,1,1,0,78,78,32,,,,,,,,,,,,,,,,,,,,,,,,,,,,,,,,,,,,,,,,,,,,438.201836000022,None,left,0,1.8170427000150084,438.70238080003764,439.7898855000385,438.70238080003764,439.28636150003877,438.70238080003764,439.28636150003877,438.70238080003764,439.28636150003877,438.70238080003764,439.28636150003877,438.70238080003764,439.28636150003877,439.2696435000398,439.7712468000245,439.2696435000398,439.7712468000245,439.2696435000398,439.7712468000245,439.2696435000398,439.7712468000245,439.2696435000398,439.7712468000245,439.2696435000398,439.7712468000245,439.2696435000398,439.7712468000245,439.2696435000398,439.7712468000245,438.70238080003764,None,439.7712468000245,None,0.5800000000000003,441.58993860002374,None,442.34106090001296,None,,,,,,,[1.80848101],3.4400000000000026,0.7468354430379747,11007,002,2024_Jan_01_1836,MFTM_A_new1021,2021.2.3,59.920641112492724,
,,,,,,,,stim/Instruction_adaptive.png,conditions/adaptive.xlsx,test,0.6,0.6,0.6,-0.6,-0.6,right,R,,,,,0,1,1,1,0,79,79,18,,,,,,,,,,,,,,,,,,,,,,,,,,,,,,,,,,,,,,,,,,,,442.84219779999694,None,right,1,1.9131753000547178,443.3423963999958,444.46070240001427,443.3423963999958,443.96043600002304,443.3423963999958,443.96043600002304,443.3423963999958,443.96043600002304,443.3423963999958,443.96043600002304,443.3423963999958,443.96043600002304,443.92720360000385,444.4272299000295,443.92720360000385,444.4272299000295,443.92720360000385,444.4272299000295,443.92720360000385,444.4272299000295,443.92720360000385,444.4272299000295,443.92720360000385,444.4272299000295,443.92720360000385,444.4272299000295,443.92720360000385,444.4272299000295,443.3423963999958,None,444.4272299000295,446.2475874000229,0.6100000000000003,446.28121909999754,None,447.03240480000386,None,,,,,,,[1.8095],3.4700000000000024,0.75,11007,002,2024_Jan_01_1836,MFTM_A_new1021,2021.2.3,59.920641112492724,
,,,,,,,,stim/Instruction_adaptive.png,conditions/adaptive.xlsx,test,0.6,0.6,0.6,-0.6,-0.6,right,R,,,,,0,1,1,1,0,80,80,90,,,,,,,,,,,,,,,,,,,,,,,,,,,,,,,,,,,,,,,,,,,,447.5327920000418,None,right,1,1.309975799988024,448.0335239000269,449.1349451999995,448.0335239000269,448.63370579999173,448.0335239000269,448.63370579999173,448.0335239000269,448.63370579999173,448.0335239000269,448.63370579999173,448.0335239000269,448.63370579999173,448.60036240000045,449.1015421000193,448.60036240000045,449.1015421000193,448.60036240000045,449.1015421000193,448.60036240000045,449.1015421000193,448.60036240000045,449.1015421000193,448.60036240000045,449.1015421000193,448.60036240000045,449.1015421000193,448.60036240000045,449.1015421000193,448.0335239000269,None,449.1015421000193,450.9206416000379,0.5900000000000003,450.93796300003305,None,451.68870220001554,None,,,,,,,[1.81074074],3.490000000000003,0.7530864197530864,11007,002,2024_Jan_01_1836,MFTM_A_new1021,2021.2.3,59.920641112492724,
,,,,,,,,stim/Instruction_adaptive.png,conditions/adaptive.xlsx,test,0.6,0.6,0.6,-0.6,-0.6,right,R,,,,,0,1,1,1,0,81,81,42,,,,,,,,,,,,,,,,,,,,,,,,,,,,,,,,,,,,,,,,,,,,452.18894359999103,None,right,1,1.765868299989961,452.6896332000033,453.79223590000765,452.6896332000033,453.2905383000034,452.6896332000033,453.2905383000034,452.6896332000033,453.2905383000034,452.6896332000033,453.2905383000034,452.6896332000033,453.2905383000034,453.25825220003026,453.75871610001195,453.25825220003026,453.75871610001195,453.25825220003026,453.75871610001195,453.25825220003026,453.75871610001195,453.25825220003026,453.75871610001195,453.25825220003026,453.75871610001195,453.25825220003026,453.75871610001195,453.25825220003026,453.75871610001195,452.6896332000033,None,453.75871610001195,455.5781289000297,0.5900000000000003,455.593852400023,None,456.34559800004354,None,,,,,,,[1.81195122],3.5100000000000025,0.7560975609756098,11007,002,2024_Jan_01_1836,MFTM_A_new1021,2021.2.3,59.920641112492724,
,,,,,,,,stim/Instruction_adaptive.png,conditions/adaptive.xlsx,test,-0.6,-0.6,-0.6,0.6,0.6,left,L,,,,,0,1,1,1,0,82,82,27,,,,,,,,,,,,,,,,,,,,,,,,,,,,,,,,,,,,,,,,,,,,456.8465883000172,None,right,0,1.5807985999854282,457.34687300003134,458.43143920000875,457.34687300003134,457.93077790003736,457.34687300003134,457.93077790003736,457.34687300003134,457.93077790003736,457.34687300003134,457.93077790003736,457.34687300003134,457.93077790003736,457.91422540001804,458.41483210003935,457.91422540001804,458.41483210003935,457.91422540001804,458.41483210003935,457.91422540001804,458.41483210003935,457.91422540001804,458.41483210003935,457.91422540001804,458.41483210003935,457.91422540001804,458.41483210003935,457.91422540001804,458.41483210003935,457.34687300003134,None,458.41483210003935,460.23450479999883,0.5800000000000003,460.25156230002176,None,461.00200730003417,None,,,,,,,[1.81325301],3.4400000000000026,0.7469879518072289,11007,002,2024_Jan_01_1836,MFTM_A_new1021,2021.2.3,59.920641112492724,
,,,,,,,,stim/Instruction_adaptive.png,conditions/adaptive.xlsx,test,0.6,0.6,0.6,-0.6,-0.6,right,R,,,,,0,1,1,1,0,83,83,16,,,,,,,,,,,,,,,,,,,,,,,,,,,,,,,,,,,,,,,,,,,,461.50431540003046,None,right,1,1.131932999996934,462.00355320004746,463.124056700035,462.00355320004746,462.62182580004446,462.00355320004746,462.62182580004446,462.00355320004746,462.62182580004446,462.00355320004746,462.62182580004446,462.00355320004746,462.62182580004446,462.6043731000391,463.1051912000403,462.6043731000391,463.1051912000403,462.6043731000391,463.1051912000403,462.6043731000391,463.1051912000403,462.6043731000391,463.1051912000403,462.6043731000391,463.1051912000403,462.6043731000391,463.1051912000403,462.6043731000391,463.1051912000403,462.00355320004746,None,463.1051912000403,464.9245086000301,0.6100000000000003,464.9411318000057,None,465.6927585999947,None,,,,,,,[1.81416667],3.4700000000000024,0.75,11007,002,2024_Jan_01_1836,MFTM_A_new1021,2021.2.3,59.920641112492724,
,,,,,,,,stim/Instruction_adaptive.png,conditions/adaptive.xlsx,test,-0.6,-0.6,-0.6,0.6,0.6,left,L,,,,,0,1,1,1,0,84,84,1,,,,,,,,,,,,,,,,,,,,,,,,,,,,,,,,,,,,,,,,,,,,466.1936186000239,None,left,1,1.5141563000506721,466.69375020003645,467.79535180004314,466.69375020003645,467.294746700034,466.69375020003645,467.294746700034,466.69375020003645,467.294746700034,466.69375020003645,467.294746700034,466.69375020003645,467.294746700034,467.2612875000341,467.7619932999951,467.2612875000341,467.7619932999951,467.2612875000341,467.7619932999951,467.2612875000341,467.7619932999951,467.2612875000341,467.7619932999951,467.2612875000341,467.7619932999951,467.2612875000341,467.7619932999951,467.2612875000341,467.7619932999951,466.69375020003645,None,467.7619932999951,469.5816871999996,0.5900000000000003,469.59803950000787,None,470.3494717000285,None,,,,,,,[1.81529412],3.490000000000003,0.7529411764705882,11007,002,2024_Jan_01_1836,MFTM_A_new1021,2021.2.3,59.920641112492724,
,,,,,,,,stim/Instruction_adaptive.png,conditions/adaptive.xlsx,test,-0.6,-0.6,-0.6,0.6,0.6,left,L,,,,,0,1,1,1,0,85,85,19,,,,,,,,,,,,,,,,,,,,,,,,,,,,,,,,,,,,,,,,,,,,470.8507080000127,None,left,1,1.1364607000141405,471.3512859000475,472.4525372000062,471.3512859000475,471.95220150001114,471.3512859000475,471.95220150001114,471.3512859000475,471.95220150001114,471.3512859000475,471.95220150001114,471.3512859000475,471.95220150001114,471.91806799999904,472.4189752000384,471.91806799999904,472.4189752000384,471.91806799999904,472.4189752000384,471.91806799999904,472.4189752000384,471.91806799999904,472.4189752000384,471.91806799999904,472.4189752000384,471.91806799999904,472.4189752000384,471.91806799999904,472.4189752000384,471.3512859000475,None,472.4189752000384,474.23881390003953,0.5900000000000003,474.27317629999015,None,475.02359749999596,None,,,,,,,[1.81639535],3.5100000000000025,0.7558139534883721,11007,002,2024_Jan_01_1836,MFTM_A_new1021,2021.2.3,59.920641112492724,
,,,,,,,,stim/Instruction_adaptive.png,conditions/adaptive.xlsx,test,0.6,0.6,0.6,-0.6,-0.6,right,R,,,,,0,1,1,1,0,86,86,76,,,,,,,,,,,,,,,,,,,,,,,,,,,,,,,,,,,,,,,,,,,,475.5234913000022,None,right,1,0.9351820000447333,476.0246334000258,477.1098384000361,476.0246334000258,476.60848150000675,476.0246334000258,476.60848150000675,476.0246334000258,476.60848150000675,476.0246334000258,476.60848150000675,476.0246334000258,476.60848150000675,476.5922104000347,477.0924972000066,476.5922104000347,477.0924972000066,476.5922104000347,477.0924972000066,476.5922104000347,477.0924972000066,476.5922104000347,477.0924972000066,476.5922104000347,477.0924972000066,476.5922104000347,477.0924972000066,476.5922104000347,477.0924972000066,476.0246334000258,None,477.0924972000066,478.9117460999987,0.5800000000000003,478.9294911000179,None,479.6803550000186,None,,,,,,,[1.81758621],3.5400000000000027,0.7586206896551724,11007,002,2024_Jan_01_1836,MFTM_A_new1021,2021.2.3,59.920641112492724,
,,,,,,,,stim/Instruction_adaptive.png,conditions/adaptive.xlsx,test,-0.6,-0.6,-0.6,0.6,0.6,left,L,,,,,0,1,1,1,0,87,87,91,,,,,,,,,,,,,,,,,,,,,,,,,,,,,,,,,,,,,,,,,,,,480.18031200004043,None,left,1,1.8778992999577895,480.6816608000081,481.76657229999546,480.6816608000081,481.26661089999834,480.6816608000081,481.26661089999834,480.6816608000081,481.26661089999834,480.6816608000081,481.26661089999834,480.6816608000081,481.26661089999834,481.2326691999915,481.7332824000041,481.2326691999915,481.7332824000041,481.2326691999915,481.7332824000041,481.2326691999915,481.7332824000041,481.2326691999915,481.7332824000041,481.2326691999915,481.7332824000041,481.2326691999915,481.7332824000041,481.2326691999915,481.7332824000041,480.6816608000081,None,481.7332824000041,483.5527897000429,0.5700000000000003,483.5862464000238,None,484.33693420002237,None,,,,,,,[1.81886364],3.5600000000000027,0.7613636363636364,11007,002,2024_Jan_01_1836,MFTM_A_new1021,2021.2.3,59.920641112492724,
,,,,,,,,stim/Instruction_adaptive.png,conditions/adaptive.xlsx,test,-0.6,-0.6,-0.6,0.6,0.6,left,L,,,,,0,1,1,1,0,88,88,77,,,,,,,,,,,,,,,,,,,,,,,,,,,,,,,,,,,,,,,,,,,,484.83806440001354,None,left,1,1.164875500020571,485.3386415000423,486.40685950004263,485.3386415000423,485.9059853000217,485.3386415000423,485.9059853000217,485.3386415000423,485.9059853000217,485.3386415000423,485.9059853000217,485.3386415000423,485.9059853000217,485.8887658000458,486.3904613000341,485.8887658000458,486.3904613000341,485.8887658000458,486.3904613000341,485.8887658000458,486.3904613000341,485.8887658000458,486.3904613000341,485.8887658000458,486.3904613000341,485.8887658000458,486.3904613000341,485.8887658000458,486.3904613000341,485.3386415000423,None,486.3904613000341,None,0.5600000000000003,488.2263139000279,None,488.9769801000366,None,,,,,,,[1.82022472],3.5800000000000027,0.7640449438202247,11007,002,2024_Jan_01_1836,MFTM_A_new1021,2021.2.3,59.920641112492724,
,,,,,,,,stim/Instruction_adaptive.png,conditions/adaptive.xlsx,test,0.6,0.6,0.6,-0.6,-0.6,right,R,,,,,0,1,1,1,0,89,89,58,,,,,,,,,,,,,,,,,,,,,,,,,,,,,,,,,,,,,,,,,,,,489.4783516000025,None,left,0,1.5253467000438832,489.978757600009,491.0304513000301,489.978757600009,490.5290040000109,489.978757600009,490.5290040000109,489.978757600009,490.5290040000109,489.978757600009,490.5290040000109,489.978757600009,490.5290040000109,490.5123306000023,491.01454619999276,490.5123306000023,491.01454619999276,490.5123306000023,491.01454619999276,490.5123306000023,491.01454619999276,490.5123306000023,491.01454619999276,490.5123306000023,491.01454619999276,490.5123306000023,491.01454619999276,490.5123306000023,491.01454619999276,489.978757600009,None,491.01454619999276,None,0.5500000000000003,492.8502163999947,None,493.600225400005,None,,,,,,,[1.82166667],3.5200000000000027,0.7555555555555555,11007,002,2024_Jan_01_1836,MFTM_A_new1021,2021.2.3,59.920641112492724,
,,,,,,,,stim/Instruction_adaptive.png,conditions/adaptive.xlsx,test,0.6,0.6,0.6,-0.6,-0.6,right,R,,,,,0,1,1,1,0,90,90,84,,,,,,,,,,,,,,,,,,,,,,,,,,,,,,,,,,,,,,,,,,,,494.10200529999565,None,left,0,1.8375405999831855,494.6018200000399,495.6871116000111,494.6018200000399,495.18673920002766,494.6018200000399,495.18673920002766,494.6018200000399,495.18673920002766,494.6018200000399,495.18673920002766,494.6018200000399,495.18673920002766,495.1526250000461,495.65366780001204,495.1526250000461,495.65366780001204,495.1526250000461,495.65366780001204,495.1526250000461,495.65366780001204,495.1526250000461,495.65366780001204,495.1526250000461,495.65366780001204,495.1526250000461,495.65366780001204,495.1526250000461,495.65366780001204,494.6018200000399,None,495.65366780001204,497.48936850001337,0.5700000000000003,497.5061171000125,None,498.25768889999017,None,,,,,,,[1.82285714],3.450000000000003,0.7472527472527473,11007,002,2024_Jan_01_1836,MFTM_A_new1021,2021.2.3,59.920641112492724,
,,,,,,,,stim/Instruction_adaptive.png,conditions/adaptive.xlsx,test,0.6,0.6,0.6,-0.6,-0.6,right,R,,,,,0,1,1,1,0,91,91,88,,,,,,,,,,,,,,,,,,,,,,,,,,,,,,,,,,,,,,,,,,,,498.75799250003183,None,right,1,1.7264561000047252,499.2585408000159,500.360197800037,499.2585408000159,499.85959430004004,499.2585408000159,499.85959430004004,499.2585408000159,499.85959430004004,499.2585408000159,499.85959430004004,499.2585408000159,499.85959430004004,499.8435662999982,500.34370070003206,499.8435662999982,500.34370070003206,499.8435662999982,500.34370070003206,499.8435662999982,500.34370070003206,499.8435662999982,500.34370070003206,499.8435662999982,500.34370070003206,499.8435662999982,500.34370070003206,499.8435662999982,500.34370070003206,499.2585408000159,None,500.34370070003206,502.17981860000873,0.6000000000000003,502.1964505999931,None,502.94932680000784,None,,,,,,,[1.82369565],3.4700000000000024,0.75,11007,002,2024_Jan_01_1836,MFTM_A_new1021,2021.2.3,59.920641112492724,
,,,,,,,,stim/Instruction_adaptive.png,conditions/adaptive.xlsx,test,-0.6,-0.6,-0.6,0.6,0.6,left,L,,,,,0,1,1,1,0,92,92,13,,,,,,,,,,,,,,,,,,,,,,,,,,,,,,,,,,,,,,,,,,,,503.4490845000255,None,right,0,1.401867000036873,503.94985610002186,505.05061450001085,503.94985610002186,504.5503945000237,503.94985610002186,504.5503945000237,503.94985610002186,504.5503945000237,503.94985610002186,504.5503945000237,503.94985610002186,504.5503945000237,504.51656970003387,505.01745560002746,504.51656970003387,505.01745560002746,504.51656970003387,505.01745560002746,504.51656970003387,505.01745560002746,504.51656970003387,505.01745560002746,504.51656970003387,505.01745560002746,504.51656970003387,505.01745560002746,504.51656970003387,505.01745560002746,503.94985610002186,None,505.01745560002746,506.8539446000359,0.5900000000000003,506.8704117000452,None,507.6217846000218,None,,,,,,,[1.82462366],3.410000000000003,0.7419354838709677,11007,002,2024_Jan_01_1836,MFTM_A_new1021,2021.2.3,59.920641112492724,
