arrwidth1,arrwidth2,arrwidth3,arrwidth4,arrwidth5,keyb,type,orientation,instruction_image,block_filename,block_type,arrow11,arrow22,arrow33,arrow44,arrow55,keyb_3,orientation3,trials.thisRepN,trials.thisTrialN,trials.thisN,trials.thisIndex,trials_3.thisRepN,trials_3.thisTrialN,trials_3.thisN,trials_3.thisIndex,trials_2.thisRepN,trials_2.thisTrialN,trials_2.thisN,trials_2.thisIndex,welcome.started,welcome.stopped,key_resp.keys,key_resp.rt,key_resp.started,key_resp.stopped,instruction_example.started,instruction_example.stopped,key_resp_3.keys,key_resp_3.rt,key_resp_3.started,key_resp_3.stopped,instruction_task.started,instruction_task.stopped,key_resp_2.keys,key_resp_2.rt,key_resp_2.started,key_resp_2.stopped,text_2.started,text_2.stopped,A1.started,A1.stopped,A2.started,A2.stopped,A3.started,A3.stopped,A4.started,A4.stopped,A5.started,A5.stopped,key_resp_4.keys,key_resp_4.corr,key_resp_4.rt,key_resp_4.started,key_resp_4.stopped,fb.started,fb.stopped,instruction_block.started,instruction_block.stopped,key_resp_8.keys,key_resp_8.rt,key_resp_8.started,key_resp_8.stopped,text_8.started,text_8.stopped,key_resp_9.keys,key_resp_9.corr,key_resp_9.rt,text_5.started,text_5.stopped,A11_3.started,A11_3.stopped,A22_2.started,A22_2.stopped,A33_2.started,A33_2.stopped,A44_2.started,A44_2.stopped,A55_2.started,A55_2.stopped,M1_3.started,M1_3.stopped,M2_2.started,M2_2.stopped,M3_2.started,M3_2.stopped,M4_2.started,M4_2.stopped,M5_2.started,M5_2.stopped,M6_2.started,M6_2.stopped,M7_2.started,M7_2.stopped,M8_2.started,M8_2.stopped,key_resp_9.started,key_resp_9.stopped,fixation.started,fixation.stopped,ET,fb_3.started,fb_3.stopped,text_9.started,text_9.stopped,fb_4.started,fb_4.stopped,text_7.started,text_7.stopped,endtext.started,endtext.stopped,fixation_ITI,CCC,Acc,participant,session,date,expName,psychopyVersion,frameRate,
,,,,,,,,,,,,,,,,,,,,,,,,,,,,,,19.176998599999934,None,space,1.4503680000052555,19.176998599999934,None,,,,,,,,,,,,,,,,,,,,,,,,,,,,,,,,,,,,,,,,,,,,,,,,,,,,,,,,,,,,,,,,,,,,,,,,,,,,,,,,,,,,,,,,,11003,002,2023_Dec_29_1714,MFTM_A_new1021,2021.2.3,60.07322926722751,
,,,,,,,,,,,,,,,,,,,,,,,,,,,,,,,,,,,,20.64575699999841,None,space,2.0130601999990176,20.64575699999841,None,,,,,,,,,,,,,,,,,,,,,,,,,,,,,,,,,,,,,,,,,,,,,,,,,,,,,,,,,,,,,,,,,,,,,,,,,,,,,,,,,,,11003,002,2023_Dec_29_1714,MFTM_A_new1021,2021.2.3,60.07322926722751,
,,,,,,,,,,,,,,,,,,,,,,,,,,,,,,,,,,,,,,,,,,22.68207569999504,None,space,1.0648116000011214,22.68207569999504,None,,,,,,,,,,,,,,,,,,,,,,,,,,,,,,,,,,,,,,,,,,,,,,,,,,,,,,,,,,,,,,,,,,,,,,,,,,,,,11003,002,2023_Dec_29_1714,MFTM_A_new1021,2021.2.3,60.07322926722751,
0.6,0.6,0.6,-0.6,-0.6,right,3:2,R,,,,,,,,,,,0,0,0,0,,,,,,,,,,,,,,,,,,,,,,,,,,,23.78574859999935,None,23.78574859999935,None,23.78574859999935,None,23.78574859999935,None,23.78574859999935,None,23.78574859999935,None,right,1,4.865773500001524,23.78574859999935,None,28.69198519999918,None,,,,,,,,,,,,,,,,,,,,,,,,,,,,,,,,,,,,,,,,,,,,,,,,,,,,,,,,,,11003,002,2023_Dec_29_1714,MFTM_A_new1021,2021.2.3,60.07322926722751,
-0.6,-0.6,-0.6,0.6,0.6,left,3:2,L,,,,,,,,,,,0,1,1,1,,,,,,,,,,,,,,,,,,,,,,,,,,,29.442248899998958,None,29.442248899998958,None,29.442248899998958,None,29.442248899998958,None,29.442248899998958,None,29.442248899998958,None,left,1,1.9287881999989622,29.442248899998958,None,31.39490829999704,None,,,,,,,,,,,,,,,,,,,,,,,,,,,,,,,,,,,,,,,,,,,,,,,,,,,,,,,,,,11003,002,2023_Dec_29_1714,MFTM_A_new1021,2021.2.3,60.07322926722751,
0.6,0.6,0.6,-0.6,-0.6,right,3:2,R,,,,,,,,,,,1,0,2,0,,,,,,,,,,,,,,,,,,,,,,,,,,,32.14612240000133,None,32.14612240000133,None,32.14612240000133,None,32.14612240000133,None,32.14612240000133,None,32.14612240000133,None,right,1,2.9932101000013063,32.14612240000133,None,35.16762619999645,None,,,,,,,,,,,,,,,,,,,,,,,,,,,,,,,,,,,,,,,,,,,,,,,,,,,,,,,,,,11003,002,2023_Dec_29_1714,MFTM_A_new1021,2021.2.3,60.07322926722751,
-0.6,-0.6,-0.6,0.6,0.6,left,3:2,L,,,,,,,,,,,1,1,3,1,,,,,,,,,,,,,,,,,,,,,,,,,,,35.918378700000176,None,35.918378700000176,None,35.918378700000176,None,35.918378700000176,None,35.918378700000176,None,35.918378700000176,None,left,1,2.1726992999974755,35.918378700000176,None,38.121510600001784,None,,,,,,,,,,,,,,,,,,,,,,,,,,,,,,,,,,,,,,,,,,,,,,,,,,,,,,,,,,11003,002,2023_Dec_29_1714,MFTM_A_new1021,2021.2.3,60.07322926722751,
,,,,,,,,stim/Instruction_mask.png,conditions/adaptive.xlsx,practice,0.6,0.6,0.6,-0.6,-0.6,right,R,,,,,0,0,0,0,0,0,0,28,,,,,,,,,,,,,,,,,,,,,,,,,,,,,,,,,,,,,,39.07348539999657,None,space,1.4334587999983341,39.07348539999657,None,40.609078900000895,None,None,0,0,41.04257199999847,None,41.04257199999847,44.04697689999739,41.04257199999847,44.04697689999739,41.04257199999847,44.04697689999739,41.04257199999847,44.04697689999739,41.04257199999847,44.04697689999739,44.03037680000125,44.53183039999567,44.03037680000125,44.53183039999567,44.03037680000125,44.53183039999567,44.03037680000125,44.53183039999567,44.03037680000125,44.53183039999567,44.03037680000125,44.53183039999567,44.03037680000125,44.53183039999567,44.03037680000125,44.53183039999567,41.04257199999847,None,44.53183039999567,44.53183039999567,3,44.54713130000164,None,45.29971449999721,None,,,,,,,,,,11003,002,2023_Dec_29_1714,MFTM_A_new1021,2021.2.3,60.07322926722751,
,,,,,,,,stim/Instruction_mask.png,conditions/adaptive.xlsx,practice,0.6,0.6,0.6,-0.6,-0.6,right,R,,,,,0,0,0,0,0,1,1,24,,,,,,,,,,,,,,,,,,,,,,,,,,,,,,,,,,,,,,,,,,,,45.8006114000018,None,right,1,1.7015375999981188,46.302007300000696,48.30399169999873,46.302007300000696,47.80256550000195,46.302007300000696,47.80256550000195,46.302007300000696,47.80256550000195,46.302007300000696,47.80256550000195,46.302007300000696,47.80256550000195,47.7859410999954,48.28790379999555,47.7859410999954,48.28790379999555,47.7859410999954,48.28790379999555,47.7859410999954,48.28790379999555,47.7859410999954,48.28790379999555,47.7859410999954,48.28790379999555,47.7859410999954,48.28790379999555,47.7859410999954,48.28790379999555,46.302007300000696,None,48.28790379999555,49.789363899995806,1.5,49.805587800001376,None,50.55707589999656,None,,,,,,,,,,11003,002,2023_Dec_29_1714,MFTM_A_new1021,2021.2.3,60.07322926722751,
,,,,,,,,stim/Instruction_mask.png,conditions/adaptive.xlsx,practice,-0.6,-0.6,-0.6,0.6,0.6,left,L,,,,,0,0,0,0,0,2,2,21,,,,,,,,,,,,,,,,,,,,,,,,,,,,,,,,,,,,,,,,,,,,51.05745079999906,None,left,1,1.1407327999986592,51.55827489999501,52.8605047999954,51.55827489999501,52.36016369999561,51.55827489999501,52.36016369999561,51.55827489999501,52.36016369999561,51.55827489999501,52.36016369999561,51.55827489999501,52.36016369999561,52.34265679999953,52.84392569999909,52.34265679999953,52.84392569999909,52.34265679999953,52.84392569999909,52.34265679999953,52.84392569999909,52.34265679999953,52.84392569999909,52.34265679999953,52.84392569999909,52.34265679999953,52.84392569999909,52.34265679999953,52.84392569999909,51.55827489999501,None,52.84392569999909,55.046629600001324,0.8,55.06395450000127,None,55.815274799999315,None,,,,,,,,,,11003,002,2023_Dec_29_1714,MFTM_A_new1021,2021.2.3,60.07322926722751,
,,,,,,,,stim/Instruction_mask.png,conditions/adaptive.xlsx,practice,-0.6,-0.6,-0.6,0.6,0.6,left,L,,,,,0,0,0,0,0,3,3,63,,,,,,,,,,,,,,,,,,,,,,,,,,,,,,,,,,,,,,,,,,,,56.31533459999628,None,left,1,0.7064247000016621,56.81677669999772,57.567995500001416,56.81677669999772,57.066486600000644,56.81677669999772,57.066486600000644,56.81677669999772,57.066486600000644,56.81677669999772,57.066486600000644,56.81677669999772,57.066486600000644,57.049586799999815,57.551829799995176,57.049586799999815,57.551829799995176,57.049586799999815,57.551829799995176,57.049586799999815,57.551829799995176,57.049586799999815,57.551829799995176,57.049586799999815,57.551829799995176,57.049586799999815,57.551829799995176,57.049586799999815,57.551829799995176,56.81677669999772,None,57.551829799995176,60.30430029999843,3,60.320986200000334,None,61.072828199998185,None,,,,,,,,,,11003,002,2023_Dec_29_1714,MFTM_A_new1021,2021.2.3,60.07322926722751,
,,,,,,,,stim/Instruction_mask.png,conditions/adaptive.xlsx,practice,,,,,,,,,,,,0,0,0,0,,,,,,,,,,,,,,,,,,,,,,,,,,,,,,,,,,,,,,,,,,,,,,,,,,,,,,,,,,,,,,,,,,,,,,,,,,,,,,,,,,,,,,,,,,61.58967010000197,62.59304329999577,62.557750200001465,62.557750200001465,62.557750200001465,None,,,,11003,002,2023_Dec_29_1714,MFTM_A_new1021,2021.2.3,60.07322926722751,
,,,,,,,,stim/Instruction_adaptive.png,conditions/adaptive.xlsx,test,-0.6,-0.6,-0.6,0.6,0.6,left,L,,,,,0,1,1,1,0,0,0,25,,,,,,,,,,,,,,,,,,,,,,,,,,,,,,,,,,,,,,65.68006059999607,None,space,1.0428066999957082,65.68006059999607,None,66.76375120000012,None,left,1,2.065844199998537,67.2652201000019,None,67.2652201000019,70.26997329999722,67.2652201000019,70.26997329999722,67.2652201000019,70.26997329999722,67.2652201000019,70.26997329999722,67.2652201000019,70.26997329999722,70.25264779999998,70.75431319999916,70.25264779999998,70.75431319999916,70.25264779999998,70.75431319999916,70.25264779999998,70.75431319999916,70.25264779999998,70.75431319999916,70.25264779999998,70.75431319999916,70.25264779999998,70.75431319999916,70.25264779999998,70.75431319999916,67.2652201000019,None,70.75431319999916,70.75431319999916,3,70.77016960000037,None,71.52105540000048,None,,,,,,,0,6.000000000000005,1.0,11003,002,2023_Dec_29_1714,MFTM_A_new1021,2021.2.3,60.07322926722751,
,,,,,,,,stim/Instruction_adaptive.png,conditions/adaptive.xlsx,test,-0.6,-0.6,-0.6,0.6,0.6,left,L,,,,,0,1,1,1,0,1,1,81,,,,,,,,,,,,,,,,,,,,,,,,,,,,,,,,,,,,,,,,,,,,72.02214000000095,None,left,1,2.5041158000021824,72.52318809999997,73.27383199999895,72.52318809999997,72.77372119999927,72.52318809999997,72.77372119999927,72.52318809999997,72.77372119999927,72.52318809999997,72.77372119999927,72.52318809999997,72.77372119999927,72.75613299999532,73.25750580000022,72.75613299999532,73.25750580000022,72.75613299999532,73.25750580000022,72.75613299999532,73.25750580000022,72.75613299999532,73.25750580000022,72.75613299999532,73.25750580000022,72.75613299999532,73.25750580000022,72.75613299999532,73.25750580000022,72.52318809999997,None,73.25750580000022,75.04313959999854,0.25,75.05983579999884,None,75.81136289999995,None,,,,,,,[0.875],6.000000000000005,1.0,11003,002,2023_Dec_29_1714,MFTM_A_new1021,2021.2.3,60.07322926722751,
,,,,,,,,stim/Instruction_adaptive.png,conditions/adaptive.xlsx,test,-0.6,-0.6,-0.6,0.6,0.6,left,L,,,,,0,1,1,1,0,2,2,15,,,,,,,,,,,,,,,,,,,,,,,,,,,,,,,,,,,,,,,,,,,,76.3130650000021,None,left,1,0.7191358999989461,76.81219260000216,77.56434099999751,76.81219260000216,77.06258810000145,76.81219260000216,77.06258810000145,76.81219260000216,77.06258810000145,76.81219260000216,77.06258810000145,76.81219260000216,77.06258810000145,77.04612139999517,77.54656289999548,77.04612139999517,77.54656289999548,77.04612139999517,77.54656289999548,77.04612139999517,77.54656289999548,77.04612139999517,77.54656289999548,77.04612139999517,77.54656289999548,77.04612139999517,77.54656289999548,77.04612139999517,77.54656289999548,76.81219260000216,None,77.54656289999548,78.8834091999961,0.25,78.89859989999968,None,79.64977709999948,None,,,,,,,[1.33333333],6.000000000000005,1.0,11003,002,2023_Dec_29_1714,MFTM_A_new1021,2021.2.3,60.07322926722751,
,,,,,,,,stim/Instruction_adaptive.png,conditions/adaptive.xlsx,test,-0.6,-0.6,-0.6,0.6,0.6,left,L,,,,,0,1,1,1,0,3,3,27,,,,,,,,,,,,,,,,,,,,,,,,,,,,,,,,,,,,,,,,,,,,80.151744099996,None,right,0,1.5588339000023552,80.6523285000003,81.40252019999753,80.6523285000003,80.90164840000216,80.6523285000003,80.90164840000216,80.6523285000003,80.90164840000216,80.6523285000003,80.90164840000216,80.6523285000003,80.90164840000216,80.88503330000094,81.38680849999946,80.88503330000094,81.38680849999946,80.88503330000094,81.38680849999946,80.88503330000094,81.38680849999946,80.88503330000094,81.38680849999946,80.88503330000094,81.38680849999946,80.88503330000094,81.38680849999946,80.88503330000094,81.38680849999946,80.6523285000003,None,81.38680849999946,82.95524550000118,0.25,82.9708415999994,None,83.72307649999857,None,,,,,,,[1.5625],4.030000000000003,0.75,11003,002,2023_Dec_29_1714,MFTM_A_new1021,2021.2.3,60.07322926722751,
,,,,,,,,stim/Instruction_adaptive.png,conditions/adaptive.xlsx,test,-0.6,-0.6,-0.6,0.6,0.6,left,L,,,,,0,1,1,1,0,4,4,83,,,,,,,,,,,,,,,,,,,,,,,,,,,,,,,,,,,,,,,,,,,,84.22335069999826,None,left,1,0.8147774000026402,84.72426550000091,85.62693320000108,84.72426550000091,85.12466209999548,84.72426550000091,85.12466209999548,84.72426550000091,85.12466209999548,84.72426550000091,85.12466209999548,84.72426550000091,85.12466209999548,85.10779579999507,85.608567700001,85.10779579999507,85.608567700001,85.10779579999507,85.608567700001,85.10779579999507,85.608567700001,85.10779579999507,85.608567700001,85.10779579999507,85.608567700001,85.10779579999507,85.608567700001,85.10779579999507,85.608567700001,84.72426550000091,None,85.608567700001,87.27855470000213,0.40000000000000013,87.29464569999982,None,88.04584639999666,None,,,,,,,[1.67],4.700000000000004,0.8,11003,002,2023_Dec_29_1714,MFTM_A_new1021,2021.2.3,60.07322926722751,
,,,,,,,,stim/Instruction_adaptive.png,conditions/adaptive.xlsx,test,-0.6,-0.6,-0.6,0.6,0.6,left,L,,,,,0,1,1,1,0,5,5,97,,,,,,,,,,,,,,,,,,,,,,,,,,,,,,,,,,,,,,,,,,,,88.54626719999942,None,left,1,0.6121267999988049,89.04711400000087,89.79903619999823,89.04711400000087,89.29730689999997,89.04711400000087,89.29730689999997,89.04711400000087,89.29730689999997,89.04711400000087,89.29730689999997,89.04711400000087,89.29730689999997,89.28086130000156,89.78159099999903,89.28086130000156,89.78159099999903,89.28086130000156,89.78159099999903,89.28086130000156,89.78159099999903,89.28086130000156,89.78159099999903,89.28086130000156,89.78159099999903,89.28086130000156,89.78159099999903,89.28086130000156,89.78159099999903,89.04711400000087,None,89.78159099999903,91.550822899997,0.25,91.56756560000213,None,92.31886629999644,None,,,,,,,[1.76666667],5.070000000000004,0.8333333333333334,11003,002,2023_Dec_29_1714,MFTM_A_new1021,2021.2.3,60.07322926722751,
,,,,,,,,stim/Instruction_adaptive.png,conditions/adaptive.xlsx,test,0.6,0.6,0.6,-0.6,-0.6,right,R,,,,,0,1,1,1,0,6,6,16,,,,,,,,,,,,,,,,,,,,,,,,,,,,,,,,,,,,,,,,,,,,92.81929500000115,None,left,0,0.8352927999949316,93.320776200002,94.07172719999653,93.320776200002,93.57038449999527,93.320776200002,93.57038449999527,93.320776200002,93.57038449999527,93.320776200002,93.57038449999527,93.320776200002,93.57038449999527,93.55387119999796,94.05447949999507,93.55387119999796,94.05447949999507,93.55387119999796,94.05447949999507,93.55387119999796,94.05447949999507,93.55387119999796,94.05447949999507,93.55387119999796,94.05447949999507,93.55387119999796,94.05447949999507,93.55387119999796,94.05447949999507,93.320776200002,None,94.05447949999507,95.890413299996,0.25,95.90780280000035,None,96.65966489999846,None,,,,,,,[1.83571429],4.050000000000003,0.7142857142857143,11003,002,2023_Dec_29_1714,MFTM_A_new1021,2021.2.3,60.07322926722751,
,,,,,,,,stim/Instruction_adaptive.png,conditions/adaptive.xlsx,test,0.6,0.6,0.6,-0.6,-0.6,right,R,,,,,0,1,1,1,0,7,7,46,,,,,,,,,,,,,,,,,,,,,,,,,,,,,,,,,,,,,,,,,,,,97.15997819999757,None,right,1,0.9593516999957501,97.65977639999619,98.5620138000013,97.65977639999619,98.06109270000161,97.65977639999619,98.06109270000161,97.65977639999619,98.06109270000161,97.65977639999619,98.06109270000161,97.65977639999619,98.06109270000161,98.04388520000066,98.54529309999634,98.04388520000066,98.54529309999634,98.04388520000066,98.54529309999634,98.04388520000066,98.54529309999634,98.04388520000066,98.54529309999634,98.04388520000066,98.54529309999634,98.04388520000066,98.54529309999634,98.04388520000066,98.54529309999634,97.65977639999619,None,98.54529309999634,100.41394659999787,0.40000000000000013,100.43067770000198,None,101.1824162999983,None,,,,,,,[1.86875],4.430000000000003,0.75,11003,002,2023_Dec_29_1714,MFTM_A_new1021,2021.2.3,60.07322926722751,
,,,,,,,,stim/Instruction_adaptive.png,conditions/adaptive.xlsx,test,0.6,0.6,0.6,-0.6,-0.6,right,R,,,,,0,1,1,1,0,8,8,86,,,,,,,,,,,,,,,,,,,,,,,,,,,,,,,,,,,,,,,,,,,,101.68247249999695,None,right,1,1.6275315999955637,102.18360440000106,103.00110809999751,102.18360440000106,102.50101899999572,102.18360440000106,102.50101899999572,102.18360440000106,102.50101899999572,102.18360440000106,102.50101899999572,102.18360440000106,102.50101899999572,102.48366489999898,102.9847523999997,102.48366489999898,102.9847523999997,102.48366489999898,102.9847523999997,102.48366489999898,102.9847523999997,102.48366489999898,102.9847523999997,102.48366489999898,102.9847523999997,102.48366489999898,102.9847523999997,102.48366489999898,102.9847523999997,102.18360440000106,None,102.9847523999997,None,0.31000000000000005,104.90489669999806,None,105.6562636000017,None,,,,,,,[1.90444444],4.700000000000004,0.7777777777777778,11003,002,2023_Dec_29_1714,MFTM_A_new1021,2021.2.3,60.07322926722751,
,,,,,,,,stim/Instruction_adaptive.png,conditions/adaptive.xlsx,test,-0.6,-0.6,-0.6,0.6,0.6,left,L,,,,,0,1,1,1,0,9,9,9,,,,,,,,,,,,,,,,,,,,,,,,,,,,,,,,,,,,,,,,,,,,106.15673969999625,None,left,1,0.5553933999981382,106.6564756000007,107.40768329999992,106.6564756000007,106.90771479999967,106.6564756000007,106.90771479999967,106.6564756000007,106.90771479999967,106.6564756000007,106.90771479999967,106.6564756000007,106.90771479999967,106.89094549999572,107.39144929999748,106.89094549999572,107.39144929999748,106.89094549999572,107.39144929999748,106.89094549999572,107.39144929999748,106.89094549999572,107.39144929999748,106.89094549999572,107.39144929999748,106.89094549999572,107.39144929999748,106.89094549999572,107.39144929999748,106.6564756000007,None,107.39144929999748,109.34398639999563,0.25,109.36046989999886,None,110.11253249999572,None,,,,,,,[1.939],4.900000000000004,0.8,11003,002,2023_Dec_29_1714,MFTM_A_new1021,2021.2.3,60.07322926722751,
,,,,,,,,stim/Instruction_adaptive.png,conditions/adaptive.xlsx,test,0.6,0.6,0.6,-0.6,-0.6,right,R,,,,,0,1,1,1,0,10,10,14,,,,,,,,,,,,,,,,,,,,,,,,,,,,,,,,,,,,,,,,,,,,110.61228829999891,None,left,0,0.8739636000027531,111.11329329999717,111.86486249999871,111.11329329999717,111.36439869999595,111.11329329999717,111.36439869999595,111.11329329999717,111.36439869999595,111.11329329999717,111.36439869999595,111.11329329999717,111.36439869999595,111.34683829999994,111.84848059999786,111.34683829999994,111.84848059999786,111.34683829999994,111.84848059999786,111.34683829999994,111.84848059999786,111.34683829999994,111.84848059999786,111.34683829999994,111.84848059999786,111.34683829999994,111.84848059999786,111.34683829999994,111.84848059999786,111.11329329999717,None,111.84848059999786,113.81810779999796,0.25,113.8334371000019,None,114.58489679999911,None,,,,,,,[1.96727273],4.320000000000004,0.7272727272727273,11003,002,2023_Dec_29_1714,MFTM_A_new1021,2021.2.3,60.07322926722751,
,,,,,,,,stim/Instruction_adaptive.png,conditions/adaptive.xlsx,test,0.6,0.6,0.6,-0.6,-0.6,right,R,,,,,0,1,1,1,0,11,11,30,,,,,,,,,,,,,,,,,,,,,,,,,,,,,,,,,,,,,,,,,,,,115.08578139999736,None,left,0,1.329619800002547,115.58639559999574,116.42082069999742,115.58639559999574,115.9208765000003,115.58639559999574,115.9208765000003,115.58639559999574,115.9208765000003,115.58639559999574,115.9208765000003,115.58639559999574,115.9208765000003,115.90451069999835,116.40494899999612,115.90451069999835,116.40494899999612,115.90451069999835,116.40494899999612,115.90451069999835,116.40494899999612,115.90451069999835,116.40494899999612,115.90451069999835,116.40494899999612,115.90451069999835,116.40494899999612,115.90451069999835,116.40494899999612,115.58639559999574,None,116.40494899999612,118.39066949999687,0.33000000000000007,118.40726500000164,None,119.1590722999972,None,,,,,,,[1.98416667],3.640000000000003,0.6666666666666666,11003,002,2023_Dec_29_1714,MFTM_A_new1021,2021.2.3,60.07322926722751,
,,,,,,,,stim/Instruction_adaptive.png,conditions/adaptive.xlsx,test,0.6,0.6,0.6,-0.6,-0.6,right,R,,,,,0,1,1,1,0,12,12,48,,,,,,,,,,,,,,,,,,,,,,,,,,,,,,,,,,,,,,,,,,,,119.65992410000035,None,left,0,2.4595870999983163,120.16022769999836,121.19562189999851,120.16022769999836,120.69415859999572,120.16022769999836,120.69415859999572,120.16022769999836,120.69415859999572,120.16022769999836,120.69415859999572,120.16022769999836,120.69415859999572,120.67718149999564,121.17869459999929,120.67718149999564,121.17869459999929,120.67718149999564,121.17869459999929,120.67718149999564,121.17869459999929,120.67718149999564,121.17869459999929,120.67718149999564,121.17869459999929,120.67718149999564,121.17869459999929,120.67718149999564,121.17869459999929,120.16022769999836,None,121.17869459999929,None,0.5300000000000002,123.16511699999683,None,123.91544859999703,None,,,,,,,[[1.97]],2.740000000000002,0.6153846153846154,11003,002,2023_Dec_29_1714,MFTM_A_new1021,2021.2.3,60.07322926722751,
,,,,,,,,stim/Instruction_adaptive.png,conditions/adaptive.xlsx,test,-0.6,-0.6,-0.6,0.6,0.6,left,L,,,,,0,1,1,1,0,13,13,89,,,,,,,,,,,,,,,,,,,,,,,,,,,,,,,,,,,,,,,,,,,,124.4166194999998,None,left,1,2.7587620000049355,124.91693079999823,126.40290870000172,124.91693079999823,125.90244079999684,124.91693079999823,125.90244079999684,124.91693079999823,125.90244079999684,124.91693079999823,125.90244079999684,124.91693079999823,125.90244079999684,125.88495359999797,126.38579919999756,125.88495359999797,126.38579919999756,125.88495359999797,126.38579919999756,125.88495359999797,126.38579919999756,125.88495359999797,126.38579919999756,125.88495359999797,126.38579919999756,125.88495359999797,126.38579919999756,125.88495359999797,126.38579919999756,124.91693079999823,None,126.38579919999756,None,0.9800000000000006,127.92133810000087,None,128.6733510999984,None,,,,,,,[[1.52]],3.1300000000000026,0.6428571428571429,11003,002,2023_Dec_29_1714,MFTM_A_new1021,2021.2.3,60.07322926722751,
,,,,,,,,stim/Instruction_adaptive.png,conditions/adaptive.xlsx,test,0.6,0.6,0.6,-0.6,-0.6,right,R,,,,,0,1,1,1,0,14,14,62,,,,,,,,,,,,,,,,,,,,,,,,,,,,,,,,,,,,,,,,,,,,129.173715799996,None,right,1,1.1373791999940295,129.6739008000004,130.92669659999956,129.6739008000004,130.42510490000132,129.6739008000004,130.42510490000132,129.6739008000004,130.42510490000132,129.6739008000004,130.42510490000132,129.6739008000004,130.42510490000132,130.40845989999798,130.90975420000177,130.40845989999798,130.90975420000177,130.40845989999798,130.90975420000177,130.40845989999798,130.90975420000177,130.40845989999798,130.90975420000177,130.40845989999798,130.90975420000177,130.40845989999798,130.90975420000177,130.40845989999798,130.90975420000177,129.6739008000004,None,130.90975420000177,132.6617699999988,0.7500000000000004,132.67843690000154,None,133.43042309999873,None,,,,,,,[[1.75]],3.410000000000003,0.6666666666666666,11003,002,2023_Dec_29_1714,MFTM_A_new1021,2021.2.3,60.07322926722751,
,,,,,,,,stim/Instruction_adaptive.png,conditions/adaptive.xlsx,test,-0.6,-0.6,-0.6,0.6,0.6,left,L,,,,,0,1,1,1,0,15,15,7,,,,,,,,,,,,,,,,,,,,,,,,,,,,,,,,,,,,,,,,,,,,133.93081379999785,None,left,1,1.9156165000022156,134.43192239999917,135.5659908000016,134.43192239999917,135.0653411999956,134.43192239999917,135.0653411999956,134.43192239999917,135.0653411999956,134.43192239999917,135.0653411999956,134.43192239999917,135.0653411999956,135.0325184999965,135.53317519999837,135.0325184999965,135.53317519999837,135.0325184999965,135.53317519999837,135.0325184999965,135.53317519999837,135.0325184999965,135.53317519999837,135.0325184999965,135.53317519999837,135.0325184999965,135.53317519999837,135.0325184999965,135.53317519999837,134.43192239999917,None,135.53317519999837,137.4190677000006,0.6200000000000003,137.43610669999907,None,138.18829339999502,None,,,,,,,[[1.88]],3.6200000000000028,0.6875,11003,002,2023_Dec_29_1714,MFTM_A_new1021,2021.2.3,60.07322926722751,
,,,,,,,,stim/Instruction_adaptive.png,conditions/adaptive.xlsx,test,0.6,0.6,0.6,-0.6,-0.6,right,R,,,,,0,1,1,1,0,16,16,38,,,,,,,,,,,,,,,,,,,,,,,,,,,,,,,,,,,,,,,,,,,,138.687314099996,None,right,1,2.2713208999994094,139.1883655999991,140.23986839999998,139.1883655999991,139.73955379999825,139.1883655999991,139.73955379999825,139.1883655999991,139.73955379999825,139.1883655999991,139.73955379999825,139.1883655999991,139.73955379999825,139.70620719999715,140.20694150000054,139.70620719999715,140.20694150000054,139.70620719999715,140.20694150000054,139.70620719999715,140.20694150000054,139.70620719999715,140.20694150000054,139.70620719999715,140.20694150000054,139.70620719999715,140.20694150000054,139.70620719999715,140.20694150000054,139.1883655999991,None,140.20694150000054,142.14246959999582,0.5400000000000003,142.17587469999853,None,142.92682979999518,None,,,,,,,[1.93470588],3.7900000000000027,0.7058823529411765,11003,002,2023_Dec_29_1714,MFTM_A_new1021,2021.2.3,60.07322926722751,
,,,,,,,,stim/Instruction_adaptive.png,conditions/adaptive.xlsx,test,0.6,0.6,0.6,-0.6,-0.6,right,R,,,,,0,1,1,1,0,17,17,0,,,,,,,,,,,,,,,,,,,,,,,,,,,,,,,,,,,,,,,,,,,,143.42895950000093,None,left,0,1.7950168999959715,143.9282991,144.91465679999965,143.9282991,144.41337909999856,143.9282991,144.41337909999856,143.9282991,144.41337909999856,143.9282991,144.41337909999856,143.9282991,144.41337909999856,144.3971812000018,144.89735619999556,144.3971812000018,144.89735619999556,144.3971812000018,144.89735619999556,144.3971812000018,144.89735619999556,144.3971812000018,144.89735619999556,144.3971812000018,144.89735619999556,144.3971812000018,144.89735619999556,144.3971812000018,144.89735619999556,143.9282991,None,144.89735619999556,None,0.4800000000000002,146.84916729999532,None,147.60054619999573,None,,,,,,,[1.93944444],3.3500000000000023,0.6666666666666666,11003,002,2023_Dec_29_1714,MFTM_A_new1021,2021.2.3,60.07322926722751,
,,,,,,,,stim/Instruction_adaptive.png,conditions/adaptive.xlsx,test,0.6,0.6,0.6,-0.6,-0.6,right,R,,,,,0,1,1,1,0,18,18,90,,,,,,,,,,,,,,,,,,,,,,,,,,,,,,,,,,,,,,,,,,,,148.10165389999747,None,right,1,0.8415181999953347,148.60195620000013,149.75382539999555,148.60195620000013,149.2538287999996,148.60195620000013,149.2538287999996,148.60195620000013,149.2538287999996,148.60195620000013,149.2538287999996,148.60195620000013,149.2538287999996,149.23614709999674,149.73756429999776,149.23614709999674,149.73756429999776,149.23614709999674,149.73756429999776,149.23614709999674,149.73756429999776,149.23614709999674,149.73756429999776,149.23614709999674,149.73756429999776,149.23614709999674,149.73756429999776,149.23614709999674,149.73756429999776,148.60195620000013,None,149.73756429999776,151.59043299999757,0.6500000000000004,151.60638599999947,None,152.35739589999866,None,,,,,,,[[1.85]],3.5200000000000027,0.6842105263157895,11003,002,2023_Dec_29_1714,MFTM_A_new1021,2021.2.3,60.07322926722751,
,,,,,,,,stim/Instruction_adaptive.png,conditions/adaptive.xlsx,test,-0.6,-0.6,-0.6,0.6,0.6,left,L,,,,,0,1,1,1,0,19,19,49,,,,,,,,,,,,,,,,,,,,,,,,,,,,,,,,,,,,,,,,,,,,152.85876719999942,None,right,0,1.1642771000042558,153.3591385999971,154.4438485999999,153.3591385999971,153.94357799999852,153.3591385999971,153.94357799999852,153.3591385999971,153.94357799999852,153.3591385999971,153.94357799999852,153.3591385999971,153.94357799999852,153.91004760000214,154.4104595999961,153.91004760000214,154.4104595999961,153.91004760000214,154.4104595999961,153.91004760000214,154.4104595999961,153.91004760000214,154.4104595999961,153.91004760000214,154.4104595999961,153.91004760000214,154.4104595999961,153.91004760000214,154.4104595999961,153.3591385999971,None,154.4104595999961,156.34734670000034,0.5700000000000003,156.3633136999997,None,157.11531119999563,None,,,,,,,[[1.93]],3.0800000000000023,0.65,11003,002,2023_Dec_29_1714,MFTM_A_new1021,2021.2.3,60.07322926722751,
,,,,,,,,stim/Instruction_adaptive.png,conditions/adaptive.xlsx,test,-0.6,-0.6,-0.6,0.6,0.6,left,L,,,,,0,1,1,1,0,20,20,67,,,,,,,,,,,,,,,,,,,,,,,,,,,,,,,,,,,,,,,,,,,,157.61586639999587,None,left,1,1.5914617999951588,158.11618449999514,159.40152159999707,158.11618449999514,158.90137600000162,158.11618449999514,158.90137600000162,158.11618449999514,158.90137600000162,158.11618449999514,158.90137600000162,158.11618449999514,158.90137600000162,158.88467549999768,159.38757410000107,158.88467549999768,159.38757410000107,158.88467549999768,159.38757410000107,158.88467549999768,159.38757410000107,158.88467549999768,159.38757410000107,158.88467549999768,159.38757410000107,158.88467549999768,159.38757410000107,158.88467549999768,159.38757410000107,158.11618449999514,None,159.38757410000107,None,0.7800000000000005,161.1207718000005,None,161.872472199997,None,,,,,,,[[1.72]],3.2500000000000027,0.6666666666666666,11003,002,2023_Dec_29_1714,MFTM_A_new1021,2021.2.3,60.07322926722751,
,,,,,,,,stim/Instruction_adaptive.png,conditions/adaptive.xlsx,test,0.6,0.6,0.6,-0.6,-0.6,right,R,,,,,0,1,1,1,0,21,21,66,,,,,,,,,,,,,,,,,,,,,,,,,,,,,,,,,,,,,,,,,,,,162.37276559999736,None,right,1,1.9220182999997633,162.87316689999716,164.07567449999624,162.87316689999716,163.57465979999688,162.87316689999716,163.57465979999688,162.87316689999716,163.57465979999688,162.87316689999716,163.57465979999688,162.87316689999716,163.57465979999688,163.54172860000108,164.04158449999522,163.54172860000108,164.04158449999522,163.54172860000108,164.04158449999522,163.54172860000108,164.04158449999522,163.54172860000108,164.04158449999522,163.54172860000108,164.04158449999522,163.54172860000108,164.04158449999522,163.54172860000108,164.04158449999522,162.87316689999716,None,164.04158449999522,165.86123499999667,0.6900000000000004,165.87821899999835,None,166.62898239999777,None,,,,,,,[[1.81]],3.4000000000000026,0.6818181818181818,11003,002,2023_Dec_29_1714,MFTM_A_new1021,2021.2.3,60.07322926722751,
,,,,,,,,stim/Instruction_adaptive.png,conditions/adaptive.xlsx,test,0.6,0.6,0.6,-0.6,-0.6,right,R,,,,,0,1,1,1,0,22,22,44,,,,,,,,,,,,,,,,,,,,,,,,,,,,,,,,,,,,,,,,,,,,167.12947580000036,None,left,0,1.172265300003346,167.6310966999954,168.76574569999502,167.6310966999954,168.26500569999916,167.6310966999954,168.26500569999916,167.6310966999954,168.26500569999916,167.6310966999954,168.26500569999916,167.6310966999954,168.26500569999916,168.23116489999666,168.7318860000014,168.23116489999666,168.7318860000014,168.23116489999666,168.7318860000014,168.23116489999666,168.7318860000014,168.23116489999666,168.7318860000014,168.23116489999666,168.7318860000014,168.23116489999666,168.7318860000014,168.23116489999666,168.7318860000014,167.6310966999954,None,168.7318860000014,170.61786579999898,0.6200000000000003,170.63460369999666,None,171.38618909999786,None,,,,,,,[[1.88]],3.0200000000000022,0.6521739130434783,11003,002,2023_Dec_29_1714,MFTM_A_new1021,2021.2.3,60.07322926722751,
,,,,,,,,stim/Instruction_adaptive.png,conditions/adaptive.xlsx,test,0.6,0.6,0.6,-0.6,-0.6,right,R,,,,,0,1,1,1,0,23,23,2,,,,,,,,,,,,,,,,,,,,,,,,,,,,,,,,,,,,,,,,,,,,171.88773409999703,None,left,0,1.936914900004922,172.38727199999994,173.705913400001,172.38727199999994,173.205701400002,172.38727199999994,173.205701400002,172.38727199999994,173.205701400002,172.38727199999994,173.205701400002,172.38727199999994,173.205701400002,173.17179300000134,173.67353159999766,173.17179300000134,173.67353159999766,173.17179300000134,173.67353159999766,173.17179300000134,173.67353159999766,173.17179300000134,173.67353159999766,173.17179300000134,173.67353159999766,173.17179300000134,173.67353159999766,173.17179300000134,173.67353159999766,172.38727199999994,None,173.68921399999817,None,0.8100000000000005,175.3923089999953,None,176.14344880000135,None,,,,,,,[[1.69]],2.5500000000000016,0.625,11003,002,2023_Dec_29_1714,MFTM_A_new1021,2021.2.3,60.07322926722751,
,,,,,,,,stim/Instruction_adaptive.png,conditions/adaptive.xlsx,test,-0.6,-0.6,-0.6,0.6,0.6,left,L,,,,,0,1,1,1,0,24,24,33,,,,,,,,,,,,,,,,,,,,,,,,,,,,,,,,,,,,,,,,,,,,176.64351380000153,None,right,0,0.779175399999076,177.14421069999662,178.76338150000083,177.14421069999662,178.2634323999955,177.14421069999662,178.2634323999955,177.14421069999662,178.2634323999955,177.14421069999662,178.2634323999955,177.14421069999662,178.2634323999955,178.24667439999757,178.74683039999945,178.24667439999757,178.74683039999945,178.24667439999757,178.74683039999945,178.24667439999757,178.74683039999945,178.24667439999757,178.74683039999945,178.24667439999757,178.74683039999945,178.24667439999757,178.74683039999945,178.24667439999757,178.74683039999945,177.14421069999662,None,178.74683039999945,180.1327964000011,1.1200000000000008,180.14870469999732,None,180.90048129999923,None,,,,,,,[[1.38]],1.9100000000000013,0.6,11003,002,2023_Dec_29_1714,MFTM_A_new1021,2021.2.3,60.07322926722751,
,,,,,,,,stim/Instruction_adaptive.png,conditions/adaptive.xlsx,test,0.6,0.6,0.6,-0.6,-0.6,right,R,,,,,0,1,1,1,0,25,25,6,,,,,,,,,,,,,,,,,,,,,,,,,,,,,,,,,,,,,,,,,,,,181.40071429999807,None,right,1,3.278521299995191,181.9011501999994,184.15574989999732,181.9011501999994,183.65456129999802,181.9011501999994,183.65456129999802,181.9011501999994,183.65456129999802,181.9011501999994,183.65456129999802,181.9011501999994,183.65456129999802,183.63803380000172,184.13824169999862,183.63803380000172,184.13824169999862,183.63803380000172,184.13824169999862,183.63803380000172,184.13824169999862,183.63803380000172,184.13824169999862,183.63803380000172,184.13824169999862,183.63803380000172,184.13824169999862,183.63803380000172,184.13824169999862,181.9011501999994,None,184.13824169999862,185.2062025999985,1.7500000000000013,185.22288010000193,None,185.97464829999808,None,,,,,,,[[0.75]],2.1800000000000015,0.6153846153846154,11003,002,2023_Dec_29_1714,MFTM_A_new1021,2021.2.3,60.07322926722751,
,,,,,,,,stim/Instruction_adaptive.png,conditions/adaptive.xlsx,test,-0.6,-0.6,-0.6,0.6,0.6,left,L,,,,,0,1,1,1,0,26,26,19,,,,,,,,,,,,,,,,,,,,,,,,,,,,,,,,,,,,,,,,,,,,186.4751208000016,None,left,1,2.1388847999987775,186.9763477000015,188.92900949999603,186.9763477000015,188.42761809999502,186.9763477000015,188.42761809999502,186.9763477000015,188.42761809999502,186.9763477000015,188.42761809999502,186.9763477000015,188.42761809999502,188.41111300000193,188.9127984000006,188.41111300000193,188.9127984000006,188.41111300000193,188.9127984000006,188.41111300000193,188.9127984000006,188.41111300000193,188.9127984000006,188.41111300000193,188.9127984000006,188.41111300000193,188.9127984000006,188.41111300000193,188.9127984000006,186.9763477000015,None,188.9127984000006,189.9639373999962,1.450000000000001,189.98069319999922,None,190.73139269999956,None,,,,,,,[[1.05]],2.3800000000000017,0.6296296296296297,11003,002,2023_Dec_29_1714,MFTM_A_new1021,2021.2.3,60.07322926722751,
,,,,,,,,stim/Instruction_adaptive.png,conditions/adaptive.xlsx,test,0.6,0.6,0.6,-0.6,-0.6,right,R,,,,,0,1,1,1,0,27,27,42,,,,,,,,,,,,,,,,,,,,,,,,,,,,,,,,,,,,,,,,,,,,191.23225889999594,None,right,1,2.3108050000009825,191.73248140000214,193.5027295999971,191.73248140000214,193.00115820000065,191.73248140000214,193.00115820000065,191.73248140000214,193.00115820000065,191.73248140000214,193.00115820000065,191.73248140000214,193.00115820000065,192.98474249999708,193.48576409999805,192.98474249999708,193.48576409999805,192.98474249999708,193.48576409999805,192.98474249999708,193.48576409999805,192.98474249999708,193.48576409999805,192.98474249999708,193.48576409999805,192.98474249999708,193.48576409999805,192.98474249999708,193.48576409999805,191.73248140000214,None,193.48576409999805,None,1.260000000000001,194.7369245000009,None,195.48913719999837,None,,,,,,,[[1.24]],2.540000000000002,0.6428571428571429,11003,002,2023_Dec_29_1714,MFTM_A_new1021,2021.2.3,60.07322926722751,
,,,,,,,,stim/Instruction_adaptive.png,conditions/adaptive.xlsx,test,-0.6,-0.6,-0.6,0.6,0.6,left,L,,,,,0,1,1,1,0,28,28,65,,,,,,,,,,,,,,,,,,,,,,,,,,,,,,,,,,,,,,,,,,,,195.98914399999921,None,left,1,1.4579286000007414,196.4897742999965,198.1260448999965,196.4897742999965,197.62484779999795,196.4897742999965,197.62484779999795,196.4897742999965,197.62484779999795,196.4897742999965,197.62484779999795,196.4897742999965,197.62484779999795,197.60823849999724,198.10951370000112,197.60823849999724,198.10951370000112,197.60823849999724,198.10951370000112,197.60823849999724,198.10951370000112,197.60823849999724,198.10951370000112,197.60823849999724,198.10951370000112,197.60823849999724,198.10951370000112,197.60823849999724,198.10951370000112,196.4897742999965,None,198.10951370000112,None,1.1300000000000008,199.49394339999708,None,200.2460518000007,None,,,,,,,[[1.37]],2.6700000000000017,0.6551724137931034,11003,002,2023_Dec_29_1714,MFTM_A_new1021,2021.2.3,60.07322926722751,
,,,,,,,,stim/Instruction_adaptive.png,conditions/adaptive.xlsx,test,-0.6,-0.6,-0.6,0.6,0.6,left,L,,,,,0,1,1,1,0,29,29,77,,,,,,,,,,,,,,,,,,,,,,,,,,,,,,,,,,,,,,,,,,,,200.74603249999927,None,right,0,1.348640800002613,201.24666589999833,202.7828238000002,201.24666589999833,202.28145219999715,201.24666589999833,202.28145219999715,201.24666589999833,202.28145219999715,201.24666589999833,202.28145219999715,201.24666589999833,202.28145219999715,202.26535100000183,202.76656289999664,202.26535100000183,202.76656289999664,202.26535100000183,202.76656289999664,202.26535100000183,202.76656289999664,202.26535100000183,202.76656289999664,202.26535100000183,202.76656289999664,202.26535100000183,202.76656289999664,202.26535100000183,202.76656289999664,201.24666589999833,None,202.76656289999664,None,1.0300000000000007,204.2510930999997,None,205.00291869999637,None,,,,,,,[[1.47]],2.3200000000000016,0.6333333333333333,11003,002,2023_Dec_29_1714,MFTM_A_new1021,2021.2.3,60.07322926722751,
,,,,,,,,stim/Instruction_adaptive.png,conditions/adaptive.xlsx,test,-0.6,-0.6,-0.6,0.6,0.6,left,L,,,,,0,1,1,1,0,30,30,41,,,,,,,,,,,,,,,,,,,,,,,,,,,,,,,,,,,,,,,,,,,,205.50341069999558,None,left,1,1.9756507000056445,206.0038796000008,207.82302730000083,206.0038796000008,207.32283720000123,206.0038796000008,207.32283720000123,206.0038796000008,207.32283720000123,206.0038796000008,207.32283720000123,206.0038796000008,207.32283720000123,207.30632080000214,207.80644549999852,207.30632080000214,207.80644549999852,207.30632080000214,207.80644549999852,207.30632080000214,207.80644549999852,207.30632080000214,207.80644549999852,207.30632080000214,207.80644549999852,207.30632080000214,207.80644549999852,207.30632080000214,207.80644549999852,206.0038796000008,None,207.80644549999852,208.99180709999928,1.320000000000001,209.0082179999954,None,209.75959299999522,None,,,,,,,[[1.18]],2.450000000000002,0.6451612903225806,11003,002,2023_Dec_29_1714,MFTM_A_new1021,2021.2.3,60.07322926722751,
,,,,,,,,stim/Instruction_adaptive.png,conditions/adaptive.xlsx,test,-0.6,-0.6,-0.6,0.6,0.6,left,L,,,,,0,1,1,1,0,31,31,85,,,,,,,,,,,,,,,,,,,,,,,,,,,,,,,,,,,,,,,,,,,,210.26058349999948,None,left,1,1.8105455999975675,210.7609713999991,212.46387870000035,210.7609713999991,211.96327599999495,210.7609713999991,211.96327599999495,210.7609713999991,211.96327599999495,210.7609713999991,211.96327599999495,210.7609713999991,211.96327599999495,211.9467136000021,212.4472437000004,211.9467136000021,212.4472437000004,211.9467136000021,212.4472437000004,211.9467136000021,212.4472437000004,211.9467136000021,212.4472437000004,211.9467136000021,212.4472437000004,211.9467136000021,212.4472437000004,211.9467136000021,212.4472437000004,210.7609713999991,None,212.4472437000004,213.74926720000076,1.2000000000000008,213.76526249999733,None,214.51711799999612,None,,,,,,,[[1.3]],2.570000000000002,0.65625,11003,002,2023_Dec_29_1714,MFTM_A_new1021,2021.2.3,60.07322926722751,
,,,,,,,,stim/Instruction_adaptive.png,conditions/adaptive.xlsx,test,-0.6,-0.6,-0.6,0.6,0.6,left,L,,,,,0,1,1,1,0,32,32,93,,,,,,,,,,,,,,,,,,,,,,,,,,,,,,,,,,,,,,,,,,,,215.01777310000034,None,right,0,2.828857100001187,215.51828139999998,217.137653400001,215.51828139999998,216.63604659999692,215.51828139999998,216.63604659999692,215.51828139999998,216.63604659999692,215.51828139999998,216.63604659999692,215.51828139999998,216.63604659999692,216.61949659999664,217.1209228000007,216.61949659999664,217.1209228000007,216.61949659999664,217.1209228000007,216.61949659999664,217.1209228000007,216.61949659999664,217.1209228000007,216.61949659999664,217.1209228000007,216.61949659999664,217.1209228000007,216.61949659999664,217.1209228000007,215.51828139999998,None,217.1209228000007,None,1.1100000000000008,218.5220685000022,None,219.27355340000213,None,,,,,,,[[1.39]],2.2500000000000018,0.6363636363636364,11003,002,2023_Dec_29_1714,MFTM_A_new1021,2021.2.3,60.07322926722751,
,,,,,,,,stim/Instruction_adaptive.png,conditions/adaptive.xlsx,test,0.6,0.6,0.6,-0.6,-0.6,right,R,,,,,0,1,1,1,0,33,33,72,,,,,,,,,,,,,,,,,,,,,,,,,,,,,,,,,,,,,,,,,,,,219.77447859999666,None,left,0,1.953363000000536,220.2748735999994,222.16109249999863,220.2748735999994,221.6603713000004,220.2748735999994,221.6603713000004,220.2748735999994,221.6603713000004,220.2748735999994,221.6603713000004,220.2748735999994,221.6603713000004,221.64353770000162,222.14501380000002,221.64353770000162,222.14501380000002,221.64353770000162,222.14501380000002,221.64353770000162,222.14501380000002,221.64353770000162,222.14501380000002,221.64353770000162,222.14501380000002,221.64353770000162,222.14501380000002,221.64353770000162,222.14501380000002,220.2748735999994,None,222.14501380000002,None,1.380000000000001,223.2793707000019,None,224.0313193999973,None,,,,,,,[[1.12]],1.8500000000000012,0.6176470588235294,11003,002,2023_Dec_29_1714,MFTM_A_new1021,2021.2.3,60.07322926722751,
,,,,,,,,stim/Instruction_adaptive.png,conditions/adaptive.xlsx,test,-0.6,-0.6,-0.6,0.6,0.6,left,L,,,,,0,1,1,1,0,34,34,63,,,,,,,,,,,,,,,,,,,,,,,,,,,,,,,,,,,,,,,,,,,,224.5313529999985,None,left,1,2.5719859000018914,225.03185839999787,227.35301959999924,225.03185839999787,226.8511492999969,225.03185839999787,226.8511492999969,225.03185839999787,226.8511492999969,225.03185839999787,226.8511492999969,225.03185839999787,226.8511492999969,226.83466950000002,227.33562990000064,226.83466950000002,227.33562990000064,226.83466950000002,227.33562990000064,226.83466950000002,227.33562990000064,226.83466950000002,227.33562990000064,226.83466950000002,227.33562990000064,226.83466950000002,227.33562990000064,226.83466950000002,227.33562990000064,225.03185839999787,None,227.33562990000064,228.02048059999652,1.8200000000000014,228.03584609999962,None,228.7881422999999,None,,,,,,,[[0.68]],2.0100000000000016,0.6285714285714286,11003,002,2023_Dec_29_1714,MFTM_A_new1021,2021.2.3,60.07322926722751,
,,,,,,,,stim/Instruction_adaptive.png,conditions/adaptive.xlsx,test,-0.6,-0.6,-0.6,0.6,0.6,left,L,,,,,0,1,1,1,0,35,35,69,,,,,,,,,,,,,,,,,,,,,,,,,,,,,,,,,,,,,,,,,,,,229.28851069999655,None,left,1,1.4873662000027252,229.78886580000108,231.92654400000174,229.78886580000108,231.42496209999808,229.78886580000108,231.42496209999808,229.78886580000108,231.42496209999808,229.78886580000108,231.42496209999808,229.78886580000108,231.42496209999808,231.40796959999716,231.90898229999584,231.40796959999716,231.90898229999584,231.40796959999716,231.90898229999584,231.40796959999716,231.90898229999584,231.40796959999716,231.90898229999584,231.40796959999716,231.90898229999584,231.40796959999716,231.90898229999584,231.40796959999716,231.90898229999584,229.78886580000108,None,231.90898229999584,None,1.6300000000000012,232.79392910000024,None,233.54527640000015,None,,,,,,,[[0.87]],2.1400000000000015,0.6388888888888888,11003,002,2023_Dec_29_1714,MFTM_A_new1021,2021.2.3,60.07322926722751,
,,,,,,,,stim/Instruction_adaptive.png,conditions/adaptive.xlsx,test,-0.6,-0.6,-0.6,0.6,0.6,left,L,,,,,0,1,1,1,0,36,36,55,,,,,,,,,,,,,,,,,,,,,,,,,,,,,,,,,,,,,,,,,,,,234.04581479999615,None,left,1,1.633653899996716,234.54585679999582,236.55028250000032,234.54585679999582,236.0493456999975,234.54585679999582,236.0493456999975,234.54585679999582,236.0493456999975,234.54585679999582,236.0493456999975,234.54585679999582,236.0493456999975,236.01527559999522,236.51630429999932,236.01527559999522,236.51630429999932,236.01527559999522,236.51630429999932,236.01527559999522,236.51630429999932,236.01527559999522,236.51630429999932,236.01527559999522,236.51630429999932,236.01527559999522,236.51630429999932,236.01527559999522,236.51630429999932,234.54585679999582,None,236.51630429999932,237.53447759999835,1.490000000000001,237.5510548999955,None,238.30187450000085,None,,,,,,,[[1.01]],2.2500000000000018,0.6486486486486487,11003,002,2023_Dec_29_1714,MFTM_A_new1021,2021.2.3,60.07322926722751,
,,,,,,,,stim/Instruction_adaptive.png,conditions/adaptive.xlsx,test,-0.6,-0.6,-0.6,0.6,0.6,left,L,,,,,0,1,1,1,0,37,37,91,,,,,,,,,,,,,,,,,,,,,,,,,,,,,,,,,,,,,,,,,,,,238.80230969999684,None,left,1,1.9554988999952911,239.3037364999982,241.1902082000015,239.3037364999982,240.6884426999968,239.3037364999982,240.6884426999968,239.3037364999982,240.6884426999968,239.3037364999982,240.6884426999968,239.3037364999982,240.6884426999968,240.67184239999915,241.17379300000175,240.67184239999915,241.17379300000175,240.67184239999915,241.17379300000175,240.67184239999915,241.17379300000175,240.67184239999915,241.17379300000175,240.67184239999915,241.17379300000175,240.67184239999915,241.17379300000175,240.67184239999915,241.17379300000175,239.3037364999982,None,241.17379300000175,None,1.380000000000001,242.30792320000182,None,243.0592267999964,None,,,,,,,[[1.12]],2.3500000000000014,0.6578947368421053,11003,002,2023_Dec_29_1714,MFTM_A_new1021,2021.2.3,60.07322926722751,
,,,,,,,,stim/Instruction_adaptive.png,conditions/adaptive.xlsx,test,-0.6,-0.6,-0.6,0.6,0.6,left,L,,,,,0,1,1,1,0,38,38,17,,,,,,,,,,,,,,,,,,,,,,,,,,,,,,,,,,,,,,,,,,,,243.55941139999777,None,right,0,2.1355265000020154,244.06015159999515,245.86296859999857,244.06015159999515,245.36304070000187,244.06015159999515,245.36304070000187,244.06015159999515,245.36304070000187,244.06015159999515,245.36304070000187,244.06015159999515,245.36304070000187,245.3293405000004,245.82989879999514,245.3293405000004,245.82989879999514,245.3293405000004,245.82989879999514,245.3293405000004,245.82989879999514,245.3293405000004,245.82989879999514,245.3293405000004,245.82989879999514,245.3293405000004,245.82989879999514,245.3293405000004,245.82989879999514,244.06015159999515,None,245.82989879999514,247.04824969999754,1.290000000000001,247.06444000000192,None,247.8160085999989,None,,,,,,,[[1.21]],2.0800000000000014,0.6410256410256411,11003,002,2023_Dec_29_1714,MFTM_A_new1021,2021.2.3,60.07322926722751,
,,,,,,,,stim/Instruction_adaptive.png,conditions/adaptive.xlsx,test,0.6,0.6,0.6,-0.6,-0.6,right,R,,,,,0,1,1,1,0,39,39,54,,,,,,,,,,,,,,,,,,,,,,,,,,,,,,,,,,,,,,,,,,,,248.31727980000142,None,left,0,2.714198200003011,248.81722140000056,250.88692620000074,248.81722140000056,250.38620549999905,248.81722140000056,250.38620549999905,248.81722140000056,250.38620549999905,248.81722140000056,250.38620549999905,248.81722140000056,250.38620549999905,250.3537021000011,250.85353290000057,250.3537021000011,250.85353290000057,250.3537021000011,250.85353290000057,250.3537021000011,250.85353290000057,250.3537021000011,250.85353290000057,250.3537021000011,250.85353290000057,250.3537021000011,250.85353290000057,250.3537021000011,250.85353290000057,248.81722140000056,None,250.85353290000057,251.80585549999523,1.5600000000000012,251.82169939999585,None,252.5734680999958,None,,,,,,,[[0.94]],1.7600000000000011,0.625,11003,002,2023_Dec_29_1714,MFTM_A_new1021,2021.2.3,60.07322926722751,
,,,,,,,,stim/Instruction_adaptive.png,conditions/adaptive.xlsx,test,0.6,0.6,0.6,-0.6,-0.6,right,R,,,,,0,1,1,1,0,40,40,88,,,,,,,,,,,,,,,,,,,,,,,,,,,,,,,,,,,,,,,,,,,,253.07334779999655,None,right,1,2.9730056000043987,253.57474209999782,256.02805349999835,253.57474209999782,255.52869980000105,253.57474209999782,255.52869980000105,253.57474209999782,255.52869980000105,253.57474209999782,255.52869980000105,253.57474209999782,255.52869980000105,255.4936555999957,255.9951374000011,255.4936555999957,255.9951374000011,255.4936555999957,255.9951374000011,255.4936555999957,255.9951374000011,255.4936555999957,255.9951374000011,255.4936555999957,255.9951374000011,255.4936555999957,255.9951374000011,255.4936555999957,255.9951374000011,253.57474209999782,None,255.9951374000011,256.5786107000022,1.9400000000000015,256.5954361999975,None,257.34659719999763,None,,,,,,,[[0.56]],1.8800000000000012,0.6341463414634146,11003,002,2023_Dec_29_1714,MFTM_A_new1021,2021.2.3,60.07322926722751,
,,,,,,,,stim/Instruction_adaptive.png,conditions/adaptive.xlsx,test,-0.6,-0.6,-0.6,0.6,0.6,left,L,,,,,0,1,1,1,0,41,41,23,,,,,,,,,,,,,,,,,,,,,,,,,,,,,,,,,,,,,,,,,,,,257.84800379999797,None,left,1,1.639037399996596,258.34853199999634,260.65219129999605,258.34853199999634,260.1505698999972,258.34853199999634,260.1505698999972,258.34853199999634,260.1505698999972,258.34853199999634,260.1505698999972,258.34853199999634,260.1505698999972,260.1177009999956,260.61801019999984,260.1177009999956,260.61801019999984,260.1177009999956,260.61801019999984,260.1177009999956,260.61801019999984,260.1177009999956,260.61801019999984,260.1177009999956,260.61801019999984,260.1177009999956,260.61801019999984,260.1177009999956,260.61801019999984,258.34853199999634,None,260.61801019999984,261.33862529999897,1.7900000000000014,261.35215679999965,None,262.1038589999953,None,,,,,,,[[0.71]],1.9900000000000013,0.6428571428571429,11003,002,2023_Dec_29_1714,MFTM_A_new1021,2021.2.3,60.07322926722751,
,,,,,,,,stim/Instruction_adaptive.png,conditions/adaptive.xlsx,test,0.6,0.6,0.6,-0.6,-0.6,right,R,,,,,0,1,1,1,0,42,42,84,,,,,,,,,,,,,,,,,,,,,,,,,,,,,,,,,,,,,,,,,,,,262.6050369000004,None,left,0,2.593749300001946,263.1054997999963,265.27653250000003,263.1054997999963,264.7743066999974,263.1054997999963,264.7743066999974,263.1054997999963,264.7743066999974,263.1054997999963,264.7743066999974,263.1054997999963,264.7743066999974,264.757617999996,265.2587979999953,264.757617999996,265.2587979999953,264.757617999996,265.2587979999953,264.757617999996,265.2587979999953,264.757617999996,265.2587979999953,264.757617999996,265.2587979999953,264.757617999996,265.2587979999953,264.757617999996,265.2587979999953,263.1054997999963,None,265.2426923000021,266.0935083000004,1.6600000000000013,266.10927799999627,None,266.8618650999997,None,,,,,,,[[0.84]],1.690000000000001,0.627906976744186,11003,002,2023_Dec_29_1714,MFTM_A_new1021,2021.2.3,60.07322926722751,
,,,,,,,,stim/Instruction_adaptive.png,conditions/adaptive.xlsx,test,0.6,0.6,0.6,-0.6,-0.6,right,R,,,,,0,1,1,1,0,43,43,64,,,,,,,,,,,,,,,,,,,,,,,,,,,,,,,,,,,,,,,,,,,,267.3612512999971,None,right,1,1.4769879000014043,267.86238529999537,270.4156321999981,267.86238529999537,269.9152310999998,267.86238529999537,269.9152310999998,267.86238529999537,269.9152310999998,267.86238529999537,269.9152310999998,267.86238529999537,269.9152310999998,269.8817831999986,270.3837931999951,269.8817831999986,270.3837931999951,269.8817831999986,270.3837931999951,269.8817831999986,270.3837931999951,269.8817831999986,270.3837931999951,269.8817831999986,270.3837931999951,269.8817831999986,270.3837931999951,269.8817831999986,270.3837931999951,267.86238529999537,None,270.3837931999951,270.8504105999964,2.040000000000002,270.8659866999951,None,271.6174930999987,None,,,,,,,[[0.46]],1.8000000000000012,0.6363636363636364,11003,002,2023_Dec_29_1714,MFTM_A_new1021,2021.2.3,60.07322926722751,
,,,,,,,,stim/Instruction_adaptive.png,conditions/adaptive.xlsx,test,0.6,0.6,0.6,-0.6,-0.6,right,R,,,,,0,1,1,1,0,44,44,76,,,,,,,,,,,,,,,,,,,,,,,,,,,,,,,,,,,,,,,,,,,,272.11845999999787,None,right,1,2.279443999999785,272.61977789999946,275.0233171,272.61977789999946,274.5226346999989,272.61977789999946,274.5226346999989,272.61977789999946,274.5226346999989,272.61977789999946,274.5226346999989,272.61977789999946,274.5226346999989,274.4892983999962,274.990086699996,274.4892983999962,274.990086699996,274.4892983999962,274.990086699996,274.4892983999962,274.990086699996,274.4892983999962,274.990086699996,274.4892983999962,274.990086699996,274.4892983999962,274.990086699996,274.4892983999962,274.990086699996,272.61977789999946,None,274.990086699996,275.60891080000147,1.8900000000000015,275.62448140000197,None,276.37532839999767,None,,,,,,,[[0.61]],1.9000000000000012,0.6444444444444445,11003,002,2023_Dec_29_1714,MFTM_A_new1021,2021.2.3,60.07322926722751,
,,,,,,,,stim/Instruction_adaptive.png,conditions/adaptive.xlsx,test,0.6,0.6,0.6,-0.6,-0.6,right,R,,,,,0,1,1,1,0,45,45,80,,,,,,,,,,,,,,,,,,,,,,,,,,,,,,,,,,,,,,,,,,,,276.87591209999664,None,left,0,2.6189369999992778,277.3765138000017,279.6462642999977,277.3765138000017,279.145351799998,277.3765138000017,279.145351799998,277.3765138000017,279.145351799998,277.3765138000017,279.145351799998,277.3765138000017,279.145351799998,279.1121301999956,279.6145424999995,279.1121301999956,279.6145424999995,279.1121301999956,279.6145424999995,279.1121301999956,279.6145424999995,279.1121301999956,279.6145424999995,279.1121301999956,279.6145424999995,279.1121301999956,279.6145424999995,279.1121301999956,279.6145424999995,277.3765138000017,None,279.6145424999995,280.36475919999793,1.7600000000000013,280.3809188000014,None,281.1316843999957,None,,,,,,,[[0.74]],1.630000000000001,0.6304347826086957,11003,002,2023_Dec_29_1714,MFTM_A_new1021,2021.2.3,60.07322926722751,
,,,,,,,,stim/Instruction_adaptive.png,conditions/adaptive.xlsx,test,0.6,0.6,0.6,-0.6,-0.6,right,R,,,,,0,1,1,1,0,46,46,18,,,,,,,,,,,,,,,,,,,,,,,,,,,,,,,,,,,,,,,,,,,,281.633033099999,None,right,1,2.8622058000037214,282.13371509999706,284.7720771999957,282.13371509999706,284.26958490000106,282.13371509999706,284.26958490000106,282.13371509999706,284.26958490000106,282.13371509999706,284.26958490000106,282.13371509999706,284.26958490000106,284.23653829999967,284.73708310000075,284.23653829999967,284.73708310000075,284.23653829999967,284.73708310000075,284.23653829999967,284.73708310000075,284.23653829999967,284.73708310000075,284.23653829999967,284.73708310000075,284.23653829999967,284.73708310000075,284.23653829999967,284.73708310000075,282.13371509999706,None,284.73708310000075,285.1213968000011,2.1300000000000017,285.1370458999954,None,285.8894413999951,None,,,,,,,[[0.37]],1.730000000000001,0.6382978723404256,11003,002,2023_Dec_29_1714,MFTM_A_new1021,2021.2.3,60.07322926722751,
,,,,,,,,stim/Instruction_adaptive.png,conditions/adaptive.xlsx,test,-0.6,-0.6,-0.6,0.6,0.6,left,L,,,,,0,1,1,1,0,47,47,1,,,,,,,,,,,,,,,,,,,,,,,,,,,,,,,,,,,,,,,,,,,,286.3896530999991,None,left,1,1.6975091000058455,286.89026600000216,289.37808609999774,286.89026600000216,288.8765652000002,286.89026600000216,288.8765652000002,286.89026600000216,288.8765652000002,286.89026600000216,288.8765652000002,286.89026600000216,288.8765652000002,288.8596461999987,289.36125750000065,288.8596461999987,289.36125750000065,288.8596461999987,289.36125750000065,288.8596461999987,289.36125750000065,288.8596461999987,289.36125750000065,288.8596461999987,289.36125750000065,288.8596461999987,289.36125750000065,288.8596461999987,289.36125750000065,286.89026600000216,None,289.36125750000065,None,1.9800000000000015,289.8947311000011,None,290.64648640000087,None,,,,,,,[[0.52]],1.8200000000000012,0.6458333333333334,11003,002,2023_Dec_29_1714,MFTM_A_new1021,2021.2.3,60.07322926722751,
,,,,,,,,stim/Instruction_adaptive.png,conditions/adaptive.xlsx,test,0.6,0.6,0.6,-0.6,-0.6,right,R,,,,,0,1,1,1,0,48,48,94,,,,,,,,,,,,,,,,,,,,,,,,,,,,,,,,,,,,,,,,,,,,291.1464674999952,None,left,0,2.3483686999970814,291.6470980000013,294.01814549999835,291.6470980000013,293.5174729999999,291.6470980000013,293.5174729999999,291.6470980000013,293.5174729999999,291.6470980000013,293.5174729999999,291.6470980000013,293.5174729999999,293.48451560000103,293.9842855999959,293.48451560000103,293.9842855999959,293.48451560000103,293.9842855999959,293.48451560000103,293.9842855999959,293.48451560000103,293.9842855999959,293.48451560000103,293.9842855999959,293.48451560000103,293.9842855999959,293.48451560000103,293.9842855999959,291.6470980000013,None,293.9842855999959,294.63524920000054,1.8600000000000014,294.6516616000008,None,295.40381830000115,None,,,,,,,[[0.64]],1.570000000000001,0.6326530612244898,11003,002,2023_Dec_29_1714,MFTM_A_new1021,2021.2.3,60.07322926722751,
,,,,,,,,stim/Instruction_adaptive.png,conditions/adaptive.xlsx,test,0.6,0.6,0.6,-0.6,-0.6,right,R,,,,,0,1,1,1,0,49,49,36,,,,,,,,,,,,,,,,,,,,,,,,,,,,,,,,,,,,,,,,,,,,295.90355439999985,None,right,1,2.103042099995946,296.404586699995,299.12662160000036,296.404586699995,298.6250302999979,296.404586699995,298.6250302999979,296.404586699995,298.6250302999979,296.404586699995,298.6250302999979,296.404586699995,298.6250302999979,298.6086804000006,299.1095886999974,298.6086804000006,299.1095886999974,298.6086804000006,299.1095886999974,298.6086804000006,299.1095886999974,298.6086804000006,299.1095886999974,298.6086804000006,299.1095886999974,298.6086804000006,299.1095886999974,298.6086804000006,299.1095886999974,296.404586699995,None,299.1095886999974,299.39267929999914,2.2200000000000015,299.4087795000014,None,300.1598976999958,None,,,,,,,[[0.28]],1.660000000000001,0.64,11003,002,2023_Dec_29_1714,MFTM_A_new1021,2021.2.3,60.07322926722751,
,,,,,,,,stim/Instruction_adaptive.png,conditions/adaptive.xlsx,test,0.6,0.6,0.6,-0.6,-0.6,right,R,,,,,0,1,1,1,0,50,50,56,,,,,,,,,,,,,,,,,,,,,,,,,,,,,,,,,,,,,,,,,,,,300.6613608999978,None,right,1,2.3540296999999555,301.1614558000001,303.74889399999665,301.1614558000001,303.24810140000045,301.1614558000001,303.24810140000045,301.1614558000001,303.24810140000045,301.1614558000001,303.24810140000045,301.1614558000001,303.24810140000045,303.2318066000007,303.7317314999964,303.2318066000007,303.7317314999964,303.2318066000007,303.7317314999964,303.2318066000007,303.7317314999964,303.2318066000007,303.7317314999964,303.2318066000007,303.7317314999964,303.2318066000007,303.7317314999964,303.2318066000007,303.7317314999964,301.1614558000001,None,303.7317314999964,None,2.080000000000002,304.16606689999753,None,304.91694409999764,None,,,,,,,[[0.42]],1.750000000000001,0.6470588235294118,11003,002,2023_Dec_29_1714,MFTM_A_new1021,2021.2.3,60.07322926722751,
,,,,,,,,stim/Instruction_adaptive.png,conditions/adaptive.xlsx,test,-0.6,-0.6,-0.6,0.6,0.6,left,L,,,,,0,1,1,1,0,51,51,5,,,,,,,,,,,,,,,,,,,,,,,,,,,,,,,,,,,,,,,,,,,,305.4177514999974,None,left,1,2.2609752999997,305.91858469999715,308.3889291000014,305.91858469999715,307.888478199995,305.91858469999715,307.888478199995,305.91858469999715,307.888478199995,305.91858469999715,307.888478199995,305.91858469999715,307.888478199995,307.8553888999959,308.35600980000163,307.8553888999959,308.35600980000163,307.8553888999959,308.35600980000163,307.8553888999959,308.35600980000163,307.8553888999959,308.35600980000163,307.8553888999959,308.35600980000163,307.8553888999959,308.35600980000163,307.8553888999959,308.35600980000163,305.91858469999715,None,308.35600980000163,308.9062772999969,1.9600000000000015,308.92292330000055,None,309.6750122000012,None,,,,,,,[[0.54]],1.8200000000000012,0.6538461538461539,11003,002,2023_Dec_29_1714,MFTM_A_new1021,2021.2.3,60.07322926722751,
,,,,,,,,stim/Instruction_adaptive.png,conditions/adaptive.xlsx,test,-0.6,-0.6,-0.6,0.6,0.6,left,L,,,,,0,1,1,1,0,52,52,45,,,,,,,,,,,,,,,,,,,,,,,,,,,,,,,,,,,,,,,,,,,,310.17588539999997,None,left,1,2.5764618999965023,310.6754198999988,313.04561309999553,310.6754198999988,312.54482409999764,310.6754198999988,312.54482409999764,310.6754198999988,312.54482409999764,310.6754198999988,312.54482409999764,310.6754198999988,312.54482409999764,312.5119274999961,313.01234850000037,312.5119274999961,313.01234850000037,312.5119274999961,313.01234850000037,312.5119274999961,313.01234850000037,312.5119274999961,313.01234850000037,312.5119274999961,313.01234850000037,312.5119274999961,313.01234850000037,312.5119274999961,313.01234850000037,310.6754198999988,None,313.01234850000037,313.66453529999853,1.8600000000000014,313.679927899997,None,314.4311019000015,None,,,,,,,[[0.64]],1.8900000000000012,0.660377358490566,11003,002,2023_Dec_29_1714,MFTM_A_new1021,2021.2.3,60.07322926722751,
,,,,,,,,stim/Instruction_adaptive.png,conditions/adaptive.xlsx,test,-0.6,-0.6,-0.6,0.6,0.6,left,L,,,,,0,1,1,1,0,53,53,3,,,,,,,,,,,,,,,,,,,,,,,,,,,,,,,,,,,,,,,,,,,,314.93330499999865,None,left,1,2.139179600002535,315.4323254999981,317.71931400000176,315.4323254999981,317.218575699997,315.4323254999981,317.218575699997,315.4323254999981,317.218575699997,315.4323254999981,317.218575699997,315.4323254999981,317.218575699997,317.2017832999991,317.7026226999951,317.2017832999991,317.7026226999951,317.2017832999991,317.7026226999951,317.2017832999991,317.7026226999951,317.2017832999991,317.7026226999951,317.2017832999991,317.7026226999951,317.2017832999991,317.7026226999951,317.2017832999991,317.7026226999951,315.4323254999981,None,317.6859211999981,318.403596199998,1.7800000000000014,318.4373564999987,None,319.18871319999744,None,,,,,,,[[0.72]],1.9500000000000013,0.6666666666666666,11003,002,2023_Dec_29_1714,MFTM_A_new1021,2021.2.3,60.07322926722751,
,,,,,,,,stim/Instruction_adaptive.png,conditions/adaptive.xlsx,test,0.6,0.6,0.6,-0.6,-0.6,right,R,,,,,0,1,1,1,0,54,54,4,,,,,,,,,,,,,,,,,,,,,,,,,,,,,,,,,,,,,,,,,,,,319.68998579999607,None,right,1,1.8612794000000576,320.1902962000022,322.39358759999595,320.1902962000022,321.8933762000015,320.1902962000022,321.8933762000015,320.1902962000022,321.8933762000015,320.1902962000022,321.8933762000015,320.1902962000022,321.8933762000015,321.87617509999836,322.3768616000016,321.87617509999836,322.3768616000016,321.87617509999836,322.3768616000016,321.87617509999836,322.3768616000016,321.87617509999836,322.3768616000016,321.87617509999836,322.3768616000016,321.87617509999836,322.3768616000016,321.87617509999836,322.3768616000016,320.1902962000022,None,322.3768616000016,323.1783222000013,1.7000000000000013,323.19468680000136,None,323.9458627999993,None,,,,,,,[[0.8]],2.0100000000000016,0.6727272727272727,11003,002,2023_Dec_29_1714,MFTM_A_new1021,2021.2.3,60.07322926722751,
,,,,,,,,stim/Instruction_adaptive.png,conditions/adaptive.xlsx,test,-0.6,-0.6,-0.6,0.6,0.6,left,L,,,,,0,1,1,1,0,55,55,39,,,,,,,,,,,,,,,,,,,,,,,,,,,,,,,,,,,,,,,,,,,,324.44593399999576,None,None,0,0,324.94667879999906,327.08321330000035,324.94667879999906,326.58346619999793,324.94667879999906,326.58346619999793,324.94667879999906,326.58346619999793,324.94667879999906,326.58346619999793,324.94667879999906,326.58346619999793,326.56667580000067,327.06648989999667,326.56667580000067,327.06648989999667,326.56667580000067,327.06648989999667,326.56667580000067,327.06648989999667,326.56667580000067,327.06648989999667,326.56667580000067,327.06648989999667,326.56667580000067,327.06648989999667,326.56667580000067,327.06648989999667,324.94667879999906,None,327.06648989999667,None,1.6300000000000012,328.4513252999968,None,329.20408179999504,None,,,,,,,[[1.37]],1.8400000000000012,0.6607142857142857,11003,002,2023_Dec_29_1714,MFTM_A_new1021,2021.2.3,60.07322926722751,
,,,,,,,,stim/Instruction_adaptive.png,conditions/adaptive.xlsx,test,0.6,0.6,0.6,-0.6,-0.6,right,R,,,,,0,1,1,1,0,56,56,74,,,,,,,,,,,,,,,,,,,,,,,,,,,,,,,,,,,,,,,,,,,,329.7047583999956,None,right,1,1.99133179999626,330.20438339999964,332.5595442999984,330.20438339999964,332.0578913999998,330.20438339999964,332.0578913999998,330.20438339999964,332.0578913999998,330.20438339999964,332.0578913999998,330.20438339999964,332.0578913999998,332.0237341999964,332.5245941999965,332.0237341999964,332.5245941999965,332.0237341999964,332.5245941999965,332.0237341999964,332.5245941999965,332.0237341999964,332.5245941999965,332.0237341999964,332.5245941999965,332.0237341999964,332.5245941999965,332.0237341999964,332.5245941999965,330.20438339999964,None,332.5245941999965,333.1928914000018,1.8400000000000014,333.2087057999961,None,333.9597939000014,None,,,,,,,[[0.66]],1.9000000000000012,0.6666666666666666,11003,002,2023_Dec_29_1714,MFTM_A_new1021,2021.2.3,60.07322926722751,
,,,,,,,,stim/Instruction_adaptive.png,conditions/adaptive.xlsx,test,-0.6,-0.6,-0.6,0.6,0.6,left,L,,,,,0,1,1,1,0,57,57,61,,,,,,,,,,,,,,,,,,,,,,,,,,,,,,,,,,,,,,,,,,,,334.461470000002,None,None,0,0,334.9614192000008,337.2323541000005,334.9614192000008,336.730647999997,334.9614192000008,336.730647999997,334.9614192000008,336.730647999997,334.9614192000008,336.730647999997,334.9614192000008,336.730647999997,336.6972453999988,337.19876490000024,336.6972453999988,337.19876490000024,336.6972453999988,337.19876490000024,336.6972453999988,337.19876490000024,336.6972453999988,337.19876490000024,336.6972453999988,337.19876490000024,336.6972453999988,337.19876490000024,336.6972453999988,337.19876490000024,334.9614192000008,None,337.19876490000024,338.45060399999784,1.7600000000000013,338.46732350000093,None,339.2184314999977,None,,,,,,,[[1.24]],1.730000000000001,0.6551724137931034,11003,002,2023_Dec_29_1714,MFTM_A_new1021,2021.2.3,60.07322926722751,
,,,,,,,,stim/Instruction_adaptive.png,conditions/adaptive.xlsx,test,-0.6,-0.6,-0.6,0.6,0.6,left,L,,,,,0,1,1,1,0,58,58,43,,,,,,,,,,,,,,,,,,,,,,,,,,,,,,,,,,,,,,,,,,,,339.7190006999954,None,right,0,2.671156099997461,340.2201090000017,342.70707910000056,340.2201090000017,342.2056248000008,340.2201090000017,342.2056248000008,340.2201090000017,342.2056248000008,340.2201090000017,342.2056248000008,340.2201090000017,342.2056248000008,342.18966999999975,342.690316799999,342.18966999999975,342.690316799999,342.18966999999975,342.690316799999,342.18966999999975,342.690316799999,342.18966999999975,342.690316799999,342.18966999999975,342.690316799999,342.18966999999975,342.690316799999,342.18966999999975,342.690316799999,340.2201090000017,None,342.690316799999,None,1.9800000000000015,343.224301299997,None,343.9753822999992,None,,,,,,,[[0.52]],1.540000000000001,0.6440677966101694,11003,002,2023_Dec_29_1714,MFTM_A_new1021,2021.2.3,60.07322926722751,
,,,,,,,,stim/Instruction_adaptive.png,conditions/adaptive.xlsx,test,-0.6,-0.6,-0.6,0.6,0.6,left,L,,,,,0,1,1,1,0,59,59,53,,,,,,,,,,,,,,,,,,,,,,,,,,,,,,,,,,,,,,,,,,,,344.47560240000166,None,right,0,2.13111360000039,344.9763103000005,347.7471261999963,344.9763103000005,347.246255500002,344.9763103000005,347.246255500002,344.9763103000005,347.246255500002,344.9763103000005,347.246255500002,344.9763103000005,347.246255500002,347.2131264999989,347.713634300002,347.2131264999989,347.713634300002,347.2131264999989,347.713634300002,347.2131264999989,347.713634300002,347.2131264999989,347.713634300002,347.2131264999989,347.713634300002,347.2131264999989,347.713634300002,347.2131264999989,347.713634300002,344.9763103000005,None,347.713634300002,347.9646786000012,2.2600000000000016,347.98078030000033,None,348.73192089999793,None,,,,,,,[[0.24]],1.3100000000000007,0.6333333333333333,11003,002,2023_Dec_29_1714,MFTM_A_new1021,2021.2.3,60.07322926722751,
,,,,,,,,stim/Instruction_adaptive.png,conditions/adaptive.xlsx,test,0.6,0.6,0.6,-0.6,-0.6,right,R,,,,,0,1,1,1,0,60,60,28,,,,,,,,,,,,,,,,,,,,,,,,,,,,,,,,,,,,,,,,,,,,349.2335927000022,None,right,1,2.582574100000784,349.7332416999998,None,349.7332416999998,352.38729969999986,349.7332416999998,352.38729969999986,349.7332416999998,352.38729969999986,349.7332416999998,352.38729969999986,349.7332416999998,352.38729969999986,352.37082089999603,352.8713501999955,352.37082089999603,352.8713501999955,352.37082089999603,352.8713501999955,352.37082089999603,352.8713501999955,352.37082089999603,352.8713501999955,352.37082089999603,352.8713501999955,352.37082089999603,352.8713501999955,352.37082089999603,352.8713501999955,349.7332416999998,None,352.8713501999955,352.8713501999955,2.650000000000002,352.88819030000013,None,353.64050919999863,None,,,,,,,0,1.4000000000000008,0.639344262295082,11003,002,2023_Dec_29_1714,MFTM_A_new1021,2021.2.3,60.07322926722751,
,,,,,,,,stim/Instruction_adaptive.png,conditions/adaptive.xlsx,test,0.6,0.6,0.6,-0.6,-0.6,right,R,,,,,0,1,1,1,0,61,61,26,,,,,,,,,,,,,,,,,,,,,,,,,,,,,,,,,,,,,,,,,,,,354.14066119999916,None,right,1,1.6588269000058062,354.6411169999992,None,354.6411169999992,357.1446326000005,354.6411169999992,357.1446326000005,354.6411169999992,357.1446326000005,354.6411169999992,357.1446326000005,354.6411169999992,357.1446326000005,357.1116800999953,357.6118583999996,357.1116800999953,357.6118583999996,357.1116800999953,357.6118583999996,357.1116800999953,357.6118583999996,357.1116800999953,357.6118583999996,357.1116800999953,357.6118583999996,357.1116800999953,357.6118583999996,357.1116800999953,357.6118583999996,354.6411169999992,None,357.6118583999996,357.62901899999997,2.490000000000002,357.6449530999962,None,358.39620479999576,None,,,,,,,[[0.01]],1.4700000000000009,0.6451612903225806,11003,002,2023_Dec_29_1714,MFTM_A_new1021,2021.2.3,60.07322926722751,
,,,,,,,,stim/Instruction_adaptive.png,conditions/adaptive.xlsx,test,0.6,0.6,0.6,-0.6,-0.6,right,R,,,,,0,1,1,1,0,62,62,58,,,,,,,,,,,,,,,,,,,,,,,,,,,,,,,,,,,,,,,,,,,,358.8968451999972,None,right,1,2.2770506000015303,359.39859720000095,362.2697229999976,359.39859720000095,361.76782999999705,359.39859720000095,361.76782999999705,359.39859720000095,361.76782999999705,359.39859720000095,361.76782999999705,359.39859720000095,361.76782999999705,361.75119289999566,362.25185200000124,361.75119289999566,362.25185200000124,361.75119289999566,362.25185200000124,361.75119289999566,362.25185200000124,361.75119289999566,362.25185200000124,361.75119289999566,362.25185200000124,361.75119289999566,362.25185200000124,361.75119289999566,362.25185200000124,359.39859720000095,None,362.25185200000124,362.3855106999981,2.370000000000002,362.4026307999957,None,363.1543745000017,None,,,,,,,[[0.13]],1.540000000000001,0.6507936507936508,11003,002,2023_Dec_29_1714,MFTM_A_new1021,2021.2.3,60.07322926722751,
,,,,,,,,stim/Instruction_adaptive.png,conditions/adaptive.xlsx,test,-0.6,-0.6,-0.6,0.6,0.6,left,L,,,,,0,1,1,1,0,63,63,11,,,,,,,,,,,,,,,,,,,,,,,,,,,,,,,,,,,,,,,,,,,,363.6547367999956,None,left,1,1.168395699998655,364.1554907999962,366.9263779999965,364.1554907999962,366.4246989999956,364.1554907999962,366.4246989999956,364.1554907999962,366.4246989999956,364.1554907999962,366.4246989999956,364.1554907999962,366.4246989999956,366.3914758999963,366.8929349999962,366.3914758999963,366.8929349999962,366.3914758999963,366.8929349999962,366.3914758999963,366.8929349999962,366.3914758999963,366.8929349999962,366.3914758999963,366.8929349999962,366.3914758999963,366.8929349999962,366.3914758999963,366.8929349999962,364.1554907999962,None,366.8929349999962,367.1425507000022,2.2600000000000016,367.1598707000012,None,367.91136359999655,None,,,,,,,[[0.24]],1.600000000000001,0.65625,11003,002,2023_Dec_29_1714,MFTM_A_new1021,2021.2.3,60.07322926722751,
,,,,,,,,stim/Instruction_adaptive.png,conditions/adaptive.xlsx,test,0.6,0.6,0.6,-0.6,-0.6,right,R,,,,,0,1,1,1,0,64,64,96,,,,,,,,,,,,,,,,,,,,,,,,,,,,,,,,,,,,,,,,,,,,368.41114459999517,None,right,1,1.6036755000022822,368.9118849000006,371.5828687999965,368.9118849000006,371.0824539999958,368.9118849000006,371.0824539999958,368.9118849000006,371.0824539999958,368.9118849000006,371.0824539999958,368.9118849000006,371.0824539999958,371.06526949999534,371.56562219999614,371.06526949999534,371.56562219999614,371.06526949999534,371.56562219999614,371.06526949999534,371.56562219999614,371.06526949999534,371.56562219999614,371.06526949999534,371.56562219999614,371.06526949999534,371.56562219999614,371.06526949999534,371.56562219999614,368.9118849000006,None,371.56562219999614,371.89962039999955,2.1700000000000017,371.91625249999925,None,372.66833939999924,None,,,,,,,[[0.33]],1.660000000000001,0.6615384615384615,11003,002,2023_Dec_29_1714,MFTM_A_new1021,2021.2.3,60.07322926722751,
,,,,,,,,stim/Instruction_adaptive.png,conditions/adaptive.xlsx,test,0.6,0.6,0.6,-0.6,-0.6,right,R,,,,,0,1,1,1,0,65,65,40,,,,,,,,,,,,,,,,,,,,,,,,,,,,,,,,,,,,,,,,,,,,373.1689114999972,None,right,1,1.6146766000019852,373.66907360000187,376.25671539999894,373.66907360000187,375.7552662999951,373.66907360000187,375.7552662999951,373.66907360000187,375.7552662999951,373.66907360000187,375.7552662999951,373.66907360000187,375.7552662999951,375.7386654000002,376.2400099000006,375.7386654000002,376.2400099000006,375.7386654000002,376.2400099000006,375.7386654000002,376.2400099000006,375.7386654000002,376.2400099000006,375.7386654000002,376.2400099000006,375.7386654000002,376.2400099000006,375.7386654000002,376.2400099000006,373.66907360000187,None,376.2400099000006,None,2.080000000000002,376.67337899999984,None,377.4241952000011,None,,,,,,,[[0.42]],1.710000000000001,0.6666666666666666,11003,002,2023_Dec_29_1714,MFTM_A_new1021,2021.2.3,60.07322926722751,
,,,,,,,,stim/Instruction_adaptive.png,conditions/adaptive.xlsx,test,-0.6,-0.6,-0.6,0.6,0.6,left,L,,,,,0,1,1,1,0,66,66,35,,,,,,,,,,,,,,,,,,,,,,,,,,,,,,,,,,,,,,,,,,,,377.9260542999982,None,left,1,2.185457800005679,378.42605589999584,380.9472056000013,378.42605589999584,380.4460104999962,378.42605589999584,380.4460104999962,378.42605589999584,380.4460104999962,378.42605589999584,380.4460104999962,378.42605589999584,380.4460104999962,380.4291446999996,380.92980749999697,380.4291446999996,380.92980749999697,380.4291446999996,380.92980749999697,380.4291446999996,380.92980749999697,380.4291446999996,380.92980749999697,380.4291446999996,380.92980749999697,380.4291446999996,380.92980749999697,380.4291446999996,380.92980749999697,378.42605589999584,None,380.92980749999697,None,2.0100000000000016,381.43042640000203,None,382.18148179999844,None,,,,,,,[[0.49]],1.7600000000000011,0.6716417910447762,11003,002,2023_Dec_29_1714,MFTM_A_new1021,2021.2.3,60.07322926722751,
,,,,,,,,stim/Instruction_adaptive.png,conditions/adaptive.xlsx,test,0.6,0.6,0.6,-0.6,-0.6,right,R,,,,,0,1,1,1,0,67,67,20,,,,,,,,,,,,,,,,,,,,,,,,,,,,,,,,,,,,,,,,,,,,382.6822379000005,None,right,1,1.7880551000052947,383.1834407999995,385.63754029999836,383.1834407999995,385.13657019999664,383.1834407999995,385.13657019999664,383.1834407999995,385.13657019999664,383.1834407999995,385.13657019999664,383.1834407999995,385.13657019999664,385.10320549999597,385.60330189999513,385.10320549999597,385.60330189999513,385.10320549999597,385.60330189999513,385.10320549999597,385.60330189999513,385.10320549999597,385.60330189999513,385.10320549999597,385.60330189999513,385.10320549999597,385.60330189999513,385.10320549999597,385.60330189999513,383.1834407999995,None,385.60330189999513,386.1714365000007,1.9400000000000015,386.18772100000206,None,386.9385531000007,None,,,,,,,[[0.56]],1.8100000000000012,0.6764705882352942,11003,002,2023_Dec_29_1714,MFTM_A_new1021,2021.2.3,60.07322926722751,
,,,,,,,,stim/Instruction_adaptive.png,conditions/adaptive.xlsx,test,0.6,0.6,0.6,-0.6,-0.6,right,R,,,,,0,1,1,1,0,68,68,82,,,,,,,,,,,,,,,,,,,,,,,,,,,,,,,,,,,,,,,,,,,,387.43970799999806,None,right,1,2.3903395000015735,387.94110609999916,390.32824170000094,387.94110609999916,389.8261719000002,387.94110609999916,389.8261719000002,387.94110609999916,389.8261719000002,387.94110609999916,389.8261719000002,387.94110609999916,389.8261719000002,389.8094373999993,390.3111149999968,389.8094373999993,390.3111149999968,389.8094373999993,390.3111149999968,389.8094373999993,390.3111149999968,389.8094373999993,390.3111149999968,389.8094373999993,390.3111149999968,389.8094373999993,390.3111149999968,389.8094373999993,390.3111149999968,387.94110609999916,None,390.3111149999968,None,1.8800000000000014,390.9443320999999,None,391.69603300000017,None,,,,,,,[[0.62]],1.8500000000000012,0.6811594202898551,11003,002,2023_Dec_29_1714,MFTM_A_new1021,2021.2.3,60.07322926722751,
,,,,,,,,stim/Instruction_adaptive.png,conditions/adaptive.xlsx,test,-0.6,-0.6,-0.6,0.6,0.6,left,L,,,,,0,1,1,1,0,69,69,57,,,,,,,,,,,,,,,,,,,,,,,,,,,,,,,,,,,,,,,,,,,,392.1963743000015,None,left,1,2.4186794999986887,392.6971168000018,395.01744840000174,392.6971168000018,394.51657479999994,392.6971168000018,394.51657479999994,392.6971168000018,394.51657479999994,392.6971168000018,394.51657479999994,392.6971168000018,394.51657479999994,394.5012268999999,395.00056049999694,394.5012268999999,395.00056049999694,394.5012268999999,395.00056049999694,394.5012268999999,395.00056049999694,394.5012268999999,395.00056049999694,394.5012268999999,395.00056049999694,394.5012268999999,395.00056049999694,394.5012268999999,395.00056049999694,392.6971168000018,None,395.00056049999694,395.6857461999971,1.8200000000000014,395.7014860999989,None,396.45355800000107,None,,,,,,,[[0.68]],1.8900000000000012,0.6857142857142857,11003,002,2023_Dec_29_1714,MFTM_A_new1021,2021.2.3,60.07322926722751,
,,,,,,,,stim/Instruction_adaptive.png,conditions/adaptive.xlsx,test,0.6,0.6,0.6,-0.6,-0.6,right,R,,,,,0,1,1,1,0,70,70,68,,,,,,,,,,,,,,,,,,,,,,,,,,,,,,,,,,,,,,,,,,,,396.95351339999615,None,right,1,2.0614960999955656,397.45397070000035,399.7413383000021,397.45397070000035,399.2408662000016,397.45397070000035,399.2408662000016,397.45397070000035,399.2408662000016,397.45397070000035,399.2408662000016,397.45397070000035,399.2408662000016,399.22389960000146,399.7247688999996,399.22389960000146,399.7247688999996,399.22389960000146,399.7247688999996,399.22389960000146,399.7247688999996,399.22389960000146,399.7247688999996,399.22389960000146,399.7247688999996,399.22389960000146,399.7247688999996,399.22389960000146,399.7247688999996,397.45397070000035,None,399.7247688999996,None,1.7800000000000014,400.4592233000003,None,401.2099268999955,None,,,,,,,[[0.72]],1.9300000000000013,0.6901408450704225,11003,002,2023_Dec_29_1714,MFTM_A_new1021,2021.2.3,60.07322926722751,
,,,,,,,,stim/Instruction_adaptive.png,conditions/adaptive.xlsx,test,0.6,0.6,0.6,-0.6,-0.6,right,R,,,,,0,1,1,1,0,71,71,78,,,,,,,,,,,,,,,,,,,,,,,,,,,,,,,,,,,,,,,,,,,,401.71099429999595,None,left,0,2.4964775999978883,402.211066799995,404.4488461000001,402.211066799995,403.9470172000001,402.211066799995,403.9470172000001,402.211066799995,403.9470172000001,402.211066799995,403.9470172000001,402.211066799995,403.9470172000001,403.9312663000019,404.4310482000001,403.9312663000019,404.4310482000001,403.9312663000019,404.4310482000001,403.9312663000019,404.4310482000001,403.9312663000019,404.4310482000001,403.9312663000019,404.4310482000001,403.9312663000019,404.4310482000001,403.9312663000019,404.4310482000001,402.211066799995,None,404.4310482000001,None,1.7300000000000013,405.2149028999993,None,405.96700289999717,None,,,,,,,[[0.77]],1.8200000000000012,0.6805555555555556,11003,002,2023_Dec_29_1714,MFTM_A_new1021,2021.2.3,60.07322926722751,
,,,,,,,,stim/Instruction_adaptive.png,conditions/adaptive.xlsx,test,0.6,0.6,0.6,-0.6,-0.6,right,R,,,,,0,1,1,1,0,72,72,52,,,,,,,,,,,,,,,,,,,,,,,,,,,,,,,,,,,,,,,,,,,,406.4677026999998,None,right,1,1.2106912000017473,406.9689217999985,409.33923479999794,406.9689217999985,408.83783579999726,406.9689217999985,408.83783579999726,406.9689217999985,408.83783579999726,406.9689217999985,408.83783579999726,406.9689217999985,408.83783579999726,408.80510749999667,409.3057592999976,408.80510749999667,409.3057592999976,408.80510749999667,409.3057592999976,408.80510749999667,409.3057592999976,408.80510749999667,409.3057592999976,408.80510749999667,409.3057592999976,408.80510749999667,409.3057592999976,408.80510749999667,409.3057592999976,406.9689217999985,None,409.3057592999976,409.9562530999974,1.8600000000000014,409.9725707999969,None,410.72441940000135,None,,,,,,,[[0.64]],1.8600000000000012,0.684931506849315,11003,002,2023_Dec_29_1714,MFTM_A_new1021,2021.2.3,60.07322926722751,
,,,,,,,,stim/Instruction_adaptive.png,conditions/adaptive.xlsx,test,-0.6,-0.6,-0.6,0.6,0.6,left,L,,,,,0,1,1,1,0,73,73,13,,,,,,,,,,,,,,,,,,,,,,,,,,,,,,,,,,,,,,,,,,,,411.22544370000105,None,left,1,1.8942494000002625,411.72528030000103,414.04621409999527,411.72528030000103,413.54474330000085,411.72528030000103,413.54474330000085,411.72528030000103,413.54474330000085,411.72528030000103,413.54474330000085,411.72528030000103,413.54474330000085,413.51122349999787,414.01231449999614,413.51122349999787,414.01231449999614,413.51122349999787,414.01231449999614,413.51122349999787,414.01231449999614,413.51122349999787,414.01231449999614,413.51122349999787,414.01231449999614,413.51122349999787,414.01231449999614,413.51122349999787,414.01231449999614,411.72528030000103,None,414.01231449999614,414.7141546999992,1.8100000000000014,414.7296564999997,None,415.4808397000015,None,,,,,,,[[0.69]],1.9000000000000012,0.6891891891891891,11003,002,2023_Dec_29_1714,MFTM_A_new1021,2021.2.3,60.07322926722751,
,,,,,,,,stim/Instruction_adaptive.png,conditions/adaptive.xlsx,test,-0.6,-0.6,-0.6,0.6,0.6,left,L,,,,,0,1,1,1,0,74,74,79,,,,,,,,,,,,,,,,,,,,,,,,,,,,,,,,,,,,,,,,,,,,415.98235099999874,None,left,1,2.2486441000000923,416.482955200001,418.7530498999986,416.482955200001,418.2516153999968,416.482955200001,418.2516153999968,416.482955200001,418.2516153999968,416.482955200001,418.2516153999968,416.482955200001,418.2516153999968,418.2351963999972,418.7355239999961,418.2351963999972,418.7355239999961,418.2351963999972,418.7355239999961,418.2351963999972,418.7355239999961,418.2351963999972,418.7355239999961,418.2351963999972,418.7355239999961,418.2351963999972,418.7355239999961,418.2351963999972,418.7355239999961,416.482955200001,None,418.71886839999934,419.47120780000114,1.7600000000000013,419.48797950000153,None,420.23782239999855,None,,,,,,,[[0.74]],1.9300000000000013,0.6933333333333334,11003,002,2023_Dec_29_1714,MFTM_A_new1021,2021.2.3,60.07322926722751,
,,,,,,,,stim/Instruction_adaptive.png,conditions/adaptive.xlsx,test,0.6,0.6,0.6,-0.6,-0.6,right,R,,,,,0,1,1,1,0,75,75,34,,,,,,,,,,,,,,,,,,,,,,,,,,,,,,,,,,,,,,,,,,,,420.73971589999564,None,right,1,1.7711999000021024,421.2405407999977,423.4766583000019,421.2405407999977,422.9753552999973,421.2405407999977,422.9753552999973,421.2405407999977,422.9753552999973,421.2405407999977,422.9753552999973,421.2405407999977,422.9753552999973,422.9588778999969,423.4593978999983,422.9588778999969,423.4593978999983,422.9588778999969,423.4593978999983,422.9588778999969,423.4593978999983,422.9588778999969,423.4593978999983,422.9588778999969,423.4593978999983,422.9588778999969,423.4593978999983,422.9588778999969,423.4593978999983,421.2405407999977,None,423.4593978999983,None,1.7300000000000013,424.2447510999991,None,424.9955245999954,None,,,,,,,[[0.77]],1.9700000000000013,0.6973684210526315,11003,002,2023_Dec_29_1714,MFTM_A_new1021,2021.2.3,60.07322926722751,
,,,,,,,,stim/Instruction_adaptive.png,conditions/adaptive.xlsx,test,-0.6,-0.6,-0.6,0.6,0.6,left,L,,,,,0,1,1,1,0,76,76,37,,,,,,,,,,,,,,,,,,,,,,,,,,,,,,,,,,,,,,,,,,,,425.49589990000095,None,left,1,1.663039300001401,425.9965144999951,428.1837579999992,425.9965144999951,427.6821775999997,425.9965144999951,427.6821775999997,425.9965144999951,427.6821775999997,425.9965144999951,427.6821775999997,425.9965144999951,427.6821775999997,427.66563389999646,428.16717359999893,427.66563389999646,428.16717359999893,427.66563389999646,428.16717359999893,427.66563389999646,428.16717359999893,427.66563389999646,428.16717359999893,427.66563389999646,428.16717359999893,427.66563389999646,428.16717359999893,427.66563389999646,428.16717359999893,425.9965144999951,None,428.16717359999893,None,1.6800000000000013,429.0006693999967,None,429.7527218999967,None,,,,,,,[[0.82]],2.0000000000000013,0.7012987012987013,11003,002,2023_Dec_29_1714,MFTM_A_new1021,2021.2.3,60.07322926722751,
,,,,,,,,stim/Instruction_adaptive.png,conditions/adaptive.xlsx,test,0.6,0.6,0.6,-0.6,-0.6,right,R,,,,,0,1,1,1,0,77,77,12,,,,,,,,,,,,,,,,,,,,,,,,,,,,,,,,,,,,,,,,,,,,430.2531142000007,None,right,1,1.2024221000028774,430.75372210000205,432.9072266000003,430.75372210000205,432.40582670000003,430.75372210000205,432.40582670000003,430.75372210000205,432.40582670000003,430.75372210000205,432.40582670000003,430.75372210000205,432.40582670000003,432.37271599999804,432.87341059999744,432.37271599999804,432.87341059999744,432.37271599999804,432.87341059999744,432.37271599999804,432.87341059999744,432.37271599999804,432.87341059999744,432.37271599999804,432.87341059999744,432.37271599999804,432.87341059999744,432.37271599999804,432.87341059999744,430.75372210000205,None,432.87341059999744,433.74150139999983,1.6400000000000012,433.75789090000035,None,434.50884059999953,None,,,,,,,[[0.86]],2.030000000000001,0.7051282051282052,11003,002,2023_Dec_29_1714,MFTM_A_new1021,2021.2.3,60.07322926722751,
,,,,,,,,stim/Instruction_adaptive.png,conditions/adaptive.xlsx,test,-0.6,-0.6,-0.6,0.6,0.6,left,L,,,,,0,1,1,1,0,78,78,59,,,,,,,,,,,,,,,,,,,,,,,,,,,,,,,,,,,,,,,,,,,,435.00986269999703,None,right,0,2.997051599995757,435.5109997999971,437.6314810999975,435.5109997999971,437.1296599999987,435.5109997999971,437.1296599999987,435.5109997999971,437.1296599999987,435.5109997999971,437.1296599999987,435.5109997999971,437.1296599999987,437.1130195000005,437.61358250000194,437.1130195000005,437.61358250000194,437.1130195000005,437.61358250000194,437.1130195000005,437.61358250000194,437.1130195000005,437.61358250000194,437.1130195000005,437.61358250000194,437.1130195000005,437.61358250000194,437.1130195000005,437.61358250000194,435.5109997999971,None,437.5968672999952,438.53241400000115,1.6100000000000012,438.5477719999981,None,439.2994647000014,None,,,,,,,[[0.89]],1.9400000000000013,0.6962025316455697,11003,002,2023_Dec_29_1714,MFTM_A_new1021,2021.2.3,60.07322926722751,
,,,,,,,,stim/Instruction_adaptive.png,conditions/adaptive.xlsx,test,0.6,0.6,0.6,-0.6,-0.6,right,R,,,,,0,1,1,1,0,79,79,60,,,,,,,,,,,,,,,,,,,,,,,,,,,,,,,,,,,,,,,,,,,,439.80018969999946,None,left,0,2.7191556000034325,440.3009654999987,442.5216287000003,440.3009654999987,442.02104719999625,440.3009654999987,442.02104719999625,440.3009654999987,442.02104719999625,440.3009654999987,442.02104719999625,440.3009654999987,442.02104719999625,441.9875891999982,442.4880486999973,441.9875891999982,442.4880486999973,441.9875891999982,442.4880486999973,441.9875891999982,442.4880486999973,441.9875891999982,442.4880486999973,441.9875891999982,442.4880486999973,441.9875891999982,442.4880486999973,441.9875891999982,442.4880486999973,440.3009654999987,None,442.4880486999973,443.2901892000009,1.7100000000000013,443.30621039999824,None,444.0590757999962,None,,,,,,,[[0.79]],1.8400000000000012,0.6875,11003,002,2023_Dec_29_1714,MFTM_A_new1021,2021.2.3,60.07322926722751,
,,,,,,,,stim/Instruction_adaptive.png,conditions/adaptive.xlsx,test,0.6,0.6,0.6,-0.6,-0.6,right,R,,,,,0,1,1,1,0,80,80,70,,,,,,,,,,,,,,,,,,,,,,,,,,,,,,,,,,,,,,,,,,,,444.5740050000022,None,right,1,2.3289629999999306,445.0747657999964,447.42825820000144,445.0747657999964,446.9281054000021,445.0747657999964,446.9281054000021,445.0747657999964,446.9281054000021,445.0747657999964,446.9281054000021,445.0747657999964,446.9281054000021,446.89414849999594,447.3952921000018,446.89414849999594,447.3952921000018,446.89414849999594,447.3952921000018,446.89414849999594,447.3952921000018,446.89414849999594,447.3952921000018,446.89414849999594,447.3952921000018,446.89414849999594,447.3952921000018,446.89414849999594,447.3952921000018,445.0747657999964,None,447.3952921000018,448.0624742,1.8400000000000014,448.0790255999964,None,448.8314065000013,None,,,,,,,[[0.66]],1.8700000000000012,0.691358024691358,11003,002,2023_Dec_29_1714,MFTM_A_new1021,2021.2.3,60.07322926722751,
,,,,,,,,stim/Instruction_adaptive.png,conditions/adaptive.xlsx,test,0.6,0.6,0.6,-0.6,-0.6,right,R,,,,,0,1,1,1,0,81,81,50,,,,,,,,,,,,,,,,,,,,,,,,,,,,,,,,,,,,,,,,,,,,449.33138789999794,None,right,1,1.7389422000051127,449.8325407000011,452.1349799000018,449.8325407000011,451.6348294999989,449.8325407000011,451.6348294999989,449.8325407000011,451.6348294999989,449.8325407000011,451.6348294999989,449.8325407000011,451.6348294999989,451.61820839999564,452.1189746999953,451.61820839999564,452.1189746999953,451.61820839999564,452.1189746999953,451.61820839999564,452.1189746999953,451.61820839999564,452.1189746999953,451.61820839999564,452.1189746999953,451.61820839999564,452.1189746999953,451.61820839999564,452.1189746999953,449.8325407000011,None,452.1189746999953,452.8194549999971,1.8000000000000014,452.8360018000021,None,453.5883199000018,None,,,,,,,[[0.7]],1.9100000000000013,0.6951219512195121,11003,002,2023_Dec_29_1714,MFTM_A_new1021,2021.2.3,60.07322926722751,
,,,,,,,,stim/Instruction_adaptive.png,conditions/adaptive.xlsx,test,-0.6,-0.6,-0.6,0.6,0.6,left,L,,,,,0,1,1,1,0,82,82,51,,,,,,,,,,,,,,,,,,,,,,,,,,,,,,,,,,,,,,,,,,,,454.08826959999715,None,left,1,2.1269135999973514,454.5892024999994,456.84291479999956,454.5892024999994,456.3426487999968,454.5892024999994,456.3426487999968,454.5892024999994,456.3426487999968,454.5892024999994,456.3426487999968,454.5892024999994,456.3426487999968,456.32546379999985,456.8253714999955,456.32546379999985,456.8253714999955,456.32546379999985,456.8253714999955,456.32546379999985,456.8253714999955,456.32546379999985,456.8253714999955,456.32546379999985,456.8253714999955,456.32546379999985,456.8253714999955,456.32546379999985,456.8253714999955,454.5892024999994,None,456.8253714999955,457.5770271000001,1.7500000000000013,457.59303809999983,None,458.3451262999952,None,,,,,,,[[0.75]],1.9400000000000013,0.6987951807228916,11003,002,2023_Dec_29_1714,MFTM_A_new1021,2021.2.3,60.07322926722751,
,,,,,,,,stim/Instruction_adaptive.png,conditions/adaptive.xlsx,test,-0.6,-0.6,-0.6,0.6,0.6,left,L,,,,,0,1,1,1,0,83,83,47,,,,,,,,,,,,,,,,,,,,,,,,,,,,,,,,,,,,,,,,,,,,458.8458806999988,None,left,1,1.6332852999985334,459.3464234999992,461.56656959999964,459.3464234999992,461.066007100002,459.3464234999992,461.066007100002,459.3464234999992,461.066007100002,459.3464234999992,461.066007100002,459.3464234999992,461.066007100002,461.03239799999574,461.5331720999966,461.03239799999574,461.5331720999966,461.03239799999574,461.5331720999966,461.03239799999574,461.5331720999966,461.03239799999574,461.5331720999966,461.03239799999574,461.5331720999966,461.03239799999574,461.5331720999966,461.03239799999574,461.5331720999966,459.3464234999992,None,461.5331720999966,462.33445769999526,1.7100000000000013,462.3509301000013,None,463.10233549999975,None,,,,,,,[[0.79]],1.9700000000000013,0.7023809523809523,11003,002,2023_Dec_29_1714,MFTM_A_new1021,2021.2.3,60.07322926722751,
,,,,,,,,stim/Instruction_adaptive.png,conditions/adaptive.xlsx,test,-0.6,-0.6,-0.6,0.6,0.6,left,L,,,,,0,1,1,1,0,84,84,31,,,,,,,,,,,,,,,,,,,,,,,,,,,,,,,,,,,,,,,,,,,,463.60222200000135,None,left,1,1.6850311000016518,464.10321490000206,466.2900940999971,464.10321490000206,465.7887256999966,464.10321490000206,465.7887256999966,464.10321490000206,465.7887256999966,464.10321490000206,465.7887256999966,464.10321490000206,465.7887256999966,465.77201839999907,466.27337599999737,465.77201839999907,466.27337599999737,465.77201839999907,466.27337599999737,465.77201839999907,466.27337599999737,465.77201839999907,466.27337599999737,465.77201839999907,466.27337599999737,465.77201839999907,466.27337599999737,465.77201839999907,466.27337599999737,464.10321490000206,None,466.27337599999737,None,1.6800000000000013,467.107855299997,None,467.8583490000019,None,,,,,,,[[0.82]],2.0000000000000013,0.7058823529411765,11003,002,2023_Dec_29_1714,MFTM_A_new1021,2021.2.3,60.07322926722751,
,,,,,,,,stim/Instruction_adaptive.png,conditions/adaptive.xlsx,test,-0.6,-0.6,-0.6,0.6,0.6,left,L,,,,,0,1,1,1,0,85,85,99,,,,,,,,,,,,,,,,,,,,,,,,,,,,,,,,,,,,,,,,,,,,468.35929219999525,None,right,0,2.5995771999951103,468.85995009999897,471.0131523000018,468.85995009999897,470.512942399997,468.85995009999897,470.512942399997,468.85995009999897,470.512942399997,468.85995009999897,470.512942399997,468.85995009999897,470.512942399997,470.47898500000156,470.98037199999817,470.47898500000156,470.98037199999817,470.47898500000156,470.98037199999817,470.47898500000156,470.98037199999817,470.47898500000156,470.98037199999817,470.47898500000156,470.98037199999817,470.47898500000156,470.98037199999817,470.47898500000156,470.98037199999817,468.85995009999897,None,470.98037199999817,471.8481687999956,1.6400000000000012,471.8641639999987,None,472.6160243999984,None,,,,,,,[[0.86]],1.9100000000000013,0.6976744186046512,11003,002,2023_Dec_29_1714,MFTM_A_new1021,2021.2.3,60.07322926722751,
,,,,,,,,stim/Instruction_adaptive.png,conditions/adaptive.xlsx,test,0.6,0.6,0.6,-0.6,-0.6,right,R,,,,,0,1,1,1,0,86,86,32,,,,,,,,,,,,,,,,,,,,,,,,,,,,,,,,,,,,,,,,,,,,473.1166799999992,None,right,1,2.9552631999977166,473.61705670000083,475.870788799999,473.61705670000083,475.37091820000205,473.61705670000083,475.37091820000205,473.61705670000083,475.37091820000205,473.61705670000083,475.37091820000205,473.61705670000083,475.37091820000205,475.3529348000011,475.8536387999993,475.3529348000011,475.8536387999993,475.3529348000011,475.8536387999993,475.3529348000011,475.8536387999993,475.3529348000011,475.8536387999993,475.3529348000011,475.8536387999993,475.3529348000011,475.8536387999993,475.3529348000011,475.8536387999993,473.61705670000083,None,475.8536387999993,476.60492890000023,1.7500000000000013,476.6214273000005,None,477.37297129999934,None,,,,,,,[[0.75]],1.9400000000000013,0.7011494252873564,11003,002,2023_Dec_29_1714,MFTM_A_new1021,2021.2.3,60.07322926722751,
,,,,,,,,stim/Instruction_adaptive.png,conditions/adaptive.xlsx,test,0.6,0.6,0.6,-0.6,-0.6,right,R,,,,,0,1,1,1,0,87,87,98,,,,,,,,,,,,,,,,,,,,,,,,,,,,,,,,,,,,,,,,,,,,477.8735639000006,None,left,0,2.765608900001098,478.3741336999956,480.59491120000166,478.3741336999956,480.0939221000008,478.3741336999956,480.0939221000008,478.3741336999956,480.0939221000008,478.3741336999956,480.0939221000008,478.3741336999956,480.0939221000008,480.0598534000019,480.5605422000008,480.0598534000019,480.5605422000008,480.0598534000019,480.5605422000008,480.0598534000019,480.5605422000008,480.0598534000019,480.5605422000008,480.0598534000019,480.5605422000008,480.0598534000019,480.5605422000008,480.0598534000019,480.5605422000008,478.3741336999956,None,480.5605422000008,481.3617985999954,1.7100000000000013,481.3784943999999,None,482.1297059999997,None,,,,,,,[[0.79]],1.8500000000000012,0.6931818181818182,11003,002,2023_Dec_29_1714,MFTM_A_new1021,2021.2.3,60.07322926722751,
,,,,,,,,stim/Instruction_adaptive.png,conditions/adaptive.xlsx,test,-0.6,-0.6,-0.6,0.6,0.6,left,L,,,,,0,1,1,1,0,88,88,87,,,,,,,,,,,,,,,,,,,,,,,,,,,,,,,,,,,,,,,,,,,,482.6308127000011,None,left,1,1.7524282000013045,483.1310446999996,485.4517055999968,483.1310446999996,484.9512851999971,483.1310446999996,484.9512851999971,483.1310446999996,484.9512851999971,483.1310446999996,484.9512851999971,483.1310446999996,484.9512851999971,484.9337168999991,485.4345594999977,484.9337168999991,485.4345594999977,484.9337168999991,485.4345594999977,484.9337168999991,485.4345594999977,484.9337168999991,485.4345594999977,484.9337168999991,485.4345594999977,484.9337168999991,485.4345594999977,484.9337168999991,485.4345594999977,483.1310446999996,None,485.4345594999977,486.11891189999733,1.8200000000000014,486.1359569999986,None,486.8867281999992,None,,,,,,,[[0.68]],1.8900000000000012,0.6966292134831461,11003,002,2023_Dec_29_1714,MFTM_A_new1021,2021.2.3,60.07322926722751,
,,,,,,,,stim/Instruction_adaptive.png,conditions/adaptive.xlsx,test,-0.6,-0.6,-0.6,0.6,0.6,left,L,,,,,0,1,1,1,0,89,89,71,,,,,,,,,,,,,,,,,,,,,,,,,,,,,,,,,,,,,,,,,,,,487.38798490000045,None,left,1,2.4751284000012674,487.88903420000133,490.1754695999989,487.88903420000133,489.67503909999505,487.88903420000133,489.67503909999505,487.88903420000133,489.67503909999505,487.88903420000133,489.67503909999505,487.88903420000133,489.67503909999505,489.65747009999905,490.1581761999987,489.65747009999905,490.1581761999987,489.65747009999905,490.1581761999987,489.65747009999905,490.1581761999987,489.65747009999905,490.1581761999987,489.65747009999905,490.1581761999987,489.65747009999905,490.1581761999987,489.65747009999905,490.1581761999987,487.88903420000133,None,490.1581761999987,490.8758878000008,1.7800000000000014,490.89293370000087,None,491.64437370000087,None,,,,,,,[[0.72]],1.9100000000000013,0.7,11003,002,2023_Dec_29_1714,MFTM_A_new1021,2021.2.3,60.07322926722751,
,,,,,,,,stim/Instruction_adaptive.png,conditions/adaptive.xlsx,test,0.6,0.6,0.6,-0.6,-0.6,right,R,,,,,0,1,1,1,0,90,90,22,,,,,,,,,,,,,,,,,,,,,,,,,,,,,,,,,,,,,,,,,,,,492.14489879999746,None,right,1,1.9024347000013222,492.64608459999727,494.89999420000095,492.64608459999727,494.3983799999987,492.64608459999727,494.3983799999987,492.64608459999727,494.3983799999987,492.64608459999727,494.3983799999987,492.64608459999727,494.3983799999987,494.3813200000004,494.88261839999905,494.3813200000004,494.88261839999905,494.3813200000004,494.88261839999905,494.3813200000004,494.88261839999905,494.3813200000004,494.88261839999905,494.3813200000004,494.88261839999905,494.3813200000004,494.88261839999905,494.3813200000004,494.88261839999905,492.64608459999727,None,494.88261839999905,495.6335730999999,1.7500000000000013,495.6496666999956,None,496.40076899999985,None,,,,,,,[[0.75]],1.9400000000000013,0.7032967032967034,11003,002,2023_Dec_29_1714,MFTM_A_new1021,2021.2.3,60.07322926722751,
,,,,,,,,stim/Instruction_adaptive.png,conditions/adaptive.xlsx,test,0.6,0.6,0.6,-0.6,-0.6,right,R,,,,,0,1,1,1,0,91,91,92,,,,,,,,,,,,,,,,,,,,,,,,,,,,,,,,,,,,,,,,,,,,496.9013408999963,None,right,1,1.577538599995023,497.4021771999978,499.62328349999734,497.4021771999978,499.1220711999995,497.4021771999978,499.1220711999995,497.4021771999978,499.1220711999995,497.4021771999978,499.1220711999995,497.4021771999978,499.1220711999995,499.08802509999805,499.58938150000176,499.08802509999805,499.58938150000176,499.08802509999805,499.58938150000176,499.08802509999805,499.58938150000176,499.08802509999805,499.58938150000176,499.08802509999805,499.58938150000176,499.08802509999805,499.58938150000176,499.08802509999805,499.58938150000176,497.4021771999978,None,499.58938150000176,500.3899520999985,1.7100000000000013,500.4069154999961,None,501.1584877999994,None,,,,,,,[[0.79]],1.9700000000000013,0.7065217391304348,11003,002,2023_Dec_29_1714,MFTM_A_new1021,2021.2.3,60.07322926722751,
,,,,,,,,stim/Instruction_adaptive.png,conditions/adaptive.xlsx,test,-0.6,-0.6,-0.6,0.6,0.6,left,L,,,,,0,1,1,1,0,92,92,73,,,,,,,,,,,,,,,,,,,,,,,,,,,,,,,,,,,,,,,,,,,,501.6598320999983,None,left,1,1.4358778000023449,502.1596434999956,504.34592249999696,502.1596434999956,503.8456642000019,502.1596434999956,503.8456642000019,502.1596434999956,503.8456642000019,502.1596434999956,503.8456642000019,502.1596434999956,503.8456642000019,503.8283142,504.3302674000006,503.8283142,504.3302674000006,503.8283142,504.3302674000006,503.8283142,504.3302674000006,503.8283142,504.3302674000006,503.8283142,504.3302674000006,503.8283142,504.3302674000006,503.8283142,504.3302674000006,502.1596434999956,None,504.3302674000006,None,1.6800000000000013,505.16368189999775,None,505.9148114999989,None,,,,,,,[[0.82]],2.0000000000000013,0.7096774193548387,11003,002,2023_Dec_29_1714,MFTM_A_new1021,2021.2.3,60.07322926722751,
,,,,,,,,stim/Instruction_adaptive.png,conditions/adaptive.xlsx,test,0.6,0.6,0.6,-0.6,-0.6,right,R,,,,,0,1,1,1,0,93,93,8,,,,,,,,,,,,,,,,,,,,,,,,,,,,,,,,,,,,,,,,,,,,506.4167914999998,None,right,1,2.7349092999938875,506.9169669999974,509.070034999997,506.9169669999974,508.5689198999971,506.9169669999974,508.5689198999971,506.9169669999974,508.5689198999971,506.9169669999974,508.5689198999971,506.9169669999974,508.5689198999971,508.5355714999969,509.03659009999683,508.5355714999969,509.03659009999683,508.5355714999969,509.03659009999683,508.5355714999969,509.03659009999683,508.5355714999969,509.03659009999683,508.5355714999969,509.03659009999683,508.5355714999969,509.03659009999683,508.5355714999969,509.03659009999683,506.9169669999974,None,509.03659009999683,509.9047752999977,1.6400000000000012,509.9220378999962,None,510.67249959999754,None,,,,,,,[[0.86]],2.0200000000000014,0.7127659574468085,11003,002,2023_Dec_29_1714,MFTM_A_new1021,2021.2.3,60.07322926722751,
