arrwidth1,arrwidth2,arrwidth3,arrwidth4,arrwidth5,keyb,type,orientation,instruction_image,block_filename,block_type,arrow11,arrow22,arrow33,arrow44,arrow55,keyb_3,orientation3,trials.thisRepN,trials.thisTrialN,trials.thisN,trials.thisIndex,trials_3.thisRepN,trials_3.thisTrialN,trials_3.thisN,trials_3.thisIndex,trials_2.thisRepN,trials_2.thisTrialN,trials_2.thisN,trials_2.thisIndex,welcome.started,welcome.stopped,key_resp.keys,key_resp.rt,key_resp.started,key_resp.stopped,instruction_example.started,instruction_example.stopped,key_resp_3.keys,key_resp_3.rt,key_resp_3.started,key_resp_3.stopped,instruction_task.started,instruction_task.stopped,key_resp_2.keys,key_resp_2.rt,key_resp_2.started,key_resp_2.stopped,text_2.started,text_2.stopped,A1.started,A1.stopped,A2.started,A2.stopped,A3.started,A3.stopped,A4.started,A4.stopped,A5.started,A5.stopped,key_resp_4.keys,key_resp_4.corr,key_resp_4.rt,key_resp_4.started,key_resp_4.stopped,fb.started,fb.stopped,instruction_block.started,instruction_block.stopped,key_resp_8.keys,key_resp_8.rt,key_resp_8.started,key_resp_8.stopped,text_8.started,text_8.stopped,key_resp_9.keys,key_resp_9.corr,key_resp_9.rt,text_5.started,text_5.stopped,A11_3.started,A11_3.stopped,A22_2.started,A22_2.stopped,A33_2.started,A33_2.stopped,A44_2.started,A44_2.stopped,A55_2.started,A55_2.stopped,M1_3.started,M1_3.stopped,M2_2.started,M2_2.stopped,M3_2.started,M3_2.stopped,M4_2.started,M4_2.stopped,M5_2.started,M5_2.stopped,M6_2.started,M6_2.stopped,M7_2.started,M7_2.stopped,M8_2.started,M8_2.stopped,key_resp_9.started,key_resp_9.stopped,fixation.started,fixation.stopped,ET,fb_3.started,fb_3.stopped,text_9.started,text_9.stopped,fb_4.started,fb_4.stopped,text_7.started,text_7.stopped,endtext.started,endtext.stopped,fixation_ITI,CCC,Acc,participant,session,date,expName,psychopyVersion,frameRate,
,,,,,,,,,,,,,,,,,,,,,,,,,,,,,,16.39338189997943,None,space,7.801371600013226,16.39338189997943,None,,,,,,,,,,,,,,,,,,,,,,,,,,,,,,,,,,,,,,,,,,,,,,,,,,,,,,,,,,,,,,,,,,,,,,,,,,,,,,,,,,,,,,,,,11005,002,2024_Jan_01_1902,MFTM_A_new1021,2021.2.3,59.97900734119663,
,,,,,,,,,,,,,,,,,,,,,,,,,,,,,,,,,,,,24.222255099972244,None,space,0.9255586000508629,24.222255099972244,None,,,,,,,,,,,,,,,,,,,,,,,,,,,,,,,,,,,,,,,,,,,,,,,,,,,,,,,,,,,,,,,,,,,,,,,,,,,,,,,,,,,11005,002,2024_Jan_01_1902,MFTM_A_new1021,2021.2.3,59.97900734119663,
,,,,,,,,,,,,,,,,,,,,,,,,,,,,,,,,,,,,,,,,,,25.1732288999483,None,space,2.925852800020948,25.1732288999483,None,,,,,,,,,,,,,,,,,,,,,,,,,,,,,,,,,,,,,,,,,,,,,,,,,,,,,,,,,,,,,,,,,,,,,,,,,,,,,11005,002,2024_Jan_01_1902,MFTM_A_new1021,2021.2.3,59.97900734119663,
-0.6,-0.6,-0.6,0.6,0.6,left,3:2,L,,,,,,,,,,,0,0,0,1,,,,,,,,,,,,,,,,,,,,,,,,,,,28.14522249996662,None,28.14522249996662,None,28.14522249996662,None,28.14522249996662,None,28.14522249996662,None,28.14522249996662,None,left,1,1.8097181000048295,28.14522249996662,None,29.99707339995075,None,,,,,,,,,,,,,,,,,,,,,,,,,,,,,,,,,,,,,,,,,,,,,,,,,,,,,,,,,,11005,002,2024_Jan_01_1902,MFTM_A_new1021,2021.2.3,59.97900734119663,
0.6,0.6,0.6,-0.6,-0.6,right,3:2,R,,,,,,,,,,,0,1,1,0,,,,,,,,,,,,,,,,,,,,,,,,,,,30.74864730000263,None,30.74864730000263,None,30.74864730000263,None,30.74864730000263,None,30.74864730000263,None,30.74864730000263,None,right,1,1.4062866999884136,30.74864730000263,None,32.18361239996739,None,,,,,,,,,,,,,,,,,,,,,,,,,,,,,,,,,,,,,,,,,,,,,,,,,,,,,,,,,,11005,002,2024_Jan_01_1902,MFTM_A_new1021,2021.2.3,59.97900734119663,
0.6,0.6,0.6,-0.6,-0.6,right,3:2,R,,,,,,,,,,,1,0,2,0,,,,,,,,,,,,,,,,,,,,,,,,,,,32.93466400000034,None,32.93466400000034,None,32.93466400000034,None,32.93466400000034,None,32.93466400000034,None,32.93466400000034,None,right,1,1.3643198999925517,32.93466400000034,None,34.320295199984685,None,,,,,,,,,,,,,,,,,,,,,,,,,,,,,,,,,,,,,,,,,,,,,,,,,,,,,,,,,,11005,002,2024_Jan_01_1902,MFTM_A_new1021,2021.2.3,59.97900734119663,
-0.6,-0.6,-0.6,0.6,0.6,left,3:2,L,,,,,,,,,,,1,1,3,1,,,,,,,,,,,,,,,,,,,,,,,,,,,35.07228119997308,None,35.07228119997308,None,35.07228119997308,None,35.07228119997308,None,35.07228119997308,None,35.07228119997308,None,left,1,1.1387283999938518,35.07228119997308,None,36.23965959995985,None,,,,,,,,,,,,,,,,,,,,,,,,,,,,,,,,,,,,,,,,,,,,,,,,,,,,,,,,,,11005,002,2024_Jan_01_1902,MFTM_A_new1021,2021.2.3,59.97900734119663,
,,,,,,,,stim/Instruction_mask.png,conditions/adaptive.xlsx,practice,0.6,0.6,0.6,-0.6,-0.6,right,R,,,,,0,0,0,0,0,0,0,78,,,,,,,,,,,,,,,,,,,,,,,,,,,,,,,,,,,,,,37.307744099991396,None,space,4.423580900009256,37.307744099991396,None,41.86513479996938,None,left,0,1.5700281000463292,42.265519199951086,None,42.265519199951086,45.27020669996273,42.265519199951086,45.27020669996273,42.265519199951086,45.27020669996273,42.265519199951086,45.27020669996273,42.265519199951086,45.27020669996273,45.25372659997083,45.75469649996376,45.25372659997083,45.75469649996376,45.25372659997083,45.75469649996376,45.25372659997083,45.75469649996376,45.25372659997083,45.75469649996376,45.25372659997083,45.75469649996376,45.25372659997083,45.75469649996376,45.25372659997083,45.75469649996376,42.265519199951086,None,45.75469649996376,45.75469649996376,3,45.770234399999026,None,46.52159939997364,None,,,,,,,,,,11005,002,2024_Jan_01_1902,MFTM_A_new1021,2021.2.3,59.97900734119663,
,,,,,,,,stim/Instruction_mask.png,conditions/adaptive.xlsx,practice,0.6,0.6,0.6,-0.6,-0.6,right,R,,,,,0,0,0,0,0,1,1,22,,,,,,,,,,,,,,,,,,,,,,,,,,,,,,,,,,,,,,,,,,,,47.023227699974086,None,right,1,1.3434584999922663,47.523375699995086,49.52660089998972,47.523375699995086,49.0252314999816,47.523375699995086,49.0252314999816,47.523375699995086,49.0252314999816,47.523375699995086,49.0252314999816,47.523375699995086,49.0252314999816,49.00959649996366,49.50987700000405,49.00959649996366,49.50987700000405,49.00959649996366,49.50987700000405,49.00959649996366,49.50987700000405,49.00959649996366,49.50987700000405,49.00959649996366,49.50987700000405,49.00959649996366,49.50987700000405,49.00959649996366,49.50987700000405,47.523375699995086,None,49.50987700000405,51.01333149999846,1.5,51.02883499994641,None,51.78083770000376,None,,,,,,,,,,11005,002,2024_Jan_01_1902,MFTM_A_new1021,2021.2.3,59.97900734119663,
,,,,,,,,stim/Instruction_mask.png,conditions/adaptive.xlsx,practice,0.6,0.6,0.6,-0.6,-0.6,right,R,,,,,0,0,0,0,0,2,2,20,,,,,,,,,,,,,,,,,,,,,,,,,,,,,,,,,,,,,,,,,,,,52.28015999996569,None,right,1,1.2856761000002734,52.78142089996254,54.083228899980895,52.78142089996254,53.58284399996046,52.78142089996254,53.58284399996046,52.78142089996254,53.58284399996046,52.78142089996254,53.58284399996046,52.78142089996254,53.58284399996046,53.565764700004365,54.06747909996193,53.565764700004365,54.06747909996193,53.565764700004365,54.06747909996193,53.565764700004365,54.06747909996193,53.565764700004365,54.06747909996193,53.565764700004365,54.06747909996193,53.565764700004365,54.06747909996193,53.565764700004365,54.06747909996193,52.78142089996254,None,54.06747909996193,56.26994899997953,0.8,56.286445799982175,None,57.03729559999192,None,,,,,,,,,,11005,002,2024_Jan_01_1902,MFTM_A_new1021,2021.2.3,59.97900734119663,
,,,,,,,,stim/Instruction_mask.png,conditions/adaptive.xlsx,practice,-0.6,-0.6,-0.6,0.6,0.6,left,L,,,,,0,0,0,0,0,3,3,51,,,,,,,,,,,,,,,,,,,,,,,,,,,,,,,,,,,,,,,,,,,,57.538361299957614,None,left,1,0.6765275000361726,58.038647199980915,58.78981739998562,58.038647199980915,58.28906489996007,58.038647199980915,58.28906489996007,58.038647199980915,58.28906489996007,58.038647199980915,58.28906489996007,58.038647199980915,58.28906489996007,58.273009500000626,58.773699999961536,58.273009500000626,58.773699999961536,58.273009500000626,58.773699999961536,58.273009500000626,58.773699999961536,58.273009500000626,58.773699999961536,58.273009500000626,58.773699999961536,58.273009500000626,58.773699999961536,58.273009500000626,58.773699999961536,58.038647199980915,None,58.773699999961536,61.52789009996923,3,61.54442469996866,None,62.29497210000409,None,,,,,,,,,,11005,002,2024_Jan_01_1902,MFTM_A_new1021,2021.2.3,59.97900734119663,
,,,,,,,,stim/Instruction_mask.png,conditions/adaptive.xlsx,practice,,,,,,,,,,,,0,0,0,0,,,,,,,,,,,,,,,,,,,,,,,,,,,,,,,,,,,,,,,,,,,,,,,,,,,,,,,,,,,,,,,,,,,,,,,,,,,,,,,,,,,,,,,,,,62.81245819997275,63.81446679995861,63.79785049997736,63.79785049997736,63.79785049997736,None,,,,11005,002,2024_Jan_01_1902,MFTM_A_new1021,2021.2.3,59.97900734119663,
,,,,,,,,stim/Instruction_adaptive.png,conditions/adaptive.xlsx,test,-0.6,-0.6,-0.6,0.6,0.6,left,L,,,,,0,1,1,1,0,0,0,67,,,,,,,,,,,,,,,,,,,,,,,,,,,,,,,,,,,,,,67.01849569997285,None,space,1.1362686999491416,67.01849569997285,None,68.20409459999064,None,left,1,2.1392459999769926,68.68772369995713,None,68.68772369995713,71.6927396999672,68.68772369995713,71.6927396999672,68.68772369995713,71.6927396999672,68.68772369995713,71.6927396999672,68.68772369995713,71.6927396999672,71.67626459995518,72.17691899999045,71.67626459995518,72.17691899999045,71.67626459995518,72.17691899999045,71.67626459995518,72.17691899999045,71.67626459995518,72.17691899999045,71.67626459995518,72.17691899999045,71.67626459995518,72.17691899999045,71.67626459995518,72.17691899999045,68.68772369995713,None,72.16035809996538,72.16035809996538,3,72.19297859998187,None,72.94421409995994,None,,,,,,,0,6.000000000000005,1.0,11005,002,2024_Jan_01_1902,MFTM_A_new1021,2021.2.3,59.97900734119663,
,,,,,,,,stim/Instruction_adaptive.png,conditions/adaptive.xlsx,test,-0.6,-0.6,-0.6,0.6,0.6,left,L,,,,,0,1,1,1,0,1,1,93,,,,,,,,,,,,,,,,,,,,,,,,,,,,,,,,,,,,,,,,,,,,73.444820899982,None,right,0,1.0977418000111356,73.94539519998943,74.697432499961,73.94539519998943,74.19586419995176,73.94539519998943,74.19586419995176,73.94539519998943,74.19586419995176,73.94539519998943,74.19586419995176,73.94539519998943,74.19586419995176,74.17958949995227,74.67985309998039,74.17958949995227,74.67985309998039,74.17958949995227,74.67985309998039,74.17958949995227,74.67985309998039,74.17958949995227,74.67985309998039,74.17958949995227,74.67985309998039,74.17958949995227,74.67985309998039,74.17958949995227,74.67985309998039,73.94539519998943,None,74.67985309998039,75.56469509995077,0.25,75.5810982999974,None,76.33235069998773,None,,,,,,,[0.875],2.570000000000002,0.5,11005,002,2024_Jan_01_1902,MFTM_A_new1021,2021.2.3,59.97900734119663,
,,,,,,,,stim/Instruction_adaptive.png,conditions/adaptive.xlsx,test,0.6,0.6,0.6,-0.6,-0.6,right,R,,,,,0,1,1,1,0,2,2,96,,,,,,,,,,,,,,,,,,,,,,,,,,,,,,,,,,,,,,,,,,,,76.83327629999258,None,right,1,1.1648903000168502,77.33441419998417,78.95292179996613,77.33441419998417,78.45226519997232,77.33441419998417,78.45226519997232,77.33441419998417,78.45226519997232,77.33441419998417,78.45226519997232,77.33441419998417,78.45226519997232,78.43623189994833,78.93630020000273,78.43623189994833,78.93630020000273,78.43623189994833,78.93630020000273,78.43623189994833,78.93630020000273,78.43623189994833,78.93630020000273,78.43623189994833,78.93630020000273,78.43623189994833,78.93630020000273,78.43623189994833,78.93630020000273,77.33441419998417,None,78.91953909996664,79.9713105999981,1.1100000000000008,80.0042298999615,None,80.75582789996406,None,,,,,,,[1.04666667],3.3800000000000026,0.6666666666666666,11005,002,2024_Jan_01_1902,MFTM_A_new1021,2021.2.3,59.97900734119663,
,,,,,,,,stim/Instruction_adaptive.png,conditions/adaptive.xlsx,test,-0.6,-0.6,-0.6,0.6,0.6,left,L,,,,,0,1,1,1,0,3,3,39,,,,,,,,,,,,,,,,,,,,,,,,,,,,,,,,,,,,,,,,,,,,81.25699999998324,None,left,1,0.9983649000059813,81.75712759996532,82.8922132999869,81.75712759996532,82.3913074999582,81.75712759996532,82.3913074999582,81.75712759996532,82.3913074999582,81.75712759996532,82.3913074999582,81.75712759996532,82.3913074999582,82.37544669996714,82.87610169994878,82.37544669996714,82.87610169994878,82.37544669996714,82.87610169994878,82.37544669996714,82.87610169994878,82.37544669996714,82.87610169994878,82.37544669996714,82.87610169994878,82.37544669996714,82.87610169994878,82.37544669996714,82.87610169994878,81.75712759996532,None,82.87610169994878,None,0.6300000000000003,84.14400589995785,None,84.8956623999984,None,,,,,,,[1.2525],3.940000000000003,0.75,11005,002,2024_Jan_01_1902,MFTM_A_new1021,2021.2.3,59.97900734119663,
,,,,,,,,stim/Instruction_adaptive.png,conditions/adaptive.xlsx,test,-0.6,-0.6,-0.6,0.6,0.6,left,L,,,,,0,1,1,1,0,4,4,65,,,,,,,,,,,,,,,,,,,,,,,,,,,,,,,,,,,,,,,,,,,,85.39638689998537,None,right,0,0.8822549000033177,85.89708789996803,86.8313044999959,85.89708789996803,86.33104079996701,85.89708789996803,86.33104079996701,85.89708789996803,86.33104079996701,85.89708789996803,86.33104079996701,85.89708789996803,86.33104079996701,86.31426879996434,86.81502689997433,86.31426879996434,86.81502689997433,86.31426879996434,86.81502689997433,86.31426879996434,86.81502689997433,86.31426879996434,86.81502689997433,86.31426879996434,86.81502689997433,86.31426879996434,86.81502689997433,86.31426879996434,86.81502689997433,85.89708789996803,None,86.81502689997433,88.2341177999624,0.43000000000000016,88.26780679996591,None,89.01808739994885,None,,,,,,,[1.416],2.960000000000002,0.6,11005,002,2024_Jan_01_1902,MFTM_A_new1021,2021.2.3,59.97900734119663,
,,,,,,,,stim/Instruction_adaptive.png,conditions/adaptive.xlsx,test,-0.6,-0.6,-0.6,0.6,0.6,left,L,,,,,0,1,1,1,0,5,5,71,,,,,,,,,,,,,,,,,,,,,,,,,,,,,,,,,,,,,,,,,,,,89.51949789997889,None,left,1,1.0077077000169083,90.01940529997228,91.37168459995883,90.01940529997228,90.87095119996229,90.01940529997228,90.87095119996229,90.01940529997228,90.87095119996229,90.01940529997228,90.87095119996229,90.01940529997228,90.87095119996229,90.85393299994757,91.35461319994647,90.85393299994757,91.35461319994647,90.85393299994757,91.35461319994647,90.85393299994757,91.35461319994647,90.85393299994757,91.35461319994647,90.85393299994757,91.35461319994647,90.85393299994757,91.35461319994647,90.85393299994757,91.35461319994647,90.01940529997228,None,91.35461319994647,None,0.8500000000000005,92.82357509998837,None,93.57456639996963,None,,,,,,,[1.455],3.3600000000000025,0.6666666666666666,11005,002,2024_Jan_01_1902,MFTM_A_new1021,2021.2.3,59.97900734119663,
,,,,,,,,stim/Instruction_adaptive.png,conditions/adaptive.xlsx,test,-0.6,-0.6,-0.6,0.6,0.6,left,L,,,,,0,1,1,1,0,6,6,87,,,,,,,,,,,,,,,,,,,,,,,,,,,,,,,,,,,,,,,,,,,,94.07550109998556,None,right,0,1.1140210999874398,94.59346239996376,95.74461999995401,94.59346239996376,95.24441379995551,94.59346239996376,95.24441379995551,94.59346239996376,95.24441379995551,94.59346239996376,95.24441379995551,94.59346239996376,95.24441379995551,95.21115749998717,95.71175049996236,95.21115749998717,95.71175049996236,95.21115749998717,95.71175049996236,95.21115749998717,95.71175049996236,95.21115749998717,95.71175049996236,95.21115749998717,95.71175049996236,95.21115749998717,95.71175049996236,95.21115749998717,95.71175049996236,94.59346239996376,None,95.71175049996236,97.23051079997094,0.6400000000000003,97.2466657999903,None,97.99872039997717,None,,,,,,,[1.51285714],2.540000000000002,0.5714285714285714,11005,002,2024_Jan_01_1902,MFTM_A_new1021,2021.2.3,59.97900734119663,
,,,,,,,,stim/Instruction_adaptive.png,conditions/adaptive.xlsx,test,0.6,0.6,0.6,-0.6,-0.6,right,R,,,,,0,1,1,1,0,7,7,54,,,,,,,,,,,,,,,,,,,,,,,,,,,,,,,,,,,,,,,,,,,,98.49942759994883,None,right,1,1.8841341999941505,98.99941469996702,100.63513660000172,98.99941469996702,100.1344310999848,98.99941469996702,100.1344310999848,98.99941469996702,100.1344310999848,98.99941469996702,100.1344310999848,98.99941469996702,100.1344310999848,100.11769809998805,100.61854589998256,100.11769809998805,100.61854589998256,100.11769809998805,100.61854589998256,100.11769809998805,100.61854589998256,100.11769809998805,100.61854589998256,100.11769809998805,100.61854589998256,100.11769809998805,100.61854589998256,100.11769809998805,100.61854589998256,98.99941469996702,None,100.61854589998256,101.9872007999802,1.1300000000000008,102.00368029996753,None,102.7549770999467,None,,,,,,,[[1.37]],2.880000000000002,0.625,11005,002,2024_Jan_01_1902,MFTM_A_new1021,2021.2.3,59.97900734119663,
,,,,,,,,stim/Instruction_adaptive.png,conditions/adaptive.xlsx,test,-0.6,-0.6,-0.6,0.6,0.6,left,L,,,,,0,1,1,1,0,8,8,91,,,,,,,,,,,,,,,,,,,,,,,,,,,,,,,,,,,,,,,,,,,,103.25614169996697,None,left,1,1.1025587999611162,103.75640969997039,105.15837369998917,103.75640969997039,104.65840279997792,103.75640969997039,104.65840279997792,103.75640969997039,104.65840279997792,103.75640969997039,104.65840279997792,103.75640969997039,104.65840279997792,104.62435149995144,105.12521079997532,104.62435149995144,105.12521079997532,104.62435149995144,105.12521079997532,104.62435149995144,105.12521079997532,104.62435149995144,105.12521079997532,104.62435149995144,105.12521079997532,104.62435149995144,105.12521079997532,104.62435149995144,105.12521079997532,103.75640969997039,None,105.12521079997532,106.64443179999944,0.8900000000000006,106.66141609998886,None,107.41216659999918,None,,,,,,,[1.50777778],3.1400000000000023,0.6666666666666666,11005,002,2024_Jan_01_1902,MFTM_A_new1021,2021.2.3,59.97900734119663,
,,,,,,,,stim/Instruction_adaptive.png,conditions/adaptive.xlsx,test,-0.6,-0.6,-0.6,0.6,0.6,left,L,,,,,0,1,1,1,0,9,9,53,,,,,,,,,,,,,,,,,,,,,,,,,,,,,,,,,,,,,,,,,,,,107.91323439998087,None,left,1,1.5657343000057153,108.41341069998452,109.66523749998305,108.41341069998452,109.16452749999007,108.41341069998452,109.16452749999007,108.41341069998452,109.16452749999007,108.41341069998452,109.16452749999007,108.41341069998452,109.16452749999007,109.14779979997547,109.64892489998601,109.14779979997547,109.64892489998601,109.14779979997547,109.64892489998601,109.14779979997547,109.64892489998601,109.14779979997547,109.64892489998601,109.14779979997547,109.64892489998601,109.14779979997547,109.64892489998601,109.14779979997547,109.64892489998601,108.41341069998452,None,109.64892489998601,111.18402749998495,0.7500000000000004,111.20068089995766,None,111.95290539995767,None,,,,,,,[1.532],3.3400000000000025,0.7,11005,002,2024_Jan_01_1902,MFTM_A_new1021,2021.2.3,59.97900734119663,
,,,,,,,,stim/Instruction_adaptive.png,conditions/adaptive.xlsx,test,0.6,0.6,0.6,-0.6,-0.6,right,R,,,,,0,1,1,1,0,10,10,22,,,,,,,,,,,,,,,,,,,,,,,,,,,,,,,,,,,,,,,,,,,,112.45296369999414,None,right,1,0.7858443000004627,112.95382840000093,114.10520429996541,112.95382840000093,113.60494189994643,112.95382840000093,113.60494189994643,112.95382840000093,113.60494189994643,112.95382840000093,113.60494189994643,112.95382840000093,113.60494189994643,113.58867699996335,114.08918459998677,113.58867699996335,114.08918459998677,113.58867699996335,114.08918459998677,113.58867699996335,114.08918459998677,113.58867699996335,114.08918459998677,113.58867699996335,114.08918459998677,113.58867699996335,114.08918459998677,113.58867699996335,114.08918459998677,112.95382840000093,None,114.08918459998677,115.65815439994913,0.6500000000000004,115.67406749998918,None,116.42533869994804,None,,,,,,,[1.56090909],3.5200000000000027,0.7272727272727273,11005,002,2024_Jan_01_1902,MFTM_A_new1021,2021.2.3,59.97900734119663,
,,,,,,,,stim/Instruction_adaptive.png,conditions/adaptive.xlsx,test,0.6,0.6,0.6,-0.6,-0.6,right,R,,,,,0,1,1,1,0,11,11,48,,,,,,,,,,,,,,,,,,,,,,,,,,,,,,,,,,,,,,,,,,,,116.92657519999193,None,right,1,1.080450099951122,117.4269330999814,118.5122938999557,117.4269330999814,118.01082209998276,117.4269330999814,118.01082209998276,117.4269330999814,118.01082209998276,117.4269330999814,118.01082209998276,117.4269330999814,118.01082209998276,117.97733669995796,118.47828399995342,117.97733669995796,118.47828399995342,117.97733669995796,118.47828399995342,117.97733669995796,118.47828399995342,117.97733669995796,118.47828399995342,117.97733669995796,118.47828399995342,117.97733669995796,118.47828399995342,117.97733669995796,118.47828399995342,117.4269330999814,None,118.47828399995342,120.08126449998235,0.5700000000000003,120.09742789994925,None,120.84888509998564,None,,,,,,,[1.59166667],3.660000000000003,0.75,11005,002,2024_Jan_01_1902,MFTM_A_new1021,2021.2.3,59.97900734119663,
,,,,,,,,stim/Instruction_adaptive.png,conditions/adaptive.xlsx,test,0.6,0.6,0.6,-0.6,-0.6,right,R,,,,,0,1,1,1,0,12,12,16,,,,,,,,,,,,,,,,,,,,,,,,,,,,,,,,,,,,,,,,,,,,121.34939879999729,None,right,1,1.1534821000532247,121.8497707999777,122.88488119997783,121.8497707999777,122.3840033999877,121.8497707999777,122.3840033999877,121.8497707999777,122.3840033999877,121.8497707999777,122.3840033999877,121.8497707999777,122.3840033999877,122.35072729998501,122.85189849999733,122.35072729998501,122.85189849999733,122.35072729998501,122.85189849999733,122.35072729998501,122.85189849999733,122.35072729998501,122.85189849999733,122.35072729998501,122.85189849999733,122.35072729998501,122.85189849999733,122.35072729998501,122.85189849999733,121.8497707999777,None,122.85189849999733,124.48777539998991,0.5200000000000002,124.50429999997141,None,125.25542509998195,None,,,,,,,[1.62153846],3.800000000000003,0.7692307692307693,11005,002,2024_Jan_01_1902,MFTM_A_new1021,2021.2.3,59.97900734119663,
,,,,,,,,stim/Instruction_adaptive.png,conditions/adaptive.xlsx,test,-0.6,-0.6,-0.6,0.6,0.6,left,L,,,,,0,1,1,1,0,13,13,49,,,,,,,,,,,,,,,,,,,,,,,,,,,,,,,,,,,,,,,,,,,,125.75565389997791,None,left,1,1.1230618999688886,126.25631460000295,127.24152209999738,126.25631460000295,126.740696199995,126.25631460000295,126.740696199995,126.25631460000295,126.740696199995,126.25631460000295,126.740696199995,126.25631460000295,126.740696199995,126.7075812999974,127.20846559997881,126.7075812999974,127.20846559997881,126.7075812999974,127.20846559997881,126.7075812999974,127.20846559997881,126.7075812999974,127.20846559997881,126.7075812999974,127.20846559997881,126.7075812999974,127.20846559997881,126.7075812999974,127.20846559997881,126.25631460000295,None,127.20846559997881,128.86151459999382,0.4700000000000002,128.87696819996927,None,129.628353099979,None,,,,,,,[1.65071429],3.920000000000003,0.7857142857142857,11005,002,2024_Jan_01_1902,MFTM_A_new1021,2021.2.3,59.97900734119663,
,,,,,,,,stim/Instruction_adaptive.png,conditions/adaptive.xlsx,test,0.6,0.6,0.6,-0.6,-0.6,right,R,,,,,0,1,1,1,0,14,14,94,,,,,,,,,,,,,,,,,,,,,,,,,,,,,,,,,,,,,,,,,,,,130.1294254999957,None,right,1,0.7731916999910027,130.63001299998723,131.5646913999808,130.63001299998723,131.06645759998355,130.63001299998723,131.06645759998355,130.63001299998723,131.06645759998355,130.63001299998723,131.06645759998355,130.63001299998723,131.06645759998355,131.04765949997818,131.5475471999962,131.04765949997818,131.5475471999962,131.04765949997818,131.5475471999962,131.04765949997818,131.5475471999962,131.04765949997818,131.5475471999962,131.04765949997818,131.5475471999962,131.04765949997818,131.5475471999962,131.04765949997818,131.5475471999962,130.63001299998723,None,131.5475471999962,133.23437739996007,0.43000000000000016,133.26785529998597,None,134.0178761999705,None,,,,,,,[1.67866667],4.020000000000003,0.8,11005,002,2024_Jan_01_1902,MFTM_A_new1021,2021.2.3,59.97900734119663,
,,,,,,,,stim/Instruction_adaptive.png,conditions/adaptive.xlsx,test,-0.6,-0.6,-0.6,0.6,0.6,left,L,,,,,0,1,1,1,0,15,15,25,,,,,,,,,,,,,,,,,,,,,,,,,,,,,,,,,,,,,,,,,,,,134.51856070000213,None,right,0,0.9111415999941528,135.01992389996303,135.9379829999525,135.01992389996303,135.43658159999177,135.01992389996303,135.43658159999177,135.01992389996303,135.43658159999177,135.01992389996303,135.43658159999177,135.01992389996303,135.43658159999177,135.4041291999747,135.90407239994965,135.4041291999747,135.90407239994965,135.4041291999747,135.90407239994965,135.4041291999747,135.90407239994965,135.4041291999747,135.90407239994965,135.4041291999747,135.90407239994965,135.4041291999747,135.90407239994965,135.4041291999747,135.90407239994965,135.01992389996303,None,135.90407239994965,137.6242325999774,0.41000000000000014,137.63979849999305,None,138.3920792999561,None,,,,,,,[1.704375],3.730000000000003,0.75,11005,002,2024_Jan_01_1902,MFTM_A_new1021,2021.2.3,59.97900734119663,
,,,,,,,,stim/Instruction_adaptive.png,conditions/adaptive.xlsx,test,0.6,0.6,0.6,-0.6,-0.6,right,R,,,,,0,1,1,1,0,16,16,20,,,,,,,,,,,,,,,,,,,,,,,,,,,,,,,,,,,,,,,,,,,,138.89192009996623,None,left,0,0.9779869999620132,139.39320880000014,140.39444659999572,139.39320880000014,139.89332589996047,139.39320880000014,139.89332589996047,139.39320880000014,139.89332589996047,139.39320880000014,139.89332589996047,139.39320880000014,139.89332589996047,139.87662009999622,140.378357199952,139.87662009999622,140.378357199952,139.87662009999622,140.378357199952,139.87662009999622,140.378357199952,139.87662009999622,140.378357199952,139.87662009999622,140.378357199952,139.87662009999622,140.378357199952,139.87662009999622,140.378357199952,139.39320880000014,None,140.378357199952,142.11392279999563,0.5000000000000002,142.1299431999796,None,142.881551999948,None,,,,,,,[1.72176471],3.4200000000000026,0.7058823529411765,11005,002,2024_Jan_01_1902,MFTM_A_new1021,2021.2.3,59.97900734119663,
,,,,,,,,stim/Instruction_adaptive.png,conditions/adaptive.xlsx,test,-0.6,-0.6,-0.6,0.6,0.6,left,L,,,,,0,1,1,1,0,17,17,19,,,,,,,,,,,,,,,,,,,,,,,,,,,,,,,,,,,,,,,,,,,,143.38227740000002,None,left,1,1.385185100021772,143.88240770000266,145.00074009998934,143.88240770000266,144.5004752999521,143.88240770000266,144.5004752999521,143.88240770000266,144.5004752999521,143.88240770000266,144.5004752999521,143.88240770000266,144.5004752999521,144.4841881999746,144.98512460000347,144.4841881999746,144.98512460000347,144.4841881999746,144.98512460000347,144.4841881999746,144.98512460000347,144.4841881999746,144.98512460000347,144.4841881999746,144.98512460000347,144.4841881999746,144.98512460000347,144.4841881999746,144.98512460000347,143.88240770000266,None,144.9674177999841,146.70374249998713,0.6100000000000003,146.73759909998626,None,147.4881844999618,None,,,,,,,[1.73111111],3.530000000000003,0.7222222222222222,11005,002,2024_Jan_01_1902,MFTM_A_new1021,2021.2.3,59.97900734119663,
,,,,,,,,stim/Instruction_adaptive.png,conditions/adaptive.xlsx,test,0.6,0.6,0.6,-0.6,-0.6,right,R,,,,,0,1,1,1,0,18,18,56,,,,,,,,,,,,,,,,,,,,,,,,,,,,,,,,,,,,,,,,,,,,147.98906329995953,None,right,1,1.673857899964787,148.4892770999577,149.57469769997988,148.4892770999577,149.07416849996662,148.4892770999577,149.07416849996662,148.4892770999577,149.07416849996662,148.4892770999577,149.07416849996662,148.4892770999577,149.07416849996662,149.04106399999,149.5412085999851,149.04106399999,149.5412085999851,149.04106399999,149.5412085999851,149.04106399999,149.5412085999851,149.04106399999,149.5412085999851,149.04106399999,149.5412085999851,149.04106399999,149.5412085999851,149.04106399999,149.5412085999851,148.4892770999577,None,149.5412085999851,151.2942095999606,0.5700000000000003,151.31024359998992,None,152.06166489998577,None,,,,,,,[1.74157895],3.640000000000003,0.7368421052631579,11005,002,2024_Jan_01_1902,MFTM_A_new1021,2021.2.3,59.97900734119663,
,,,,,,,,stim/Instruction_adaptive.png,conditions/adaptive.xlsx,test,-0.6,-0.6,-0.6,0.6,0.6,left,L,,,,,0,1,1,1,0,19,19,61,,,,,,,,,,,,,,,,,,,,,,,,,,,,,,,,,,,,,,,,,,,,152.5627542999573,None,left,1,1.444515399984084,153.0627105999738,154.09844839997822,153.0627105999738,153.59737479995238,153.0627105999738,153.59737479995238,153.0627105999738,153.59737479995238,153.0627105999738,153.59737479995238,153.0627105999738,153.59737479995238,153.58102439995855,154.0816319999867,153.58102439995855,154.0816319999867,153.58102439995855,154.0816319999867,153.58102439995855,154.0816319999867,153.58102439995855,154.0816319999867,153.58102439995855,154.0816319999867,153.58102439995855,154.0816319999867,153.58102439995855,154.0816319999867,153.0627105999738,None,154.0816319999867,155.83350249996874,0.5300000000000002,155.85106799995992,None,156.6016361999791,None,,,,,,,[1.753],3.730000000000003,0.75,11005,002,2024_Jan_01_1902,MFTM_A_new1021,2021.2.3,59.97900734119663,
,,,,,,,,stim/Instruction_adaptive.png,conditions/adaptive.xlsx,test,0.6,0.6,0.6,-0.6,-0.6,right,R,,,,,0,1,1,1,0,20,20,70,,,,,,,,,,,,,,,,,,,,,,,,,,,,,,,,,,,,,,,,,,,,157.10278629994718,None,right,1,1.0645680000307038,157.6029004000011,158.6049201999558,157.6029004000011,158.103665899951,157.6029004000011,158.103665899951,157.6029004000011,158.103665899951,157.6029004000011,158.103665899951,157.6029004000011,158.103665899951,158.08734619995812,158.58763069997076,158.08734619995812,158.58763069997076,158.08734619995812,158.58763069997076,158.08734619995812,158.58763069997076,158.08734619995812,158.58763069997076,158.08734619995812,158.58763069997076,158.08734619995812,158.58763069997076,158.08734619995812,158.58763069997076,157.6029004000011,None,158.58763069997076,160.35703189997002,0.5000000000000002,160.3735055999714,None,161.1256045999471,None,,,,,,,[1.7647619],3.820000000000003,0.7619047619047619,11005,002,2024_Jan_01_1902,MFTM_A_new1021,2021.2.3,59.97900734119663,
,,,,,,,,stim/Instruction_adaptive.png,conditions/adaptive.xlsx,test,-0.6,-0.6,-0.6,0.6,0.6,left,L,,,,,0,1,1,1,0,21,21,1,,,,,,,,,,,,,,,,,,,,,,,,,,,,,,,,,,,,,,,,,,,,161.62559189996682,None,right,0,1.1087731000152417,162.1267771999701,163.11190580000402,162.1267771999701,162.61014889995568,162.1267771999701,162.61014889995568,162.1267771999701,162.61014889995568,162.1267771999701,162.61014889995568,162.1267771999701,162.61014889995568,162.57770549994893,163.07836189999944,162.57770549994893,163.07836189999944,162.57770549994893,163.07836189999944,162.57770549994893,163.07836189999944,162.57770549994893,163.07836189999944,162.57770549994893,163.07836189999944,162.57770549994893,163.07836189999944,162.57770549994893,163.07836189999944,162.1267771999701,None,163.07836189999944,164.8638393000001,0.4700000000000002,164.88008219999028,None,165.6320274999598,None,,,,,,,[1.77681818],3.5800000000000027,0.7272727272727273,11005,002,2024_Jan_01_1902,MFTM_A_new1021,2021.2.3,59.97900734119663,
,,,,,,,,stim/Instruction_adaptive.png,conditions/adaptive.xlsx,test,0.6,0.6,0.6,-0.6,-0.6,right,R,,,,,0,1,1,1,0,22,22,84,,,,,,,,,,,,,,,,,,,,,,,,,,,,,,,,,,,,,,,,,,,,166.13250529998913,None,right,1,0.7701301000197418,166.633008099976,167.68467039999086,166.633008099976,167.18369429995073,166.633008099976,167.18369429995073,166.633008099976,167.18369429995073,166.633008099976,167.18369429995073,166.633008099976,167.18369429995073,167.16785529995104,167.6684553999803,167.16785529995104,167.6684553999803,167.16785529995104,167.6684553999803,167.16785529995104,167.6684553999803,167.16785529995104,167.6684553999803,167.16785529995104,167.6684553999803,167.16785529995104,167.6684553999803,167.16785529995104,167.6684553999803,166.633008099976,None,167.6684553999803,169.454588899971,0.5500000000000003,169.4882405999815,None,170.23897469998337,None,,,,,,,[1.78434783],3.660000000000003,0.7391304347826086,11005,002,2024_Jan_01_1902,MFTM_A_new1021,2021.2.3,59.97900734119663,
,,,,,,,,stim/Instruction_adaptive.png,conditions/adaptive.xlsx,test,0.6,0.6,0.6,-0.6,-0.6,right,R,,,,,0,1,1,1,0,23,23,0,,,,,,,,,,,,,,,,,,,,,,,,,,,,,,,,,,,,,,,,,,,,170.74011809995864,None,right,1,1.146928999980446,171.24029589997372,172.2750156999682,171.24029589997372,171.7742400999996,171.24029589997372,171.7742400999996,171.24029589997372,171.7742400999996,171.24029589997372,171.7742400999996,171.24029589997372,171.7742400999996,171.74044799996773,172.24231079994934,171.74044799996773,172.24231079994934,171.74044799996773,172.24231079994934,171.74044799996773,172.24231079994934,171.74044799996773,172.24231079994934,171.74044799996773,172.24231079994934,171.74044799996773,172.24231079994934,171.74044799996773,172.24231079994934,171.24029589997372,None,172.24231079994934,174.04439409996849,0.5200000000000002,174.0606893999502,None,174.81238989997655,None,,,,,,,[1.7925],3.740000000000003,0.75,11005,002,2024_Jan_01_1902,MFTM_A_new1021,2021.2.3,59.97900734119663,
,,,,,,,,stim/Instruction_adaptive.png,conditions/adaptive.xlsx,test,0.6,0.6,0.6,-0.6,-0.6,right,R,,,,,0,1,1,1,0,24,24,76,,,,,,,,,,,,,,,,,,,,,,,,,,,,,,,,,,,,,,,,,,,,175.3125581999775,None,right,1,0.8536043999483809,175.81386239995481,176.81459859997267,175.81386239995481,176.31467309995787,175.81386239995481,176.31467309995787,175.81386239995481,176.31467309995787,175.81386239995481,176.31467309995787,175.81386239995481,176.31467309995787,176.28049559995998,176.78130360000068,176.28049559995998,176.78130360000068,176.28049559995998,176.78130360000068,176.28049559995998,176.78130360000068,176.28049559995998,176.78130360000068,176.28049559995998,176.78130360000068,176.28049559995998,176.78130360000068,176.28049559995998,176.78130360000068,175.81386239995481,None,176.78130360000068,178.58458289998816,0.4900000000000002,178.61801899998682,None,179.36970649997238,None,,,,,,,[1.8012],3.820000000000003,0.76,11005,002,2024_Jan_01_1902,MFTM_A_new1021,2021.2.3,59.97900734119663,
,,,,,,,,stim/Instruction_adaptive.png,conditions/adaptive.xlsx,test,-0.6,-0.6,-0.6,0.6,0.6,left,L,,,,,0,1,1,1,0,25,25,55,,,,,,,,,,,,,,,,,,,,,,,,,,,,,,,,,,,,,,,,,,,,179.86935519997496,None,left,1,1.1770912000210956,180.3700101999566,181.35560839995742,180.3700101999566,180.85444609995466,180.3700101999566,180.85444609995466,180.3700101999566,180.85444609995466,180.3700101999566,180.85444609995466,180.3700101999566,180.85444609995466,180.82140669994988,181.3218094999902,180.82140669994988,181.3218094999902,180.82140669994988,181.3218094999902,180.82140669994988,181.3218094999902,180.82140669994988,181.3218094999902,180.82140669994988,181.3218094999902,180.82140669994988,181.3218094999902,180.82140669994988,181.3218094999902,180.3700101999566,None,181.3218094999902,183.14131099998485,0.4700000000000002,183.15750289999414,None,183.9086004999699,None,,,,,,,[1.81],3.880000000000003,0.7692307692307693,11005,002,2024_Jan_01_1902,MFTM_A_new1021,2021.2.3,59.97900734119663,
,,,,,,,,stim/Instruction_adaptive.png,conditions/adaptive.xlsx,test,-0.6,-0.6,-0.6,0.6,0.6,left,L,,,,,0,1,1,1,0,26,26,59,,,,,,,,,,,,,,,,,,,,,,,,,,,,,,,,,,,,,,,,,,,,184.40930099994875,None,right,0,0.9328316999599338,184.91035179997561,185.86141359998146,184.91035179997561,185.36074119998375,184.91035179997561,185.36074119998375,184.91035179997561,185.36074119998375,184.91035179997561,185.36074119998375,184.91035179997561,185.36074119998375,185.34405309997965,185.84490309999092,185.34405309997965,185.84490309999092,185.34405309997965,185.84490309999092,185.34405309997965,185.84490309999092,185.34405309997965,185.84490309999092,185.34405309997965,185.84490309999092,185.34405309997965,185.84490309999092,185.34405309997965,185.84490309999092,184.91035179997561,None,185.84490309999092,187.66486899997108,0.4500000000000002,187.68061779998243,None,188.4322778999922,None,,,,,,,[1.81888889],3.690000000000003,0.7407407407407407,11005,002,2024_Jan_01_1902,MFTM_A_new1021,2021.2.3,59.97900734119663,
,,,,,,,,stim/Instruction_adaptive.png,conditions/adaptive.xlsx,test,-0.6,-0.6,-0.6,0.6,0.6,left,L,,,,,0,1,1,1,0,27,27,13,,,,,,,,,,,,,,,,,,,,,,,,,,,,,,,,,,,,,,,,,,,,188.9325347999693,None,right,0,1.0566098000272177,189.46696509997128,190.48539819999132,189.46696509997128,189.98532939999131,189.46696509997128,189.98532939999131,189.46696509997128,189.98532939999131,189.46696509997128,189.98532939999131,189.46696509997128,189.98532939999131,189.95068109995918,190.451564899995,189.95068109995918,190.451564899995,189.95068109995918,190.451564899995,189.95068109995918,190.451564899995,189.95068109995918,190.451564899995,189.95068109995918,190.451564899995,189.95068109995918,190.451564899995,189.95068109995918,190.451564899995,189.46696509997128,None,190.451564899995,192.28838499996345,0.5100000000000002,192.30432649998693,None,193.05588419997366,None,,,,,,,[1.825],3.490000000000003,0.7142857142857143,11005,002,2024_Jan_01_1902,MFTM_A_new1021,2021.2.3,59.97900734119663,
,,,,,,,,stim/Instruction_adaptive.png,conditions/adaptive.xlsx,test,0.6,0.6,0.6,-0.6,-0.6,right,R,,,,,0,1,1,1,0,28,28,40,,,,,,,,,,,,,,,,,,,,,,,,,,,,,,,,,,,,,,,,,,,,193.55611949996091,None,left,0,1.745308000012301,194.05794739996782,195.1584941999754,194.05794739996782,194.65774339996278,194.05794739996782,194.65774339996278,194.05794739996782,194.65774339996278,194.05794739996782,194.65774339996278,194.05794739996782,194.65774339996278,194.6243611999671,195.12597559997812,194.6243611999671,195.12597559997812,194.6243611999671,195.12597559997812,194.6243611999671,195.12597559997812,194.6243611999671,195.12597559997812,194.6243611999671,195.12597559997812,194.6243611999671,195.12597559997812,194.6243611999671,195.12597559997812,194.05794739996782,None,195.12597559997812,196.9618574999622,0.5900000000000003,196.9959234999842,None,197.74634979997063,None,,,,,,,[1.82793103],3.2600000000000025,0.6896551724137931,11005,002,2024_Jan_01_1902,MFTM_A_new1021,2021.2.3,59.97900734119663,
,,,,,,,,stim/Instruction_adaptive.png,conditions/adaptive.xlsx,test,-0.6,-0.6,-0.6,0.6,0.6,left,L,,,,,0,1,1,1,0,29,29,9,,,,,,,,,,,,,,,,,,,,,,,,,,,,,,,,,,,,,,,,,,,,198.24719269998604,None,right,0,1.4394421000033617,198.74798469996313,199.94900019996567,198.74798469996313,199.44829339999706,198.74798469996313,199.44829339999706,198.74798469996313,199.44829339999706,198.74798469996313,199.44829339999706,198.74798469996313,199.44829339999706,199.4148503000033,199.91636009997455,199.4148503000033,199.91636009997455,199.4148503000033,199.91636009997455,199.4148503000033,199.91636009997455,199.4148503000033,199.91636009997455,199.4148503000033,199.91636009997455,199.4148503000033,199.91636009997455,199.4148503000033,199.91636009997455,198.74798469996313,None,199.91636009997455,201.73533139994834,0.6900000000000004,201.7516601999523,None,202.50276099995244,None,,,,,,,[[1.81]],3.0100000000000025,0.6666666666666666,11005,002,2024_Jan_01_1902,MFTM_A_new1021,2021.2.3,59.97900734119663,
,,,,,,,,stim/Instruction_adaptive.png,conditions/adaptive.xlsx,test,-0.6,-0.6,-0.6,0.6,0.6,left,L,,,,,0,1,1,1,0,30,30,11,,,,,,,,,,,,,,,,,,,,,,,,,,,,,,,,,,,,,,,,,,,,203.00420239998493,None,left,1,1.6982888000202365,203.50519479997456,204.83950579998782,203.50519479997456,204.33879660000093,203.50519479997456,204.33879660000093,203.50519479997456,204.33879660000093,203.50519479997456,204.33879660000093,203.50519479997456,204.33879660000093,204.3061854999978,204.8069290999556,204.3061854999978,204.8069290999556,204.3061854999978,204.8069290999556,204.3061854999978,204.8069290999556,204.3061854999978,204.8069290999556,204.3061854999978,204.8069290999556,204.3061854999978,204.8069290999556,204.3061854999978,204.8069290999556,203.50519479997456,None,204.8069290999556,206.49260810000123,0.8200000000000005,206.5089490999817,None,207.26030490000267,None,,,,,,,[[1.68]],3.1000000000000023,0.6774193548387096,11005,002,2024_Jan_01_1902,MFTM_A_new1021,2021.2.3,59.97900734119663,
,,,,,,,,stim/Instruction_adaptive.png,conditions/adaptive.xlsx,test,-0.6,-0.6,-0.6,0.6,0.6,left,L,,,,,0,1,1,1,0,31,31,43,,,,,,,,,,,,,,,,,,,,,,,,,,,,,,,,,,,,,,,,,,,,207.76080869999714,None,left,1,0.9498609000002034,208.2618136999663,209.54738529998576,208.2618136999663,209.04641559999436,208.2618136999663,209.04641559999436,208.2618136999663,209.04641559999436,208.2618136999663,209.04641559999436,208.2618136999663,209.04641559999436,209.01275999995414,209.51384869997855,209.01275999995414,209.51384869997855,209.01275999995414,209.51384869997855,209.01275999995414,209.51384869997855,209.01275999995414,209.51384869997855,209.01275999995414,209.51384869997855,209.01275999995414,209.51384869997855,209.01275999995414,209.51384869997855,208.2618136999663,None,209.51384869997855,211.2495029999991,0.7700000000000005,211.26605559996096,None,212.01761239999905,None,,,,,,,[[1.73]],3.190000000000002,0.6875,11005,002,2024_Jan_01_1902,MFTM_A_new1021,2021.2.3,59.97900734119663,
,,,,,,,,stim/Instruction_adaptive.png,conditions/adaptive.xlsx,test,0.6,0.6,0.6,-0.6,-0.6,right,R,,,,,0,1,1,1,0,32,32,50,,,,,,,,,,,,,,,,,,,,,,,,,,,,,,,,,,,,,,,,,,,,212.51815829996485,None,right,1,1.817235900030937,213.01839059998747,214.25392170000123,213.01839059998747,213.75333149998914,213.01839059998747,213.75333149998914,213.01839059998747,213.75333149998914,213.01839059998747,213.75333149998914,213.01839059998747,213.75333149998914,213.71972909994656,214.22007769998163,213.71972909994656,214.22007769998163,213.71972909994656,214.22007769998163,213.71972909994656,214.22007769998163,213.71972909994656,214.22007769998163,213.71972909994656,214.22007769998163,213.71972909994656,214.22007769998163,213.71972909994656,214.22007769998163,213.01839059998747,None,214.22007769998163,216.00754299998516,0.7200000000000004,216.02253409998957,None,216.77451629994903,None,,,,,,,[[1.78]],3.2600000000000025,0.696969696969697,11005,002,2024_Jan_01_1902,MFTM_A_new1021,2021.2.3,59.97900734119663,
,,,,,,,,stim/Instruction_adaptive.png,conditions/adaptive.xlsx,test,-0.6,-0.6,-0.6,0.6,0.6,left,L,,,,,0,1,1,1,0,33,33,81,,,,,,,,,,,,,,,,,,,,,,,,,,,,,,,,,,,,,,,,,,,,217.27448109997204,None,right,0,1.0688047999865375,217.77525989996502,218.97708369995235,217.77525989996502,218.47711439995328,217.77525989996502,218.47711439995328,217.77525989996502,218.47711439995328,217.77525989996502,218.47711439995328,217.77525989996502,218.47711439995328,218.44365799997468,218.94370949995937,218.44365799997468,218.94370949995937,218.44365799997468,218.94370949995937,218.44365799997468,218.94370949995937,218.44365799997468,218.94370949995937,218.44365799997468,218.94370949995937,218.44365799997468,218.94370949995937,218.44365799997468,218.94370949995937,217.77525989996502,None,218.94370949995937,220.7640089999768,0.6900000000000004,220.7975856999983,None,221.5493828000035,None,,,,,,,[[1.81]],3.0500000000000025,0.6764705882352942,11005,002,2024_Jan_01_1902,MFTM_A_new1021,2021.2.3,59.97900734119663,
,,,,,,,,stim/Instruction_adaptive.png,conditions/adaptive.xlsx,test,-0.6,-0.6,-0.6,0.6,0.6,left,L,,,,,0,1,1,1,0,34,34,41,,,,,,,,,,,,,,,,,,,,,,,,,,,,,,,,,,,,,,,,,,,,222.0492314999574,None,left,1,1.2614495000452735,222.54981840000255,223.8518683000002,222.54981840000255,223.3510043999995,222.54981840000255,223.3510043999995,222.54981840000255,223.3510043999995,222.54981840000255,223.3510043999995,222.54981840000255,223.3510043999995,223.31726499996148,223.81798619998153,223.31726499996148,223.81798619998153,223.31726499996148,223.81798619998153,223.31726499996148,223.81798619998153,223.31726499996148,223.81798619998153,223.31726499996148,223.81798619998153,223.31726499996148,223.81798619998153,223.31726499996148,223.81798619998153,222.54981840000255,None,223.81798619998153,225.53702099999646,0.7900000000000005,225.55346529994858,None,226.30522839998594,None,,,,,,,[[1.71]],3.1300000000000026,0.6857142857142857,11005,002,2024_Jan_01_1902,MFTM_A_new1021,2021.2.3,59.97900734119663,
,,,,,,,,stim/Instruction_adaptive.png,conditions/adaptive.xlsx,test,-0.6,-0.6,-0.6,0.6,0.6,left,L,,,,,0,1,1,1,0,35,35,79,,,,,,,,,,,,,,,,,,,,,,,,,,,,,,,,,,,,,,,,,,,,226.80596679996233,None,left,1,1.0804884000099264,227.30659719998948,228.5586971999728,227.30659719998948,228.05740189994685,227.30659719998948,228.05740189994685,227.30659719998948,228.05740189994685,227.30659719998948,228.05740189994685,227.30659719998948,228.05740189994685,228.0406634999672,228.54165109997848,228.0406634999672,228.54165109997848,228.0406634999672,228.54165109997848,228.0406634999672,228.54165109997848,228.0406634999672,228.54165109997848,228.0406634999672,228.54165109997848,228.0406634999672,228.54165109997848,228.0406634999672,228.54165109997848,227.30659719998948,None,228.54165109997848,230.29405759996735,0.7500000000000004,230.31119919999037,None,231.0623097999487,None,,,,,,,[[1.75]],3.2000000000000024,0.6944444444444444,11005,002,2024_Jan_01_1902,MFTM_A_new1021,2021.2.3,59.97900734119663,
,,,,,,,,stim/Instruction_adaptive.png,conditions/adaptive.xlsx,test,0.6,0.6,0.6,-0.6,-0.6,right,R,,,,,0,1,1,1,0,36,36,12,,,,,,,,,,,,,,,,,,,,,,,,,,,,,,,,,,,,,,,,,,,,231.56302609998966,None,left,0,1.4521962000289932,232.0636665999773,233.29863109998405,232.0636665999773,232.79821049998282,232.0636665999773,232.79821049998282,232.0636665999773,232.79821049998282,232.0636665999773,232.79821049998282,232.0636665999773,232.79821049998282,232.76468999998178,233.26581449998775,232.76468999998178,233.26581449998775,232.76468999998178,233.26581449998775,232.76468999998178,233.26581449998775,232.76468999998178,233.26581449998775,232.76468999998178,233.26581449998775,232.76468999998178,233.26581449998775,232.76468999998178,233.26581449998775,232.0636665999773,None,233.26581449998775,235.05230879999,0.7200000000000004,235.0674209999852,None,235.81956429994898,None,,,,,,,[[1.78]],3.000000000000002,0.6756756756756757,11005,002,2024_Jan_01_1902,MFTM_A_new1021,2021.2.3,59.97900734119663,
,,,,,,,,stim/Instruction_adaptive.png,conditions/adaptive.xlsx,test,-0.6,-0.6,-0.6,0.6,0.6,left,L,,,,,0,1,1,1,0,37,37,77,,,,,,,,,,,,,,,,,,,,,,,,,,,,,,,,,,,,,,,,,,,,236.31958249997115,None,left,1,1.406654599995818,236.8207548999926,238.15641239995603,236.8207548999926,237.6547560999752,236.8207548999926,237.6547560999752,236.8207548999926,237.6547560999752,236.8207548999926,237.6547560999752,236.8207548999926,237.6547560999752,237.62208559998544,238.12224810000043,237.62208559998544,238.12224810000043,237.62208559998544,238.12224810000043,237.62208559998544,238.12224810000043,237.62208559998544,238.12224810000043,237.62208559998544,238.12224810000043,237.62208559998544,238.12224810000043,237.62208559998544,238.12224810000043,236.8207548999926,None,238.12224810000043,239.80883569997968,0.8200000000000005,239.842333699984,None,240.59266399999615,None,,,,,,,[[1.68]],3.070000000000002,0.6842105263157895,11005,002,2024_Jan_01_1902,MFTM_A_new1021,2021.2.3,59.97900734119663,
,,,,,,,,stim/Instruction_adaptive.png,conditions/adaptive.xlsx,test,0.6,0.6,0.6,-0.6,-0.6,right,R,,,,,0,1,1,1,0,38,38,92,,,,,,,,,,,,,,,,,,,,,,,,,,,,,,,,,,,,,,,,,,,,241.09314909996465,None,right,1,1.8416053000255488,241.59425019996706,242.8797695999965,241.59425019996706,242.37931209994713,241.59425019996706,242.37931209994713,241.59425019996706,242.37931209994713,241.59425019996706,242.37931209994713,241.59425019996706,242.37931209994713,242.3627601999906,242.86308879998978,242.3627601999906,242.86308879998978,242.3627601999906,242.86308879998978,242.3627601999906,242.86308879998978,242.3627601999906,242.86308879998978,242.3627601999906,242.86308879998978,242.3627601999906,242.86308879998978,242.3627601999906,242.86308879998978,241.59425019996706,None,242.86308879998978,None,0.7800000000000005,244.59838799998397,None,245.35021049994975,None,,,,,,,[[1.72]],3.1300000000000026,0.6923076923076923,11005,002,2024_Jan_01_1902,MFTM_A_new1021,2021.2.3,59.97900734119663,
,,,,,,,,stim/Instruction_adaptive.png,conditions/adaptive.xlsx,test,-0.6,-0.6,-0.6,0.6,0.6,left,L,,,,,0,1,1,1,0,39,39,83,,,,,,,,,,,,,,,,,,,,,,,,,,,,,,,,,,,,,,,,,,,,245.85126749996562,None,right,0,1.3956421000184491,246.3516731999698,247.60289919999195,246.3516731999698,247.10216779995244,246.3516731999698,247.10216779995244,246.3516731999698,247.10216779995244,246.3516731999698,247.10216779995244,246.3516731999698,247.10216779995244,247.0852510999539,247.58617659995798,247.0852510999539,247.58617659995798,247.0852510999539,247.58617659995798,247.0852510999539,247.58617659995798,247.0852510999539,247.58617659995798,247.0852510999539,247.58617659995798,247.0852510999539,247.58617659995798,247.0852510999539,247.58617659995798,246.3516731999698,None,247.58617659995798,249.33874869998544,0.7500000000000004,249.3552001999924,None,250.10765079996781,None,,,,,,,[[1.75]],2.940000000000002,0.675,11005,002,2024_Jan_01_1902,MFTM_A_new1021,2021.2.3,59.97900734119663,
,,,,,,,,stim/Instruction_adaptive.png,conditions/adaptive.xlsx,test,0.6,0.6,0.6,-0.6,-0.6,right,R,,,,,0,1,1,1,0,40,40,98,,,,,,,,,,,,,,,,,,,,,,,,,,,,,,,,,,,,,,,,,,,,250.6079335999675,None,right,1,1.1910489000147209,251.10811589995865,252.47910649998812,251.10811589995865,251.97684540000046,251.10811589995865,251.97684540000046,251.10811589995865,251.97684540000046,251.10811589995865,251.97684540000046,251.10811589995865,251.97684540000046,251.95997869997518,252.45997999998508,251.95997869997518,252.45997999998508,251.95997869997518,252.45997999998508,251.95997869997518,252.45997999998508,251.95997869997518,252.45997999998508,251.95997869997518,252.45997999998508,251.95997869997518,252.45997999998508,251.95997869997518,252.45997999998508,251.10811589995865,None,252.45997999998508,None,0.8600000000000005,254.11229999997886,None,254.86441769998055,None,,,,,,,[[1.64]],3.0100000000000025,0.6829268292682927,11005,002,2024_Jan_01_1902,MFTM_A_new1021,2021.2.3,59.97900734119663,
,,,,,,,,stim/Instruction_adaptive.png,conditions/adaptive.xlsx,test,0.6,0.6,0.6,-0.6,-0.6,right,R,,,,,0,1,1,1,0,41,41,74,,,,,,,,,,,,,,,,,,,,,,,,,,,,,,,,,,,,,,,,,,,,255.36499069997808,None,right,1,1.050164800020866,255.86513379996177,257.1840896999929,255.86513379996177,256.699639999948,255.86513379996177,256.699639999948,255.86513379996177,256.699639999948,255.86513379996177,256.699639999948,255.86513379996177,256.699639999948,256.6663759999792,257.16780739999376,256.6663759999792,257.16780739999376,256.6663759999792,257.16780739999376,256.6663759999792,257.16780739999376,256.6663759999792,257.16780739999376,256.6663759999792,257.16780739999376,256.6663759999792,257.16780739999376,256.6663759999792,257.16780739999376,255.86513379996177,None,257.16780739999376,258.8533277999959,0.8200000000000005,258.87057379999897,None,259.6208343000035,None,,,,,,,[[1.68]],3.0800000000000023,0.6904761904761905,11005,002,2024_Jan_01_1902,MFTM_A_new1021,2021.2.3,59.97900734119663,
,,,,,,,,stim/Instruction_adaptive.png,conditions/adaptive.xlsx,test,0.6,0.6,0.6,-0.6,-0.6,right,R,,,,,0,1,1,1,0,42,42,64,,,,,,,,,,,,,,,,,,,,,,,,,,,,,,,,,,,,,,,,,,,,260.1219994999701,None,right,1,0.8211114999721758,260.62217409996083,261.90811969997594,260.62217409996083,261.406993499957,260.62217409996083,261.406993499957,260.62217409996083,261.406993499957,260.62217409996083,261.406993499957,260.62217409996083,261.406993499957,261.3906500999583,261.8907467999961,261.3906500999583,261.8907467999961,261.3906500999583,261.8907467999961,261.3906500999583,261.8907467999961,261.3906500999583,261.8907467999961,261.3906500999583,261.8907467999961,261.3906500999583,261.8907467999961,261.3906500999583,261.8907467999961,260.62217409996083,None,261.8907467999961,263.6100067999796,0.7800000000000005,263.6272764999885,None,264.37832859996706,None,,,,,,,[[1.72]],3.1300000000000026,0.6976744186046512,11005,002,2024_Jan_01_1902,MFTM_A_new1021,2021.2.3,59.97900734119663,
,,,,,,,,stim/Instruction_adaptive.png,conditions/adaptive.xlsx,test,0.6,0.6,0.6,-0.6,-0.6,right,R,,,,,0,1,1,1,0,43,43,30,,,,,,,,,,,,,,,,,,,,,,,,,,,,,,,,,,,,,,,,,,,,264.87919119995786,None,left,0,0.9997996999882162,265.3799444999895,266.6312779999571,265.3799444999895,266.1311394999502,265.3799444999895,266.1311394999502,265.3799444999895,266.1311394999502,265.3799444999895,266.1311394999502,265.3799444999895,266.1311394999502,266.1137170000002,266.6148079999839,266.1137170000002,266.6148079999839,266.1137170000002,266.6148079999839,266.1137170000002,266.6148079999839,266.1137170000002,266.6148079999839,266.1137170000002,266.6148079999839,266.1137170000002,266.6148079999839,266.1137170000002,266.6148079999839,265.3799444999895,None,266.6148079999839,268.3685562000028,0.7500000000000004,268.40062179998495,None,269.1516950999503,None,,,,,,,[[1.75]],2.9700000000000024,0.6818181818181818,11005,002,2024_Jan_01_1902,MFTM_A_new1021,2021.2.3,59.97900734119663,
,,,,,,,,stim/Instruction_adaptive.png,conditions/adaptive.xlsx,test,-0.6,-0.6,-0.6,0.6,0.6,left,L,,,,,0,1,1,1,0,44,44,97,,,,,,,,,,,,,,,,,,,,,,,,,,,,,,,,,,,,,,,,,,,,269.6523095999728,None,right,0,1.51426550000906,270.15339559997665,271.50541809998685,270.15339559997665,271.00544479995733,270.15339559997665,271.00544479995733,270.15339559997665,271.00544479995733,270.15339559997665,271.00544479995733,270.15339559997665,271.00544479995733,270.97090069996193,271.4721966999932,270.97090069996193,271.4721966999932,270.97090069996193,271.4721966999932,270.97090069996193,271.4721966999932,270.97090069996193,271.4721966999932,270.97090069996193,271.4721966999932,270.97090069996193,271.4721966999932,270.97090069996193,271.4721966999932,270.15339559997665,None,271.4721966999932,273.1408368999837,0.8400000000000005,273.1582686000038,None,273.9086415999918,None,,,,,,,[[1.66]],2.780000000000002,0.6666666666666666,11005,002,2024_Jan_01_1902,MFTM_A_new1021,2021.2.3,59.97900734119663,
,,,,,,,,stim/Instruction_adaptive.png,conditions/adaptive.xlsx,test,0.6,0.6,0.6,-0.6,-0.6,right,R,,,,,0,1,1,1,0,45,45,34,,,,,,,,,,,,,,,,,,,,,,,,,,,,,,,,,,,,,,,,,,,,274.40984049998224,None,right,1,1.9969583000056446,274.91037139995024,276.37950489996,274.91037139995024,275.8784777999972,274.91037139995024,275.8784777999972,274.91037139995024,275.8784777999972,274.91037139995024,275.8784777999972,274.91037139995024,275.8784777999972,275.8454433999723,276.3454428999685,275.8454433999723,276.3454428999685,275.8454433999723,276.3454428999685,275.8454433999723,276.3454428999685,275.8454433999723,276.3454428999685,275.8454433999723,276.3454428999685,275.8454433999723,276.3454428999685,275.8454433999723,276.3454428999685,274.91037139995024,None,276.3454428999685,277.8978519999655,0.9600000000000006,277.91458389995387,None,278.66620249999687,None,,,,,,,[[1.54]],2.8500000000000023,0.6739130434782609,11005,002,2024_Jan_01_1902,MFTM_A_new1021,2021.2.3,59.97900734119663,
,,,,,,,,stim/Instruction_adaptive.png,conditions/adaptive.xlsx,test,0.6,0.6,0.6,-0.6,-0.6,right,R,,,,,0,1,1,1,0,46,46,28,,,,,,,,,,,,,,,,,,,,,,,,,,,,,,,,,,,,,,,,,,,,279.1666867999593,None,right,1,1.9923532999819145,279.6669642999768,281.0864668999566,279.6669642999768,280.585814799997,279.6669642999768,280.585814799997,279.6669642999768,280.585814799997,279.6669642999768,280.585814799997,279.6669642999768,280.585814799997,280.55276939994656,281.0533296999638,280.55276939994656,281.0533296999638,280.55276939994656,281.0533296999638,280.55276939994656,281.0533296999638,280.55276939994656,281.0533296999638,280.55276939994656,281.0533296999638,280.55276939994656,281.0533296999638,280.55276939994656,281.0533296999638,279.6669642999768,None,281.0533296999638,282.65514799999073,0.9100000000000006,282.67163909994997,None,283.42275949998293,None,,,,,,,[[1.59]],2.910000000000002,0.6808510638297872,11005,002,2024_Jan_01_1902,MFTM_A_new1021,2021.2.3,59.97900734119663,
,,,,,,,,stim/Instruction_adaptive.png,conditions/adaptive.xlsx,test,-0.6,-0.6,-0.6,0.6,0.6,left,L,,,,,0,1,1,1,0,47,47,31,,,,,,,,,,,,,,,,,,,,,,,,,,,,,,,,,,,,,,,,,,,,283.92342899995856,None,left,1,1.2909972000052221,284.42487509996863,285.8099535999936,284.42487509996863,285.3096425999538,284.42487509996863,285.3096425999538,284.42487509996863,285.3096425999538,284.42487509996863,285.3096425999538,284.42487509996863,285.3096425999538,285.2928589999792,285.793192299956,285.2928589999792,285.793192299956,285.2928589999792,285.793192299956,285.2928589999792,285.793192299956,285.2928589999792,285.793192299956,285.2928589999792,285.793192299956,285.2928589999792,285.793192299956,285.2928589999792,285.793192299956,284.42487509996863,None,285.793192299956,287.41235559998313,0.8800000000000006,287.4285754999728,None,288.1797890999587,None,,,,,,,[[1.62]],2.9700000000000024,0.6875,11005,002,2024_Jan_01_1902,MFTM_A_new1021,2021.2.3,59.97900734119663,
,,,,,,,,stim/Instruction_adaptive.png,conditions/adaptive.xlsx,test,0.6,0.6,0.6,-0.6,-0.6,right,R,,,,,0,1,1,1,0,48,48,62,,,,,,,,,,,,,,,,,,,,,,,,,,,,,,,,,,,,,,,,,,,,288.68113260000246,None,left,0,1.7170591000467539,289.1822320999927,290.53368369996315,289.1822320999927,290.03257759998087,289.1822320999927,290.03257759998087,289.1822320999927,290.03257759998087,289.1822320999927,290.03257759998087,289.1822320999927,290.03257759998087,289.9991005999618,290.4997526999796,289.9991005999618,290.4997526999796,289.9991005999618,290.4997526999796,289.9991005999618,290.4997526999796,289.9991005999618,290.4997526999796,289.9991005999618,290.4997526999796,289.9991005999618,290.4997526999796,289.9991005999618,290.4997526999796,289.1822320999927,None,290.4997526999796,292.1689340999583,0.8400000000000005,292.1860229999875,None,292.93723469995894,None,,,,,,,[[1.66]],2.800000000000002,0.673469387755102,11005,002,2024_Jan_01_1902,MFTM_A_new1021,2021.2.3,59.97900734119663,
,,,,,,,,stim/Instruction_adaptive.png,conditions/adaptive.xlsx,test,0.6,0.6,0.6,-0.6,-0.6,right,R,,,,,0,1,1,1,0,49,49,46,,,,,,,,,,,,,,,,,,,,,,,,,,,,,,,,,,,,,,,,,,,,293.4379860999761,None,left,0,1.2239440000266768,293.93930159998126,295.3903362999554,293.93930159998126,294.89084059995366,293.93930159998126,294.89084059995366,293.93930159998126,294.89084059995366,293.93930159998126,294.89084059995366,293.93930159998126,294.89084059995366,294.85719019995304,295.3576513999724,294.85719019995304,295.3576513999724,294.85719019995304,295.3576513999724,294.85719019995304,295.3576513999724,294.85719019995304,295.3576513999724,294.85719019995304,295.3576513999724,294.85719019995304,295.3576513999724,294.85719019995304,295.3576513999724,293.93930159998126,None,295.3576513999724,296.9259680999676,0.9400000000000006,296.9424291999894,None,297.6942534999689,None,,,,,,,[[1.56]],2.620000000000002,0.66,11005,002,2024_Jan_01_1902,MFTM_A_new1021,2021.2.3,59.97900734119663,
,,,,,,,,stim/Instruction_adaptive.png,conditions/adaptive.xlsx,test,0.6,0.6,0.6,-0.6,-0.6,right,R,,,,,0,1,1,1,0,50,50,2,,,,,,,,,,,,,,,,,,,,,,,,,,,,,,,,,,,,,,,,,,,,298.1947167000035,None,right,1,1.2767807000200264,298.69521719997283,300.26430099998834,298.69521719997283,299.7800916999695,298.69521719997283,299.7800916999695,298.69521719997283,299.7800916999695,298.69521719997283,299.7800916999695,298.69521719997283,299.7800916999695,299.7468990999623,300.24826119997306,299.7468990999623,300.24826119997306,299.7468990999623,300.24826119997306,299.7468990999623,300.24826119997306,299.7468990999623,300.24826119997306,299.7468990999623,300.24826119997306,299.7468990999623,300.24826119997306,299.7468990999623,300.24826119997306,298.69521719997283,None,300.24826119997306,301.6830319999717,1.0700000000000007,301.6997273999732,None,302.4512344999821,None,,,,,,,[[1.43]],2.690000000000002,0.6666666666666666,11005,002,2024_Jan_01_1902,MFTM_A_new1021,2021.2.3,59.97900734119663,
,,,,,,,,stim/Instruction_adaptive.png,conditions/adaptive.xlsx,test,-0.6,-0.6,-0.6,0.6,0.6,left,L,,,,,0,1,1,1,0,51,51,45,,,,,,,,,,,,,,,,,,,,,,,,,,,,,,,,,,,,,,,,,,,,302.95180639997125,None,left,1,2.1432684999890625,303.45296470000176,304.97126239998033,303.45296470000176,304.4872436999576,303.45296470000176,304.4872436999576,303.45296470000176,304.4872436999576,303.45296470000176,304.4872436999576,303.45296470000176,304.4872436999576,304.45380999997724,304.9556144999806,304.45380999997724,304.9556144999806,304.45380999997724,304.9556144999806,304.45380999997724,304.9556144999806,304.45380999997724,304.9556144999806,304.45380999997724,304.9556144999806,304.45380999997724,304.9556144999806,304.45380999997724,304.9556144999806,303.45296470000176,None,304.9556144999806,306.44124129996635,1.0200000000000007,306.45657809998374,None,307.20789530000184,None,,,,,,,[[1.48]],2.7500000000000018,0.6730769230769231,11005,002,2024_Jan_01_1902,MFTM_A_new1021,2021.2.3,59.97900734119663,
,,,,,,,,stim/Instruction_adaptive.png,conditions/adaptive.xlsx,test,0.6,0.6,0.6,-0.6,-0.6,right,R,,,,,0,1,1,1,0,52,52,10,,,,,,,,,,,,,,,,,,,,,,,,,,,,,,,,,,,,,,,,,,,,307.70907529996475,None,right,1,1.3128800999838859,308.210479100002,309.69530249998206,308.210479100002,309.19417109998176,308.210479100002,309.19417109998176,308.210479100002,309.19417109998176,308.210479100002,309.19417109998176,308.210479100002,309.19417109998176,309.1773839999805,309.67857979994733,309.1773839999805,309.67857979994733,309.1773839999805,309.67857979994733,309.1773839999805,309.67857979994733,309.1773839999805,309.67857979994733,309.1773839999805,309.67857979994733,309.1773839999805,309.67857979994733,309.1773839999805,309.67857979994733,308.210479100002,None,309.67857979994733,311.19709289999446,0.9800000000000006,311.21462009998504,None,311.96558299998287,None,,,,,,,[[1.52]],2.8100000000000023,0.6792452830188679,11005,002,2024_Jan_01_1902,MFTM_A_new1021,2021.2.3,59.97900734119663,
,,,,,,,,stim/Instruction_adaptive.png,conditions/adaptive.xlsx,test,0.6,0.6,0.6,-0.6,-0.6,right,R,,,,,0,1,1,1,0,53,53,68,,,,,,,,,,,,,,,,,,,,,,,,,,,,,,,,,,,,,,,,,,,,312.46659989998443,None,left,0,2.1802401999593712,312.9669981999905,314.41913959995145,312.9669981999905,313.9187226999784,312.9669981999905,313.9187226999784,312.9669981999905,313.9187226999784,312.9669981999905,313.9187226999784,312.9669981999905,313.9187226999784,313.8849893999868,314.3852450999548,313.8849893999868,314.3852450999548,313.8849893999868,314.3852450999548,313.8849893999868,314.3852450999548,313.8849893999868,314.3852450999548,313.8849893999868,314.3852450999548,313.8849893999868,314.3852450999548,313.8849893999868,314.3852450999548,312.9669981999905,None,314.3852450999548,315.95411140000215,0.9400000000000006,315.9714696999872,None,316.7226644999464,None,,,,,,,[[1.56]],2.640000000000002,0.6666666666666666,11005,002,2024_Jan_01_1902,MFTM_A_new1021,2021.2.3,59.97900734119663,
,,,,,,,,stim/Instruction_adaptive.png,conditions/adaptive.xlsx,test,0.6,0.6,0.6,-0.6,-0.6,right,R,,,,,0,1,1,1,0,54,54,90,,,,,,,,,,,,,,,,,,,,,,,,,,,,,,,,,,,,,,,,,,,,317.2232965999865,None,right,1,1.1429833000293002,317.7242290999857,319.2930812999839,317.7242290999857,318.79178420000244,317.7242290999857,318.79178420000244,317.7242290999857,318.79178420000244,317.7242290999857,318.79178420000244,317.7242290999857,318.79178420000244,318.7590250999783,319.2601425999892,318.7590250999783,319.2601425999892,318.7590250999783,319.2601425999892,318.7590250999783,319.2601425999892,318.7590250999783,319.2601425999892,318.7590250999783,319.2601425999892,318.7590250999783,319.2601425999892,318.7590250999783,319.2601425999892,317.7242290999857,None,319.2601425999892,320.71113529999275,1.0600000000000007,320.72875299997395,None,321.4789587999694,None,,,,,,,[[1.44]],2.700000000000002,0.6727272727272727,11005,002,2024_Jan_01_1902,MFTM_A_new1021,2021.2.3,59.97900734119663,
,,,,,,,,stim/Instruction_adaptive.png,conditions/adaptive.xlsx,test,0.6,0.6,0.6,-0.6,-0.6,right,R,,,,,0,1,1,1,0,55,55,6,,,,,,,,,,,,,,,,,,,,,,,,,,,,,,,,,,,,,,,,,,,,321.9804317999515,None,right,1,1.4664076000335626,322.4811217999668,324.0002689999528,322.4811217999668,323.4986374999862,322.4811217999668,323.4986374999862,322.4811217999668,323.4986374999862,322.4811217999668,323.4986374999862,322.4811217999668,323.4986374999862,323.46588649996556,323.966139999975,323.46588649996556,323.966139999975,323.46588649996556,323.966139999975,323.46588649996556,323.966139999975,323.46588649996556,323.966139999975,323.46588649996556,323.966139999975,323.46588649996556,323.966139999975,323.46588649996556,323.966139999975,322.4811217999668,None,323.966139999975,325.46918399998685,1.0100000000000007,325.5033077999833,None,326.25351209996734,None,,,,,,,[[1.49]],2.760000000000002,0.6785714285714286,11005,002,2024_Jan_01_1902,MFTM_A_new1021,2021.2.3,59.97900734119663,
,,,,,,,,stim/Instruction_adaptive.png,conditions/adaptive.xlsx,test,-0.6,-0.6,-0.6,0.6,0.6,left,L,,,,,0,1,1,1,0,56,56,7,,,,,,,,,,,,,,,,,,,,,,,,,,,,,,,,,,,,,,,,,,,,326.7541786999791,None,left,1,1.300857000052929,327.2546885999618,328.723738199973,327.2546885999618,328.23894779995317,327.2546885999618,328.23894779995317,327.2546885999618,328.23894779995317,327.2546885999618,328.23894779995317,327.2546885999618,328.23894779995317,328.20579489995725,328.70706779998727,328.20579489995725,328.70706779998727,328.20579489995725,328.70706779998727,328.20579489995725,328.70706779998727,328.20579489995725,328.70706779998727,328.20579489995725,328.70706779998727,328.20579489995725,328.70706779998727,328.20579489995725,328.70706779998727,327.2546885999618,None,328.70706779998727,330.24195219995454,0.9700000000000006,330.259759699984,None,331.0098003000021,None,,,,,,,[[1.53]],2.8100000000000023,0.6842105263157895,11005,002,2024_Jan_01_1902,MFTM_A_new1021,2021.2.3,59.97900734119663,
,,,,,,,,stim/Instruction_adaptive.png,conditions/adaptive.xlsx,test,0.6,0.6,0.6,-0.6,-0.6,right,R,,,,,0,1,1,1,0,57,57,66,,,,,,,,,,,,,,,,,,,,,,,,,,,,,,,,,,,,,,,,,,,,331.51072019996354,None,right,1,1.2075903000077233,332.0119892999646,333.4639769999776,332.0119892999646,332.9633444999927,332.0119892999646,332.9633444999927,332.0119892999646,332.9633444999927,332.0119892999646,332.9633444999927,332.0119892999646,332.9633444999927,332.9296497000032,333.4307710999856,332.9296497000032,333.4307710999856,332.9296497000032,333.4307710999856,332.9296497000032,333.4307710999856,332.9296497000032,333.4307710999856,332.9296497000032,333.4307710999856,332.9296497000032,333.4307710999856,332.9296497000032,333.4307710999856,332.0119892999646,None,333.4307710999856,335.00049139995826,0.9400000000000006,335.0156549999956,None,335.76682329998584,None,,,,,,,[[1.56]],2.8500000000000023,0.6896551724137931,11005,002,2024_Jan_01_1902,MFTM_A_new1021,2021.2.3,59.97900734119663,
,,,,,,,,stim/Instruction_adaptive.png,conditions/adaptive.xlsx,test,0.6,0.6,0.6,-0.6,-0.6,right,R,,,,,0,1,1,1,0,58,58,36,,,,,,,,,,,,,,,,,,,,,,,,,,,,,,,,,,,,,,,,,,,,336.2685568999732,None,right,1,1.0818834999809042,336.76948319998337,338.18782099999953,336.76948319998337,337.686856299988,336.76948319998337,337.686856299988,336.76948319998337,337.686856299988,336.76948319998337,337.686856299988,336.76948319998337,337.686856299988,337.6703756999923,338.1703758999938,337.6703756999923,338.1703758999938,337.6703756999923,338.1703758999938,337.6703756999923,338.1703758999938,337.6703756999923,338.1703758999938,337.6703756999923,338.1703758999938,337.6703756999923,338.1703758999938,337.6703756999923,338.1703758999938,336.76948319998337,None,338.1703758999938,None,0.9100000000000006,339.77286329999333,None,340.52455919998465,None,,,,,,,[[1.59]],2.900000000000002,0.6949152542372882,11005,002,2024_Jan_01_1902,MFTM_A_new1021,2021.2.3,59.97900734119663,
,,,,,,,,stim/Instruction_adaptive.png,conditions/adaptive.xlsx,test,0.6,0.6,0.6,-0.6,-0.6,right,R,,,,,0,1,1,1,0,59,59,58,,,,,,,,,,,,,,,,,,,,,,,,,,,,,,,,,,,,,,,,,,,,341.0253383999807,None,right,1,1.2858414000365883,341.52590949996375,342.9107466999558,341.52590949996375,342.4100353999529,341.52590949996375,342.4100353999529,341.52590949996375,342.4100353999529,341.52590949996375,342.4100353999529,341.52590949996375,342.4100353999529,342.3933200999745,342.8939912999631,342.3933200999745,342.8939912999631,342.3933200999745,342.8939912999631,342.3933200999745,342.8939912999631,342.3933200999745,342.8939912999631,342.3933200999745,342.8939912999631,342.3933200999745,342.8939912999631,342.3933200999745,342.8939912999631,341.52590949996375,None,342.8939912999631,344.51333819999127,0.8800000000000006,344.5308429999859,None,345.2808773999568,None,,,,,,,[[1.62]],2.940000000000002,0.7,11005,002,2024_Jan_01_1902,MFTM_A_new1021,2021.2.3,59.97900734119663,
,,,,,,,,stim/Instruction_adaptive.png,conditions/adaptive.xlsx,test,-0.6,-0.6,-0.6,0.6,0.6,left,L,,,,,0,1,1,1,0,60,60,73,,,,,,,,,,,,,,,,,,,,,,,,,,,,,,,,,,,,,,,,,,,,345.7824462999706,None,right,0,1.6486860000295565,346.2830163000035,347.65129829995567,346.2830163000035,347.1503998999833,346.2830163000035,347.1503998999833,346.2830163000035,347.1503998999833,346.2830163000035,347.1503998999833,346.2830163000035,347.1503998999833,347.1345293999766,347.63508479995653,347.1345293999766,347.63508479995653,347.1345293999766,347.63508479995653,347.1345293999766,347.63508479995653,347.1345293999766,347.63508479995653,347.1345293999766,347.63508479995653,347.1345293999766,347.63508479995653,347.1345293999766,347.63508479995653,346.2830163000035,None,347.6183667999576,349.27080429997295,0.8600000000000005,349.28683959995396,None,350.03847430000314,None,,,,,,,[[1.64]],2.820000000000002,0.6885245901639344,11005,002,2024_Jan_01_1902,MFTM_A_new1021,2021.2.3,59.97900734119663,
,,,,,,,,stim/Instruction_adaptive.png,conditions/adaptive.xlsx,test,-0.6,-0.6,-0.6,0.6,0.6,left,L,,,,,0,1,1,1,0,61,61,23,,,,,,,,,,,,,,,,,,,,,,,,,,,,,,,,,,,,,,,,,,,,350.5392552999547,None,right,0,1.9556834999821149,351.03954440000234,352.4752714999486,351.03954440000234,351.97454379999544,351.03954440000234,351.97454379999544,351.03954440000234,351.97454379999544,351.03954440000234,351.97454379999544,351.03954440000234,351.97454379999544,351.9577638999908,352.45869989995845,351.9577638999908,352.45869989995845,351.9577638999908,352.45869989995845,351.9577638999908,352.45869989995845,351.9577638999908,352.45869989995845,351.9577638999908,352.45869989995845,351.9577638999908,352.45869989995845,351.9577638999908,352.45869989995845,351.03954440000234,None,352.45869989995845,None,0.9300000000000006,354.0443626999622,None,354.7962227999815,None,,,,,,,[[1.57]],2.680000000000002,0.6774193548387096,11005,002,2024_Jan_01_1902,MFTM_A_new1021,2021.2.3,59.97900734119663,
,,,,,,,,stim/Instruction_adaptive.png,conditions/adaptive.xlsx,test,0.6,0.6,0.6,-0.6,-0.6,right,R,,,,,0,1,1,1,0,62,62,4,,,,,,,,,,,,,,,,,,,,,,,,,,,,,,,,,,,,,,,,,,,,355.29590749996714,None,right,1,1.5346353000495583,355.79735479998635,357.33305879996624,355.79735479998635,356.83201789995655,355.79735479998635,356.83201789995655,355.79735479998635,356.83201789995655,355.79735479998635,356.83201789995655,355.79735479998635,356.83201789995655,356.8151651999797,357.3160018999479,356.8151651999797,357.3160018999479,356.8151651999797,357.3160018999479,356.8151651999797,357.3160018999479,356.8151651999797,357.3160018999479,356.8151651999797,357.3160018999479,356.8151651999797,357.3160018999479,356.8151651999797,357.3160018999479,355.79735479998635,None,357.3160018999479,358.7847931999713,1.0300000000000007,358.8010906999698,None,359.5528556999634,None,,,,,,,[[1.47]],2.730000000000002,0.6825396825396826,11005,002,2024_Jan_01_1902,MFTM_A_new1021,2021.2.3,59.97900734119663,
,,,,,,,,stim/Instruction_adaptive.png,conditions/adaptive.xlsx,test,-0.6,-0.6,-0.6,0.6,0.6,left,L,,,,,0,1,1,1,0,63,63,33,,,,,,,,,,,,,,,,,,,,,,,,,,,,,,,,,,,,,,,,,,,,360.0533249999862,None,left,1,1.3777730999863707,360.5535578999552,362.0562953999615,360.5535578999552,361.5554219999467,360.5535578999552,361.5554219999467,360.5535578999552,361.5554219999467,360.5535578999552,361.5554219999467,360.5535578999552,361.5554219999467,361.52220189996297,362.022444000002,361.52220189996297,362.022444000002,361.52220189996297,362.022444000002,361.52220189996297,362.022444000002,361.52220189996297,362.022444000002,361.52220189996297,362.022444000002,361.52220189996297,362.022444000002,361.52220189996297,362.022444000002,360.5535578999552,None,362.022444000002,363.54143199999817,0.9900000000000007,363.55887609999627,None,364.3097750999732,None,,,,,,,[[1.51]],2.780000000000002,0.6875,11005,002,2024_Jan_01_1902,MFTM_A_new1021,2021.2.3,59.97900734119663,
,,,,,,,,stim/Instruction_adaptive.png,conditions/adaptive.xlsx,test,0.6,0.6,0.6,-0.6,-0.6,right,R,,,,,0,1,1,1,0,64,64,80,,,,,,,,,,,,,,,,,,,,,,,,,,,,,,,,,,,,,,,,,,,,364.80998739995994,None,right,1,1.4925755999865942,365.3110503999633,366.7802589999628,365.3110503999633,366.27944449998904,365.3110503999633,366.27944449998904,365.3110503999633,366.27944449998904,365.3110503999633,366.27944449998904,365.3110503999633,366.27944449998904,366.2460191999562,366.7469184999936,366.2460191999562,366.7469184999936,366.2460191999562,366.7469184999936,366.2460191999562,366.7469184999936,366.2460191999562,366.7469184999936,366.2460191999562,366.7469184999936,366.2460191999562,366.7469184999936,366.2460191999562,366.7469184999936,365.3110503999633,None,366.7469184999936,368.29846909997286,0.9600000000000006,368.31556599994656,None,369.0667515999521,None,,,,,,,[[1.54]],2.820000000000002,0.6923076923076923,11005,002,2024_Jan_01_1902,MFTM_A_new1021,2021.2.3,59.97900734119663,
,,,,,,,,stim/Instruction_adaptive.png,conditions/adaptive.xlsx,test,-0.6,-0.6,-0.6,0.6,0.6,left,L,,,,,0,1,1,1,0,65,65,27,,,,,,,,,,,,,,,,,,,,,,,,,,,,,,,,,,,,,,,,,,,,369.56743199995253,None,left,1,1.2240181000088342,370.06765079998877,371.5042596999556,370.06765079998877,371.0021820999682,370.06765079998877,371.0021820999682,370.06765079998877,371.0021820999682,370.06765079998877,371.0021820999682,370.06765079998877,371.0021820999682,370.98562529997434,371.487374099961,370.98562529997434,371.487374099961,370.98562529997434,371.487374099961,370.98562529997434,371.487374099961,370.98562529997434,371.487374099961,370.98562529997434,371.487374099961,370.98562529997434,371.487374099961,370.98562529997434,371.487374099961,370.06765079998877,None,371.487374099961,None,0.9300000000000006,373.07295679999515,None,373.82327449996956,None,,,,,,,[[1.57]],2.860000000000002,0.696969696969697,11005,002,2024_Jan_01_1902,MFTM_A_new1021,2021.2.3,59.97900734119663,
,,,,,,,,stim/Instruction_adaptive.png,conditions/adaptive.xlsx,test,-0.6,-0.6,-0.6,0.6,0.6,left,L,,,,,0,1,1,1,0,66,66,63,,,,,,,,,,,,,,,,,,,,,,,,,,,,,,,,,,,,,,,,,,,,374.32439480000176,None,left,1,1.2106379000470042,374.8247017999529,376.243932399957,374.8247017999529,375.74277129996335,374.8247017999529,375.74277129996335,374.8247017999529,375.74277129996335,374.8247017999529,375.74277129996335,374.8247017999529,375.74277129996335,375.72615179995773,376.22697580000386,375.72615179995773,376.22697580000386,375.72615179995773,376.22697580000386,375.72615179995773,376.22697580000386,375.72615179995773,376.22697580000386,375.72615179995773,376.22697580000386,375.72615179995773,376.22697580000386,375.72615179995773,376.22697580000386,374.8247017999529,None,376.22697580000386,None,0.9100000000000006,377.8293318999931,None,378.5809880999732,None,,,,,,,[[1.59]],2.900000000000002,0.7014925373134329,11005,002,2024_Jan_01_1902,MFTM_A_new1021,2021.2.3,59.97900734119663,
,,,,,,,,stim/Instruction_adaptive.png,conditions/adaptive.xlsx,test,-0.6,-0.6,-0.6,0.6,0.6,left,L,,,,,0,1,1,1,0,67,67,95,,,,,,,,,,,,,,,,,,,,,,,,,,,,,,,,,,,,,,,,,,,,379.0816770999809,None,left,1,1.4379929000278935,379.58164719998604,380.96787279995624,379.58164719998604,380.46697499998845,379.58164719998604,380.46697499998845,379.58164719998604,380.46697499998845,379.58164719998604,380.46697499998845,379.58164719998604,380.46697499998845,380.4497146999929,380.9505210999632,380.4497146999929,380.9505210999632,380.4497146999929,380.9505210999632,380.4497146999929,380.9505210999632,380.4497146999929,380.9505210999632,380.4497146999929,380.9505210999632,380.4497146999929,380.9505210999632,380.4497146999929,380.9505210999632,379.58164719998604,None,380.9505210999632,None,0.8800000000000006,382.5867112999549,None,383.33794349996606,None,,,,,,,[[1.62]],2.9300000000000024,0.7058823529411765,11005,002,2024_Jan_01_1902,MFTM_A_new1021,2021.2.3,59.97900734119663,
,,,,,,,,stim/Instruction_adaptive.png,conditions/adaptive.xlsx,test,0.6,0.6,0.6,-0.6,-0.6,right,R,,,,,0,1,1,1,0,68,68,44,,,,,,,,,,,,,,,,,,,,,,,,,,,,,,,,,,,,,,,,,,,,383.8387857999769,None,right,1,1.153530099953059,384.3388928999775,385.7082154999953,384.3388928999775,385.20737159997225,384.3388928999775,385.20737159997225,384.3388928999775,385.20737159997225,384.3388928999775,385.20737159997225,384.3388928999775,385.20737159997225,385.19077119999565,385.69149850000395,385.19077119999565,385.69149850000395,385.19077119999565,385.69149850000395,385.19077119999565,385.69149850000395,385.19077119999565,385.69149850000395,385.19077119999565,385.69149850000395,385.19077119999565,385.69149850000395,385.19077119999565,385.69149850000395,384.3388928999775,None,385.69149850000395,None,0.8600000000000005,387.3432746999897,None,388.09484330000123,None,,,,,,,[[1.64]],2.9700000000000024,0.7101449275362319,11005,002,2024_Jan_01_1902,MFTM_A_new1021,2021.2.3,59.97900734119663,
,,,,,,,,stim/Instruction_adaptive.png,conditions/adaptive.xlsx,test,-0.6,-0.6,-0.6,0.6,0.6,left,L,,,,,0,1,1,1,0,69,69,51,,,,,,,,,,,,,,,,,,,,,,,,,,,,,,,,,,,,,,,,,,,,388.5957838000031,None,right,0,1.842394899984356,389.09696399996756,390.44790919998195,389.09696399996756,389.9472216999857,389.09696399996756,389.9472216999857,389.09696399996756,389.9472216999857,389.09696399996756,389.9472216999857,389.09696399996756,389.9472216999857,389.91371100000106,390.4144339999766,389.91371100000106,390.4144339999766,389.91371100000106,390.4144339999766,389.91371100000106,390.4144339999766,389.91371100000106,390.4144339999766,389.91371100000106,390.4144339999766,389.91371100000106,390.4144339999766,389.91371100000106,390.4144339999766,389.09696399996756,None,390.4144339999766,392.0836234999588,0.8400000000000005,392.1003323000041,None,392.85179489996517,None,,,,,,,[[1.66]],2.870000000000002,0.7,11005,002,2024_Jan_01_1902,MFTM_A_new1021,2021.2.3,59.97900734119663,
,,,,,,,,stim/Instruction_adaptive.png,conditions/adaptive.xlsx,test,-0.6,-0.6,-0.6,0.6,0.6,left,L,,,,,0,1,1,1,0,70,70,15,,,,,,,,,,,,,,,,,,,,,,,,,,,,,,,,,,,,,,,,,,,,393.3520772999618,None,left,1,1.0301361000165343,393.85343560000183,395.25534309999784,393.85343560000183,394.7550200999831,393.85343560000183,394.7550200999831,393.85343560000183,394.7550200999831,393.85343560000183,394.7550200999831,393.85343560000183,394.7550200999831,394.7382162999711,395.2391179999686,394.7382162999711,395.2391179999686,394.7382162999711,395.2391179999686,394.7382162999711,395.2391179999686,394.7382162999711,395.2391179999686,394.7382162999711,395.2391179999686,394.7382162999711,395.2391179999686,394.7382162999711,395.2391179999686,393.85343560000183,None,395.2391179999686,396.8406679999898,0.9000000000000006,396.858306399954,None,397.6093105999753,None,,,,,,,[[1.6]],2.900000000000002,0.704225352112676,11005,002,2024_Jan_01_1902,MFTM_A_new1021,2021.2.3,59.97900734119663,
,,,,,,,,stim/Instruction_adaptive.png,conditions/adaptive.xlsx,test,-0.6,-0.6,-0.6,0.6,0.6,left,L,,,,,0,1,1,1,0,71,71,75,,,,,,,,,,,,,,,,,,,,,,,,,,,,,,,,,,,,,,,,,,,,398.1101757999859,None,left,1,1.0649901000433601,398.610468400002,399.9953332999721,398.610468400002,399.49525479995646,398.610468400002,399.49525479995646,398.610468400002,399.49525479995646,398.610468400002,399.49525479995646,398.610468400002,399.49525479995646,399.4784322999767,399.9786494,399.4784322999767,399.9786494,399.4784322999767,399.9786494,399.4784322999767,399.9786494,399.4784322999767,399.9786494,399.4784322999767,399.9786494,399.4784322999767,399.9786494,399.4784322999767,399.9786494,398.610468400002,None,399.9786494,401.5977509999648,0.8800000000000006,401.61437450000085,None,402.36551370000234,None,,,,,,,[[1.62]],2.9300000000000024,0.7083333333333334,11005,002,2024_Jan_01_1902,MFTM_A_new1021,2021.2.3,59.97900734119663,
,,,,,,,,stim/Instruction_adaptive.png,conditions/adaptive.xlsx,test,0.6,0.6,0.6,-0.6,-0.6,right,R,,,,,0,1,1,1,0,72,72,14,,,,,,,,,,,,,,,,,,,,,,,,,,,,,,,,,,,,,,,,,,,,402.8669357000035,None,right,1,1.0124266999773681,403.367155999993,404.73618779995013,403.367155999993,404.23534689994995,403.367155999993,404.23534689994995,403.367155999993,404.23534689994995,403.367155999993,404.23534689994995,403.367155999993,404.23534689994995,404.21907999995165,404.7200591999572,404.21907999995165,404.7200591999572,404.21907999995165,404.7200591999572,404.21907999995165,404.7200591999572,404.21907999995165,404.7200591999572,404.21907999995165,404.7200591999572,404.21907999995165,404.7200591999572,404.21907999995165,404.7200591999572,403.367155999993,None,404.7023066999973,406.3553470999468,0.8600000000000005,406.3713937999564,None,407.1225096999551,None,,,,,,,[[1.64]],2.9700000000000024,0.7123287671232876,11005,002,2024_Jan_01_1902,MFTM_A_new1021,2021.2.3,59.97900734119663,
,,,,,,,,stim/Instruction_adaptive.png,conditions/adaptive.xlsx,test,0.6,0.6,0.6,-0.6,-0.6,right,R,,,,,0,1,1,1,0,73,73,72,,,,,,,,,,,,,,,,,,,,,,,,,,,,,,,,,,,,,,,,,,,,407.62401410000166,None,right,1,1.9826546999975108,408.1247633000021,409.4766631999519,408.1247633000021,408.97614499996416,408.1247633000021,408.97614499996416,408.1247633000021,408.97614499996416,408.1247633000021,408.97614499996416,408.1247633000021,408.97614499996416,408.9427730999887,409.44341690000147,408.9427730999887,409.44341690000147,408.9427730999887,409.44341690000147,408.9427730999887,409.44341690000147,408.9427730999887,409.44341690000147,408.9427730999887,409.44341690000147,408.9427730999887,409.44341690000147,408.9427730999887,409.44341690000147,408.1247633000021,None,409.44341690000147,411.11198409995995,0.8400000000000005,411.128663099953,None,411.88043729995843,None,,,,,,,[[1.66]],3.000000000000002,0.7162162162162162,11005,002,2024_Jan_01_1902,MFTM_A_new1021,2021.2.3,59.97900734119663,
,,,,,,,,stim/Instruction_adaptive.png,conditions/adaptive.xlsx,test,0.6,0.6,0.6,-0.6,-0.6,right,R,,,,,0,1,1,1,0,74,74,24,,,,,,,,,,,,,,,,,,,,,,,,,,,,,,,,,,,,,,,,,,,,412.3808039999567,None,right,1,0.9621848000097089,412.88152669998817,414.2171122999862,412.88152669998817,413.71675609995145,412.88152669998817,413.71675609995145,412.88152669998817,413.71675609995145,412.88152669998817,413.71675609995145,412.88152669998817,413.71675609995145,413.6830743000028,414.1831602999591,413.6830743000028,414.1831602999591,413.6830743000028,414.1831602999591,413.6830743000028,414.1831602999591,413.6830743000028,414.1831602999591,413.6830743000028,414.1831602999591,413.6830743000028,414.1831602999591,413.6830743000028,414.1831602999591,412.88152669998817,None,414.1831602999591,415.86973269999726,0.8200000000000005,415.885517799994,None,416.63747619994683,None,,,,,,,[[1.68]],3.030000000000002,0.72,11005,002,2024_Jan_01_1902,MFTM_A_new1021,2021.2.3,59.97900734119663,
,,,,,,,,stim/Instruction_adaptive.png,conditions/adaptive.xlsx,test,0.6,0.6,0.6,-0.6,-0.6,right,R,,,,,0,1,1,1,0,75,75,32,,,,,,,,,,,,,,,,,,,,,,,,,,,,,,,,,,,,,,,,,,,,417.137746399967,None,right,1,1.5179423000081442,417.6382076999871,418.9573973999941,417.6382076999871,418.45674709999,417.6382076999871,418.45674709999,417.6382076999871,418.45674709999,417.6382076999871,418.45674709999,417.6382076999871,418.45674709999,418.43950759997824,418.94063609995646,418.43950759997824,418.94063609995646,418.43950759997824,418.94063609995646,418.43950759997824,418.94063609995646,418.43950759997824,418.94063609995646,418.43950759997824,418.94063609995646,418.43950759997824,418.94063609995646,418.43950759997824,418.94063609995646,417.6382076999871,None,418.94063609995646,None,0.8100000000000005,420.66040679998696,None,421.410401000001,None,,,,,,,[[1.69]],3.0600000000000023,0.7236842105263158,11005,002,2024_Jan_01_1902,MFTM_A_new1021,2021.2.3,59.97900734119663,
,,,,,,,,stim/Instruction_adaptive.png,conditions/adaptive.xlsx,test,0.6,0.6,0.6,-0.6,-0.6,right,R,,,,,0,1,1,1,0,76,76,26,,,,,,,,,,,,,,,,,,,,,,,,,,,,,,,,,,,,,,,,,,,,421.9112407999928,None,right,1,1.0947153000161052,422.41263519995846,423.7145471999538,422.41263519995846,423.2139011999825,422.41263519995846,423.2139011999825,422.41263519995846,423.2139011999825,422.41263519995846,423.2139011999825,422.41263519995846,423.2139011999825,423.1801816999796,423.6810217999737,423.1801816999796,423.6810217999737,423.1801816999796,423.6810217999737,423.1801816999796,423.6810217999737,423.1801816999796,423.6810217999737,423.1801816999796,423.6810217999737,423.1801816999796,423.6810217999737,423.1801816999796,423.6810217999737,422.41263519995846,None,423.6810217999737,425.39963889995124,0.7900000000000005,425.41702299995814,None,426.1680977999931,None,,,,,,,[1.70467532],3.0800000000000023,0.7272727272727273,11005,002,2024_Jan_01_1902,MFTM_A_new1021,2021.2.3,59.97900734119663,
,,,,,,,,stim/Instruction_adaptive.png,conditions/adaptive.xlsx,test,0.6,0.6,0.6,-0.6,-0.6,right,R,,,,,0,1,1,1,0,77,77,52,,,,,,,,,,,,,,,,,,,,,,,,,,,,,,,,,,,,,,,,,,,,426.66836419998435,None,right,1,1.178386599989608,427.16927329998,428.4543127999641,427.16927329998,427.95430049998686,427.16927329998,427.95430049998686,427.16927329998,427.95430049998686,427.16927329998,427.95430049998686,427.16927329998,427.95430049998686,427.9369095999864,428.43799269996816,427.9369095999864,428.43799269996816,427.9369095999864,428.43799269996816,427.9369095999864,428.43799269996816,427.9369095999864,428.43799269996816,427.9369095999864,428.43799269996816,427.9369095999864,428.43799269996816,427.9369095999864,428.43799269996816,427.16927329998,None,428.43799269996816,None,0.7800000000000005,430.15683589997934,None,430.9084653999889,None,,,,,,,[1.70487179],3.110000000000002,0.7307692307692307,11005,002,2024_Jan_01_1902,MFTM_A_new1021,2021.2.3,59.97900734119663,
,,,,,,,,stim/Instruction_adaptive.png,conditions/adaptive.xlsx,test,-0.6,-0.6,-0.6,0.6,0.6,left,L,,,,,0,1,1,1,0,78,78,5,,,,,,,,,,,,,,,,,,,,,,,,,,,,,,,,,,,,,,,,,,,,431.40939539996907,None,left,1,1.406180000049062,431.9093909999938,433.1786183999502,431.9093909999938,432.6772090999875,431.9093909999938,432.6772090999875,431.9093909999938,432.6772090999875,431.9093909999938,432.6772090999875,431.9093909999938,432.6772090999875,432.6441955999471,433.14519139996264,432.6441955999471,433.14519139996264,432.6441955999471,433.14519139996264,432.6441955999471,433.14519139996264,432.6441955999471,433.14519139996264,432.6441955999471,433.14519139996264,432.6441955999471,433.14519139996264,432.6441955999471,433.14519139996264,431.9093909999938,None,433.14519139996264,434.8643211000017,0.7600000000000005,434.8810997999972,None,435.6316874999902,None,,,,,,,[1.70531646],3.1400000000000023,0.7341772151898734,11005,002,2024_Jan_01_1902,MFTM_A_new1021,2021.2.3,59.97900734119663,
,,,,,,,,stim/Instruction_adaptive.png,conditions/adaptive.xlsx,test,-0.6,-0.6,-0.6,0.6,0.6,left,L,,,,,0,1,1,1,0,79,79,89,,,,,,,,,,,,,,,,,,,,,,,,,,,,,,,,,,,,,,,,,,,,436.13222039997345,None,right,0,1.8031641999841668,436.6329829999595,437.8856359999627,436.6329829999595,437.38403769995784,436.6329829999595,437.38403769995784,436.6329829999595,437.38403769995784,436.6329829999595,437.38403769995784,436.6329829999595,437.38403769995784,437.36758789996384,437.86814279999817,437.36758789996384,437.86814279999817,437.36758789996384,437.86814279999817,437.36758789996384,437.86814279999817,437.36758789996384,437.86814279999817,437.36758789996384,437.86814279999817,437.36758789996384,437.86814279999817,437.36758789996384,437.86814279999817,436.6329829999595,None,437.86814279999817,None,0.7500000000000004,439.6051701999968,None,440.3556391999591,None,,,,,,,[1.705875],3.0600000000000023,0.725,11005,002,2024_Jan_01_1902,MFTM_A_new1021,2021.2.3,59.97900734119663,
,,,,,,,,stim/Instruction_adaptive.png,conditions/adaptive.xlsx,test,-0.6,-0.6,-0.6,0.6,0.6,left,L,,,,,0,1,1,1,0,80,80,99,,,,,,,,,,,,,,,,,,,,,,,,,,,,,,,,,,,,,,,,,,,,440.8567858999595,None,left,1,2.342501599981915,441.35722769994754,442.6592019999516,441.35722769994754,442.15992019994883,441.35722769994754,442.15992019994883,441.35722769994754,442.15992019994883,441.35722769994754,442.15992019994883,441.35722769994754,442.15992019994883,442.12453669996466,442.6252786999685,442.12453669996466,442.6252786999685,442.12453669996466,442.6252786999685,442.12453669996466,442.6252786999685,442.12453669996466,442.6252786999685,442.12453669996466,442.6252786999685,442.12453669996466,442.6252786999685,442.12453669996466,442.6252786999685,441.35722769994754,None,442.6252786999685,444.344349699968,0.7900000000000005,444.3610237999819,None,445.11292019998655,None,,,,,,,[1.70592593],3.0900000000000025,0.7283950617283951,11005,002,2024_Jan_01_1902,MFTM_A_new1021,2021.2.3,59.97900734119663,
,,,,,,,,stim/Instruction_adaptive.png,conditions/adaptive.xlsx,test,0.6,0.6,0.6,-0.6,-0.6,right,R,,,,,0,1,1,1,0,81,81,82,,,,,,,,,,,,,,,,,,,,,,,,,,,,,,,,,,,,,,,,,,,,445.613353099965,None,right,1,1.0977434000233188,446.11377659998834,447.3828385999659,446.11377659998834,446.8988956999965,446.11377659998834,446.8988956999965,446.11377659998834,446.8988956999965,446.11377659998834,446.8988956999965,446.11377659998834,446.8988956999965,446.8652721999679,447.3661502999603,446.8652721999679,447.3661502999603,446.8652721999679,447.3661502999603,446.8652721999679,447.3661502999603,446.8652721999679,447.3661502999603,446.8652721999679,447.3661502999603,446.8652721999679,447.3661502999603,446.8652721999679,447.3661502999603,446.11377659998834,None,447.3661502999603,449.08544549997896,0.7700000000000005,449.10139959998196,None,449.85308879998047,None,,,,,,,[1.70621951],3.110000000000002,0.7317073170731707,11005,002,2024_Jan_01_1902,MFTM_A_new1021,2021.2.3,59.97900734119663,
,,,,,,,,stim/Instruction_adaptive.png,conditions/adaptive.xlsx,test,0.6,0.6,0.6,-0.6,-0.6,right,R,,,,,0,1,1,1,0,82,82,18,,,,,,,,,,,,,,,,,,,,,,,,,,,,,,,,,,,,,,,,,,,,450.35447919997387,None,right,1,1.428816600004211,450.8547590999515,452.1226039999747,450.8547590999515,451.62206799996784,450.8547590999515,451.62206799996784,450.8547590999515,451.62206799996784,450.8547590999515,451.62206799996784,450.8547590999515,451.62206799996784,451.6058254999807,452.1058859999757,451.6058254999807,452.1058859999757,451.6058254999807,452.1058859999757,451.6058254999807,452.1058859999757,451.6058254999807,452.1058859999757,451.6058254999807,452.1058859999757,451.6058254999807,452.1058859999757,451.6058254999807,452.1058859999757,450.8547590999515,None,452.08922649995657,453.8085414999514,0.7600000000000005,453.8252665999462,None,454.576993900002,None,,,,,,,[1.70662651],3.1400000000000023,0.7349397590361446,11005,002,2024_Jan_01_1902,MFTM_A_new1021,2021.2.3,59.97900734119663,
,,,,,,,,stim/Instruction_adaptive.png,conditions/adaptive.xlsx,test,-0.6,-0.6,-0.6,0.6,0.6,left,L,,,,,0,1,1,1,0,83,83,85,,,,,,,,,,,,,,,,,,,,,,,,,,,,,,,,,,,,,,,,,,,,455.07731199997943,None,left,1,1.168976599990856,455.57841570000164,456.83001749997493,455.57841570000164,456.32966899999883,455.57841570000164,456.32966899999883,455.57841570000164,456.32966899999883,455.57841570000164,456.32966899999883,455.57841570000164,456.32966899999883,456.3121905999724,456.8128354999935,456.3121905999724,456.8128354999935,456.3121905999724,456.8128354999935,456.3121905999724,456.8128354999935,456.3121905999724,456.8128354999935,456.3121905999724,456.8128354999935,456.3121905999724,456.8128354999935,456.3121905999724,456.8128354999935,455.57841570000164,None,456.8128354999935,458.53389479999896,0.7500000000000004,458.5490014999523,None,459.3004616999533,None,,,,,,,[1.70714286],3.1600000000000024,0.7380952380952381,11005,002,2024_Jan_01_1902,MFTM_A_new1021,2021.2.3,59.97900734119663,
,,,,,,,,stim/Instruction_adaptive.png,conditions/adaptive.xlsx,test,-0.6,-0.6,-0.6,0.6,0.6,left,L,,,,,0,1,1,1,0,84,84,35,,,,,,,,,,,,,,,,,,,,,,,,,,,,,,,,,,,,,,,,,,,,459.80130419996567,None,left,1,1.342223500018008,460.30142529995646,461.55407469999045,460.30142529995646,461.0524517999729,460.30142529995646,461.0524517999729,460.30142529995646,461.0524517999729,460.30142529995646,461.0524517999729,460.30142529995646,461.0524517999729,461.0197743999888,461.520409299992,461.0197743999888,461.520409299992,461.0197743999888,461.520409299992,461.0197743999888,461.520409299992,461.0197743999888,461.520409299992,461.0197743999888,461.520409299992,461.0197743999888,461.520409299992,461.0197743999888,461.520409299992,460.30142529995646,None,461.520409299992,463.2396703999839,0.7400000000000004,463.25570679997327,None,464.00680099998135,None,,,,,,,[1.70776471],3.190000000000002,0.7411764705882353,11005,002,2024_Jan_01_1902,MFTM_A_new1021,2021.2.3,59.97900734119663,
,,,,,,,,stim/Instruction_adaptive.png,conditions/adaptive.xlsx,test,0.6,0.6,0.6,-0.6,-0.6,right,R,,,,,0,1,1,1,0,85,85,42,,,,,,,,,,,,,,,,,,,,,,,,,,,,,,,,,,,,,,,,,,,,464.5087632999639,None,right,1,1.203534500033129,465.00848429999314,466.22681149997516,465.00848429999314,465.74290219997056,465.00848429999314,465.74290219997056,465.00848429999314,465.74290219997056,465.00848429999314,465.74290219997056,465.00848429999314,465.74290219997056,465.71017799997935,466.2108663999825,465.71017799997935,466.2108663999825,465.71017799997935,466.2108663999825,465.71017799997935,466.2108663999825,465.71017799997935,466.2108663999825,465.71017799997935,466.2108663999825,465.71017799997935,466.2108663999825,465.71017799997935,466.2108663999825,465.00848429999314,None,466.2108663999825,467.92943199997535,0.7200000000000004,467.94662179995794,None,468.69756790000247,None,,,,,,,[1.70860465],3.2100000000000026,0.7441860465116279,11005,002,2024_Jan_01_1902,MFTM_A_new1021,2021.2.3,59.97900734119663,
,,,,,,,,stim/Instruction_adaptive.png,conditions/adaptive.xlsx,test,-0.6,-0.6,-0.6,0.6,0.6,left,L,,,,,0,1,1,1,0,86,86,29,,,,,,,,,,,,,,,,,,,,,,,,,,,,,,,,,,,,,,,,,,,,469.19799869996496,None,left,1,1.865046799997799,469.698700799956,470.9172946999897,469.698700799956,470.416996999993,469.698700799956,470.416996999993,469.698700799956,470.416996999993,469.698700799956,470.416996999993,469.698700799956,470.416996999993,470.4006337999599,470.90057259995956,470.4006337999599,470.90057259995956,470.4006337999599,470.90057259995956,470.4006337999599,470.90057259995956,470.4006337999599,470.90057259995956,470.4006337999599,470.90057259995956,470.4006337999599,470.90057259995956,470.4006337999599,470.90057259995956,469.698700799956,None,470.90057259995956,None,0.7100000000000004,472.6197351999581,None,473.3720012999838,None,,,,,,,[1.70954023],3.230000000000002,0.7471264367816092,11005,002,2024_Jan_01_1902,MFTM_A_new1021,2021.2.3,59.97900734119663,
,,,,,,,,stim/Instruction_adaptive.png,conditions/adaptive.xlsx,test,0.6,0.6,0.6,-0.6,-0.6,right,R,,,,,0,1,1,1,0,87,87,38,,,,,,,,,,,,,,,,,,,,,,,,,,,,,,,,,,,,,,,,,,,,473.87230190000264,None,right,1,1.382554900017567,474.37302729999647,475.57487630000105,474.37302729999647,475.0739689999609,474.37302729999647,475.0739689999609,474.37302729999647,475.0739689999609,474.37302729999647,475.0739689999609,474.37302729999647,475.0739689999609,475.05674239998916,475.5588412999641,475.05674239998916,475.5588412999641,475.05674239998916,475.5588412999641,475.05674239998916,475.5588412999641,475.05674239998916,475.5588412999641,475.05674239998916,475.5588412999641,475.05674239998916,475.5588412999641,475.05674239998916,475.5588412999641,474.37302729999647,None,475.5588412999641,477.27663159999065,0.7000000000000004,477.29395279998425,None,478.0451549999998,None,,,,,,,[1.71056818],3.2500000000000027,0.75,11005,002,2024_Jan_01_1902,MFTM_A_new1021,2021.2.3,59.97900734119663,
,,,,,,,,stim/Instruction_adaptive.png,conditions/adaptive.xlsx,test,0.6,0.6,0.6,-0.6,-0.6,right,R,,,,,0,1,1,1,0,88,88,88,,,,,,,,,,,,,,,,,,,,,,,,,,,,,,,,,,,,,,,,,,,,478.5454260999686,None,right,1,1.5729935999843292,479.0469127999968,480.2477697999566,479.0469127999968,479.7469089999795,479.0469127999968,479.7469089999795,479.0469127999968,479.7469089999795,479.0469127999968,479.7469089999795,479.0469127999968,479.7469089999795,479.7141290999716,480.21442649996607,479.7141290999716,480.21442649996607,479.7141290999716,480.21442649996607,479.7141290999716,480.21442649996607,479.7141290999716,480.21442649996607,479.7141290999716,480.21442649996607,479.7141290999716,480.21442649996607,479.7141290999716,480.21442649996607,479.0469127999968,None,480.21442649996607,481.93453479994787,0.6900000000000004,481.9501542999642,None,482.7013420999865,None,,,,,,,[1.71168539],3.2700000000000022,0.7528089887640449,11005,002,2024_Jan_01_1902,MFTM_A_new1021,2021.2.3,59.97900734119663,
,,,,,,,,stim/Instruction_adaptive.png,conditions/adaptive.xlsx,test,0.6,0.6,0.6,-0.6,-0.6,right,R,,,,,0,1,1,1,0,89,89,8,,,,,,,,,,,,,,,,,,,,,,,,,,,,,,,,,,,,,,,,,,,,483.20265140000265,None,left,0,1.7093554000020958,483.7033829999855,484.89047429995844,483.7033829999855,484.38728389999596,483.7033829999855,484.38728389999596,483.7033829999855,484.38728389999596,483.7033829999855,484.38728389999596,483.7033829999855,484.38728389999596,484.37036739999894,484.87105139996856,484.37036739999894,484.87105139996856,484.37036739999894,484.87105139996856,484.37036739999894,484.87105139996856,484.37036739999894,484.87105139996856,484.37036739999894,484.87105139996856,484.37036739999894,484.87105139996856,484.37036739999894,484.87105139996856,483.7033829999855,None,484.87105139996856,486.5903575999546,0.6800000000000004,486.6067105999682,None,487.35864319995744,None,,,,,,,[1.71288889],3.2100000000000026,0.7444444444444445,11005,002,2024_Jan_01_1902,MFTM_A_new1021,2021.2.3,59.97900734119663,
,,,,,,,,stim/Instruction_adaptive.png,conditions/adaptive.xlsx,test,-0.6,-0.6,-0.6,0.6,0.6,left,L,,,,,0,1,1,1,0,90,90,21,,,,,,,,,,,,,,,,,,,,,,,,,,,,,,,,,,,,,,,,,,,,487.85962499998277,None,right,0,1.5640720999799669,488.3595873999875,489.5786654999829,488.3595873999875,489.0783778000041,488.3595873999875,489.0783778000041,488.3595873999875,489.0783778000041,488.3595873999875,489.0783778000041,488.3595873999875,489.0783778000041,489.0615338999778,489.56218969996553,489.0615338999778,489.56218969996553,489.0615338999778,489.56218969996553,489.0615338999778,489.56218969996553,489.0615338999778,489.56218969996553,489.0615338999778,489.56218969996553,489.0615338999778,489.56218969996553,489.0615338999778,489.56218969996553,488.3595873999875,None,489.56218969996553,491.2807608000003,0.7100000000000004,491.2972933999845,None,492.0497683999711,None,,,,,,,[1.71373626],3.150000000000002,0.7362637362637363,11005,002,2024_Jan_01_1902,MFTM_A_new1021,2021.2.3,59.97900734119663,
,,,,,,,,stim/Instruction_adaptive.png,conditions/adaptive.xlsx,test,-0.6,-0.6,-0.6,0.6,0.6,left,L,,,,,0,1,1,1,0,91,91,57,,,,,,,,,,,,,,,,,,,,,,,,,,,,,,,,,,,,,,,,,,,,492.5497939999914,None,right,0,1.9051163999829441,493.0504295999999,494.30233059998136,493.0504295999999,493.8014373999904,493.0504295999999,493.8014373999904,493.0504295999999,493.8014373999904,493.0504295999999,493.8014373999904,493.0504295999999,493.8014373999904,493.76815959997475,494.2691333999974,493.76815959997475,494.2691333999974,493.76815959997475,494.2691333999974,493.76815959997475,494.2691333999974,493.76815959997475,494.2691333999974,493.76815959997475,494.2691333999974,493.76815959997475,494.2691333999974,493.76815959997475,494.2691333999974,493.0504295999999,None,494.2691333999974,495.9881044999929,0.7400000000000004,496.00433589995373,None,496.7554789999849,None,,,,,,,[1.71423913],3.0800000000000023,0.7282608695652174,11005,002,2024_Jan_01_1902,MFTM_A_new1021,2021.2.3,59.97900734119663,
,,,,,,,,stim/Instruction_adaptive.png,conditions/adaptive.xlsx,test,-0.6,-0.6,-0.6,0.6,0.6,left,L,,,,,0,1,1,1,0,92,92,47,,,,,,,,,,,,,,,,,,,,,,,,,,,,,,,,,,,,,,,,,,,,497.25617509998847,None,left,1,1.4067123000277206,497.75719609996304,499.04437009996036,497.75719609996304,498.542113399948,497.75719609996304,498.542113399948,497.75719609996304,498.542113399948,497.75719609996304,498.542113399948,497.75719609996304,498.542113399948,498.5254087999929,499.02542719995836,498.5254087999929,499.02542719995836,498.5254087999929,499.02542719995836,498.5254087999929,499.02542719995836,498.5254087999929,499.02542719995836,498.5254087999929,499.02542719995836,498.5254087999929,499.02542719995836,498.5254087999929,499.02542719995836,497.75719609996304,None,499.02542719995836,500.7449684999883,0.7800000000000005,500.7618508999585,None,501.51318509998964,None,,,,,,,[1.71430108],3.1000000000000023,0.7311827956989247,11005,002,2024_Jan_01_1902,MFTM_A_new1021,2021.2.3,59.97900734119663,
,,,,,,,,stim/Instruction_adaptive.png,conditions/adaptive.xlsx,test,-0.6,-0.6,-0.6,0.6,0.6,left,L,,,,,0,1,1,1,0,93,93,17,,,,,,,,,,,,,,,,,,,,,,,,,,,,,,,,,,,,,,,,,,,,502.01406709995354,None,left,1,1.4806003000121564,502.51513789995806,503.8002875999664,502.51513789995806,503.29917469999054,502.51513789995806,503.29917469999054,502.51513789995806,503.29917469999054,502.51513789995806,503.29917469999054,502.51513789995806,503.29917469999054,503.26505980000366,503.76666439999826,503.26505980000366,503.76666439999826,503.26505980000366,503.76666439999826,503.26505980000366,503.76666439999826,503.26505980000366,503.76666439999826,503.26505980000366,503.76666439999826,503.26505980000366,503.76666439999826,503.26505980000366,503.76666439999826,502.51513789995806,None,503.76666439999826,505.48565809999127,0.7700000000000005,505.50218529999256,None,506.2533439999679,None,,,,,,,[1.71446809],3.1300000000000026,0.7340425531914894,11005,002,2024_Jan_01_1902,MFTM_A_new1021,2021.2.3,59.97900734119663,
