arrwidth1,arrwidth2,arrwidth3,arrwidth4,arrwidth5,keyb,type,orientation,instruction_image,block_filename,block_type,arrow11,arrow22,arrow33,arrow44,arrow55,keyb_3,orientation3,trials.thisRepN,trials.thisTrialN,trials.thisN,trials.thisIndex,trials_3.thisRepN,trials_3.thisTrialN,trials_3.thisN,trials_3.thisIndex,trials_2.thisRepN,trials_2.thisTrialN,trials_2.thisN,trials_2.thisIndex,welcome.started,welcome.stopped,key_resp.keys,key_resp.rt,key_resp.started,key_resp.stopped,instruction_example.started,instruction_example.stopped,key_resp_3.keys,key_resp_3.rt,key_resp_3.started,key_resp_3.stopped,instruction_task.started,instruction_task.stopped,key_resp_2.keys,key_resp_2.rt,key_resp_2.started,key_resp_2.stopped,text_2.started,text_2.stopped,A1.started,A1.stopped,A2.started,A2.stopped,A3.started,A3.stopped,A4.started,A4.stopped,A5.started,A5.stopped,key_resp_4.keys,key_resp_4.corr,key_resp_4.rt,key_resp_4.started,key_resp_4.stopped,fb.started,fb.stopped,instruction_block.started,instruction_block.stopped,key_resp_8.keys,key_resp_8.rt,key_resp_8.started,key_resp_8.stopped,text_8.started,text_8.stopped,key_resp_9.keys,key_resp_9.corr,key_resp_9.rt,text_5.started,text_5.stopped,A11_3.started,A11_3.stopped,A22_2.started,A22_2.stopped,A33_2.started,A33_2.stopped,A44_2.started,A44_2.stopped,A55_2.started,A55_2.stopped,M1_3.started,M1_3.stopped,M2_2.started,M2_2.stopped,M3_2.started,M3_2.stopped,M4_2.started,M4_2.stopped,M5_2.started,M5_2.stopped,M6_2.started,M6_2.stopped,M7_2.started,M7_2.stopped,M8_2.started,M8_2.stopped,key_resp_9.started,key_resp_9.stopped,fixation.started,fixation.stopped,ET,fb_3.started,fb_3.stopped,text_9.started,text_9.stopped,fb_4.started,fb_4.stopped,text_7.started,text_7.stopped,endtext.started,endtext.stopped,fixation_ITI,CCC,Acc,participant,session,date,expName,psychopyVersion,frameRate,
,,,,,,,,,,,,,,,,,,,,,,,,,,,,,,16.6148111000075,None,space,1.8460351999965496,16.6148111000075,None,,,,,,,,,,,,,,,,,,,,,,,,,,,,,,,,,,,,,,,,,,,,,,,,,,,,,,,,,,,,,,,,,,,,,,,,,,,,,,,,,,,,,,,,,11013,002,2024_Jan_02_2005,MFTM_A_new1021,2021.2.3,60.05886969787561,
,,,,,,,,,,,,,,,,,,,,,,,,,,,,,,,,,,,,18.483940300007816,None,space,3.4167207999853417,18.483940300007816,None,,,,,,,,,,,,,,,,,,,,,,,,,,,,,,,,,,,,,,,,,,,,,,,,,,,,,,,,,,,,,,,,,,,,,,,,,,,,,,,,,,,11013,002,2024_Jan_02_2005,MFTM_A_new1021,2021.2.3,60.05886969787561,
,,,,,,,,,,,,,,,,,,,,,,,,,,,,,,,,,,,,,,,,,,21.92271949996939,None,space,1.898346500005573,21.92271949996939,None,,,,,,,,,,,,,,,,,,,,,,,,,,,,,,,,,,,,,,,,,,,,,,,,,,,,,,,,,,,,,,,,,,,,,,,,,,,,,11013,002,2024_Jan_02_2005,MFTM_A_new1021,2021.2.3,60.05886969787561,
0.6,0.6,0.6,-0.6,-0.6,right,3:2,R,,,,,,,,,,,0,0,0,0,,,,,,,,,,,,,,,,,,,,,,,,,,,23.858882199972868,None,23.858882199972868,None,23.858882199972868,None,23.858882199972868,None,23.858882199972868,None,23.858882199972868,None,right,1,2.06596559996251,23.858882199972868,None,25.9449049999821,None,,,,,,,,,,,,,,,,,,,,,,,,,,,,,,,,,,,,,,,,,,,,,,,,,,,,,,,,,,11013,002,2024_Jan_02_2005,MFTM_A_new1021,2021.2.3,60.05886969787561,
-0.6,-0.6,-0.6,0.6,0.6,left,3:2,L,,,,,,,,,,,0,1,1,1,,,,,,,,,,,,,,,,,,,,,,,,,,,26.69633160001831,None,26.69633160001831,None,26.69633160001831,None,26.69633160001831,None,26.69633160001831,None,26.69633160001831,None,left,1,2.0848247000249103,26.69633160001831,None,28.799302299972624,None,,,,,,,,,,,,,,,,,,,,,,,,,,,,,,,,,,,,,,,,,,,,,,,,,,,,,,,,,,11013,002,2024_Jan_02_2005,MFTM_A_new1021,2021.2.3,60.05886969787561,
-0.6,-0.6,-0.6,0.6,0.6,left,3:2,L,,,,,,,,,,,1,0,2,1,,,,,,,,,,,,,,,,,,,,,,,,,,,29.550430900009815,None,29.550430900009815,None,29.550430900009815,None,29.550430900009815,None,29.550430900009815,None,29.550430900009815,None,left,1,1.9424955999711528,29.550430900009815,None,31.519907500012778,None,,,,,,,,,,,,,,,,,,,,,,,,,,,,,,,,,,,,,,,,,,,,,,,,,,,,,,,,,,11013,002,2024_Jan_02_2005,MFTM_A_new1021,2021.2.3,60.05886969787561,
0.6,0.6,0.6,-0.6,-0.6,right,3:2,R,,,,,,,,,,,1,1,3,0,,,,,,,,,,,,,,,,,,,,,,,,,,,32.27125689998502,None,32.27125689998502,None,32.27125689998502,None,32.27125689998502,None,32.27125689998502,None,32.27125689998502,None,right,1,1.5416512999800034,32.27125689998502,None,33.8403506000177,None,,,,,,,,,,,,,,,,,,,,,,,,,,,,,,,,,,,,,,,,,,,,,,,,,,,,,,,,,,11013,002,2024_Jan_02_2005,MFTM_A_new1021,2021.2.3,60.05886969787561,
,,,,,,,,stim/Instruction_mask.png,conditions/adaptive.xlsx,practice,0.6,0.6,0.6,-0.6,-0.6,right,R,,,,,0,0,0,0,0,0,0,86,,,,,,,,,,,,,,,,,,,,,,,,,,,,,,,,,,,,,,34.82508849998703,None,space,1.4195529000135139,34.82508849998703,None,36.34389379998902,None,right,1,3.0343275000341237,36.77834660001099,None,36.77834660001099,39.7822981000063,36.77834660001099,39.7822981000063,36.77834660001099,39.7822981000063,36.77834660001099,39.7822981000063,36.77834660001099,39.7822981000063,39.765575999976136,40.26652190001914,39.765575999976136,40.26652190001914,39.765575999976136,40.26652190001914,39.765575999976136,40.26652190001914,39.765575999976136,40.26652190001914,39.765575999976136,40.26652190001914,39.765575999976136,40.26652190001914,39.765575999976136,40.26652190001914,36.77834660001099,None,40.26652190001914,40.26652190001914,3,40.283186799963005,None,41.034102500008885,None,,,,,,,,,,11013,002,2024_Jan_02_2005,MFTM_A_new1021,2021.2.3,60.05886969787561,
,,,,,,,,stim/Instruction_mask.png,conditions/adaptive.xlsx,practice,0.6,0.6,0.6,-0.6,-0.6,right,R,,,,,0,0,0,0,0,1,1,34,,,,,,,,,,,,,,,,,,,,,,,,,,,,,,,,,,,,,,,,,,,,41.535398399981204,None,right,1,1.6813301999936812,42.03584049997153,44.03882059996249,42.03584049997153,43.538351299997885,42.03584049997153,43.538351299997885,42.03584049997153,43.538351299997885,42.03584049997153,43.538351299997885,42.03584049997153,43.538351299997885,43.521273499995004,44.0222171000205,43.521273499995004,44.0222171000205,43.521273499995004,44.0222171000205,43.521273499995004,44.0222171000205,43.521273499995004,44.0222171000205,43.521273499995004,44.0222171000205,43.521273499995004,44.0222171000205,43.521273499995004,44.0222171000205,42.03584049997153,None,44.0222171000205,45.52419899997767,1.5,45.540887099981774,None,46.292400799982715,None,,,,,,,,,,11013,002,2024_Jan_02_2005,MFTM_A_new1021,2021.2.3,60.05886969787561,
,,,,,,,,stim/Instruction_mask.png,conditions/adaptive.xlsx,practice,0.6,0.6,0.6,-0.6,-0.6,right,R,,,,,0,0,0,0,0,2,2,92,,,,,,,,,,,,,,,,,,,,,,,,,,,,,,,,,,,,,,,,,,,,46.7927984999842,None,right,1,1.9914053999818861,47.29344969999511,48.59569270000793,47.29344969999511,48.094603699981235,47.29344969999511,48.094603699981235,47.29344969999511,48.094603699981235,47.29344969999511,48.094603699981235,47.29344969999511,48.094603699981235,48.07798980001826,48.57877520000329,48.07798980001826,48.57877520000329,48.07798980001826,48.57877520000329,48.07798980001826,48.57877520000329,48.07798980001826,48.57877520000329,48.07798980001826,48.57877520000329,48.07798980001826,48.57877520000329,48.07798980001826,48.57877520000329,47.29344969999511,None,48.57877520000329,50.7822593000019,0.8,50.7986094999942,None,51.54975459998241,None,,,,,,,,,,11013,002,2024_Jan_02_2005,MFTM_A_new1021,2021.2.3,60.05886969787561,
,,,,,,,,stim/Instruction_mask.png,conditions/adaptive.xlsx,practice,-0.6,-0.6,-0.6,0.6,0.6,left,L,,,,,0,0,0,0,0,3,3,81,,,,,,,,,,,,,,,,,,,,,,,,,,,,,,,,,,,,,,,,,,,,52.05102959997021,None,left,1,1.709497400035616,52.551471999962814,53.30250910000177,52.551471999962814,52.80152839998482,52.551471999962814,52.80152839998482,52.551471999962814,52.80152839998482,52.551471999962814,52.80152839998482,52.551471999962814,52.80152839998482,52.784838899970055,53.285786299966276,52.784838899970055,53.285786299966276,52.784838899970055,53.285786299966276,52.784838899970055,53.285786299966276,52.784838899970055,53.285786299966276,52.784838899970055,53.285786299966276,52.784838899970055,53.285786299966276,52.784838899970055,53.285786299966276,52.551471999962814,None,53.285786299966276,56.039879799995106,3,56.056626999983564,None,56.80758949997835,None,,,,,,,,,,11013,002,2024_Jan_02_2005,MFTM_A_new1021,2021.2.3,60.05886969787561,
,,,,,,,,stim/Instruction_mask.png,conditions/adaptive.xlsx,practice,,,,,,,,,,,,0,0,0,0,,,,,,,,,,,,,,,,,,,,,,,,,,,,,,,,,,,,,,,,,,,,,,,,,,,,,,,,,,,,,,,,,,,,,,,,,,,,,,,,,,,,,,,,,,57.32554459996754,58.326427299994975,58.31107310001971,58.31107310001971,58.31107310001971,None,,,,11013,002,2024_Jan_02_2005,MFTM_A_new1021,2021.2.3,60.05886969787561,
,,,,,,,,stim/Instruction_adaptive.png,conditions/adaptive.xlsx,test,0.6,0.6,0.6,-0.6,-0.6,right,R,,,,,0,1,1,1,0,0,0,56,,,,,,,,,,,,,,,,,,,,,,,,,,,,,,,,,,,,,,61.48124170000665,None,space,0.763754399958998,61.48124170000665,None,62.28250079997815,None,right,1,2.221379099995829,62.78322219999973,None,62.78322219999973,65.78766839997843,62.78322219999973,65.78766839997843,62.78322219999973,65.78766839997843,62.78322219999973,65.78766839997843,62.78322219999973,65.78766839997843,65.77104769996367,66.27197760000126,65.77104769996367,66.27197760000126,65.77104769996367,66.27197760000126,65.77104769996367,66.27197760000126,65.77104769996367,66.27197760000126,65.77104769996367,66.27197760000126,65.77104769996367,66.27197760000126,65.77104769996367,66.27197760000126,62.78322219999973,None,66.25493250001455,66.25493250001455,3,66.28839130001143,None,67.03946890000952,None,,,,,,,0,6.000000000000005,1.0,11013,002,2024_Jan_02_2005,MFTM_A_new1021,2021.2.3,60.05886969787561,
,,,,,,,,stim/Instruction_adaptive.png,conditions/adaptive.xlsx,test,0.6,0.6,0.6,-0.6,-0.6,right,R,,,,,0,1,1,1,0,1,1,26,,,,,,,,,,,,,,,,,,,,,,,,,,,,,,,,,,,,,,,,,,,,67.54018880001968,None,None,0,0,68.04078709997702,68.79199649998918,68.04078709997702,68.29132059996482,68.04078709997702,68.29132059996482,68.04078709997702,68.29132059996482,68.04078709997702,68.29132059996482,68.04078709997702,68.29132059996482,68.27463469997747,68.77527949999785,68.27463469997747,68.77527949999785,68.27463469997747,68.77527949999785,68.27463469997747,68.77527949999785,68.27463469997747,68.77527949999785,68.27463469997747,68.77527949999785,68.27463469997747,68.77527949999785,68.27463469997747,68.77527949999785,68.04078709997702,None,68.77527949999785,71.52968039998086,0.25,71.54585100000259,None,72.29720570001518,None,,,,,,,[[2.75]],2.570000000000002,0.5,11013,002,2024_Jan_02_2005,MFTM_A_new1021,2021.2.3,60.05886969787561,
,,,,,,,,stim/Instruction_adaptive.png,conditions/adaptive.xlsx,test,0.6,0.6,0.6,-0.6,-0.6,right,R,,,,,0,1,1,1,0,2,2,38,,,,,,,,,,,,,,,,,,,,,,,,,,,,,,,,,,,,,,,,,,,,72.79791610001121,None,right,1,1.9140172000043094,73.29879550001351,74.91840719996253,73.29879550001351,74.41716399998404,73.29879550001351,74.41716399998404,73.29879550001351,74.41716399998404,73.29879550001351,74.41716399998404,73.29879550001351,74.41716399998404,74.38408579997486,74.88447649998125,74.38408579997486,74.88447649998125,74.38408579997486,74.88447649998125,74.38408579997486,74.88447649998125,74.38408579997486,74.88447649998125,74.38408579997486,74.88447649998125,74.38408579997486,74.88447649998125,74.38408579997486,74.88447649998125,73.29879550001351,None,74.88447649998125,75.93667199998163,1.1100000000000008,75.9697223000112,None,76.72052350000013,None,,,,,,,[1.04666667],3.3800000000000026,0.6666666666666666,11013,002,2024_Jan_02_2005,MFTM_A_new1021,2021.2.3,60.05886969787561,
,,,,,,,,stim/Instruction_adaptive.png,conditions/adaptive.xlsx,test,0.6,0.6,0.6,-0.6,-0.6,right,R,,,,,0,1,1,1,0,3,3,88,,,,,,,,,,,,,,,,,,,,,,,,,,,,,,,,,,,,,,,,,,,,77.22126129997196,None,left,0,2.1390870999894105,77.7217714000144,78.85693979996722,77.7217714000144,78.35629369999515,77.7217714000144,78.35629369999515,77.7217714000144,78.35629369999515,77.7217714000144,78.35629369999515,77.7217714000144,78.35629369999515,78.33954209997319,78.84016740001971,78.33954209997319,78.84016740001971,78.33954209997319,78.84016740001971,78.33954209997319,78.84016740001971,78.33954209997319,78.84016740001971,78.33954209997319,78.84016740001971,78.33954209997319,78.84016740001971,78.33954209997319,78.84016740001971,77.7217714000144,None,78.84016740001971,80.09294599998975,0.6300000000000003,80.10864310001489,None,80.85996019997401,None,,,,,,,[1.2525],2.1700000000000017,0.5,11013,002,2024_Jan_02_2005,MFTM_A_new1021,2021.2.3,60.05886969787561,
,,,,,,,,stim/Instruction_adaptive.png,conditions/adaptive.xlsx,test,-0.6,-0.6,-0.6,0.6,0.6,left,L,,,,,0,1,1,1,0,4,4,25,,,,,,,,,,,,,,,,,,,,,,,,,,,,,,,,,,,,,,,,,,,,81.36077640001895,None,left,1,1.7113550000358373,81.86143719998654,83.83289259998128,81.86143719998654,83.33083350001834,81.86143719998654,83.33083350001834,81.86143719998654,83.33083350001834,81.86143719998654,83.33083350001834,81.86143719998654,83.33083350001834,83.2970467999694,83.79849989997456,83.2970467999694,83.79849989997456,83.2970467999694,83.79849989997456,83.2970467999694,83.79849989997456,83.2970467999694,83.79849989997456,83.2970467999694,83.79849989997456,83.2970467999694,83.79849989997456,83.2970467999694,83.79849989997456,81.86143719998654,None,83.79849989997456,84.84929649997503,1.460000000000001,84.86593829997582,None,85.61700809997274,None,,,,,,,[[1.04]],2.690000000000002,0.6,11013,002,2024_Jan_02_2005,MFTM_A_new1021,2021.2.3,60.05886969787561,
,,,,,,,,stim/Instruction_adaptive.png,conditions/adaptive.xlsx,test,0.6,0.6,0.6,-0.6,-0.6,right,R,,,,,0,1,1,1,0,5,5,74,,,,,,,,,,,,,,,,,,,,,,,,,,,,,,,,,,,,,,,,,,,,86.1178425999824,None,right,1,1.0425087000476196,86.61849959997926,88.13754700002028,86.61849959997926,87.6542265000171,86.61849959997926,87.6542265000171,86.61849959997926,87.6542265000171,86.61849959997926,87.6542265000171,86.61849959997926,87.6542265000171,87.62061430001631,88.1215393000166,87.62061430001631,88.1215393000166,87.62061430001631,88.1215393000166,87.62061430001631,88.1215393000166,87.62061430001631,88.1215393000166,87.62061430001631,88.1215393000166,87.62061430001631,88.1215393000166,87.62061430001631,88.1215393000166,86.61849959997926,None,88.1215393000166,89.3896007000003,1.0200000000000007,89.40596609999193,None,90.15772710001329,None,,,,,,,[1.255],3.0400000000000023,0.6666666666666666,11013,002,2024_Jan_02_2005,MFTM_A_new1021,2021.2.3,60.05886969787561,
,,,,,,,,stim/Instruction_adaptive.png,conditions/adaptive.xlsx,test,0.6,0.6,0.6,-0.6,-0.6,right,R,,,,,0,1,1,1,0,6,6,10,,,,,,,,,,,,,,,,,,,,,,,,,,,,,,,,,,,,,,,,,,,,90.65814519999549,None,right,1,1.6222035000100732,91.15853439999046,92.46112859999994,91.15853439999046,91.9598074000096,91.15853439999046,91.9598074000096,91.15853439999046,91.9598074000096,91.15853439999046,91.9598074000096,91.15853439999046,91.9598074000096,91.9431498000049,92.443758599984,91.9431498000049,92.443758599984,91.9431498000049,92.443758599984,91.9431498000049,92.443758599984,91.9431498000049,92.443758599984,91.9431498000049,92.443758599984,91.9431498000049,92.443758599984,91.9431498000049,92.443758599984,91.15853439999046,None,92.443758599984,93.76300470001297,0.8000000000000005,93.77960100001656,None,94.53088410000782,None,,,,,,,[1.31857143],3.3200000000000025,0.7142857142857143,11013,002,2024_Jan_02_2005,MFTM_A_new1021,2021.2.3,60.05886969787561,
,,,,,,,,stim/Instruction_adaptive.png,conditions/adaptive.xlsx,test,-0.6,-0.6,-0.6,0.6,0.6,left,L,,,,,0,1,1,1,0,7,7,91,,,,,,,,,,,,,,,,,,,,,,,,,,,,,,,,,,,,,,,,,,,,95.03146079997532,None,None,0,0,95.53155109996442,96.70024929998908,95.53155109996442,96.19941609998932,95.53155109996442,96.19941609998932,95.53155109996442,96.19941609998932,95.53155109996442,96.19941609998932,95.53155109996442,96.19941609998932,96.1833305999753,96.68471329996828,96.1833305999753,96.68471329996828,96.1833305999753,96.68471329996828,96.1833305999753,96.68471329996828,96.1833305999753,96.68471329996828,96.1833305999753,96.68471329996828,96.1833305999753,96.68471329996828,96.1833305999753,96.68471329996828,95.53155109996442,None,96.68471329996828,None,0.6600000000000004,99.0366459999932,None,99.78872840001713,None,,,,,,,[[2.34]],2.700000000000002,0.625,11013,002,2024_Jan_02_2005,MFTM_A_new1021,2021.2.3,60.05886969787561,
,,,,,,,,stim/Instruction_adaptive.png,conditions/adaptive.xlsx,test,0.6,0.6,0.6,-0.6,-0.6,right,R,,,,,0,1,1,1,0,8,8,44,,,,,,,,,,,,,,,,,,,,,,,,,,,,,,,,,,,,,,,,,,,,100.28900579997571,None,right,1,1.6553052000235766,100.78952649998246,102.3094997999724,100.78952649998246,101.80777760001365,100.78952649998246,101.80777760001365,100.78952649998246,101.80777760001365,100.78952649998246,101.80777760001365,100.78952649998246,101.80777760001365,101.77521859999979,102.27576140000019,101.77521859999979,102.27576140000019,101.77521859999979,102.27576140000019,101.77521859999979,102.27576140000019,101.77521859999979,102.27576140000019,101.77521859999979,102.27576140000019,101.77521859999979,102.27576140000019,101.77521859999979,102.27576140000019,100.78952649998246,None,102.27576140000019,103.67723259999184,1.0100000000000007,103.71049480000511,None,104.46174329996575,None,,,,,,,[1.39555556],2.940000000000002,0.6666666666666666,11013,002,2024_Jan_02_2005,MFTM_A_new1021,2021.2.3,60.05886969787561,
,,,,,,,,stim/Instruction_adaptive.png,conditions/adaptive.xlsx,test,-0.6,-0.6,-0.6,0.6,0.6,left,L,,,,,0,1,1,1,0,9,9,87,,,,,,,,,,,,,,,,,,,,,,,,,,,,,,,,,,,,,,,,,,,,104.96262840001145,None,left,1,0.8536439000163227,105.4631601999863,106.83291070000269,105.4631601999863,106.33103240001947,105.4631601999863,106.33103240001947,105.4631601999863,106.33103240001947,105.4631601999863,106.33103240001947,105.4631601999863,106.33103240001947,106.2982835000148,106.79890250001336,106.2982835000148,106.79890250001336,106.2982835000148,106.79890250001336,106.2982835000148,106.79890250001336,106.2982835000148,106.79890250001336,106.2982835000148,106.79890250001336,106.2982835000148,106.79890250001336,106.2982835000148,106.79890250001336,105.4631601999863,None,106.79890250001336,108.2182455000002,0.8600000000000005,108.2505339999916,None,109.00290710001718,None,,,,,,,[1.42],3.1400000000000023,0.7,11013,002,2024_Jan_02_2005,MFTM_A_new1021,2021.2.3,60.05886969787561,
,,,,,,,,stim/Instruction_adaptive.png,conditions/adaptive.xlsx,test,0.6,0.6,0.6,-0.6,-0.6,right,R,,,,,0,1,1,1,0,10,10,80,,,,,,,,,,,,,,,,,,,,,,,,,,,,,,,,,,,,,,,,,,,,109.50362999999197,None,left,0,2.0413599999737926,110.00361909996718,111.25501809996786,110.00361909996718,110.7554061000119,110.00361909996718,110.7554061000119,110.00361909996718,110.7554061000119,110.00361909996718,110.7554061000119,110.00361909996718,110.7554061000119,110.7375223999843,111.23851220001234,110.7375223999843,111.23851220001234,110.7375223999843,111.23851220001234,110.7375223999843,111.23851220001234,110.7375223999843,111.23851220001234,110.7375223999843,111.23851220001234,110.7375223999843,111.23851220001234,110.7375223999843,111.23851220001234,110.00361909996718,None,111.23851220001234,112.69047259999206,0.7500000000000004,112.70777749997796,None,113.46023620001506,None,,,,,,,[1.45],2.650000000000002,0.6363636363636364,11013,002,2024_Jan_02_2005,MFTM_A_new1021,2021.2.3,60.05886969787561,
,,,,,,,,stim/Instruction_adaptive.png,conditions/adaptive.xlsx,test,-0.6,-0.6,-0.6,0.6,0.6,left,L,,,,,0,1,1,1,0,11,11,81,,,,,,,,,,,,,,,,,,,,,,,,,,,,,,,,,,,,,,,,,,,,113.95983780000824,None,left,1,1.0320786000229418,114.460887299967,116.01262409996707,114.460887299967,115.51112380000995,114.460887299967,115.51112380000995,114.460887299967,115.51112380000995,114.460887299967,115.51112380000995,114.460887299967,115.51112380000995,115.49471960001392,115.99595070001669,115.49471960001392,115.99595070001669,115.49471960001392,115.99595070001669,115.49471960001392,115.99595070001669,115.49471960001392,115.99595070001669,115.49471960001392,115.99595070001669,115.49471960001392,115.99595070001669,115.49471960001392,115.99595070001669,114.460887299967,None,115.99595070001669,117.44801499997266,1.0500000000000007,117.46427389996825,None,118.21596489998046,None,,,,,,,[[1.45]],2.840000000000002,0.6666666666666666,11013,002,2024_Jan_02_2005,MFTM_A_new1021,2021.2.3,60.05886969787561,
,,,,,,,,stim/Instruction_adaptive.png,conditions/adaptive.xlsx,test,0.6,0.6,0.6,-0.6,-0.6,right,R,,,,,0,1,1,1,0,12,12,86,,,,,,,,,,,,,,,,,,,,,,,,,,,,,,,,,,,,,,,,,,,,118.7168832999887,None,right,1,0.8517986999941058,119.21743169997353,120.6522337999777,119.21743169997353,120.15153390000341,119.21743169997353,120.15153390000341,119.21743169997353,120.15153390000341,119.21743169997353,120.15153390000341,119.21743169997353,120.15153390000341,120.11813299998175,120.61962389998371,120.11813299998175,120.61962389998371,120.11813299998175,120.61962389998371,120.11813299998175,120.61962389998371,120.11813299998175,120.61962389998371,120.11813299998175,120.61962389998371,120.11813299998175,120.61962389998371,120.11813299998175,120.61962389998371,119.21743169997353,None,120.61962389998371,122.08783299999777,0.9200000000000006,122.10445649997564,None,122.85658469999908,None,,,,,,,[1.46],3.000000000000002,0.6923076923076923,11013,002,2024_Jan_02_2005,MFTM_A_new1021,2021.2.3,60.05886969787561,
,,,,,,,,stim/Instruction_adaptive.png,conditions/adaptive.xlsx,test,-0.6,-0.6,-0.6,0.6,0.6,left,L,,,,,0,1,1,1,0,13,13,59,,,,,,,,,,,,,,,,,,,,,,,,,,,,,,,,,,,,,,,,,,,,123.35609869996551,None,left,1,1.2364379999926314,123.85705380002037,125.19235229998594,123.85705380002037,124.69233190000523,123.85705380002037,124.69233190000523,123.85705380002037,124.69233190000523,123.85705380002037,124.69233190000523,123.85705380002037,124.69233190000523,124.6583074000082,125.15895379998256,124.6583074000082,125.15895379998256,124.6583074000082,125.15895379998256,124.6583074000082,125.15895379998256,124.6583074000082,125.15895379998256,124.6583074000082,125.15895379998256,124.6583074000082,125.15895379998256,124.6583074000082,125.15895379998256,123.85705380002037,None,125.15895379998256,126.64453109999886,0.8200000000000005,126.66218779998599,None,127.41278349998174,None,,,,,,,[1.47571429],3.1400000000000023,0.7142857142857143,11013,002,2024_Jan_02_2005,MFTM_A_new1021,2021.2.3,60.05886969787561,
,,,,,,,,stim/Instruction_adaptive.png,conditions/adaptive.xlsx,test,-0.6,-0.6,-0.6,0.6,0.6,left,L,,,,,0,1,1,1,0,14,14,17,,,,,,,,,,,,,,,,,,,,,,,,,,,,,,,,,,,,,,,,,,,,127.91351169999689,None,left,1,1.974917700048536,128.41411830001744,129.66652059997432,128.41411830001744,129.1649030999979,128.41411830001744,129.1649030999979,128.41411830001744,129.1649030999979,128.41411830001744,129.1649030999979,128.41411830001744,129.1649030999979,129.14825159998145,129.64978659996996,129.14825159998145,129.64978659996996,129.14825159998145,129.64978659996996,129.14825159998145,129.64978659996996,129.14825159998145,129.64978659996996,129.14825159998145,129.64978659996996,129.14825159998145,129.64978659996996,129.14825159998145,129.64978659996996,128.41411830001744,None,129.64978659996996,131.15113179996843,0.7500000000000004,131.16784090001602,None,131.91972489998443,None,,,,,,,[1.494],3.2600000000000025,0.7333333333333333,11013,002,2024_Jan_02_2005,MFTM_A_new1021,2021.2.3,60.05886969787561,
,,,,,,,,stim/Instruction_adaptive.png,conditions/adaptive.xlsx,test,0.6,0.6,0.6,-0.6,-0.6,right,R,,,,,0,1,1,1,0,15,15,50,,,,,,,,,,,,,,,,,,,,,,,,,,,,,,,,,,,,,,,,,,,,132.42042500001844,None,right,1,1.2853405000059865,132.92049739998765,134.12287939997623,132.92049739998765,133.62217980000423,132.92049739998765,133.62217980000423,132.92049739998765,133.62217980000423,132.92049739998765,133.62217980000423,132.92049739998765,133.62217980000423,133.58813220000593,134.0888871999923,133.58813220000593,134.0888871999923,133.58813220000593,134.0888871999923,133.58813220000593,134.0888871999923,133.58813220000593,134.0888871999923,133.58813220000593,134.0888871999923,133.58813220000593,134.0888871999923,133.58813220000593,134.0888871999923,132.92049739998765,None,134.0888871999923,135.60766579996562,0.6900000000000004,135.6244716999936,None,136.37572449998697,None,,,,,,,[1.51375],3.3700000000000028,0.75,11013,002,2024_Jan_02_2005,MFTM_A_new1021,2021.2.3,60.05886969787561,
,,,,,,,,stim/Instruction_adaptive.png,conditions/adaptive.xlsx,test,-0.6,-0.6,-0.6,0.6,0.6,left,L,,,,,0,1,1,1,0,16,16,73,,,,,,,,,,,,,,,,,,,,,,,,,,,,,,,,,,,,,,,,,,,,136.87787019996904,None,left,1,1.8437698000343516,137.3772376999841,138.52986810001312,137.3772376999841,138.02807369997026,137.3772376999841,138.02807369997026,137.3772376999841,138.02807369997026,137.3772376999841,138.02807369997026,137.3772376999841,138.02807369997026,137.9947630999959,138.49541079998016,137.9947630999959,138.49541079998016,137.9947630999959,138.49541079998016,137.9947630999959,138.49541079998016,137.9947630999959,138.49541079998016,137.9947630999959,138.49541079998016,137.9947630999959,138.49541079998016,137.9947630999959,138.49541079998016,137.3772376999841,None,138.49541079998016,140.03185789997224,0.6400000000000003,140.06481359997997,None,140.81557619996602,None,,,,,,,[1.53411765],3.4700000000000024,0.7647058823529411,11013,002,2024_Jan_02_2005,MFTM_A_new1021,2021.2.3,60.05886969787561,
,,,,,,,,stim/Instruction_adaptive.png,conditions/adaptive.xlsx,test,-0.6,-0.6,-0.6,0.6,0.6,left,L,,,,,0,1,1,1,0,17,17,57,,,,,,,,,,,,,,,,,,,,,,,,,,,,,,,,,,,,,,,,,,,,141.31704409996746,None,left,1,0.8986896999995224,141.81825189996744,142.91871100000571,141.81825189996744,142.41806130000623,141.81825189996744,142.41806130000623,141.81825189996744,142.41806130000623,141.81825189996744,142.41806130000623,141.81825189996744,142.41806130000623,142.38452389999293,142.88538769999286,142.38452389999293,142.88538769999286,142.38452389999293,142.88538769999286,142.38452389999293,142.88538769999286,142.38452389999293,142.88538769999286,142.38452389999293,142.88538769999286,142.38452389999293,142.88538769999286,142.38452389999293,142.88538769999286,141.81825189996744,None,142.88538769999286,144.45521479996387,0.5900000000000003,144.47093040001346,None,145.22211339999922,None,,,,,,,[1.555],3.5600000000000027,0.7777777777777778,11013,002,2024_Jan_02_2005,MFTM_A_new1021,2021.2.3,60.05886969787561,
,,,,,,,,stim/Instruction_adaptive.png,conditions/adaptive.xlsx,test,-0.6,-0.6,-0.6,0.6,0.6,left,L,,,,,0,1,1,1,0,18,18,21,,,,,,,,,,,,,,,,,,,,,,,,,,,,,,,,,,,,,,,,,,,,145.723484200018,None,left,1,1.293454099970404,146.2234714999795,147.29238389997045,146.2234714999795,146.7909961999976,146.2234714999795,146.7909961999976,146.2234714999795,146.7909961999976,146.2234714999795,146.7909961999976,146.2234714999795,146.7909961999976,146.7743072999874,147.27600209997036,146.7743072999874,147.27600209997036,146.7743072999874,147.27600209997036,146.7743072999874,147.27600209997036,146.7743072999874,147.27600209997036,146.7743072999874,147.27600209997036,146.7743072999874,147.27600209997036,146.7743072999874,147.27600209997036,146.2234714999795,None,147.27600209997036,None,0.5600000000000003,148.86088399996515,None,149.61221469996963,None,,,,,,,[1.57526316],3.640000000000003,0.7894736842105263,11013,002,2024_Jan_02_2005,MFTM_A_new1021,2021.2.3,60.05886969787561,
,,,,,,,,stim/Instruction_adaptive.png,conditions/adaptive.xlsx,test,0.6,0.6,0.6,-0.6,-0.6,right,R,,,,,0,1,1,1,0,19,19,28,,,,,,,,,,,,,,,,,,,,,,,,,,,,,,,,,,,,,,,,,,,,150.11265809996985,None,right,1,2.2160665999981575,150.61326800001552,151.64912810001988,150.61326800001552,151.1481137999799,150.61326800001552,151.1481137999799,150.61326800001552,151.1481137999799,150.61326800001552,151.1481137999799,150.61326800001552,151.1481137999799,151.13087920000544,151.63220529997488,151.13087920000544,151.63220529997488,151.13087920000544,151.63220529997488,151.13087920000544,151.63220529997488,151.13087920000544,151.63220529997488,151.13087920000544,151.63220529997488,151.13087920000544,151.63220529997488,151.13087920000544,151.63220529997488,150.61326800001552,None,151.63220529997488,153.23482379998313,0.5300000000000002,153.25033830001485,None,154.00206219998654,None,,,,,,,[1.595],3.720000000000003,0.8,11013,002,2024_Jan_02_2005,MFTM_A_new1021,2021.2.3,60.05886969787561,
,,,,,,,,stim/Instruction_adaptive.png,conditions/adaptive.xlsx,test,0.6,0.6,0.6,-0.6,-0.6,right,R,,,,,0,1,1,1,0,20,20,54,,,,,,,,,,,,,,,,,,,,,,,,,,,,,,,,,,,,,,,,,,,,154.50247359997593,None,right,1,1.018090600031428,155.0031002999749,156.0048950999626,155.0031002999749,155.5037967999815,155.0031002999749,155.5037967999815,155.0031002999749,155.5037967999815,155.0031002999749,155.5037967999815,155.0031002999749,155.5037967999815,155.48726460000034,155.9887193000177,155.48726460000034,155.9887193000177,155.48726460000034,155.9887193000177,155.48726460000034,155.9887193000177,155.48726460000034,155.9887193000177,155.48726460000034,155.9887193000177,155.48726460000034,155.9887193000177,155.48726460000034,155.9887193000177,155.0031002999749,None,155.9887193000177,157.6071440000087,0.5000000000000002,157.6237218999886,None,158.37485620001098,None,,,,,,,[1.61428571],3.7900000000000027,0.8095238095238095,11013,002,2024_Jan_02_2005,MFTM_A_new1021,2021.2.3,60.05886969787561,
,,,,,,,,stim/Instruction_adaptive.png,conditions/adaptive.xlsx,test,0.6,0.6,0.6,-0.6,-0.6,right,R,,,,,0,1,1,1,0,21,21,14,,,,,,,,,,,,,,,,,,,,,,,,,,,,,,,,,,,,,,,,,,,,158.87570879998384,None,left,0,2.0288593000150286,159.37635639996734,160.36144110001624,159.37635639996734,159.86056250002002,159.37635639996734,159.86056250002002,159.37635639996734,159.86056250002002,159.37635639996734,159.86056250002002,159.37635639996734,159.86056250002002,159.84417649998795,160.34450329997344,159.84417649998795,160.34450329997344,159.84417649998795,160.34450329997344,159.84417649998795,160.34450329997344,159.84417649998795,160.34450329997344,159.84417649998795,160.34450329997344,159.84417649998795,160.34450329997344,159.84417649998795,160.34450329997344,159.37635639996734,None,160.34450329997344,161.98133579996647,0.4800000000000002,161.99633739999263,None,162.74790730001405,None,,,,,,,[1.63272727],3.5900000000000025,0.7727272727272727,11013,002,2024_Jan_02_2005,MFTM_A_new1021,2021.2.3,60.05886969787561,
,,,,,,,,stim/Instruction_adaptive.png,conditions/adaptive.xlsx,test,-0.6,-0.6,-0.6,0.6,0.6,left,L,,,,,0,1,1,1,0,22,22,65,,,,,,,,,,,,,,,,,,,,,,,,,,,,,,,,,,,,,,,,,,,,163.24982859997544,None,left,1,1.3754305000184104,163.7497003999888,164.80116480001016,163.7497003999888,164.30018760001985,163.7497003999888,164.30018760001985,163.7497003999888,164.30018760001985,163.7497003999888,164.30018760001985,163.7497003999888,164.30018760001985,164.28436059999513,164.7842889999738,164.28436059999513,164.7842889999738,164.28436059999513,164.7842889999738,164.28436059999513,164.7842889999738,164.28436059999513,164.7842889999738,164.28436059999513,164.7842889999738,164.28436059999513,164.7842889999738,164.28436059999513,164.7842889999738,163.7497003999888,None,164.7842889999738,166.43694689997938,0.5500000000000003,166.45346709998557,None,167.2051053000032,None,,,,,,,[1.64652174],3.660000000000003,0.782608695652174,11013,002,2024_Jan_02_2005,MFTM_A_new1021,2021.2.3,60.05886969787561,
,,,,,,,,stim/Instruction_adaptive.png,conditions/adaptive.xlsx,test,0.6,0.6,0.6,-0.6,-0.6,right,R,,,,,0,1,1,1,0,23,23,68,,,,,,,,,,,,,,,,,,,,,,,,,,,,,,,,,,,,,,,,,,,,167.7053862999892,None,left,0,2.846803100022953,168.2062084999634,169.24099929997465,168.2062084999634,168.74017730000196,168.2062084999634,168.74017730000196,168.2062084999634,168.74017730000196,168.2062084999634,168.74017730000196,168.2062084999634,168.74017730000196,168.7067970999633,169.2080579000176,168.7067970999633,169.2080579000176,168.7067970999633,169.2080579000176,168.7067970999633,169.2080579000176,168.7067970999633,169.2080579000176,168.7067970999633,169.2080579000176,168.7067970999633,169.2080579000176,168.7067970999633,169.2080579000176,168.2062084999634,None,169.2080579000176,171.07760199997574,0.5200000000000002,171.0935168999713,None,171.84475509996992,None,,,,,,,[1.66041667],3.4600000000000026,0.75,11013,002,2024_Jan_02_2005,MFTM_A_new1021,2021.2.3,60.05886969787561,
,,,,,,,,stim/Instruction_adaptive.png,conditions/adaptive.xlsx,test,-0.6,-0.6,-0.6,0.6,0.6,left,L,,,,,0,1,1,1,0,24,24,75,,,,,,,,,,,,,,,,,,,,,,,,,,,,,,,,,,,,,,,,,,,,172.34664120001253,None,left,1,2.8385017000255175,172.84625800000504,173.948757199978,172.84625800000504,173.44717960001435,172.84625800000504,173.44717960001435,172.84625800000504,173.44717960001435,172.84625800000504,173.44717960001435,172.84625800000504,173.44717960001435,173.43052340002032,173.93198489997303,173.43052340002032,173.93198489997303,173.43052340002032,173.93198489997303,173.43052340002032,173.93198489997303,173.43052340002032,173.93198489997303,173.43052340002032,173.93198489997303,173.43052340002032,173.93198489997303,173.43052340002032,173.93198489997303,172.84625800000504,None,173.93198489997303,175.70115310000256,0.6000000000000003,175.71725370001514,None,176.4690697999904,None,,,,,,,[1.67],3.530000000000003,0.76,11013,002,2024_Jan_02_2005,MFTM_A_new1021,2021.2.3,60.05886969787561,
,,,,,,,,stim/Instruction_adaptive.png,conditions/adaptive.xlsx,test,-0.6,-0.6,-0.6,0.6,0.6,left,L,,,,,0,1,1,1,0,25,25,79,,,,,,,,,,,,,,,,,,,,,,,,,,,,,,,,,,,,,,,,,,,,176.9699743000092,None,left,1,2.343125900020823,177.46989319997374,178.55558609997388,177.46989319997374,178.0552709000185,177.46989319997374,178.0552709000185,177.46989319997374,178.0552709000185,177.46989319997374,178.0552709000185,177.46989319997374,178.0552709000185,178.02040229999693,178.52134869998554,178.02040229999693,178.52134869998554,178.02040229999693,178.52134869998554,178.02040229999693,178.52134869998554,178.02040229999693,178.52134869998554,178.02040229999693,178.52134869998554,178.02040229999693,178.52134869998554,178.02040229999693,178.52134869998554,177.46989319997374,None,178.52134869998554,180.20736040000338,0.5700000000000003,180.22389600001043,None,180.97509079996962,None,,,,,,,[1.68],3.6000000000000028,0.7692307692307693,11013,002,2024_Jan_02_2005,MFTM_A_new1021,2021.2.3,60.05886969787561,
,,,,,,,,stim/Instruction_adaptive.png,conditions/adaptive.xlsx,test,-0.6,-0.6,-0.6,0.6,0.6,left,L,,,,,0,1,1,1,0,26,26,13,,,,,,,,,,,,,,,,,,,,,,,,,,,,,,,,,,,,,,,,,,,,181.47585709998384,None,left,1,1.15612699999474,181.97707049996825,183.0282357999822,181.97707049996825,182.52732699998887,181.97707049996825,182.52732699998887,181.97707049996825,182.52732699998887,181.97707049996825,182.52732699998887,181.97707049996825,182.52732699998887,182.493733100011,182.9954792999779,182.493733100011,182.9954792999779,182.493733100011,182.9954792999779,182.493733100011,182.9954792999779,182.493733100011,182.9954792999779,182.493733100011,182.9954792999779,182.493733100011,182.9954792999779,182.493733100011,182.9954792999779,181.97707049996825,None,182.9954792999779,184.69721529999515,0.5400000000000003,184.71390540001448,None,185.46489249996375,None,,,,,,,[1.69037037],3.660000000000003,0.7777777777777778,11013,002,2024_Jan_02_2005,MFTM_A_new1021,2021.2.3,60.05886969787561,
,,,,,,,,stim/Instruction_adaptive.png,conditions/adaptive.xlsx,test,-0.6,-0.6,-0.6,0.6,0.6,left,L,,,,,0,1,1,1,0,27,27,33,,,,,,,,,,,,,,,,,,,,,,,,,,,,,,,,,,,,,,,,,,,,185.9666472999961,None,right,0,2.041700800007675,186.46727610001108,187.5012618000037,186.46727610001108,187.0018940999871,186.46727610001108,187.0018940999871,186.46727610001108,187.0018940999871,186.46727610001108,187.0018940999871,186.46727610001108,187.0018940999871,186.9674354000017,187.46789739996893,186.9674354000017,187.46789739996893,186.9674354000017,187.46789739996893,186.9674354000017,187.46789739996893,186.9674354000017,187.46789739996893,186.9674354000017,187.46789739996893,186.9674354000017,187.46789739996893,186.9674354000017,187.46789739996893,186.46727610001108,None,187.46789739996893,189.17138309997972,0.5200000000000002,189.1866743999999,None,189.93844990001526,None,,,,,,,[1.70071429],3.4800000000000026,0.75,11013,002,2024_Jan_02_2005,MFTM_A_new1021,2021.2.3,60.05886969787561,
,,,,,,,,stim/Instruction_adaptive.png,conditions/adaptive.xlsx,test,0.6,0.6,0.6,-0.6,-0.6,right,R,,,,,0,1,1,1,0,28,28,64,,,,,,,,,,,,,,,,,,,,,,,,,,,,,,,,,,,,,,,,,,,,190.4393372000195,None,left,0,2.2973419000045396,190.9396820999682,192.04144399997313,190.9396820999682,191.5414348000195,190.9396820999682,191.5414348000195,190.9396820999682,191.5414348000195,190.9396820999682,191.5414348000195,190.9396820999682,191.5414348000195,191.50795729999663,192.0090451000142,191.50795729999663,192.0090451000142,191.50795729999663,192.0090451000142,191.50795729999663,192.0090451000142,191.50795729999663,192.0090451000142,191.50795729999663,192.0090451000142,191.50795729999663,192.0090451000142,191.50795729999663,192.0090451000142,190.9396820999682,None,192.0090451000142,193.7270924000186,0.5900000000000003,193.743888899975,None,194.49513709999155,None,,,,,,,[1.70793103],3.3000000000000025,0.7241379310344828,11013,002,2024_Jan_02_2005,MFTM_A_new1021,2021.2.3,60.05886969787561,
,,,,,,,,stim/Instruction_adaptive.png,conditions/adaptive.xlsx,test,0.6,0.6,0.6,-0.6,-0.6,right,R,,,,,0,1,1,1,0,29,29,96,,,,,,,,,,,,,,,,,,,,,,,,,,,,,,,,,,,,,,,,,,,,194.99637529999018,None,right,1,2.043662099982612,195.49726969999028,196.68234920001123,195.49726969999028,196.18087460001698,195.49726969999028,196.18087460001698,195.49726969999028,196.18087460001698,195.49726969999028,196.18087460001698,195.49726969999028,196.18087460001698,196.14877440000419,196.6487591000041,196.14877440000419,196.6487591000041,196.14877440000419,196.6487591000041,196.14877440000419,196.6487591000041,196.14877440000419,196.6487591000041,196.14877440000419,196.6487591000041,196.14877440000419,196.6487591000041,196.14877440000419,196.6487591000041,195.49726969999028,None,196.6487591000041,198.36790949996794,0.6700000000000004,198.38545479997993,None,199.13558259996353,None,,,,,,,[1.712],3.3600000000000025,0.7333333333333333,11013,002,2024_Jan_02_2005,MFTM_A_new1021,2021.2.3,60.05886969787561,
,,,,,,,,stim/Instruction_adaptive.png,conditions/adaptive.xlsx,test,0.6,0.6,0.6,-0.6,-0.6,right,R,,,,,0,1,1,1,0,30,30,18,,,,,,,,,,,,,,,,,,,,,,,,,,,,,,,,,,,,,,,,,,,,199.63634520000778,None,right,1,1.5074180000228807,200.1374907999998,201.2890828999807,200.1374907999998,200.78775259997929,200.1374907999998,200.78775259997929,200.1374907999998,200.78775259997929,200.1374907999998,200.78775259997929,200.1374907999998,200.78775259997929,200.75429439998697,201.25576679996448,200.75429439998697,201.25576679996448,200.75429439998697,201.25576679996448,200.75429439998697,201.25576679996448,200.75429439998697,201.25576679996448,200.75429439998697,201.25576679996448,200.75429439998697,201.25576679996448,200.75429439998697,201.25576679996448,200.1374907999998,None,201.25576679996448,202.97452909999993,0.6400000000000003,203.0074652999756,None,203.7588367999997,None,,,,,,,[1.71677419],3.4300000000000024,0.7419354838709677,11013,002,2024_Jan_02_2005,MFTM_A_new1021,2021.2.3,60.05886969787561,
,,,,,,,,stim/Instruction_adaptive.png,conditions/adaptive.xlsx,test,0.6,0.6,0.6,-0.6,-0.6,right,R,,,,,0,1,1,1,0,31,31,40,,,,,,,,,,,,,,,,,,,,,,,,,,,,,,,,,,,,,,,,,,,,204.2596532999887,None,right,1,1.612301099987235,204.7608687999891,205.8792422999977,204.7608687999891,205.37787399999797,204.7608687999891,205.37787399999797,204.7608687999891,205.37787399999797,204.7608687999891,205.37787399999797,204.7608687999891,205.37787399999797,205.36119650001638,205.86237709998386,205.36119650001638,205.86237709998386,205.36119650001638,205.86237709998386,205.36119650001638,205.86237709998386,205.36119650001638,205.86237709998386,205.36119650001638,205.86237709998386,205.36119650001638,205.86237709998386,205.36119650001638,205.86237709998386,204.7608687999891,None,205.86237709998386,None,0.6100000000000003,207.5976621999871,None,208.34924289997434,None,,,,,,,[1.7221875],3.4800000000000026,0.75,11013,002,2024_Jan_02_2005,MFTM_A_new1021,2021.2.3,60.05886969787561,
,,,,,,,,stim/Instruction_adaptive.png,conditions/adaptive.xlsx,test,0.6,0.6,0.6,-0.6,-0.6,right,R,,,,,0,1,1,1,0,32,32,48,,,,,,,,,,,,,,,,,,,,,,,,,,,,,,,,,,,,,,,,,,,,208.85079890000634,None,left,0,1.9344567999942228,209.35037970001576,210.4527839999646,209.35037970001576,209.95257490000222,209.35037970001576,209.95257490000222,209.35037970001576,209.95257490000222,209.35037970001576,209.95257490000222,209.35037970001576,209.95257490000222,209.91801859997213,210.41928949998692,209.91801859997213,210.41928949998692,209.91801859997213,210.41928949998692,209.91801859997213,210.41928949998692,209.91801859997213,210.41928949998692,209.91801859997213,210.41928949998692,209.91801859997213,210.41928949998692,209.91801859997213,210.41928949998692,209.35037970001576,None,210.41928949998692,212.15498059999663,0.5900000000000003,212.1707779999706,None,212.92251449998002,None,,,,,,,[1.72787879],3.3200000000000025,0.7272727272727273,11013,002,2024_Jan_02_2005,MFTM_A_new1021,2021.2.3,60.05886969787561,
,,,,,,,,stim/Instruction_adaptive.png,conditions/adaptive.xlsx,test,-0.6,-0.6,-0.6,0.6,0.6,left,L,,,,,0,1,1,1,0,33,33,23,,,,,,,,,,,,,,,,,,,,,,,,,,,,,,,,,,,,,,,,,,,,213.42364659998566,None,right,0,1.9533817999763414,213.92403320001904,215.09284609998576,213.92403320001904,214.59146510000573,213.92403320001904,214.59146510000573,213.92403320001904,214.59146510000573,213.92403320001904,214.59146510000573,213.92403320001904,214.59146510000573,214.57492440001806,215.07633499999065,214.57492440001806,215.07633499999065,214.57492440001806,215.07633499999065,214.57492440001806,215.07633499999065,214.57492440001806,215.07633499999065,214.57492440001806,215.07633499999065,214.57492440001806,215.07633499999065,214.57492440001806,215.07633499999065,213.92403320001904,None,215.07633499999065,216.81219919997966,0.6600000000000004,216.82870199996978,None,217.5794564000098,None,,,,,,,[1.73117647],3.1400000000000023,0.7058823529411765,11013,002,2024_Jan_02_2005,MFTM_A_new1021,2021.2.3,60.05886969787561,
,,,,,,,,stim/Instruction_adaptive.png,conditions/adaptive.xlsx,test,-0.6,-0.6,-0.6,0.6,0.6,left,L,,,,,0,1,1,1,0,34,34,29,,,,,,,,,,,,,,,,,,,,,,,,,,,,,,,,,,,,,,,,,,,,218.0812225000118,None,left,1,1.2391670999932103,218.58181409997633,219.8327272000024,218.58181409997633,219.331688700011,218.58181409997633,219.331688700011,218.58181409997633,219.331688700011,218.58181409997633,219.331688700011,218.58181409997633,219.331688700011,219.3151072000037,219.8159713000059,219.3151072000037,219.8159713000059,219.3151072000037,219.8159713000059,219.3151072000037,219.8159713000059,219.3151072000037,219.8159713000059,219.3151072000037,219.8159713000059,219.3151072000037,219.8159713000059,219.3151072000037,219.8159713000059,218.58181409997633,None,219.8159713000059,221.55180519999703,0.7500000000000004,221.56875049998052,None,222.31974189996254,None,,,,,,,[1.73171429],3.2000000000000024,0.7142857142857143,11013,002,2024_Jan_02_2005,MFTM_A_new1021,2021.2.3,60.05886969787561,
,,,,,,,,stim/Instruction_adaptive.png,conditions/adaptive.xlsx,test,0.6,0.6,0.6,-0.6,-0.6,right,R,,,,,0,1,1,1,0,35,35,90,,,,,,,,,,,,,,,,,,,,,,,,,,,,,,,,,,,,,,,,,,,,222.8201957999845,None,right,1,1.667841300019063,223.3212323000189,224.55701099999715,223.3212323000189,224.05562940001255,223.3212323000189,224.05562940001255,223.3212323000189,224.05562940001255,223.3212323000189,224.05562940001255,223.3212323000189,224.05562940001255,224.02188630000455,224.52284829999553,224.02188630000455,224.52284829999553,224.02188630000455,224.52284829999553,224.02188630000455,224.52284829999553,224.02188630000455,224.52284829999553,224.02188630000455,224.52284829999553,224.02188630000455,224.52284829999553,224.02188630000455,224.52284829999553,223.3212323000189,None,224.52284829999553,226.25929259997793,0.7200000000000004,226.27596519998042,None,227.02660189999733,None,,,,,,,[1.73305556],3.2600000000000025,0.7222222222222222,11013,002,2024_Jan_02_2005,MFTM_A_new1021,2021.2.3,60.05886969787561,
,,,,,,,,stim/Instruction_adaptive.png,conditions/adaptive.xlsx,test,0.6,0.6,0.6,-0.6,-0.6,right,R,,,,,0,1,1,1,0,36,36,58,,,,,,,,,,,,,,,,,,,,,,,,,,,,,,,,,,,,,,,,,,,,227.5277775999857,None,right,1,1.0493126999936067,228.0282960999757,229.23073040001327,228.0282960999757,228.72907150001265,228.0282960999757,228.72907150001265,228.0282960999757,228.72907150001265,228.0282960999757,228.72907150001265,228.0282960999757,228.72907150001265,228.69554669997888,229.19653409998864,228.69554669997888,229.19653409998864,228.69554669997888,229.19653409998864,228.69554669997888,229.19653409998864,228.69554669997888,229.19653409998864,228.69554669997888,229.19653409998864,228.69554669997888,229.19653409998864,228.69554669997888,229.19653409998864,228.0282960999757,None,229.19653409998864,230.93304659996647,0.6900000000000004,230.96574519999558,None,231.7173764000181,None,,,,,,,[1.73513514],3.3200000000000025,0.7297297297297297,11013,002,2024_Jan_02_2005,MFTM_A_new1021,2021.2.3,60.05886969787561,
,,,,,,,,stim/Instruction_adaptive.png,conditions/adaptive.xlsx,test,-0.6,-0.6,-0.6,0.6,0.6,left,L,,,,,0,1,1,1,0,37,37,49,,,,,,,,,,,,,,,,,,,,,,,,,,,,,,,,,,,,,,,,,,,,232.21801309997682,None,right,0,1.7821791999740526,232.71875469997758,233.88691359997028,232.71875469997758,233.38642779999645,232.71875469997758,233.38642779999645,232.71875469997758,233.38642779999645,232.71875469997758,233.38642779999645,232.71875469997758,233.38642779999645,233.36991309997393,233.87001740001142,233.36991309997393,233.87001740001142,233.36991309997393,233.87001740001142,233.36991309997393,233.87001740001142,233.36991309997393,233.87001740001142,233.36991309997393,233.87001740001142,233.36991309997393,233.87001740001142,233.36991309997393,233.87001740001142,232.71875469997758,None,233.85377079999307,235.60796459997073,0.6600000000000004,235.62223559996346,None,236.37430019996827,None,,,,,,,[1.73789474],3.1600000000000024,0.7105263157894737,11013,002,2024_Jan_02_2005,MFTM_A_new1021,2021.2.3,60.05886969787561,
,,,,,,,,stim/Instruction_adaptive.png,conditions/adaptive.xlsx,test,-0.6,-0.6,-0.6,0.6,0.6,left,L,,,,,0,1,1,1,0,38,38,95,,,,,,,,,,,,,,,,,,,,,,,,,,,,,,,,,,,,,,,,,,,,236.8746912999777,None,left,1,1.8859195000259206,237.37563119997503,238.6270569000044,237.37563119997503,238.12647529999958,237.37563119997503,238.12647529999958,237.37563119997503,238.12647529999958,237.37563119997503,238.12647529999958,237.37563119997503,238.12647529999958,238.09302749997005,238.59363790001953,238.09302749997005,238.59363790001953,238.09302749997005,238.59363790001953,238.09302749997005,238.59363790001953,238.09302749997005,238.59363790001953,238.09302749997005,238.59363790001953,238.09302749997005,238.59363790001953,238.09302749997005,238.59363790001953,237.37563119997503,None,238.59363790001953,240.3468695000047,0.7400000000000004,240.36400519998278,None,241.1148521999712,None,,,,,,,[1.73846154],3.2100000000000026,0.717948717948718,11013,002,2024_Jan_02_2005,MFTM_A_new1021,2021.2.3,60.05886969787561,
,,,,,,,,stim/Instruction_adaptive.png,conditions/adaptive.xlsx,test,0.6,0.6,0.6,-0.6,-0.6,right,R,,,,,0,1,1,1,0,39,39,2,,,,,,,,,,,,,,,,,,,,,,,,,,,,,,,,,,,,,,,,,,,,241.61501999996835,None,right,1,1.2342949000303634,242.11580859997775,243.33449440001277,242.11580859997775,242.83422349998727,242.11580859997775,242.83422349998727,242.11580859997775,242.83422349998727,242.11580859997775,242.83422349998727,242.11580859997775,242.83422349998727,242.8179594000103,243.31796030001715,242.8179594000103,243.31796030001715,242.8179594000103,243.31796030001715,242.8179594000103,243.31796030001715,242.8179594000103,243.31796030001715,242.8179594000103,243.31796030001715,242.8179594000103,243.31796030001715,242.8179594000103,243.31796030001715,242.11580859997775,None,243.31796030001715,None,0.7100000000000004,245.07007479999447,None,245.82300819997909,None,,,,,,,[1.73975],3.2700000000000022,0.725,11013,002,2024_Jan_02_2005,MFTM_A_new1021,2021.2.3,60.05886969787561,
,,,,,,,,stim/Instruction_adaptive.png,conditions/adaptive.xlsx,test,-0.6,-0.6,-0.6,0.6,0.6,left,L,,,,,0,1,1,1,0,40,40,7,,,,,,,,,,,,,,,,,,,,,,,,,,,,,,,,,,,,,,,,,,,,246.33914860000368,None,left,1,2.0463713000062853,246.82267859997228,248.00789309997344,246.82267859997228,247.50691449997248,246.82267859997228,247.50691449997248,246.82267859997228,247.50691449997248,246.82267859997228,247.50691449997248,246.82267859997228,247.50691449997248,247.4902581999777,247.99108239996713,247.4902581999777,247.99108239996713,247.4902581999777,247.99108239996713,247.4902581999777,247.99108239996713,247.4902581999777,247.99108239996713,247.4902581999777,247.99108239996713,247.4902581999777,247.99108239996713,247.4902581999777,247.99108239996713,246.82267859997228,None,247.99108239996713,None,0.6800000000000004,249.7436731000198,None,250.4947739999625,None,,,,,,,[1.74170732],3.3200000000000025,0.7317073170731707,11013,002,2024_Jan_02_2005,MFTM_A_new1021,2021.2.3,60.05886969787561,
,,,,,,,,stim/Instruction_adaptive.png,conditions/adaptive.xlsx,test,-0.6,-0.6,-0.6,0.6,0.6,left,L,,,,,0,1,1,1,0,41,41,67,,,,,,,,,,,,,,,,,,,,,,,,,,,,,,,,,,,,,,,,,,,,250.99542379996274,None,right,0,1.6767493999795988,251.4962560000131,252.66456140001537,251.4962560000131,252.16367270000046,251.4962560000131,252.16367270000046,251.4962560000131,252.16367270000046,251.4962560000131,252.16367270000046,251.4962560000131,252.16367270000046,252.13156639999943,252.631335699989,252.13156639999943,252.631335699989,252.13156639999943,252.631335699989,252.13156639999943,252.631335699989,252.13156639999943,252.631335699989,252.13156639999943,252.631335699989,252.13156639999943,252.631335699989,252.13156639999943,252.631335699989,251.4962560000131,None,252.631335699989,254.38429299998097,0.6600000000000004,254.3999073000159,None,255.15155770001002,None,,,,,,,[1.74404762],3.1700000000000026,0.7142857142857143,11013,002,2024_Jan_02_2005,MFTM_A_new1021,2021.2.3,60.05886969787561,
,,,,,,,,stim/Instruction_adaptive.png,conditions/adaptive.xlsx,test,0.6,0.6,0.6,-0.6,-0.6,right,R,,,,,0,1,1,1,0,42,42,36,,,,,,,,,,,,,,,,,,,,,,,,,,,,,,,,,,,,,,,,,,,,255.6522575999843,None,right,1,1.147807399975136,256.153628,257.3900881999871,256.153628,256.8875387000153,256.153628,256.8875387000153,256.153628,256.8875387000153,256.153628,256.8875387000153,256.153628,256.8875387000153,256.87092289997963,257.37151819997234,256.87092289997963,257.37151819997234,256.87092289997963,257.37151819997234,256.87092289997963,257.37151819997234,256.87092289997963,257.37151819997234,256.87092289997963,257.37151819997234,256.87092289997963,257.37151819997234,256.87092289997963,257.37151819997234,256.153628,None,257.37151819997234,259.1242895000032,0.7300000000000004,259.1407737999689,None,259.8919194000191,None,,,,,,,[1.74465116],3.2200000000000024,0.7209302325581395,11013,002,2024_Jan_02_2005,MFTM_A_new1021,2021.2.3,60.05886969787561,
,,,,,,,,stim/Instruction_adaptive.png,conditions/adaptive.xlsx,test,0.6,0.6,0.6,-0.6,-0.6,right,R,,,,,0,1,1,1,0,43,43,8,,,,,,,,,,,,,,,,,,,,,,,,,,,,,,,,,,,,,,,,,,,,260.3933738999767,None,left,0,0.8870615999912843,260.8939156999695,262.11254679999547,260.8939156999695,261.6112918999861,260.8939156999695,261.6112918999861,260.8939156999695,261.6112918999861,260.8939156999695,261.6112918999861,260.8939156999695,261.6112918999861,261.57800410001073,262.0795693999971,261.57800410001073,262.0795693999971,261.57800410001073,262.0795693999971,261.57800410001073,262.0795693999971,261.57800410001073,262.0795693999971,261.57800410001073,262.0795693999971,261.57800410001073,262.0795693999971,261.57800410001073,262.0795693999971,260.8939156999695,None,262.0795693999971,263.8311148000066,0.7100000000000004,263.8645911999629,None,264.61576509999577,None,,,,,,,[1.74568182],3.0800000000000023,0.7045454545454546,11013,002,2024_Jan_02_2005,MFTM_A_new1021,2021.2.3,60.05886969787561,
,,,,,,,,stim/Instruction_adaptive.png,conditions/adaptive.xlsx,test,0.6,0.6,0.6,-0.6,-0.6,right,R,,,,,0,1,1,1,0,44,44,78,,,,,,,,,,,,,,,,,,,,,,,,,,,,,,,,,,,,,,,,,,,,265.1169388999697,None,right,1,1.21163279999746,265.6172927999869,266.9024195999955,265.6172927999869,266.4016601999756,265.6172927999869,266.4016601999756,265.6172927999869,266.4016601999756,265.6172927999869,266.4016601999756,265.6172927999869,266.4016601999756,266.3849864999647,266.8856802000082,266.3849864999647,266.8856802000082,266.3849864999647,266.8856802000082,266.3849864999647,266.8856802000082,266.3849864999647,266.8856802000082,266.3849864999647,266.8856802000082,266.3849864999647,266.8856802000082,266.3849864999647,266.8856802000082,265.6172927999869,None,266.8856802000082,268.6055286999908,0.7800000000000005,268.6216809999896,None,269.37324749998515,None,,,,,,,[[1.72]],3.1300000000000026,0.7111111111111111,11013,002,2024_Jan_02_2005,MFTM_A_new1021,2021.2.3,60.05886969787561,
,,,,,,,,stim/Instruction_adaptive.png,conditions/adaptive.xlsx,test,-0.6,-0.6,-0.6,0.6,0.6,left,L,,,,,0,1,1,1,0,45,45,41,,,,,,,,,,,,,,,,,,,,,,,,,,,,,,,,,,,,,,,,,,,,269.8737973999814,None,left,1,1.3422141999471933,270.3752935999655,271.62611780001316,270.3752935999655,271.1254418999888,270.3752935999655,271.1254418999888,270.3752935999655,271.1254418999888,270.3752935999655,271.1254418999888,270.3752935999655,271.1254418999888,271.10983639996266,271.6102094000089,271.10983639996266,271.6102094000089,271.10983639996266,271.6102094000089,271.10983639996266,271.6102094000089,271.10983639996266,271.6102094000089,271.10983639996266,271.6102094000089,271.10983639996266,271.6102094000089,271.10983639996266,271.6102094000089,270.3752935999655,None,271.6102094000089,273.3619292000076,0.7500000000000004,273.37866940000094,None,274.1303429999971,None,,,,,,,[1.74521739],3.1800000000000024,0.717391304347826,11013,002,2024_Jan_02_2005,MFTM_A_new1021,2021.2.3,60.05886969787561,
,,,,,,,,stim/Instruction_adaptive.png,conditions/adaptive.xlsx,test,0.6,0.6,0.6,-0.6,-0.6,right,R,,,,,0,1,1,1,0,46,46,32,,,,,,,,,,,,,,,,,,,,,,,,,,,,,,,,,,,,,,,,,,,,274.6304098999826,None,right,1,1.0830866000032984,275.13122529996326,276.3676705000107,275.13122529996326,275.86566139996285,275.13122529996326,275.86566139996285,275.13122529996326,275.86566139996285,275.13122529996326,275.86566139996285,275.13122529996326,275.86566139996285,275.8498838999658,276.34973710001213,275.8498838999658,276.34973710001213,275.8498838999658,276.34973710001213,275.8498838999658,276.34973710001213,275.8498838999658,276.34973710001213,275.8498838999658,276.34973710001213,275.8498838999658,276.34973710001213,275.8498838999658,276.34973710001213,275.13122529996326,None,276.34973710001213,278.1022385999677,0.7300000000000004,278.1192779999692,None,278.87082939996617,None,,,,,,,[1.74574468],3.2200000000000024,0.723404255319149,11013,002,2024_Jan_02_2005,MFTM_A_new1021,2021.2.3,60.05886969787561,
,,,,,,,,stim/Instruction_adaptive.png,conditions/adaptive.xlsx,test,0.6,0.6,0.6,-0.6,-0.6,right,R,,,,,0,1,1,1,0,47,47,12,,,,,,,,,,,,,,,,,,,,,,,,,,,,,,,,,,,,,,,,,,,,279.3709815000184,None,right,1,1.1020348999882117,279.87141259998316,281.0901891000103,279.87141259998316,280.58925039996393,279.87141259998316,280.58925039996393,279.87141259998316,280.58925039996393,279.87141259998316,280.58925039996393,279.87141259998316,280.58925039996393,280.5726157000172,281.0760639999644,280.5726157000172,281.0760639999644,280.5726157000172,281.0760639999644,280.5726157000172,281.0760639999644,280.5726157000172,281.0760639999644,280.5726157000172,281.0760639999644,280.5726157000172,281.0760639999644,280.5726157000172,281.0760639999644,279.87141259998316,None,281.0760639999644,282.82588610000676,0.7100000000000004,282.842613100016,None,283.5938914999715,None,,,,,,,[1.74666667],3.2700000000000022,0.7291666666666666,11013,002,2024_Jan_02_2005,MFTM_A_new1021,2021.2.3,60.05886969787561,
,,,,,,,,stim/Instruction_adaptive.png,conditions/adaptive.xlsx,test,0.6,0.6,0.6,-0.6,-0.6,right,R,,,,,0,1,1,1,0,48,48,98,,,,,,,,,,,,,,,,,,,,,,,,,,,,,,,,,,,,,,,,,,,,284.0953865000047,None,right,1,0.9298117999569513,284.59527890000027,285.7816129999701,284.59527890000027,285.27961109997705,284.59527890000027,285.27961109997705,284.59527890000027,285.27961109997705,284.59527890000027,285.27961109997705,284.59527890000027,285.27961109997705,285.262969399977,285.76454180001747,285.262969399977,285.76454180001747,285.262969399977,285.76454180001747,285.262969399977,285.76454180001747,285.262969399977,285.76454180001747,285.262969399977,285.76454180001747,285.262969399977,285.76454180001747,285.262969399977,285.76454180001747,284.59527890000027,None,285.76454180001747,287.51630660000956,0.6800000000000004,287.5329703000025,None,288.28461249999236,None,,,,,,,[1.74816327],3.3100000000000023,0.7346938775510204,11013,002,2024_Jan_02_2005,MFTM_A_new1021,2021.2.3,60.05886969787561,
,,,,,,,,stim/Instruction_adaptive.png,conditions/adaptive.xlsx,test,-0.6,-0.6,-0.6,0.6,0.6,left,L,,,,,0,1,1,1,0,49,49,43,,,,,,,,,,,,,,,,,,,,,,,,,,,,,,,,,,,,,,,,,,,,288.7852845999878,None,left,1,0.8874096000217833,289.28572739998344,290.4546821999829,289.28572739998344,289.95312849996844,289.28572739998344,289.95312849996844,289.28572739998344,289.95312849996844,289.28572739998344,289.95312849996844,289.28572739998344,289.95312849996844,289.9197761999676,290.42075789999217,289.9197761999676,290.42075789999217,289.9197761999676,290.42075789999217,289.9197761999676,290.42075789999217,289.9197761999676,290.42075789999217,289.9197761999676,290.42075789999217,289.9197761999676,290.42075789999217,289.9197761999676,290.42075789999217,289.28572739998344,None,290.42075789999217,292.17314989998704,0.6600000000000004,292.2077891000081,None,292.9578837999725,None,,,,,,,[1.75],3.3500000000000023,0.74,11013,002,2024_Jan_02_2005,MFTM_A_new1021,2021.2.3,60.05886969787561,
,,,,,,,,stim/Instruction_adaptive.png,conditions/adaptive.xlsx,test,-0.6,-0.6,-0.6,0.6,0.6,left,L,,,,,0,1,1,1,0,50,50,99,,,,,,,,,,,,,,,,,,,,,,,,,,,,,,,,,,,,,,,,,,,,293.45834620000096,None,right,0,0.7983716999879107,293.95907529996475,295.11074949998874,293.95907529996475,294.6103558000177,293.95907529996475,294.6103558000177,293.95907529996475,294.6103558000177,293.95907529996475,294.6103558000177,293.95907529996475,294.6103558000177,294.5933453000034,295.09402750001755,294.5933453000034,295.09402750001755,294.5933453000034,295.09402750001755,294.5933453000034,295.09402750001755,294.5933453000034,295.09402750001755,294.5933453000034,295.09402750001755,294.5933453000034,295.09402750001755,294.5933453000034,295.09402750001755,293.95907529996475,None,295.09402750001755,296.84672450000653,0.6500000000000004,296.8634362000157,None,297.6153667999897,None,,,,,,,[1.75196078],3.230000000000002,0.7254901960784313,11013,002,2024_Jan_02_2005,MFTM_A_new1021,2021.2.3,60.05886969787561,
,,,,,,,,stim/Instruction_adaptive.png,conditions/adaptive.xlsx,test,0.6,0.6,0.6,-0.6,-0.6,right,R,,,,,0,1,1,1,0,51,51,46,,,,,,,,,,,,,,,,,,,,,,,,,,,,,,,,,,,,,,,,,,,,298.11579619999975,None,right,1,1.5654319999739528,298.61611750000156,299.81794969999464,298.61611750000156,299.3178084999672,298.61611750000156,299.3178084999672,298.61611750000156,299.3178084999672,298.61611750000156,299.3178084999672,298.61611750000156,299.3178084999672,299.30028199998196,299.801740099967,299.30028199998196,299.801740099967,299.30028199998196,299.801740099967,299.30028199998196,299.801740099967,299.30028199998196,299.801740099967,299.30028199998196,299.801740099967,299.30028199998196,299.801740099967,299.30028199998196,299.801740099967,298.61611750000156,None,299.801740099967,301.5549335000105,0.7000000000000004,301.5701812999905,None,302.3216172999819,None,,,,,,,[1.75288462],3.2700000000000022,0.7307692307692307,11013,002,2024_Jan_02_2005,MFTM_A_new1021,2021.2.3,60.05886969787561,
,,,,,,,,stim/Instruction_adaptive.png,conditions/adaptive.xlsx,test,0.6,0.6,0.6,-0.6,-0.6,right,R,,,,,0,1,1,1,0,52,52,4,,,,,,,,,,,,,,,,,,,,,,,,,,,,,,,,,,,,,,,,,,,,302.82217489997856,None,right,1,1.9215865000151098,303.32343210000545,304.50807400001213,303.32343210000545,304.0083448999794,303.32343210000545,304.0083448999794,303.32343210000545,304.0083448999794,303.32343210000545,304.0083448999794,303.32343210000545,304.0083448999794,303.99081639997894,304.49211699998705,303.99081639997894,304.49211699998705,303.99081639997894,304.49211699998705,303.99081639997894,304.49211699998705,303.99081639997894,304.49211699998705,303.99081639997894,304.49211699998705,303.99081639997894,304.49211699998705,303.99081639997894,304.49211699998705,303.32343210000545,None,304.49211699998705,None,0.6800000000000004,306.2607091999962,None,307.01160560001153,None,,,,,,,[1.75415094],3.3100000000000023,0.7358490566037735,11013,002,2024_Jan_02_2005,MFTM_A_new1021,2021.2.3,60.05886969787561,
,,,,,,,,stim/Instruction_adaptive.png,conditions/adaptive.xlsx,test,0.6,0.6,0.6,-0.6,-0.6,right,R,,,,,0,1,1,1,0,53,53,76,,,,,,,,,,,,,,,,,,,,,,,,,,,,,,,,,,,,,,,,,,,,307.5132424000185,None,left,0,1.1996939000091515,308.0135882999748,309.1817738999962,308.0135882999748,308.6819701999775,308.0135882999748,308.6819701999775,308.0135882999748,308.6819701999775,308.0135882999748,308.6819701999775,308.0135882999748,308.6819701999775,308.6640766999917,309.16508150001755,308.6640766999917,309.16508150001755,308.6640766999917,309.16508150001755,308.6640766999917,309.16508150001755,308.6640766999917,309.16508150001755,308.6640766999917,309.16508150001755,308.6640766999917,309.16508150001755,308.6640766999917,309.16508150001755,308.0135882999748,None,309.14840629999526,310.9174390999833,0.6600000000000004,310.9341312000179,None,311.68541999999434,None,,,,,,,[1.75574074],3.2000000000000024,0.7222222222222222,11013,002,2024_Jan_02_2005,MFTM_A_new1021,2021.2.3,60.05886969787561,
,,,,,,,,stim/Instruction_adaptive.png,conditions/adaptive.xlsx,test,-0.6,-0.6,-0.6,0.6,0.6,left,L,,,,,0,1,1,1,0,54,54,31,,,,,,,,,,,,,,,,,,,,,,,,,,,,,,,,,,,,,,,,,,,,312.18674340000143,None,right,0,1.5023108000168577,312.6868468999746,313.9227670999826,312.6868468999746,313.42121349996887,312.6868468999746,313.42121349996887,312.6868468999746,313.42121349996887,312.6868468999746,313.42121349996887,312.6868468999746,313.42121349996887,313.3882154999883,313.88876900001196,313.3882154999883,313.88876900001196,313.3882154999883,313.88876900001196,313.3882154999883,313.88876900001196,313.3882154999883,313.88876900001196,313.3882154999883,313.88876900001196,313.3882154999883,313.88876900001196,313.3882154999883,313.88876900001196,312.6868468999746,None,313.88876900001196,315.65786430001026,0.7200000000000004,315.67454079998424,None,316.42629929998657,None,,,,,,,[1.75618182],3.0800000000000023,0.7090909090909091,11013,002,2024_Jan_02_2005,MFTM_A_new1021,2021.2.3,60.05886969787561,
,,,,,,,,stim/Instruction_adaptive.png,conditions/adaptive.xlsx,test,-0.6,-0.6,-0.6,0.6,0.6,left,L,,,,,0,1,1,1,0,55,55,3,,,,,,,,,,,,,,,,,,,,,,,,,,,,,,,,,,,,,,,,,,,,316.92639169999165,None,left,1,1.1618718999670818,317.4272771999822,318.71315129997674,317.4272771999822,318.211591099971,317.4272771999822,318.211591099971,317.4272771999822,318.211591099971,317.4272771999822,318.211591099971,317.4272771999822,318.211591099971,318.1948294999893,318.6959988999879,318.1948294999893,318.6959988999879,318.1948294999893,318.6959988999879,318.1948294999893,318.6959988999879,318.1948294999893,318.6959988999879,318.1948294999893,318.6959988999879,318.1948294999893,318.6959988999879,318.1948294999893,318.6959988999879,317.4272771999822,None,318.6959988999879,None,0.7800000000000005,320.4316555999685,None,321.18270569999004,None,,,,,,,[[1.72]],3.1200000000000023,0.7142857142857143,11013,002,2024_Jan_02_2005,MFTM_A_new1021,2021.2.3,60.05886969787561,
,,,,,,,,stim/Instruction_adaptive.png,conditions/adaptive.xlsx,test,0.6,0.6,0.6,-0.6,-0.6,right,R,,,,,0,1,1,1,0,56,56,72,,,,,,,,,,,,,,,,,,,,,,,,,,,,,,,,,,,,,,,,,,,,321.6856614999706,None,right,1,1.1966138000134379,322.1844309999724,323.4532018000027,322.1844309999724,322.95264749997295,322.1844309999724,322.95264749997295,322.1844309999724,322.95264749997295,322.1844309999724,322.95264749997295,322.1844309999724,322.95264749997295,322.9195742000011,323.4199321999913,322.9195742000011,323.4199321999913,322.9195742000011,323.4199321999913,322.9195742000011,323.4199321999913,322.9195742000011,323.4199321999913,322.9195742000011,323.4199321999913,322.9195742000011,323.4199321999913,322.9195742000011,323.4199321999913,322.1844309999724,None,323.4199321999913,325.17205910000484,0.7600000000000005,325.188564400014,None,325.93970839999383,None,,,,,,,[[1.74]],3.1600000000000024,0.7192982456140351,11013,002,2024_Jan_02_2005,MFTM_A_new1021,2021.2.3,60.05886969787561,
,,,,,,,,stim/Instruction_adaptive.png,conditions/adaptive.xlsx,test,-0.6,-0.6,-0.6,0.6,0.6,left,L,,,,,0,1,1,1,0,57,57,9,,,,,,,,,,,,,,,,,,,,,,,,,,,,,,,,,,,,,,,,,,,,326.44125609996263,None,right,0,1.079893699963577,326.9413537000073,328.1933156999876,326.9413537000073,327.69310019997647,326.9413537000073,327.69310019997647,326.9413537000073,327.69310019997647,326.9413537000073,327.69310019997647,326.9413537000073,327.69310019997647,327.65987540001515,328.1598646999919,327.65987540001515,328.1598646999919,327.65987540001515,328.1598646999919,327.65987540001515,328.1598646999919,327.65987540001515,328.1598646999919,327.65987540001515,328.1598646999919,327.65987540001515,328.1598646999919,327.65987540001515,328.1598646999919,326.9413537000073,None,328.1598646999919,329.92903509997996,0.7400000000000004,329.94559540000046,None,330.6969199000159,None,,,,,,,[1.75534483],3.0500000000000025,0.7068965517241379,11013,002,2024_Jan_02_2005,MFTM_A_new1021,2021.2.3,60.05886969787561,
,,,,,,,,stim/Instruction_adaptive.png,conditions/adaptive.xlsx,test,0.6,0.6,0.6,-0.6,-0.6,right,R,,,,,0,1,1,1,0,58,58,70,,,,,,,,,,,,,,,,,,,,,,,,,,,,,,,,,,,,,,,,,,,,331.19764869997744,None,left,0,1.0585759000387043,331.69849809998414,333.0005756000173,331.69849809998414,332.5001975999912,331.69849809998414,332.5001975999912,331.69849809998414,332.5001975999912,331.69849809998414,332.5001975999912,331.69849809998414,332.5001975999912,332.4667466999963,332.96775299997535,332.4667466999963,332.96775299997535,332.4667466999963,332.96775299997535,332.4667466999963,332.96775299997535,332.4667466999963,332.96775299997535,332.4667466999963,332.96775299997535,332.4667466999963,332.96775299997535,332.4667466999963,332.96775299997535,331.69849809998414,None,332.96775299997535,334.68672140000854,0.7900000000000005,334.70373060001293,None,335.45471289998386,None,,,,,,,[[1.71]],2.9300000000000024,0.6949152542372882,11013,002,2024_Jan_02_2005,MFTM_A_new1021,2021.2.3,60.05886969787561,
,,,,,,,,stim/Instruction_adaptive.png,conditions/adaptive.xlsx,test,-0.6,-0.6,-0.6,0.6,0.6,left,L,,,,,0,1,1,1,0,59,59,85,,,,,,,,,,,,,,,,,,,,,,,,,,,,,,,,,,,,,,,,,,,,335.9550680000102,None,right,0,0.5576929000089876,336.45544130000053,337.82414049998624,336.45544130000053,337.32458549999865,336.45544130000053,337.32458549999865,336.45544130000053,337.32458549999865,336.45544130000053,337.32458549999865,336.45544130000053,337.32458549999865,337.30683399998816,337.80824360001134,337.30683399998816,337.80824360001134,337.30683399998816,337.80824360001134,337.30683399998816,337.80824360001134,337.30683399998816,337.80824360001134,337.30683399998816,337.80824360001134,337.30683399998816,337.80824360001134,337.30683399998816,337.80824360001134,336.45544130000053,None,337.80824360001134,None,0.8600000000000005,339.45991330000106,None,340.2119240000029,None,,,,,,,[[1.64]],2.800000000000002,0.6833333333333333,11013,002,2024_Jan_02_2005,MFTM_A_new1021,2021.2.3,60.05886969787561,
,,,,,,,,stim/Instruction_adaptive.png,conditions/adaptive.xlsx,test,0.6,0.6,0.6,-0.6,-0.6,right,R,,,,,0,1,1,1,0,60,60,20,,,,,,,,,,,,,,,,,,,,,,,,,,,,,,,,,,,,,,,,,,,,340.71187659999123,None,right,1,1.2082300999900326,341.2128669999656,342.6646636999794,341.2128669999656,342.1638089999906,341.2128669999656,342.1638089999906,341.2128669999656,342.1638089999906,341.2128669999656,342.1638089999906,341.2128669999656,342.1638089999906,342.1304011999746,342.63118630001554,342.1304011999746,342.63118630001554,342.1304011999746,342.63118630001554,342.1304011999746,342.63118630001554,342.1304011999746,342.63118630001554,342.1304011999746,342.63118630001554,342.1304011999746,342.63118630001554,342.1304011999746,342.63118630001554,341.2128669999656,None,342.63118630001554,344.2008080999949,0.9400000000000006,344.217089999991,None,344.9680055999779,None,,,,,,,[[1.56]],2.840000000000002,0.6885245901639344,11013,002,2024_Jan_02_2005,MFTM_A_new1021,2021.2.3,60.05886969787561,
,,,,,,,,stim/Instruction_adaptive.png,conditions/adaptive.xlsx,test,-0.6,-0.6,-0.6,0.6,0.6,left,L,,,,,0,1,1,1,0,61,61,69,,,,,,,,,,,,,,,,,,,,,,,,,,,,,,,,,,,,,,,,,,,,345.4693884999724,None,left,1,1.2916492000222206,345.9694763000007,347.4050535999704,345.9694763000007,346.9043038999662,345.9694763000007,346.9043038999662,345.9694763000007,346.9043038999662,345.9694763000007,346.9043038999662,345.9694763000007,346.9043038999662,346.8715888999868,347.37140409997664,346.8715888999868,347.37140409997664,346.8715888999868,347.37140409997664,346.8715888999868,347.37140409997664,346.8715888999868,347.37140409997664,346.8715888999868,347.37140409997664,346.8715888999868,347.37140409997664,346.8715888999868,347.37140409997664,345.9694763000007,None,347.37140409997664,348.9574019999709,0.9200000000000006,348.9740282999701,None,349.725027700013,None,,,,,,,[[1.58]],2.8900000000000023,0.6935483870967742,11013,002,2024_Jan_02_2005,MFTM_A_new1021,2021.2.3,60.05886969787561,
,,,,,,,,stim/Instruction_adaptive.png,conditions/adaptive.xlsx,test,-0.6,-0.6,-0.6,0.6,0.6,left,L,,,,,0,1,1,1,0,62,62,47,,,,,,,,,,,,,,,,,,,,,,,,,,,,,,,,,,,,,,,,,,,,350.2258911000099,None,left,1,1.2621226999908686,350.72715380002046,352.1286461999989,350.72715380002046,351.62785779999103,350.72715380002046,351.62785779999103,350.72715380002046,351.62785779999103,350.72715380002046,351.62785779999103,350.72715380002046,351.62785779999103,351.5945097999647,352.09596120001515,351.5945097999647,352.09596120001515,351.5945097999647,352.09596120001515,351.5945097999647,352.09596120001515,351.5945097999647,352.09596120001515,351.5945097999647,352.09596120001515,351.5945097999647,352.09596120001515,351.5945097999647,352.09596120001515,350.72715380002046,None,352.09596120001515,353.7144000999979,0.8900000000000006,353.7312313999864,None,354.4829243000131,None,,,,,,,[[1.61]],2.9300000000000024,0.6984126984126984,11013,002,2024_Jan_02_2005,MFTM_A_new1021,2021.2.3,60.05886969787561,
,,,,,,,,stim/Instruction_adaptive.png,conditions/adaptive.xlsx,test,0.6,0.6,0.6,-0.6,-0.6,right,R,,,,,0,1,1,1,0,63,63,60,,,,,,,,,,,,,,,,,,,,,,,,,,,,,,,,,,,,,,,,,,,,354.9837574000121,None,right,1,1.1131775000249036,355.48423569998704,356.85297609999543,355.48423569998704,356.3523831999628,355.48423569998704,356.3523831999628,355.48423569998704,356.3523831999628,355.48423569998704,356.3523831999628,355.48423569998704,356.3523831999628,356.31823119998444,356.81895609997446,356.31823119998444,356.81895609997446,356.31823119998444,356.81895609997446,356.31823119998444,356.81895609997446,356.31823119998444,356.81895609997446,356.31823119998444,356.81895609997446,356.31823119998444,356.81895609997446,356.31823119998444,356.81895609997446,355.48423569998704,None,356.81895609997446,358.472226199985,0.8600000000000005,358.4881077000173,None,359.23953439999605,None,,,,,,,[[1.64]],2.9700000000000024,0.703125,11013,002,2024_Jan_02_2005,MFTM_A_new1021,2021.2.3,60.05886969787561,
,,,,,,,,stim/Instruction_adaptive.png,conditions/adaptive.xlsx,test,0.6,0.6,0.6,-0.6,-0.6,right,R,,,,,0,1,1,1,0,64,64,84,,,,,,,,,,,,,,,,,,,,,,,,,,,,,,,,,,,,,,,,,,,,359.74035899998853,None,right,1,0.9564927000319585,360.2407683999627,361.5927212999668,360.2407683999627,361.092025299964,360.2407683999627,361.092025299964,360.2407683999627,361.092025299964,360.2407683999627,361.092025299964,360.2407683999627,361.092025299964,361.0593535999651,361.5597279999638,361.0593535999651,361.5597279999638,361.0593535999651,361.5597279999638,361.0593535999651,361.5597279999638,361.0593535999651,361.5597279999638,361.0593535999651,361.5597279999638,361.0593535999651,361.5597279999638,361.0593535999651,361.5597279999638,360.2407683999627,None,361.5597279999638,363.2291199999745,0.8400000000000005,363.24582509999163,None,363.9970375999692,None,,,,,,,[[1.66]],3.000000000000002,0.7076923076923077,11013,002,2024_Jan_02_2005,MFTM_A_new1021,2021.2.3,60.05886969787561,
,,,,,,,,stim/Instruction_adaptive.png,conditions/adaptive.xlsx,test,0.6,0.6,0.6,-0.6,-0.6,right,R,,,,,0,1,1,1,0,65,65,92,,,,,,,,,,,,,,,,,,,,,,,,,,,,,,,,,,,,,,,,,,,,364.4976018000161,None,right,1,1.7911503000068478,364.9979045999935,366.33340000000317,364.9979045999935,365.83231929998146,364.9979045999935,365.83231929998146,364.9979045999935,365.83231929998146,364.9979045999935,365.83231929998146,364.9979045999935,365.83231929998146,365.79890659998637,366.2995934999781,365.79890659998637,366.2995934999781,365.79890659998637,366.2995934999781,365.79890659998637,366.2995934999781,365.79890659998637,366.2995934999781,365.79890659998637,366.2995934999781,365.79890659998637,366.2995934999781,365.79890659998637,366.2995934999781,364.9979045999935,None,366.2995934999781,367.98557279998204,0.8200000000000005,368.00222439999925,None,368.7533242999925,None,,,,,,,[[1.68]],3.0400000000000023,0.7121212121212122,11013,002,2024_Jan_02_2005,MFTM_A_new1021,2021.2.3,60.05886969787561,
,,,,,,,,stim/Instruction_adaptive.png,conditions/adaptive.xlsx,test,-0.6,-0.6,-0.6,0.6,0.6,left,L,,,,,0,1,1,1,0,66,66,11,,,,,,,,,,,,,,,,,,,,,,,,,,,,,,,,,,,,,,,,,,,,369.25410949997604,None,left,1,0.8826641999767162,369.75457859999733,371.0574722000165,369.75457859999733,370.55607799999416,369.75457859999733,370.55607799999416,369.75457859999733,370.55607799999416,369.75457859999733,370.55607799999416,369.75457859999733,370.55607799999416,370.5398257999914,371.0412978999666,370.5398257999914,371.0412978999666,370.5398257999914,371.0412978999666,370.5398257999914,371.0412978999666,370.5398257999914,371.0412978999666,370.5398257999914,371.0412978999666,370.5398257999914,371.0412978999666,370.5398257999914,371.0412978999666,369.75457859999733,None,371.0412978999666,372.74262279999675,0.8000000000000005,372.75921340001514,None,373.51098690001527,None,,,,,,,[[1.7]],3.0800000000000023,0.7164179104477612,11013,002,2024_Jan_02_2005,MFTM_A_new1021,2021.2.3,60.05886969787561,
,,,,,,,,stim/Instruction_adaptive.png,conditions/adaptive.xlsx,test,-0.6,-0.6,-0.6,0.6,0.6,left,L,,,,,0,1,1,1,0,67,67,35,,,,,,,,,,,,,,,,,,,,,,,,,,,,,,,,,,,,,,,,,,,,374.01108759996714,None,right,0,1.0459696999751031,374.5116314999759,375.79851489997236,374.5116314999759,375.29672889999347,374.5116314999759,375.29672889999347,374.5116314999759,375.29672889999347,374.5116314999759,375.29672889999347,374.5116314999759,375.29672889999347,375.2799134000088,375.7803791000042,375.2799134000088,375.7803791000042,375.2799134000088,375.7803791000042,375.2799134000088,375.7803791000042,375.2799134000088,375.7803791000042,375.2799134000088,375.7803791000042,375.2799134000088,375.7803791000042,375.2799134000088,375.7803791000042,374.5116314999759,None,375.7803791000042,377.4998661999707,0.7800000000000005,377.5162219000049,None,378.2674738999922,None,,,,,,,[[1.72]],2.9700000000000024,0.7058823529411765,11013,002,2024_Jan_02_2005,MFTM_A_new1021,2021.2.3,60.05886969787561,
,,,,,,,,stim/Instruction_adaptive.png,conditions/adaptive.xlsx,test,-0.6,-0.6,-0.6,0.6,0.6,left,L,,,,,0,1,1,1,0,68,68,89,,,,,,,,,,,,,,,,,,,,,,,,,,,,,,,,,,,,,,,,,,,,378.7681572000147,None,left,1,1.4162522000260651,379.2688981000101,380.6217865999788,379.2688981000101,380.1201629000134,379.2688981000101,380.1201629000134,379.2688981000101,380.1201629000134,379.2688981000101,380.1201629000134,379.2688981000101,380.1201629000134,380.08817409997573,380.58753209997667,380.08817409997573,380.58753209997667,380.08817409997573,380.58753209997667,380.08817409997573,380.58753209997667,380.08817409997573,380.58753209997667,380.08817409997573,380.58753209997667,380.08817409997573,380.58753209997667,380.08817409997573,380.58753209997667,379.2688981000101,None,380.58753209997667,382.2566160999704,0.8400000000000005,382.2732265999657,None,383.02489870000863,None,,,,,,,[[1.66]],3.0100000000000025,0.7101449275362319,11013,002,2024_Jan_02_2005,MFTM_A_new1021,2021.2.3,60.05886969787561,
,,,,,,,,stim/Instruction_adaptive.png,conditions/adaptive.xlsx,test,0.6,0.6,0.6,-0.6,-0.6,right,R,,,,,0,1,1,1,0,69,69,30,,,,,,,,,,,,,,,,,,,,,,,,,,,,,,,,,,,,,,,,,,,,383.5261264999863,None,right,1,1.4671171000227332,384.0264546999824,385.36120819998905,384.0264546999824,384.860537200002,384.0264546999824,384.860537200002,384.0264546999824,384.860537200002,384.0264546999824,384.860537200002,384.0264546999824,384.860537200002,384.8271258000168,385.3278548999806,384.8271258000168,385.3278548999806,384.8271258000168,385.3278548999806,384.8271258000168,385.3278548999806,384.8271258000168,385.3278548999806,384.8271258000168,385.3278548999806,384.8271258000168,385.3278548999806,384.8271258000168,385.3278548999806,384.0264546999824,None,385.3278548999806,387.0136216999963,0.8200000000000005,387.0303744999692,None,387.78224440000486,None,,,,,,,[[1.68]],3.0400000000000023,0.7142857142857143,11013,002,2024_Jan_02_2005,MFTM_A_new1021,2021.2.3,60.05886969787561,
,,,,,,,,stim/Instruction_adaptive.png,conditions/adaptive.xlsx,test,-0.6,-0.6,-0.6,0.6,0.6,left,L,,,,,0,1,1,1,0,70,70,77,,,,,,,,,,,,,,,,,,,,,,,,,,,,,,,,,,,,,,,,,,,,388.28340479999315,None,left,1,1.1191718999762088,388.7830407000147,390.0855962999631,388.7830407000147,389.58408260002034,388.7830407000147,389.58408260002034,388.7830407000147,389.58408260002034,388.7830407000147,389.58408260002034,388.7830407000147,389.58408260002034,389.5678062000079,390.0682800000068,389.5678062000079,390.0682800000068,389.5678062000079,390.0682800000068,389.5678062000079,390.0682800000068,389.5678062000079,390.0682800000068,389.5678062000079,390.0682800000068,389.5678062000079,390.0682800000068,389.5678062000079,390.0682800000068,388.7830407000147,None,390.0682800000068,391.77073190000374,0.8000000000000005,391.7887082999805,None,392.539470699965,None,,,,,,,[[1.7]],3.0800000000000023,0.7183098591549296,11013,002,2024_Jan_02_2005,MFTM_A_new1021,2021.2.3,60.05886969787561,
,,,,,,,,stim/Instruction_adaptive.png,conditions/adaptive.xlsx,test,0.6,0.6,0.6,-0.6,-0.6,right,R,,,,,0,1,1,1,0,71,71,94,,,,,,,,,,,,,,,,,,,,,,,,,,,,,,,,,,,,,,,,,,,,393.0394867999712,None,right,1,0.8411355999996886,393.5400551999919,394.8256793000037,393.5400551999919,394.3243735000142,393.5400551999919,394.3243735000142,393.5400551999919,394.3243735000142,393.5400551999919,394.3243735000142,393.5400551999919,394.3243735000142,394.30773749999935,394.8086084999959,394.30773749999935,394.8086084999959,394.30773749999935,394.8086084999959,394.30773749999935,394.8086084999959,394.30773749999935,394.8086084999959,394.30773749999935,394.8086084999959,394.30773749999935,394.8086084999959,394.30773749999935,394.8086084999959,393.5400551999919,None,394.8086084999959,396.528584100015,0.7800000000000005,396.54442709998693,None,397.2955787999672,None,,,,,,,[[1.72]],3.110000000000002,0.7222222222222222,11013,002,2024_Jan_02_2005,MFTM_A_new1021,2021.2.3,60.05886969787561,
,,,,,,,,stim/Instruction_adaptive.png,conditions/adaptive.xlsx,test,-0.6,-0.6,-0.6,0.6,0.6,left,L,,,,,0,1,1,1,0,72,72,19,,,,,,,,,,,,,,,,,,,,,,,,,,,,,,,,,,,,,,,,,,,,397.7969443000038,None,right,0,1.0440478000091389,398.2970827000099,399.56561749998946,398.2970827000099,399.064940900018,398.2970827000099,399.064940900018,398.2970827000099,399.064940900018,398.2970827000099,399.064940900018,398.2970827000099,399.064940900018,399.0479844000074,399.54888879996724,399.0479844000074,399.54888879996724,399.0479844000074,399.54888879996724,399.0479844000074,399.54888879996724,399.0479844000074,399.54888879996724,399.0479844000074,399.54888879996724,399.0479844000074,399.54888879996724,399.0479844000074,399.54888879996724,398.2970827000099,None,399.54888879996724,None,0.7600000000000005,401.3024121999624,None,402.0529125999892,None,,,,,,,[1.73712329],3.0200000000000022,0.7123287671232876,11013,002,2024_Jan_02_2005,MFTM_A_new1021,2021.2.3,60.05886969787561,
,,,,,,,,stim/Instruction_adaptive.png,conditions/adaptive.xlsx,test,-0.6,-0.6,-0.6,0.6,0.6,left,L,,,,,0,1,1,1,0,73,73,93,,,,,,,,,,,,,,,,,,,,,,,,,,,,,,,,,,,,,,,,,,,,402.55400920001557,None,left,1,1.2310450000222772,403.05414299998665,404.3727515999926,403.05414299998665,403.8718874999904,403.05414299998665,403.8718874999904,403.05414299998665,403.8718874999904,403.05414299998665,403.8718874999904,403.05414299998665,403.8718874999904,403.8551720000105,404.356852900004,403.8551720000105,404.356852900004,403.8551720000105,404.356852900004,403.8551720000105,404.356852900004,403.8551720000105,404.356852900004,403.8551720000105,404.356852900004,403.8551720000105,404.356852900004,403.8551720000105,404.356852900004,403.05414299998665,None,404.3393944000127,406.04184209997766,0.8100000000000005,406.05838840000797,None,406.8102926000138,None,,,,,,,[[1.69]],3.0500000000000025,0.7162162162162162,11013,002,2024_Jan_02_2005,MFTM_A_new1021,2021.2.3,60.05886969787561,
,,,,,,,,stim/Instruction_adaptive.png,conditions/adaptive.xlsx,test,-0.6,-0.6,-0.6,0.6,0.6,left,L,,,,,0,1,1,1,0,74,74,51,,,,,,,,,,,,,,,,,,,,,,,,,,,,,,,,,,,,,,,,,,,,407.3112365999841,None,right,0,0.809982199978549,407.8112829999882,409.1135243999888,407.8112829999882,408.61237499996787,407.8112829999882,408.61237499996787,407.8112829999882,408.61237499996787,407.8112829999882,408.61237499996787,407.8112829999882,408.61237499996787,408.57903710001847,409.0801543999696,408.57903710001847,409.0801543999696,408.57903710001847,409.0801543999696,408.57903710001847,409.0801543999696,408.57903710001847,409.0801543999696,408.57903710001847,409.0801543999696,408.57903710001847,409.0801543999696,408.57903710001847,409.0801543999696,407.8112829999882,None,409.0801543999696,410.79967530001886,0.7900000000000005,410.8151498999796,None,411.5672848999966,None,,,,,,,[[1.71]],2.960000000000002,0.7066666666666667,11013,002,2024_Jan_02_2005,MFTM_A_new1021,2021.2.3,60.05886969787561,
,,,,,,,,stim/Instruction_adaptive.png,conditions/adaptive.xlsx,test,-0.6,-0.6,-0.6,0.6,0.6,left,L,,,,,0,1,1,1,0,75,75,83,,,,,,,,,,,,,,,,,,,,,,,,,,,,,,,,,,,,,,,,,,,,412.0681900999625,None,left,1,1.0537517000338994,412.56819879997056,413.92032609996386,412.56819879997056,413.4194158000173,412.56819879997056,413.4194158000173,412.56819879997056,413.4194158000173,412.56819879997056,413.4194158000173,412.56819879997056,413.4194158000173,413.4035053999978,413.90409620001446,413.4035053999978,413.90409620001446,413.4035053999978,413.90409620001446,413.4035053999978,413.90409620001446,413.4035053999978,413.90409620001446,413.4035053999978,413.90409620001446,413.4035053999978,413.90409620001446,413.4035053999978,413.90409620001446,412.56819879997056,None,413.90409620001446,415.5570001999731,0.8500000000000005,415.57243499998003,None,416.3248046999797,None,,,,,,,[[1.65]],2.990000000000002,0.7105263157894737,11013,002,2024_Jan_02_2005,MFTM_A_new1021,2021.2.3,60.05886969787561,
,,,,,,,,stim/Instruction_adaptive.png,conditions/adaptive.xlsx,test,-0.6,-0.6,-0.6,0.6,0.6,left,L,,,,,0,1,1,1,0,76,76,53,,,,,,,,,,,,,,,,,,,,,,,,,,,,,,,,,,,,,,,,,,,,416.82460049999645,None,left,1,1.3682686000247486,417.3253427000018,418.6612662000116,417.3253427000018,418.1595939999679,417.3253427000018,418.1595939999679,417.3253427000018,418.1595939999679,417.3253427000018,418.1595939999679,417.3253427000018,418.1595939999679,418.1432085999986,418.6440040000016,418.1432085999986,418.6440040000016,418.1432085999986,418.6440040000016,418.1432085999986,418.6440040000016,418.1432085999986,418.6440040000016,418.1432085999986,418.6440040000016,418.1432085999986,418.6440040000016,418.1432085999986,418.6440040000016,417.3253427000018,None,418.6440040000016,420.3135045999661,0.8300000000000005,420.3291490999982,None,421.0814148999634,None,,,,,,,[[1.67]],3.0200000000000022,0.7142857142857143,11013,002,2024_Jan_02_2005,MFTM_A_new1021,2021.2.3,60.05886969787561,
,,,,,,,,stim/Instruction_adaptive.png,conditions/adaptive.xlsx,test,0.6,0.6,0.6,-0.6,-0.6,right,R,,,,,0,1,1,1,0,77,77,82,,,,,,,,,,,,,,,,,,,,,,,,,,,,,,,,,,,,,,,,,,,,421.58182799996575,None,right,1,1.2669191000168212,422.08233100001235,423.4014349000063,422.08233100001235,422.9015109000029,422.08233100001235,422.9015109000029,422.08233100001235,422.9015109000029,422.08233100001235,422.9015109000029,422.08233100001235,422.9015109000029,422.88353940000525,423.3854129000101,422.88353940000525,423.3854129000101,422.88353940000525,423.3854129000101,422.88353940000525,423.3854129000101,422.88353940000525,423.3854129000101,422.88353940000525,423.3854129000101,422.88353940000525,423.3854129000101,422.88353940000525,423.3854129000101,422.08233100001235,None,423.3854129000101,None,0.8100000000000005,425.0868835999863,None,425.83792540000286,None,,,,,,,[[1.69]],3.0500000000000025,0.717948717948718,11013,002,2024_Jan_02_2005,MFTM_A_new1021,2021.2.3,60.05886969787561,
,,,,,,,,stim/Instruction_adaptive.png,conditions/adaptive.xlsx,test,0.6,0.6,0.6,-0.6,-0.6,right,R,,,,,0,1,1,1,0,78,78,24,,,,,,,,,,,,,,,,,,,,,,,,,,,,,,,,,,,,,,,,,,,,426.3390745999641,None,right,1,1.5095367999747396,426.8396621000138,428.14127610001015,426.8396621000138,427.64060779998545,426.8396621000138,427.64060779998545,426.8396621000138,427.64060779998545,426.8396621000138,427.64060779998545,426.8396621000138,427.64060779998545,427.6073960000067,428.10856169997714,427.6073960000067,428.10856169997714,427.6073960000067,428.10856169997714,427.6073960000067,428.10856169997714,427.6073960000067,428.10856169997714,427.6073960000067,428.10856169997714,427.6073960000067,428.10856169997714,427.6073960000067,428.10856169997714,426.8396621000138,None,428.10856169997714,429.8271916999947,0.7900000000000005,429.8443121999735,None,430.59543809999013,None,,,,,,,[[1.71]],3.0800000000000023,0.7215189873417721,11013,002,2024_Jan_02_2005,MFTM_A_new1021,2021.2.3,60.05886969787561,
,,,,,,,,stim/Instruction_adaptive.png,conditions/adaptive.xlsx,test,-0.6,-0.6,-0.6,0.6,0.6,left,L,,,,,0,1,1,1,0,79,79,63,,,,,,,,,,,,,,,,,,,,,,,,,,,,,,,,,,,,,,,,,,,,431.0959550999687,None,left,1,1.0420413999818265,431.5963660000125,432.8816720999894,431.5963660000125,432.3818931999849,431.5963660000125,432.3818931999849,431.5963660000125,432.3818931999849,431.5963660000125,432.3818931999849,431.5963660000125,432.3818931999849,432.3643582999939,432.8649274999625,432.3643582999939,432.8649274999625,432.3643582999939,432.8649274999625,432.3643582999939,432.8649274999625,432.3643582999939,432.8649274999625,432.3643582999939,432.8649274999625,432.3643582999939,432.8649274999625,432.3643582999939,432.8649274999625,431.5963660000125,None,432.8649274999625,434.5842375999782,0.7800000000000005,434.6009725999902,None,435.3526364999707,None,,,,,,,[[1.72]],3.1000000000000023,0.725,11013,002,2024_Jan_02_2005,MFTM_A_new1021,2021.2.3,60.05886969787561,
,,,,,,,,stim/Instruction_adaptive.png,conditions/adaptive.xlsx,test,0.6,0.6,0.6,-0.6,-0.6,right,R,,,,,0,1,1,1,0,80,80,6,,,,,,,,,,,,,,,,,,,,,,,,,,,,,,,,,,,,,,,,,,,,435.85293180000735,None,right,1,0.6758235999732278,436.35346189996926,437.62251349998405,436.35346189996926,437.13789239997277,436.35346189996926,437.13789239997277,436.35346189996926,437.13789239997277,436.35346189996926,437.13789239997277,436.35346189996926,437.13789239997277,437.1051265000133,437.60595810000086,437.1051265000133,437.60595810000086,437.1051265000133,437.60595810000086,437.1051265000133,437.60595810000086,437.1051265000133,437.60595810000086,437.1051265000133,437.60595810000086,437.1051265000133,437.60595810000086,437.1051265000133,437.60595810000086,436.35346189996926,None,437.60595810000086,439.3417993999901,0.7700000000000005,439.35792340000626,None,440.1090911999927,None,,,,,,,[[1.73]],3.1300000000000026,0.7283950617283951,11013,002,2024_Jan_02_2005,MFTM_A_new1021,2021.2.3,60.05886969787561,
,,,,,,,,stim/Instruction_adaptive.png,conditions/adaptive.xlsx,test,-0.6,-0.6,-0.6,0.6,0.6,left,L,,,,,0,1,1,1,0,81,81,45,,,,,,,,,,,,,,,,,,,,,,,,,,,,,,,,,,,,,,,,,,,,440.61115670000436,None,left,1,0.9514406999805942,441.11051999998745,442.36216369998874,441.11051999998745,441.8629652999807,441.11051999998745,441.8629652999807,441.11051999998745,441.8629652999807,441.11051999998745,441.8629652999807,441.11051999998745,441.8629652999807,441.84548570000334,442.3459403999732,441.84548570000334,442.3459403999732,441.84548570000334,442.3459403999732,441.84548570000334,442.3459403999732,441.84548570000334,442.3459403999732,441.84548570000334,442.3459403999732,441.84548570000334,442.3459403999732,441.84548570000334,442.3459403999732,441.11051999998745,None,442.3459403999732,444.0814994999673,0.7500000000000004,444.09839549998287,None,444.84965039999224,None,,,,,,,[1.73329268],3.1600000000000024,0.7317073170731707,11013,002,2024_Jan_02_2005,MFTM_A_new1021,2021.2.3,60.05886969787561,
,,,,,,,,stim/Instruction_adaptive.png,conditions/adaptive.xlsx,test,0.6,0.6,0.6,-0.6,-0.6,right,R,,,,,0,1,1,1,0,82,82,42,,,,,,,,,,,,,,,,,,,,,,,,,,,,,,,,,,,,,,,,,,,,445.3506361999898,None,right,1,1.5146366999833845,445.8506734999828,447.1028391,445.8506734999828,446.6018769000075,445.8506734999828,446.6018769000075,445.8506734999828,446.6018769000075,445.8506734999828,446.6018769000075,445.8506734999828,446.6018769000075,446.56864229997154,447.0696130999713,446.56864229997154,447.0696130999713,446.56864229997154,447.0696130999713,446.56864229997154,447.0696130999713,446.56864229997154,447.0696130999713,446.56864229997154,447.0696130999713,446.56864229997154,447.0696130999713,446.56864229997154,447.0696130999713,445.8506734999828,None,447.0696130999713,448.8051173000131,0.7400000000000004,448.83977640001103,None,449.58965009998064,None,,,,,,,[1.73361446],3.1800000000000024,0.7349397590361446,11013,002,2024_Jan_02_2005,MFTM_A_new1021,2021.2.3,60.05886969787561,
,,,,,,,,stim/Instruction_adaptive.png,conditions/adaptive.xlsx,test,0.6,0.6,0.6,-0.6,-0.6,right,R,,,,,0,1,1,1,0,83,83,66,,,,,,,,,,,,,,,,,,,,,,,,,,,,,,,,,,,,,,,,,,,,450.09051239996916,None,right,1,1.1419197000213899,450.5912865999853,451.82723870000336,450.5912865999853,451.3256696999888,450.5912865999853,451.3256696999888,450.5912865999853,451.3256696999888,450.5912865999853,451.3256696999888,450.5912865999853,451.3256696999888,451.3100588999805,451.8101352999802,451.3100588999805,451.8101352999802,451.3100588999805,451.8101352999802,451.3100588999805,451.8101352999802,451.3100588999805,451.8101352999802,451.3100588999805,451.8101352999802,451.3100588999805,451.8101352999802,451.3100588999805,451.8101352999802,450.5912865999853,None,451.8101352999802,453.5459790999885,0.7300000000000004,453.5620584000135,None,454.31455259997165,None,,,,,,,[1.73404762],3.2100000000000026,0.7380952380952381,11013,002,2024_Jan_02_2005,MFTM_A_new1021,2021.2.3,60.05886969787561,
,,,,,,,,stim/Instruction_adaptive.png,conditions/adaptive.xlsx,test,-0.6,-0.6,-0.6,0.6,0.6,left,L,,,,,0,1,1,1,0,84,84,5,,,,,,,,,,,,,,,,,,,,,,,,,,,,,,,,,,,,,,,,,,,,454.81487339996966,None,left,1,1.105918399989605,455.315323799965,456.5340419000131,455.315323799965,456.0335609000176,455.315323799965,456.0335609000176,455.315323799965,456.0335609000176,455.315323799965,456.0335609000176,455.315323799965,456.0335609000176,456.016185400018,456.5165089999791,456.016185400018,456.5165089999791,456.016185400018,456.5165089999791,456.016185400018,456.5165089999791,456.016185400018,456.5165089999791,456.016185400018,456.5165089999791,456.016185400018,456.5165089999791,456.016185400018,456.5165089999791,455.315323799965,None,456.5165089999791,458.253596799972,0.7100000000000004,458.2692916999804,None,459.02046410000185,None,,,,,,,[1.73470588],3.230000000000002,0.7411764705882353,11013,002,2024_Jan_02_2005,MFTM_A_new1021,2021.2.3,60.05886969787561,
,,,,,,,,stim/Instruction_adaptive.png,conditions/adaptive.xlsx,test,0.6,0.6,0.6,-0.6,-0.6,right,R,,,,,0,1,1,1,0,85,85,16,,,,,,,,,,,,,,,,,,,,,,,,,,,,,,,,,,,,,,,,,,,,459.5211580999894,None,right,1,2.152068800001871,460.0218304999871,461.22456419997616,460.0218304999871,460.7231415999704,460.0218304999871,460.7231415999704,460.0218304999871,460.7231415999704,460.0218304999871,460.7231415999704,460.0218304999871,460.7231415999704,460.7061241000192,461.20739260001574,460.7061241000192,461.20739260001574,460.7061241000192,461.20739260001574,460.7061241000192,461.20739260001574,460.7061241000192,461.20739260001574,460.7061241000192,461.20739260001574,460.7061241000192,461.20739260001574,460.7061241000192,461.20739260001574,460.0218304999871,None,461.20739260001574,462.94286100001773,0.7000000000000004,462.95957439998165,None,463.71058939996874,None,,,,,,,[1.73546512],3.2500000000000027,0.7441860465116279,11013,002,2024_Jan_02_2005,MFTM_A_new1021,2021.2.3,60.05886969787561,
,,,,,,,,stim/Instruction_adaptive.png,conditions/adaptive.xlsx,test,-0.6,-0.6,-0.6,0.6,0.6,left,L,,,,,0,1,1,1,0,86,86,61,,,,,,,,,,,,,,,,,,,,,,,,,,,,,,,,,,,,,,,,,,,,464.21219370001927,None,left,1,1.9486334999674,464.713361800008,465.9137885000091,464.713361800008,465.41394850000506,464.713361800008,465.41394850000506,464.713361800008,465.41394850000506,464.713361800008,465.41394850000506,464.713361800008,465.41394850000506,465.3802714999765,465.88108049996663,465.3802714999765,465.88108049996663,465.3802714999765,465.88108049996663,465.3802714999765,465.88108049996663,465.3802714999765,465.88108049996663,465.3802714999765,465.88108049996663,465.3802714999765,465.88108049996663,465.3802714999765,465.88108049996663,464.713361800008,None,465.88108049996663,467.6164275999763,0.6900000000000004,467.6505868000095,None,468.40078999998514,None,,,,,,,[1.73632184],3.2800000000000025,0.7471264367816092,11013,002,2024_Jan_02_2005,MFTM_A_new1021,2021.2.3,60.05886969787561,
,,,,,,,,stim/Instruction_adaptive.png,conditions/adaptive.xlsx,test,0.6,0.6,0.6,-0.6,-0.6,right,R,,,,,0,1,1,1,0,87,87,0,,,,,,,,,,,,,,,,,,,,,,,,,,,,,,,,,,,,,,,,,,,,468.90250089997426,None,left,0,1.0026667999918573,469.40311640000436,470.5874106999836,469.40311640000436,470.086632999999,469.40311640000436,470.086632999999,469.40311640000436,470.086632999999,469.40311640000436,470.086632999999,469.40311640000436,470.086632999999,470.0705532999709,470.570910200011,470.0705532999709,470.570910200011,470.0705532999709,470.570910200011,470.0705532999709,470.570910200011,470.0705532999709,470.570910200011,470.0705532999709,470.570910200011,470.0705532999709,470.570910200011,470.0705532999709,470.570910200011,469.40311640000436,None,470.570910200011,472.3070861999877,0.6800000000000004,472.32344449998345,None,473.07446550001623,None,,,,,,,[1.73727273],3.2100000000000026,0.7386363636363636,11013,002,2024_Jan_02_2005,MFTM_A_new1021,2021.2.3,60.05886969787561,
,,,,,,,,stim/Instruction_adaptive.png,conditions/adaptive.xlsx,test,-0.6,-0.6,-0.6,0.6,0.6,left,L,,,,,0,1,1,1,0,88,88,39,,,,,,,,,,,,,,,,,,,,,,,,,,,,,,,,,,,,,,,,,,,,473.5750602000044,None,left,1,0.849404799984768,474.0760855000117,475.2945089999703,474.0760855000117,474.794448199973,474.0760855000117,474.794448199973,474.0760855000117,474.794448199973,474.0760855000117,474.794448199973,474.0760855000117,474.794448199973,474.7610600999906,475.26112979999743,474.7610600999906,475.26112979999743,474.7610600999906,475.26112979999743,474.7610600999906,475.26112979999743,474.7610600999906,475.26112979999743,474.7610600999906,475.26112979999743,474.7610600999906,475.26112979999743,474.7610600999906,475.26112979999743,474.0760855000117,None,475.26112979999743,477.01407639996614,0.7100000000000004,477.0303751999745,None,477.78248870000243,None,,,,,,,[1.73786517],3.230000000000002,0.7415730337078652,11013,002,2024_Jan_02_2005,MFTM_A_new1021,2021.2.3,60.05886969787561,
,,,,,,,,stim/Instruction_adaptive.png,conditions/adaptive.xlsx,test,0.6,0.6,0.6,-0.6,-0.6,right,R,,,,,0,1,1,1,0,89,89,62,,,,,,,,,,,,,,,,,,,,,,,,,,,,,,,,,,,,,,,,,,,,478.28247989999363,None,right,1,1.510231499967631,478.78307850001147,479.98548629996367,478.78307850001147,479.48412729997654,478.78307850001147,479.48412729997654,478.78307850001147,479.48412729997654,478.78307850001147,479.48412729997654,478.78307850001147,479.48412729997654,479.46740989998216,479.96848879999015,479.46740989998216,479.96848879999015,479.46740989998216,479.96848879999015,479.46740989998216,479.96848879999015,479.46740989998216,479.96848879999015,479.46740989998216,479.96848879999015,479.46740989998216,479.96848879999015,479.46740989998216,479.96848879999015,478.78307850001147,None,479.96848879999015,None,0.7000000000000004,481.7211687999661,None,482.4718585999799,None,,,,,,,[1.73855556],3.2500000000000027,0.7444444444444445,11013,002,2024_Jan_02_2005,MFTM_A_new1021,2021.2.3,60.05886969787561,
,,,,,,,,stim/Instruction_adaptive.png,conditions/adaptive.xlsx,test,-0.6,-0.6,-0.6,0.6,0.6,left,L,,,,,0,1,1,1,0,90,90,27,,,,,,,,,,,,,,,,,,,,,,,,,,,,,,,,,,,,,,,,,,,,482.9725625999854,None,left,1,0.7327578999684192,483.47327580000274,484.67565459996695,483.47327580000274,484.17463520000456,483.47327580000274,484.17463520000456,483.47327580000274,484.17463520000456,483.47327580000274,484.17463520000456,483.47327580000274,484.17463520000456,484.1409948999644,484.6420788000105,484.1409948999644,484.6420788000105,484.1409948999644,484.6420788000105,484.1409948999644,484.6420788000105,484.1409948999644,484.6420788000105,484.1409948999644,484.6420788000105,484.1409948999644,484.6420788000105,484.1409948999644,484.6420788000105,483.47327580000274,None,484.6420788000105,486.39503869996406,0.6900000000000004,486.4115101000061,None,487.16256869997596,None,,,,,,,[1.73934066],3.2800000000000025,0.7472527472527473,11013,002,2024_Jan_02_2005,MFTM_A_new1021,2021.2.3,60.05886969787561,
,,,,,,,,stim/Instruction_adaptive.png,conditions/adaptive.xlsx,test,-0.6,-0.6,-0.6,0.6,0.6,left,L,,,,,0,1,1,1,0,91,91,15,,,,,,,,,,,,,,,,,,,,,,,,,,,,,,,,,,,,,,,,,,,,487.6628826999804,None,left,1,1.4185544000356458,488.1635253999848,489.3489960000152,488.1635253999848,488.8482668999932,488.1635253999848,488.8482668999932,488.1635253999848,488.8482668999932,488.1635253999848,488.8482668999932,488.1635253999848,488.8482668999932,488.83138039999176,489.33199639996747,488.83138039999176,489.33199639996747,488.83138039999176,489.33199639996747,488.83138039999176,489.33199639996747,488.83138039999176,489.33199639996747,488.83138039999176,489.33199639996747,488.83138039999176,489.33199639996747,488.83138039999176,489.33199639996747,488.1635253999848,None,489.33199639996747,None,0.6800000000000004,491.08456719998503,None,491.8357782000094,None,,,,,,,[1.74021739],3.3000000000000025,0.75,11013,002,2024_Jan_02_2005,MFTM_A_new1021,2021.2.3,60.05886969787561,
,,,,,,,,stim/Instruction_adaptive.png,conditions/adaptive.xlsx,test,-0.6,-0.6,-0.6,0.6,0.6,left,L,,,,,0,1,1,1,0,92,92,71,,,,,,,,,,,,,,,,,,,,,,,,,,,,,,,,,,,,,,,,,,,,492.3363988000201,None,left,1,1.560128299985081,492.8371588999871,494.022406700009,492.8371588999871,493.5215749000199,492.8371588999871,493.5215749000199,492.8371588999871,493.5215749000199,492.8371588999871,493.5215749000199,492.8371588999871,493.5215749000199,493.4882421999937,493.9890345999738,493.4882421999937,493.9890345999738,493.4882421999937,493.9890345999738,493.4882421999937,493.9890345999738,493.4882421999937,493.9890345999738,493.4882421999937,493.9890345999738,493.4882421999937,493.9890345999738,493.4882421999937,493.9890345999738,492.8371588999871,None,493.9890345999738,495.74158919998445,0.6700000000000004,495.7580078999745,None,496.5092688999721,None,,,,,,,[1.7411828],3.3200000000000025,0.7526881720430108,11013,002,2024_Jan_02_2005,MFTM_A_new1021,2021.2.3,60.05886969787561,
,,,,,,,,stim/Instruction_adaptive.png,conditions/adaptive.xlsx,test,-0.6,-0.6,-0.6,0.6,0.6,left,L,,,,,0,1,1,1,0,93,93,55,,,,,,,,,,,,,,,,,,,,,,,,,,,,,,,,,,,,,,,,,,,,497.0100737999892,None,right,0,0.8227720000431873,497.51088319998235,498.6791423999821,497.51088319998235,498.1785263000056,497.51088319998235,498.1785263000056,497.51088319998235,498.1785263000056,497.51088319998235,498.1785263000056,497.51088319998235,498.1785263000056,498.1449254999752,498.6461712999735,498.1449254999752,498.6461712999735,498.1449254999752,498.6461712999735,498.1449254999752,498.6461712999735,498.1449254999752,498.6461712999735,498.1449254999752,498.6461712999735,498.1449254999752,498.6461712999735,498.1449254999752,498.6461712999735,497.51088319998235,None,498.6461712999735,500.3984236000106,0.6600000000000004,500.41514589998405,None,501.16764359996887,None,,,,,,,[1.74223404],3.2600000000000025,0.7446808510638298,11013,002,2024_Jan_02_2005,MFTM_A_new1021,2021.2.3,60.05886969787561,
