arrwidth1,arrwidth2,arrwidth3,arrwidth4,arrwidth5,keyb,type,orientation,instruction_image,block_filename,block_type,arrow11,arrow22,arrow33,arrow44,arrow55,keyb_3,orientation3,trials.thisRepN,trials.thisTrialN,trials.thisN,trials.thisIndex,trials_3.thisRepN,trials_3.thisTrialN,trials_3.thisN,trials_3.thisIndex,trials_2.thisRepN,trials_2.thisTrialN,trials_2.thisN,trials_2.thisIndex,welcome.started,welcome.stopped,key_resp.keys,key_resp.rt,key_resp.started,key_resp.stopped,instruction_example.started,instruction_example.stopped,key_resp_3.keys,key_resp_3.rt,key_resp_3.started,key_resp_3.stopped,instruction_task.started,instruction_task.stopped,key_resp_2.keys,key_resp_2.rt,key_resp_2.started,key_resp_2.stopped,text_2.started,text_2.stopped,A1.started,A1.stopped,A2.started,A2.stopped,A3.started,A3.stopped,A4.started,A4.stopped,A5.started,A5.stopped,key_resp_4.keys,key_resp_4.corr,key_resp_4.rt,key_resp_4.started,key_resp_4.stopped,fb.started,fb.stopped,instruction_block.started,instruction_block.stopped,key_resp_8.keys,key_resp_8.rt,key_resp_8.started,key_resp_8.stopped,text_8.started,text_8.stopped,key_resp_9.keys,key_resp_9.corr,key_resp_9.rt,text_5.started,text_5.stopped,A11_3.started,A11_3.stopped,A22_2.started,A22_2.stopped,A33_2.started,A33_2.stopped,A44_2.started,A44_2.stopped,A55_2.started,A55_2.stopped,M1_3.started,M1_3.stopped,M2_2.started,M2_2.stopped,M3_2.started,M3_2.stopped,M4_2.started,M4_2.stopped,M5_2.started,M5_2.stopped,M6_2.started,M6_2.stopped,M7_2.started,M7_2.stopped,M8_2.started,M8_2.stopped,key_resp_9.started,key_resp_9.stopped,fixation.started,fixation.stopped,ET,fb_3.started,fb_3.stopped,text_9.started,text_9.stopped,fb_4.started,fb_4.stopped,text_7.started,text_7.stopped,endtext.started,endtext.stopped,fixation_ITI,CCC,Acc,participant,session,date,expName,psychopyVersion,frameRate,
,,,,,,,,,,,,,,,,,,,,,,,,,,,,,,12.198256100004073,None,space,19.84091150003951,12.198256100004073,None,,,,,,,,,,,,,,,,,,,,,,,,,,,,,,,,,,,,,,,,,,,,,,,,,,,,,,,,,,,,,,,,,,,,,,,,,,,,,,,,,,,,,,,,,11010,001,2024_Jan_01_1928,MFTM_A_new1021,2021.2.3,59.87694090111633,
,,,,,,,,,,,,,,,,,,,,,,,,,,,,,,,,,,,,32.06123650004156,None,right,29.618030400015414,32.06123650004156,None,,,,,,,,,,,,,,,,,,,,,,,,,,,,,,,,,,,,,,,,,,,,,,,,,,,,,,,,,,,,,,,,,,,,,,,,,,,,,,,,,,,11010,001,2024_Jan_01_1928,MFTM_A_new1021,2021.2.3,59.87694090111633,
,,,,,,,,,,,,,,,,,,,,,,,,,,,,,,,,,,,,,,,,,,61.70525030000135,None,right,13.902329700009432,61.70525030000135,None,,,,,,,,,,,,,,,,,,,,,,,,,,,,,,,,,,,,,,,,,,,,,,,,,,,,,,,,,,,,,,,,,,,,,,,,,,,,,11010,001,2024_Jan_01_1928,MFTM_A_new1021,2021.2.3,59.87694090111633,
0.6,0.6,0.6,-0.6,-0.6,right,3:2,R,,,,,,,,,,,0,0,0,0,,,,,,,,,,,,,,,,,,,,,,,,,,,75.64273090002825,None,75.64273090002825,None,75.64273090002825,None,75.64273090002825,None,75.64273090002825,None,75.64273090002825,None,right,1,1.700509599992074,75.64273090002825,None,77.36131240002578,None,,,,,,,,,,,,,,,,,,,,,,,,,,,,,,,,,,,,,,,,,,,,,,,,,,,,,,,,,,11010,001,2024_Jan_01_1928,MFTM_A_new1021,2021.2.3,59.87694090111633,
-0.6,-0.6,-0.6,0.6,0.6,left,3:2,L,,,,,,,,,,,0,1,1,1,,,,,,,,,,,,,,,,,,,,,,,,,,,78.11289180000313,None,78.11289180000313,None,78.11289180000313,None,78.11289180000313,None,78.11289180000313,None,78.11289180000313,None,left,1,1.1504619999905117,78.11289180000313,None,79.28138360002777,None,,,,,,,,,,,,,,,,,,,,,,,,,,,,,,,,,,,,,,,,,,,,,,,,,,,,,,,,,,11010,001,2024_Jan_01_1928,MFTM_A_new1021,2021.2.3,59.87694090111633,
0.6,0.6,0.6,-0.6,-0.6,right,3:2,R,,,,,,,,,,,1,0,2,0,,,,,,,,,,,,,,,,,,,,,,,,,,,80.03306640003575,None,80.03306640003575,None,80.03306640003575,None,80.03306640003575,None,80.03306640003575,None,80.03306640003575,None,right,1,4.022815000033006,80.03306640003575,None,84.07162850000896,None,,,,,,,,,,,,,,,,,,,,,,,,,,,,,,,,,,,,,,,,,,,,,,,,,,,,,,,,,,11010,001,2024_Jan_01_1928,MFTM_A_new1021,2021.2.3,59.87694090111633,
-0.6,-0.6,-0.6,0.6,0.6,left,3:2,L,,,,,,,,,,,1,1,3,1,,,,,,,,,,,,,,,,,,,,,,,,,,,84.8226395000238,None,84.8226395000238,None,84.8226395000238,None,84.8226395000238,None,84.8226395000238,None,84.8226395000238,None,left,1,1.9045372000546195,84.8226395000238,None,86.7589896999998,None,,,,,,,,,,,,,,,,,,,,,,,,,,,,,,,,,,,,,,,,,,,,,,,,,,,,,,,,,,11010,001,2024_Jan_01_1928,MFTM_A_new1021,2021.2.3,59.87694090111633,
,,,,,,,,stim/Instruction_mask.png,conditions/adaptive.xlsx,practice,0.6,0.6,0.6,-0.6,-0.6,right,R,,,,,0,0,0,0,0,0,0,56,,,,,,,,,,,,,,,,,,,,,,,,,,,,,,,,,,,,,,87.74370779999299,None,right,78.70372220000718,87.74370779999299,None,166.56086480000522,None,left,0,1.1485999000142328,166.99510040000314,None,166.99510040000314,169.99919930001488,166.99510040000314,169.99919930001488,166.99510040000314,169.99919930001488,166.99510040000314,169.99919930001488,166.99510040000314,169.99919930001488,169.9829559000209,170.4837770999875,169.9829559000209,170.4837770999875,169.9829559000209,170.4837770999875,169.9829559000209,170.4837770999875,169.9829559000209,170.4837770999875,169.9829559000209,170.4837770999875,169.9829559000209,170.4837770999875,169.9829559000209,170.4837770999875,166.99510040000314,None,170.4837770999875,170.4837770999875,3,170.49960949999513,None,171.25145280000288,None,,,,,,,,,,11010,001,2024_Jan_01_1928,MFTM_A_new1021,2021.2.3,59.87694090111633,
,,,,,,,,stim/Instruction_mask.png,conditions/adaptive.xlsx,practice,-0.6,-0.6,-0.6,0.6,0.6,left,L,,,,,0,0,0,0,0,1,1,69,,,,,,,,,,,,,,,,,,,,,,,,,,,,,,,,,,,,,,,,,,,,171.7520222000312,None,right,0,1.9629889999632724,172.2524529999937,174.25553040002706,172.2524529999937,173.75438140000915,172.2524529999937,173.75438140000915,172.2524529999937,173.75438140000915,172.2524529999937,173.75438140000915,172.2524529999937,173.75438140000915,173.73842110001715,174.23912980000023,173.73842110001715,174.23912980000023,173.73842110001715,174.23912980000023,173.73842110001715,174.23912980000023,173.73842110001715,174.23912980000023,173.73842110001715,174.23912980000023,173.73842110001715,174.23912980000023,173.73842110001715,174.23912980000023,172.2524529999937,None,174.23912980000023,175.74097230000189,1.5,175.7575729000382,None,176.50875119998818,None,,,,,,,,,,11010,001,2024_Jan_01_1928,MFTM_A_new1021,2021.2.3,59.87694090111633,
,,,,,,,,stim/Instruction_mask.png,conditions/adaptive.xlsx,practice,-0.6,-0.6,-0.6,0.6,0.6,left,L,,,,,0,0,0,0,0,2,2,97,,,,,,,,,,,,,,,,,,,,,,,,,,,,,,,,,,,,,,,,,,,,177.00935230002506,None,left,1,1.185236099991016,177.51021490001585,178.81240460003028,177.51021490001585,178.3112969000358,177.51021490001585,178.3112969000358,177.51021490001585,178.3112969000358,177.51021490001585,178.3112969000358,177.51021490001585,178.3112969000358,178.29492439999012,178.79780629999004,178.29492439999012,178.79780629999004,178.29492439999012,178.79780629999004,178.29492439999012,178.79780629999004,178.29492439999012,178.79780629999004,178.29492439999012,178.79780629999004,178.29492439999012,178.79780629999004,178.29492439999012,178.79780629999004,177.51021490001585,None,178.79780629999004,180.99896490003448,0.8,181.01576020003995,None,181.76660600001924,None,,,,,,,,,,11010,001,2024_Jan_01_1928,MFTM_A_new1021,2021.2.3,59.87694090111633,
,,,,,,,,stim/Instruction_mask.png,conditions/adaptive.xlsx,practice,-0.6,-0.6,-0.6,0.6,0.6,left,L,,,,,0,0,0,0,0,3,3,55,,,,,,,,,,,,,,,,,,,,,,,,,,,,,,,,,,,,,,,,,,,,182.2679838000331,None,left,1,0.7916704000090249,182.7677587000071,183.51890920003643,182.7677587000071,183.01824310002849,182.7677587000071,183.01824310002849,182.7677587000071,183.01824310002849,182.7677587000071,183.01824310002849,182.7677587000071,183.01824310002849,183.00168929999927,183.5022072000429,183.00168929999927,183.5022072000429,183.00168929999927,183.5022072000429,183.00168929999927,183.5022072000429,183.00168929999927,183.5022072000429,183.00168929999927,183.5022072000429,183.00168929999927,183.5022072000429,183.00168929999927,183.5022072000429,182.7677587000071,None,183.5022072000429,186.2563056999934,3,186.27296360000037,None,187.02465320000192,None,,,,,,,,,,11010,001,2024_Jan_01_1928,MFTM_A_new1021,2021.2.3,59.87694090111633,
,,,,,,,,stim/Instruction_mask.png,conditions/adaptive.xlsx,practice,,,,,,,,,,,,0,0,0,0,,,,,,,,,,,,,,,,,,,,,,,,,,,,,,,,,,,,,,,,,,,,,,,,,,,,,,,,,,,,,,,,,,,,,,,,,,,,,,,,,,,,,,,,,,187.54299759998685,188.54379740002332,188.51016629999503,188.51016629999503,188.51016629999503,None,,,,11010,001,2024_Jan_01_1928,MFTM_A_new1021,2021.2.3,59.87694090111633,
,,,,,,,,stim/Instruction_adaptive.png,conditions/adaptive.xlsx,test,0.6,0.6,0.6,-0.6,-0.6,right,R,,,,,0,1,1,1,0,0,0,36,,,,,,,,,,,,,,,,,,,,,,,,,,,,,,,,,,,,,,191.64762810000684,None,right,33.04019279999193,191.64762810000684,None,224.72990350000327,None,right,1,2.4646496000350453,225.23084400000516,None,225.23084400000516,228.23608549998607,225.23084400000516,228.23608549998607,225.23084400000516,228.23608549998607,225.23084400000516,228.23608549998607,225.23084400000516,228.23608549998607,228.21942259999923,228.71928160003154,228.21942259999923,228.71928160003154,228.21942259999923,228.71928160003154,228.21942259999923,228.71928160003154,228.21942259999923,228.71928160003154,228.21942259999923,228.71928160003154,228.21942259999923,228.71928160003154,228.21942259999923,228.71928160003154,225.23084400000516,None,228.71928160003154,228.71928160003154,3,228.73682039999403,None,229.48785090004094,None,,,,,,,0,6.000000000000005,1.0,11010,001,2024_Jan_01_1928,MFTM_A_new1021,2021.2.3,59.87694090111633,
,,,,,,,,stim/Instruction_adaptive.png,conditions/adaptive.xlsx,test,0.6,0.6,0.6,-0.6,-0.6,right,R,,,,,0,1,1,1,0,1,1,78,,,,,,,,,,,,,,,,,,,,,,,,,,,,,,,,,,,,,,,,,,,,229.98796190001303,None,right,1,1.2707793000154197,230.48852770001395,231.23981100000674,230.48852770001395,230.73957969999174,230.48852770001395,230.73957969999174,230.48852770001395,230.73957969999174,230.48852770001395,230.73957969999174,230.48852770001395,230.73957969999174,230.72230040002614,231.2240759000415,230.72230040002614,231.2240759000415,230.72230040002614,231.2240759000415,230.72230040002614,231.2240759000415,230.72230040002614,231.2240759000415,230.72230040002614,231.2240759000415,230.72230040002614,231.2240759000415,230.72230040002614,231.2240759000415,230.48852770001395,None,231.2240759000415,232.10866500000702,0.25,232.12419010000303,None,232.87616200000048,None,,,,,,,[0.875],6.000000000000005,1.0,11010,001,2024_Jan_01_1928,MFTM_A_new1021,2021.2.3,59.87694090111633,
,,,,,,,,stim/Instruction_adaptive.png,conditions/adaptive.xlsx,test,-0.6,-0.6,-0.6,0.6,0.6,left,L,,,,,0,1,1,1,0,2,2,19,,,,,,,,,,,,,,,,,,,,,,,,,,,,,,,,,,,,,,,,,,,,233.37666469998658,None,right,0,0.7945753999520093,233.8770230000373,234.62864190002438,233.8770230000373,234.1271451000357,233.8770230000373,234.1271451000357,233.8770230000373,234.1271451000357,233.8770230000373,234.1271451000357,233.8770230000373,234.1271451000357,234.1106906000059,234.6114544000011,234.1106906000059,234.6114544000011,234.1106906000059,234.6114544000011,234.1106906000059,234.6114544000011,234.1106906000059,234.6114544000011,234.1106906000059,234.6114544000011,234.1106906000059,234.6114544000011,234.1106906000059,234.6114544000011,233.8770230000373,None,234.6114544000011,235.94854850001866,0.25,235.96298850001767,None,236.7144114000257,None,,,,,,,[1.33333333],3.1800000000000024,0.6666666666666666,11010,001,2024_Jan_01_1928,MFTM_A_new1021,2021.2.3,59.87694090111633,
,,,,,,,,stim/Instruction_adaptive.png,conditions/adaptive.xlsx,test,0.6,0.6,0.6,-0.6,-0.6,right,R,,,,,0,1,1,1,0,3,3,62,,,,,,,,,,,,,,,,,,,,,,,,,,,,,,,,,,,,,,,,,,,,237.2153713000007,None,left,0,1.2433211999596097,237.71607600001153,238.95108710002387,237.71607600001153,238.4504169000429,237.71607600001153,238.4504169000429,237.71607600001153,238.4504169000429,237.71607600001153,238.4504169000429,237.71607600001153,238.4504169000429,238.43366989999777,238.93502100004116,238.43366989999777,238.93502100004116,238.43366989999777,238.93502100004116,238.43366989999777,238.93502100004116,238.43366989999777,238.93502100004116,238.43366989999777,238.93502100004116,238.43366989999777,238.93502100004116,238.43366989999777,238.93502100004116,237.71607600001153,None,238.93502100004116,240.38748139998643,0.7300000000000004,240.4043973000371,None,241.15512440004386,None,,,,,,,[1.4425],1.510000000000001,0.5,11010,001,2024_Jan_01_1928,MFTM_A_new1021,2021.2.3,59.87694090111633,
,,,,,,,,stim/Instruction_adaptive.png,conditions/adaptive.xlsx,test,0.6,0.6,0.6,-0.6,-0.6,right,R,,,,,0,1,1,1,0,4,4,10,,,,,,,,,,,,,,,,,,,,,,,,,,,,,,,,,,,,,,,,,,,,241.6561182999867,None,right,1,1.3955019999993965,242.15593080001418,244.9774480999913,242.15593080001418,244.4760427000001,242.15593080001418,244.4760427000001,242.15593080001418,244.4760427000001,242.15593080001418,244.4760427000001,242.15593080001418,244.4760427000001,244.4429572999943,244.94344290002482,244.4429572999943,244.94344290002482,244.4429572999943,244.94344290002482,244.4429572999943,244.94344290002482,244.4429572999943,244.94344290002482,244.4429572999943,244.94344290002482,244.4429572999943,244.94344290002482,244.4429572999943,244.94344290002482,242.15593080001418,None,244.94344290002482,245.14382950001163,2.310000000000002,245.16060260002268,None,245.91215970000485,None,,,,,,,[[0.19]],2.2800000000000016,0.6,11010,001,2024_Jan_01_1928,MFTM_A_new1021,2021.2.3,59.87694090111633,
,,,,,,,,stim/Instruction_adaptive.png,conditions/adaptive.xlsx,test,-0.6,-0.6,-0.6,0.6,0.6,left,L,,,,,0,1,1,1,0,5,5,79,,,,,,,,,,,,,,,,,,,,,,,,,,,,,,,,,,,,,,,,,,,,246.41212560003623,None,left,1,1.6543417000211775,246.91301730001578,248.76576999999816,246.91301730001578,248.2648130999878,246.91301730001578,248.2648130999878,246.91301730001578,248.2648130999878,246.91301730001578,248.2648130999878,246.91301730001578,248.2648130999878,248.2493400000385,248.7492831000127,248.2493400000385,248.7492831000127,248.2493400000385,248.7492831000127,248.2493400000385,248.7492831000127,248.2493400000385,248.7492831000127,248.2493400000385,248.7492831000127,248.2493400000385,248.7492831000127,248.2493400000385,248.7492831000127,246.91301730001578,None,248.7492831000127,249.9004711000016,1.350000000000001,249.9172011000337,None,250.6685429000063,None,,,,,,,[[1.15]],2.7100000000000017,0.6666666666666666,11010,001,2024_Jan_01_1928,MFTM_A_new1021,2021.2.3,59.87694090111633,
,,,,,,,,stim/Instruction_adaptive.png,conditions/adaptive.xlsx,test,0.6,0.6,0.6,-0.6,-0.6,right,R,,,,,0,1,1,1,0,6,6,14,,,,,,,,,,,,,,,,,,,,,,,,,,,,,,,,,,,,,,,,,,,,251.17012000002433,None,left,0,1.473110600025393,251.67051710002124,253.18961090000812,251.67051710002124,252.68820690002758,251.67051710002124,252.68820690002758,251.67051710002124,252.68820690002758,251.67051710002124,252.68820690002758,251.67051710002124,252.68820690002758,252.65464690001681,253.1560456000152,252.65464690001681,253.1560456000152,252.65464690001681,253.1560456000152,252.65464690001681,253.1560456000152,252.65464690001681,253.1560456000152,252.65464690001681,253.1560456000152,252.65464690001681,253.1560456000152,252.65464690001681,253.1560456000152,251.67051710002124,None,253.1560456000152,254.39114670001436,1.0100000000000007,254.42415370000526,None,255.17543290002504,None,,,,,,,[1.22857143],1.8300000000000012,0.5714285714285714,11010,001,2024_Jan_01_1928,MFTM_A_new1021,2021.2.3,59.87694090111633,
,,,,,,,,stim/Instruction_adaptive.png,conditions/adaptive.xlsx,test,-0.6,-0.6,-0.6,0.6,0.6,left,L,,,,,0,1,1,1,0,7,7,39,,,,,,,,,,,,,,,,,,,,,,,,,,,,,,,,,,,,,,,,,,,,255.67644569999538,None,left,1,1.4307302000233904,256.1765738000395,258.53043899999466,256.1765738000395,258.0295666999882,256.1765738000395,258.0295666999882,256.1765738000395,258.0295666999882,256.1765738000395,258.0295666999882,256.1765738000395,258.0295666999882,258.01280860003317,258.5141588000115,258.01280860003317,258.5141588000115,258.01280860003317,258.5141588000115,258.01280860003317,258.5141588000115,258.01280860003317,258.5141588000115,258.01280860003317,258.5141588000115,258.01280860003317,258.5141588000115,258.01280860003317,258.5141588000115,256.1765738000395,None,258.5141588000115,259.16537980001885,1.8500000000000014,259.18115150002996,None,259.9329912000103,None,,,,,,,[[0.65]],2.2000000000000015,0.625,11010,001,2024_Jan_01_1928,MFTM_A_new1021,2021.2.3,59.87694090111633,
,,,,,,,,stim/Instruction_adaptive.png,conditions/adaptive.xlsx,test,-0.6,-0.6,-0.6,0.6,0.6,left,L,,,,,0,1,1,1,0,8,8,17,,,,,,,,,,,,,,,,,,,,,,,,,,,,,,,,,,,,,,,,,,,,260.4332680000225,None,left,1,1.4260039999498986,260.9336747000343,262.8700007000007,260.9336747000343,262.36922480002977,260.9336747000343,262.36922480002977,260.9336747000343,262.36922480002977,260.9336747000343,262.36922480002977,260.9336747000343,262.36922480002977,262.3525557999965,262.8535669000121,262.3525557999965,262.8535669000121,262.3525557999965,262.8535669000121,262.3525557999965,262.8535669000121,262.3525557999965,262.8535669000121,262.3525557999965,262.8535669000121,262.3525557999965,262.8535669000121,262.3525557999965,262.8535669000121,260.9336747000343,None,262.8535669000121,None,1.430000000000001,263.9384138000314,None,264.6900956000318,None,,,,,,,[[1.07]],2.4700000000000015,0.6666666666666666,11010,001,2024_Jan_01_1928,MFTM_A_new1021,2021.2.3,59.87694090111633,
,,,,,,,,stim/Instruction_adaptive.png,conditions/adaptive.xlsx,test,-0.6,-0.6,-0.6,0.6,0.6,left,L,,,,,0,1,1,1,0,9,9,35,,,,,,,,,,,,,,,,,,,,,,,,,,,,,,,,,,,,,,,,,,,,265.18998110003304,None,left,1,1.2042984999716282,265.6910082999966,267.3940559999901,265.6910082999966,266.8925527000101,265.6910082999966,266.8925527000101,265.6910082999966,266.8925527000101,265.6910082999966,266.8925527000101,265.6910082999966,266.8925527000101,266.85915680002654,267.3600321999984,266.85915680002654,267.3600321999984,266.85915680002654,267.3600321999984,266.85915680002654,267.3600321999984,266.85915680002654,267.3600321999984,266.85915680002654,267.3600321999984,266.85915680002654,267.3600321999984,266.85915680002654,267.3600321999984,265.6910082999966,None,267.3600321999984,268.5290634999983,1.1900000000000008,268.5450247999979,None,269.2962134000263,None,,,,,,,[1.163],2.680000000000002,0.7,11010,001,2024_Jan_01_1928,MFTM_A_new1021,2021.2.3,59.87694090111633,
,,,,,,,,stim/Instruction_adaptive.png,conditions/adaptive.xlsx,test,-0.6,-0.6,-0.6,0.6,0.6,left,L,,,,,0,1,1,1,0,10,10,23,,,,,,,,,,,,,,,,,,,,,,,,,,,,,,,,,,,,,,,,,,,,269.7976320000016,None,left,1,1.2850424000062048,270.2988314999966,271.8339673000155,270.2988314999966,271.3333463000017,270.2988314999966,271.3333463000017,270.2988314999966,271.3333463000017,270.2988314999966,271.3333463000017,270.2988314999966,271.3333463000017,271.3158516000258,271.81655360001605,271.3158516000258,271.81655360001605,271.3158516000258,271.81655360001605,271.3158516000258,271.81655360001605,271.3158516000258,271.81655360001605,271.3158516000258,271.81655360001605,271.3158516000258,271.81655360001605,271.3158516000258,271.81655360001605,270.2988314999966,None,271.81655360001605,None,1.0300000000000007,273.01831429998856,None,273.76925200002734,None,,,,,,,[1.19090909],2.860000000000002,0.7272727272727273,11010,001,2024_Jan_01_1928,MFTM_A_new1021,2021.2.3,59.87694090111633,
,,,,,,,,stim/Instruction_adaptive.png,conditions/adaptive.xlsx,test,-0.6,-0.6,-0.6,0.6,0.6,left,L,,,,,0,1,1,1,0,11,11,27,,,,,,,,,,,,,,,,,,,,,,,,,,,,,,,,,,,,,,,,,,,,274.270301200042,None,left,1,1.179848800005857,274.7714330999879,276.1897761999862,274.7714330999879,275.68927730002906,274.7714330999879,275.68927730002906,274.7714330999879,275.68927730002906,274.7714330999879,275.68927730002906,274.7714330999879,275.68927730002906,275.65621620003367,276.15669070003787,275.65621620003367,276.15669070003787,275.65621620003367,276.15669070003787,275.65621620003367,276.15669070003787,275.65621620003367,276.15669070003787,275.65621620003367,276.15669070003787,275.65621620003367,276.15669070003787,275.65621620003367,276.15669070003787,274.7714330999879,None,276.15669070003787,277.3923209999921,0.9100000000000006,277.40844979998656,None,278.1611140000168,None,,,,,,,[1.22416667],3.0100000000000025,0.75,11010,001,2024_Jan_01_1928,MFTM_A_new1021,2021.2.3,59.87694090111633,
,,,,,,,,stim/Instruction_adaptive.png,conditions/adaptive.xlsx,test,0.6,0.6,0.6,-0.6,-0.6,right,R,,,,,0,1,1,1,0,12,12,68,,,,,,,,,,,,,,,,,,,,,,,,,,,,,,,,,,,,,,,,,,,,278.66229860001476,None,right,1,1.0460150999715552,279.16136279999046,280.49657379998825,279.16136279999046,279.9951735000359,279.16136279999046,279.9951735000359,279.16136279999046,279.9951735000359,279.16136279999046,279.9951735000359,279.16136279999046,279.9951735000359,279.96201240003575,280.4629569000099,279.96201240003575,280.4629569000099,279.96201240003575,280.4629569000099,279.96201240003575,280.4629569000099,279.96201240003575,280.4629569000099,279.96201240003575,280.4629569000099,279.96201240003575,280.4629569000099,279.96201240003575,280.4629569000099,279.16136279999046,None,280.4629569000099,281.73167890001787,0.8200000000000005,281.7479084000224,None,282.4997926999931,None,,,,,,,[1.25923077],3.150000000000002,0.7692307692307693,11010,001,2024_Jan_01_1928,MFTM_A_new1021,2021.2.3,59.87694090111633,
,,,,,,,,stim/Instruction_adaptive.png,conditions/adaptive.xlsx,test,-0.6,-0.6,-0.6,0.6,0.6,left,L,,,,,0,1,1,1,0,13,13,67,,,,,,,,,,,,,,,,,,,,,,,,,,,,,,,,,,,,,,,,,,,,283.00047960004304,None,left,1,0.9472521000425331,283.501493400021,284.75252010003896,283.501493400021,284.2517497999943,283.501493400021,284.2517497999943,283.501493400021,284.2517497999943,283.501493400021,284.2517497999943,283.501493400021,284.2517497999943,284.2186154000228,284.71908340003574,284.2186154000228,284.71908340003574,284.2186154000228,284.71908340003574,284.2186154000228,284.71908340003574,284.2186154000228,284.71908340003574,284.2186154000228,284.71908340003574,284.2186154000228,284.71908340003574,284.2186154000228,284.71908340003574,283.501493400021,None,284.71908340003574,286.02195490000304,0.7400000000000004,286.0376413000049,None,286.7886278000078,None,,,,,,,[1.295],3.2700000000000022,0.7857142857142857,11010,001,2024_Jan_01_1928,MFTM_A_new1021,2021.2.3,59.87694090111633,
,,,,,,,,stim/Instruction_adaptive.png,conditions/adaptive.xlsx,test,-0.6,-0.6,-0.6,0.6,0.6,left,L,,,,,0,1,1,1,0,14,14,61,,,,,,,,,,,,,,,,,,,,,,,,,,,,,,,,,,,,,,,,,,,,287.2898125000065,None,right,0,1.3132565999985673,287.7903853000025,288.97587339999154,287.7903853000025,288.4748678000178,287.7903853000025,288.4748678000178,287.7903853000025,288.4748678000178,287.7903853000025,288.4748678000178,287.7903853000025,288.4748678000178,288.4589210000122,288.9589600000181,288.4589210000122,288.9589600000181,288.4589210000122,288.9589600000181,288.4589210000122,288.9589600000181,288.4589210000122,288.9589600000181,288.4589210000122,288.9589600000181,288.4589210000122,288.9589600000181,288.4589210000122,288.9589600000181,287.7903853000025,None,288.9589600000181,290.2949951000046,0.6800000000000004,290.310017300013,None,291.0619638999924,None,,,,,,,[1.33],2.950000000000002,0.7333333333333333,11010,001,2024_Jan_01_1928,MFTM_A_new1021,2021.2.3,59.87694090111633,
,,,,,,,,stim/Instruction_adaptive.png,conditions/adaptive.xlsx,test,0.6,0.6,0.6,-0.6,-0.6,right,R,,,,,0,1,1,1,0,15,15,92,,,,,,,,,,,,,,,,,,,,,,,,,,,,,,,,,,,,,,,,,,,,291.56332990003284,None,right,1,1.144142799952533,292.0632253999938,293.4161209000158,292.0632253999938,292.9147103000432,292.0632253999938,292.9147103000432,292.0632253999938,292.9147103000432,292.0632253999938,292.9147103000432,292.0632253999938,292.9147103000432,292.8979069000343,293.3984073000029,292.8979069000343,293.3984073000029,292.8979069000343,293.3984073000029,292.8979069000343,293.3984073000029,292.8979069000343,293.3984073000029,292.8979069000343,293.3984073000029,292.8979069000343,293.3984073000029,292.8979069000343,293.3984073000029,292.0632253999938,None,293.3984073000029,294.75053980003577,0.8500000000000005,294.76727630000096,None,295.51918810000643,None,,,,,,,[1.35],3.070000000000002,0.75,11010,001,2024_Jan_01_1928,MFTM_A_new1021,2021.2.3,59.87694090111633,
,,,,,,,,stim/Instruction_adaptive.png,conditions/adaptive.xlsx,test,0.6,0.6,0.6,-0.6,-0.6,right,R,,,,,0,1,1,1,0,16,16,20,,,,,,,,,,,,,,,,,,,,,,,,,,,,,,,,,,,,,,,,,,,,296.01890920003643,None,left,0,1.0075321000185795,296.520119599998,297.8062909000437,296.520119599998,297.30466490000254,296.520119599998,297.30466490000254,296.520119599998,297.30466490000254,296.520119599998,297.30466490000254,296.520119599998,297.30466490000254,297.287814899988,297.7888302000356,297.287814899988,297.7888302000356,297.287814899988,297.7888302000356,297.287814899988,297.7888302000356,297.287814899988,297.7888302000356,297.287814899988,297.7888302000356,297.287814899988,297.7888302000356,297.287814899988,297.7888302000356,296.520119599998,None,297.7888302000356,None,0.7800000000000005,299.17373640002916,None,299.9252115000272,None,,,,,,,[1.37176471],2.760000000000002,0.7058823529411765,11010,001,2024_Jan_01_1928,MFTM_A_new1021,2021.2.3,59.87694090111633,
,,,,,,,,stim/Instruction_adaptive.png,conditions/adaptive.xlsx,test,-0.6,-0.6,-0.6,0.6,0.6,left,L,,,,,0,1,1,1,0,17,17,41,,,,,,,,,,,,,,,,,,,,,,,,,,,,,,,,,,,,,,,,,,,,300.4260023999959,None,left,1,1.1133413999923505,300.9262180000078,302.3960771000129,300.9262180000078,301.9117929000058,300.9262180000078,301.9117929000058,300.9262180000078,301.9117929000058,300.9262180000078,301.9117929000058,300.9262180000078,301.9117929000058,301.8779865000397,302.37913399998797,301.8779865000397,302.37913399998797,301.8779865000397,302.37913399998797,301.8779865000397,302.37913399998797,301.8779865000397,302.37913399998797,301.8779865000397,302.37913399998797,301.8779865000397,302.37913399998797,301.8779865000397,302.37913399998797,300.9262180000078,None,302.37913399998797,303.76427200000035,0.9700000000000006,303.7806321000098,None,304.53176400001394,None,,,,,,,[1.38055556],2.870000000000002,0.7222222222222222,11010,001,2024_Jan_01_1928,MFTM_A_new1021,2021.2.3,59.87694090111633,
,,,,,,,,stim/Instruction_adaptive.png,conditions/adaptive.xlsx,test,0.6,0.6,0.6,-0.6,-0.6,right,R,,,,,0,1,1,1,0,18,18,64,,,,,,,,,,,,,,,,,,,,,,,,,,,,,,,,,,,,,,,,,,,,305.03292329999385,None,left,0,1.553981700039003,305.5335781000322,306.935369600018,305.5335781000322,306.43482900003437,305.5335781000322,306.43482900003437,305.5335781000322,306.43482900003437,305.5335781000322,306.43482900003437,305.5335781000322,306.43482900003437,306.4186475999886,306.9186957000056,306.4186475999886,306.9186957000056,306.4186475999886,306.9186957000056,306.4186475999886,306.9186957000056,306.4186475999886,306.9186957000056,306.4186475999886,306.9186957000056,306.4186475999886,306.9186957000056,306.4186475999886,306.9186957000056,305.5335781000322,None,306.9186957000056,308.32132300001103,0.9000000000000006,308.3373721000389,None,309.0886577999918,None,,,,,,,[1.39210526],2.560000000000002,0.6842105263157895,11010,001,2024_Jan_01_1928,MFTM_A_new1021,2021.2.3,59.87694090111633,
,,,,,,,,stim/Instruction_adaptive.png,conditions/adaptive.xlsx,test,-0.6,-0.6,-0.6,0.6,0.6,left,L,,,,,0,1,1,1,0,19,19,37,,,,,,,,,,,,,,,,,,,,,,,,,,,,,,,,,,,,,,,,,,,,309.5892112000147,None,left,1,1.406430699978955,310.08988059998956,311.7100778000313,310.08988059998956,311.2248904000153,310.08988059998956,311.2248904000153,310.08988059998956,311.2248904000153,310.08988059998956,311.2248904000153,310.08988059998956,311.2248904000153,311.19145290000597,311.6922323000035,311.19145290000597,311.6922323000035,311.19145290000597,311.6922323000035,311.19145290000597,311.6922323000035,311.19145290000597,311.6922323000035,311.19145290000597,311.6922323000035,311.19145290000597,311.6922323000035,311.19145290000597,311.6922323000035,310.08988059998956,None,311.6922323000035,313.0776109000435,1.1200000000000008,313.094293800008,None,313.84566079999786,None,,,,,,,[[1.38]],2.680000000000002,0.7,11010,001,2024_Jan_01_1928,MFTM_A_new1021,2021.2.3,59.87694090111633,
,,,,,,,,stim/Instruction_adaptive.png,conditions/adaptive.xlsx,test,-0.6,-0.6,-0.6,0.6,0.6,left,L,,,,,0,1,1,1,0,20,20,25,,,,,,,,,,,,,,,,,,,,,,,,,,,,,,,,,,,,,,,,,,,,314.34628150000935,None,left,1,1.5032532999757677,314.8480254000169,316.3828386000241,314.8480254000169,315.88198110001395,314.8480254000169,315.88198110001395,314.8480254000169,315.88198110001395,314.8480254000169,315.88198110001395,314.8480254000169,315.88198110001395,315.8654157000128,316.3661995000439,315.8654157000128,316.3661995000439,315.8654157000128,316.3661995000439,315.8654157000128,316.3661995000439,315.8654157000128,316.3661995000439,315.8654157000128,316.3661995000439,315.8654157000128,316.3661995000439,315.8654157000128,316.3661995000439,314.8480254000169,None,316.3661995000439,317.76786309998715,1.0300000000000007,317.7845480000251,None,318.53586659999564,None,,,,,,,[1.3952381],2.780000000000002,0.7142857142857143,11010,001,2024_Jan_01_1928,MFTM_A_new1021,2021.2.3,59.87694090111633,
,,,,,,,,stim/Instruction_adaptive.png,conditions/adaptive.xlsx,test,0.6,0.6,0.6,-0.6,-0.6,right,R,,,,,0,1,1,1,0,21,21,66,,,,,,,,,,,,,,,,,,,,,,,,,,,,,,,,,,,,,,,,,,,,319.0371356999967,None,right,1,1.3341628999914974,319.5376524000312,321.0062641000259,319.5376524000312,320.50542330002645,319.5376524000312,320.50542330002645,319.5376524000312,320.50542330002645,319.5376524000312,320.50542330002645,319.5376524000312,320.50542330002645,320.47218760004034,320.9728374000406,320.47218760004034,320.9728374000406,320.47218760004034,320.9728374000406,320.47218760004034,320.9728374000406,320.47218760004034,320.9728374000406,320.47218760004034,320.9728374000406,320.47218760004034,320.9728374000406,320.47218760004034,320.9728374000406,319.5376524000312,None,320.9728374000406,322.37605359999,0.9600000000000006,322.408853800036,None,323.1597769000218,None,,,,,,,[1.40181818],2.870000000000002,0.7272727272727273,11010,001,2024_Jan_01_1928,MFTM_A_new1021,2021.2.3,59.87694090111633,
,,,,,,,,stim/Instruction_adaptive.png,conditions/adaptive.xlsx,test,-0.6,-0.6,-0.6,0.6,0.6,left,L,,,,,0,1,1,1,0,22,22,71,,,,,,,,,,,,,,,,,,,,,,,,,,,,,,,,,,,,,,,,,,,,323.66060599999037,None,left,1,0.8947822999907658,324.1608245000243,325.5628625000245,324.1608245000243,325.0621520000277,324.1608245000243,325.0621520000277,324.1608245000243,325.0621520000277,324.1608245000243,325.0621520000277,324.1608245000243,325.0621520000277,325.0454136999906,325.54617029998917,325.0454136999906,325.54617029998917,325.0454136999906,325.54617029998917,325.0454136999906,325.54617029998917,325.0454136999906,325.54617029998917,325.0454136999906,325.54617029998917,325.0454136999906,325.54617029998917,325.0454136999906,325.54617029998917,324.1608245000243,None,325.54617029998917,326.9648739999975,0.9000000000000006,326.9815173000097,None,327.73283490003087,None,,,,,,,[1.41043478],2.960000000000002,0.7391304347826086,11010,001,2024_Jan_01_1928,MFTM_A_new1021,2021.2.3,59.87694090111633,
,,,,,,,,stim/Instruction_adaptive.png,conditions/adaptive.xlsx,test,0.6,0.6,0.6,-0.6,-0.6,right,R,,,,,0,1,1,1,0,23,23,6,,,,,,,,,,,,,,,,,,,,,,,,,,,,,,,,,,,,,,,,,,,,328.2341970000416,None,right,1,1.4018056000350043,328.7343404000276,330.0862692000228,328.7343404000276,329.5855866000056,328.7343404000276,329.5855866000056,328.7343404000276,329.5855866000056,328.7343404000276,329.5855866000056,328.7343404000276,329.5855866000056,329.568712999986,330.06990100000985,329.568712999986,330.06990100000985,329.568712999986,330.06990100000985,329.568712999986,330.06990100000985,329.568712999986,330.06990100000985,329.568712999986,330.06990100000985,329.568712999986,330.06990100000985,329.568712999986,330.06990100000985,328.7343404000276,None,330.06990100000985,None,0.8500000000000005,331.5049339000252,None,332.2563393000164,None,,,,,,,[1.42041667],3.0400000000000023,0.75,11010,001,2024_Jan_01_1928,MFTM_A_new1021,2021.2.3,59.87694090111633,
,,,,,,,,stim/Instruction_adaptive.png,conditions/adaptive.xlsx,test,0.6,0.6,0.6,-0.6,-0.6,right,R,,,,,0,1,1,1,0,24,24,70,,,,,,,,,,,,,,,,,,,,,,,,,,,,,,,,,,,,,,,,,,,,332.75697640003636,None,left,0,1.4617356999660842,333.2576782000251,334.55953200004296,333.2576782000251,334.0595989000285,333.2576782000251,334.0595989000285,333.2576782000251,334.0595989000285,333.2576782000251,334.0595989000285,333.2576782000251,334.0595989000285,334.04256610001903,334.5438595000305,334.04256610001903,334.5438595000305,334.04256610001903,334.5438595000305,334.04256610001903,334.5438595000305,334.04256610001903,334.5438595000305,334.04256610001903,334.5438595000305,334.04256610001903,334.5438595000305,334.04256610001903,334.5438595000305,333.2576782000251,None,334.5438595000305,335.9787263000035,0.8000000000000005,335.9950453999918,None,336.7464713000227,None,,,,,,,[1.4316],2.820000000000002,0.72,11010,001,2024_Jan_01_1928,MFTM_A_new1021,2021.2.3,59.87694090111633,
,,,,,,,,stim/Instruction_adaptive.png,conditions/adaptive.xlsx,test,-0.6,-0.6,-0.6,0.6,0.6,left,L,,,,,0,1,1,1,0,25,25,5,,,,,,,,,,,,,,,,,,,,,,,,,,,,,,,,,,,,,,,,,,,,337.24667830002727,None,left,1,1.3877652999944985,337.7476379,339.1839001000044,337.7476379,338.682245300035,337.7476379,338.682245300035,337.7476379,338.682245300035,337.7476379,338.682245300035,337.7476379,338.682245300035,338.66600050003035,339.16672470001504,338.66600050003035,339.16672470001504,338.66600050003035,339.16672470001504,338.66600050003035,339.16672470001504,338.66600050003035,339.16672470001504,338.66600050003035,339.16672470001504,338.66600050003035,339.16672470001504,338.66600050003035,339.16672470001504,337.7476379,None,339.16672470001504,None,0.9300000000000006,340.6188456999953,None,341.37034880003193,None,,,,,,,[1.43692308],2.900000000000002,0.7307692307692307,11010,001,2024_Jan_01_1928,MFTM_A_new1021,2021.2.3,59.87694090111633,
,,,,,,,,stim/Instruction_adaptive.png,conditions/adaptive.xlsx,test,0.6,0.6,0.6,-0.6,-0.6,right,R,,,,,0,1,1,1,0,26,26,48,,,,,,,,,,,,,,,,,,,,,,,,,,,,,,,,,,,,,,,,,,,,341.87060700001894,None,right,1,1.4372558000031859,342.37095780001255,343.7565165000269,342.37095780001255,343.25565380003536,342.37095780001255,343.25565380003536,342.37095780001255,343.25565380003536,342.37095780001255,343.25565380003536,342.37095780001255,343.25565380003536,343.2391648000339,343.7402074999991,343.2391648000339,343.7402074999991,343.2391648000339,343.7402074999991,343.2391648000339,343.7402074999991,343.2391648000339,343.7402074999991,343.2391648000339,343.7402074999991,343.2391648000339,343.7402074999991,343.2391648000339,343.7402074999991,342.37095780001255,None,343.7402074999991,345.19210650003515,0.8800000000000006,345.20941010001116,None,345.9605719000101,None,,,,,,,[1.4437037],2.9700000000000024,0.7407407407407407,11010,001,2024_Jan_01_1928,MFTM_A_new1021,2021.2.3,59.87694090111633,
,,,,,,,,stim/Instruction_adaptive.png,conditions/adaptive.xlsx,test,0.6,0.6,0.6,-0.6,-0.6,right,R,,,,,0,1,1,1,0,27,27,42,,,,,,,,,,,,,,,,,,,,,,,,,,,,,,,,,,,,,,,,,,,,346.4607277000323,None,left,0,1.3902832999592647,346.96114690002287,348.31367060000775,346.96114690002287,347.8134428000194,346.96114690002287,347.8134428000194,346.96114690002287,347.8134428000194,346.96114690002287,347.8134428000194,346.96114690002287,347.8134428000194,347.77914520003833,348.2805776000023,347.77914520003833,348.2805776000023,347.77914520003833,348.2805776000023,347.77914520003833,348.2805776000023,347.77914520003833,348.2805776000023,347.77914520003833,348.2805776000023,347.77914520003833,348.2805776000023,347.77914520003833,348.2805776000023,346.96114690002287,None,348.2805776000023,349.7326568000135,0.8400000000000005,349.76536379999015,None,350.5167222000309,None,,,,,,,[1.45142857],2.7700000000000022,0.7142857142857143,11010,001,2024_Jan_01_1928,MFTM_A_new1021,2021.2.3,59.87694090111633,
,,,,,,,,stim/Instruction_adaptive.png,conditions/adaptive.xlsx,test,0.6,0.6,0.6,-0.6,-0.6,right,R,,,,,0,1,1,1,0,28,28,16,,,,,,,,,,,,,,,,,,,,,,,,,,,,,,,,,,,,,,,,,,,,351.0176156000234,None,right,1,1.3460741000017151,351.51781029999256,352.9866680999985,351.51781029999256,352.48644649999915,351.51781029999256,352.48644649999915,351.51781029999256,352.48644649999915,351.51781029999256,352.48644649999915,351.51781029999256,352.48644649999915,352.452881300007,352.95430730003864,352.452881300007,352.95430730003864,352.452881300007,352.95430730003864,352.452881300007,352.95430730003864,352.452881300007,352.95430730003864,352.452881300007,352.95430730003864,352.452881300007,352.95430730003864,352.452881300007,352.95430730003864,351.51781029999256,None,352.95430730003864,354.423643600021,0.9600000000000006,354.438539499999,None,355.19053090002853,None,,,,,,,[1.45448276],2.840000000000002,0.7241379310344828,11010,001,2024_Jan_01_1928,MFTM_A_new1021,2021.2.3,59.87694090111633,
,,,,,,,,stim/Instruction_adaptive.png,conditions/adaptive.xlsx,test,0.6,0.6,0.6,-0.6,-0.6,right,R,,,,,0,1,1,1,0,29,29,40,,,,,,,,,,,,,,,,,,,,,,,,,,,,,,,,,,,,,,,,,,,,355.69101000000956,None,right,1,1.4878992000012659,356.1916019000346,357.6277552000247,356.1916019000346,357.1262817000388,356.1916019000346,357.1262817000388,356.1916019000346,357.1262817000388,356.1916019000346,357.1262817000388,356.1916019000346,357.1262817000388,357.0928432000219,357.5935471000266,357.0928432000219,357.5935471000266,357.0928432000219,357.5935471000266,357.0928432000219,357.5935471000266,357.0928432000219,357.5935471000266,357.0928432000219,357.5935471000266,357.0928432000219,357.5935471000266,357.0928432000219,357.5935471000266,356.1916019000346,None,357.5935471000266,359.0624927000026,0.9200000000000006,359.07917040004395,None,359.830314300023,None,,,,,,,[1.45866667],2.910000000000002,0.7333333333333333,11010,001,2024_Jan_01_1928,MFTM_A_new1021,2021.2.3,59.87694090111633,
,,,,,,,,stim/Instruction_adaptive.png,conditions/adaptive.xlsx,test,0.6,0.6,0.6,-0.6,-0.6,right,R,,,,,0,1,1,1,0,30,30,18,,,,,,,,,,,,,,,,,,,,,,,,,,,,,,,,,,,,,,,,,,,,360.3309307000018,None,left,0,1.544057300023269,360.8317806000123,362.2178794000065,360.8317806000123,361.71648760000244,360.8317806000123,361.71648760000244,360.8317806000123,361.71648760000244,360.8317806000123,361.71648760000244,360.8317806000123,361.71648760000244,361.6999554000213,362.2015533000231,361.6999554000213,362.2015533000231,361.6999554000213,362.2015533000231,361.6999554000213,362.2015533000231,361.6999554000213,362.2015533000231,361.6999554000213,362.2015533000231,361.6999554000213,362.2015533000231,361.6999554000213,362.2015533000231,360.8317806000123,None,362.2015533000231,363.6700595000293,0.8800000000000006,363.6854242000263,None,364.4375745000434,None,,,,,,,[1.46387097],2.720000000000002,0.7096774193548387,11010,001,2024_Jan_01_1928,MFTM_A_new1021,2021.2.3,59.87694090111633,
,,,,,,,,stim/Instruction_adaptive.png,conditions/adaptive.xlsx,test,0.6,0.6,0.6,-0.6,-0.6,right,R,,,,,0,1,1,1,0,31,31,24,,,,,,,,,,,,,,,,,,,,,,,,,,,,,,,,,,,,,,,,,,,,364.938114700024,None,right,1,1.4326972999842837,365.4396503000171,366.9409129000269,365.4396503000171,366.4402507999912,365.4396503000171,366.4402507999912,365.4396503000171,366.4402507999912,365.4396503000171,366.4402507999912,365.4396503000171,366.4402507999912,366.42364789999556,366.9249336000066,366.42364789999556,366.9249336000066,366.42364789999556,366.9249336000066,366.42364789999556,366.9249336000066,366.42364789999556,366.9249336000066,366.42364789999556,366.9249336000066,366.42364789999556,366.9249336000066,366.42364789999556,366.9249336000066,365.4396503000171,None,366.9249336000066,368.3927696000319,1.0000000000000007,368.4096034000395,None,369.1607231000089,None,,,,,,,[1.465],2.790000000000002,0.71875,11010,001,2024_Jan_01_1928,MFTM_A_new1021,2021.2.3,59.87694090111633,
,,,,,,,,stim/Instruction_adaptive.png,conditions/adaptive.xlsx,test,0.6,0.6,0.6,-0.6,-0.6,right,R,,,,,0,1,1,1,0,32,32,54,,,,,,,,,,,,,,,,,,,,,,,,,,,,,,,,,,,,,,,,,,,,369.6616012000013,None,right,1,1.2365969000384212,370.16288960003294,371.61467129999073,370.16288960003294,371.1142886999878,370.16288960003294,371.1142886999878,370.16288960003294,371.1142886999878,370.16288960003294,371.1142886999878,370.16288960003294,371.1142886999878,371.09764089999953,371.59863900003256,371.09764089999953,371.59863900003256,371.09764089999953,371.59863900003256,371.09764089999953,371.59863900003256,371.09764089999953,371.59863900003256,371.09764089999953,371.59863900003256,371.09764089999953,371.59863900003256,371.09764089999953,371.59863900003256,370.16288960003294,None,371.59863900003256,373.06666509999195,0.9500000000000006,373.083415400004,None,373.83452239999315,None,,,,,,,[1.46757576],2.8500000000000023,0.7272727272727273,11010,001,2024_Jan_01_1928,MFTM_A_new1021,2021.2.3,59.87694090111633,
,,,,,,,,stim/Instruction_adaptive.png,conditions/adaptive.xlsx,test,0.6,0.6,0.6,-0.6,-0.6,right,R,,,,,0,1,1,1,0,33,33,8,,,,,,,,,,,,,,,,,,,,,,,,,,,,,,,,,,,,,,,,,,,,374.3353833000292,None,right,1,1.371585100016091,374.8357391000027,376.25469520001207,374.8357391000027,375.7538082000101,374.8357391000027,375.7538082000101,374.8357391000027,375.7538082000101,374.8357391000027,375.7538082000101,374.8357391000027,375.7538082000101,375.7373879000079,376.2387183000101,375.7373879000079,376.2387183000101,375.7373879000079,376.2387183000101,375.7373879000079,376.2387183000101,375.7373879000079,376.2387183000101,375.7373879000079,376.2387183000101,375.7373879000079,376.2387183000101,375.7373879000079,376.2387183000101,374.8357391000027,None,376.2387183000101,None,0.9100000000000006,377.7239075000398,None,378.4749736000085,None,,,,,,,[1.47117647],2.910000000000002,0.7352941176470589,11010,001,2024_Jan_01_1928,MFTM_A_new1021,2021.2.3,59.87694090111633,
,,,,,,,,stim/Instruction_adaptive.png,conditions/adaptive.xlsx,test,-0.6,-0.6,-0.6,0.6,0.6,left,L,,,,,0,1,1,1,0,34,34,81,,,,,,,,,,,,,,,,,,,,,,,,,,,,,,,,,,,,,,,,,,,,378.9753070999868,None,left,1,1.6832724999985658,379.47641539998585,380.86207600001944,379.47641539998585,380.36075079999864,379.47641539998585,380.36075079999864,379.47641539998585,380.36075079999864,379.47641539998585,380.36075079999864,379.47641539998585,380.36075079999864,380.3439994000364,380.84470330004115,380.3439994000364,380.84470330004115,380.3439994000364,380.84470330004115,380.3439994000364,380.84470330004115,380.3439994000364,380.84470330004115,380.3439994000364,380.84470330004115,380.3439994000364,380.84470330004115,380.3439994000364,380.84470330004115,379.47641539998585,None,380.84470330004115,None,0.8800000000000006,382.3300869000377,None,383.0812696000212,None,,,,,,,[1.47542857],2.960000000000002,0.7428571428571429,11010,001,2024_Jan_01_1928,MFTM_A_new1021,2021.2.3,59.87694090111633,
,,,,,,,,stim/Instruction_adaptive.png,conditions/adaptive.xlsx,test,0.6,0.6,0.6,-0.6,-0.6,right,R,,,,,0,1,1,1,0,35,35,56,,,,,,,,,,,,,,,,,,,,,,,,,,,,,,,,,,,,,,,,,,,,383.5832311999984,None,right,1,1.236773099983111,384.0829063000274,385.43595320003806,384.0829063000274,384.9348649000167,384.0829063000274,384.9348649000167,384.0829063000274,384.9348649000167,384.0829063000274,384.9348649000167,384.0829063000274,384.9348649000167,384.9174187000026,385.4187239999883,384.9174187000026,385.4187239999883,384.9174187000026,385.4187239999883,384.9174187000026,385.4187239999883,384.9174187000026,385.4187239999883,384.9174187000026,385.4187239999883,384.9174187000026,385.4187239999883,384.9174187000026,385.4187239999883,384.0829063000274,None,385.4187239999883,386.90446910000173,0.8500000000000005,386.921244200028,None,387.6717485000263,None,,,,,,,[1.48027778],3.0200000000000022,0.75,11010,001,2024_Jan_01_1928,MFTM_A_new1021,2021.2.3,59.87694090111633,
,,,,,,,,stim/Instruction_adaptive.png,conditions/adaptive.xlsx,test,-0.6,-0.6,-0.6,0.6,0.6,left,L,,,,,0,1,1,1,0,36,36,99,,,,,,,,,,,,,,,,,,,,,,,,,,,,,,,,,,,,,,,,,,,,388.17301590001443,None,left,1,1.2545497000101022,388.67307770001935,389.9918350999942,388.67307770001935,389.4915999000077,388.67307770001935,389.4915999000077,388.67307770001935,389.4915999000077,388.67307770001935,389.4915999000077,388.67307770001935,389.4915999000077,389.4576282000053,389.95875059999526,389.4576282000053,389.95875059999526,389.4576282000053,389.95875059999526,389.4576282000053,389.95875059999526,389.4576282000053,389.95875059999526,389.4576282000053,389.95875059999526,389.4576282000053,389.95875059999526,389.4576282000053,389.95875059999526,388.67307770001935,None,389.95875059999526,391.4454535000259,0.8100000000000005,391.4786565999966,None,392.2283335000393,None,,,,,,,[1.48594595],3.070000000000002,0.7567567567567568,11010,001,2024_Jan_01_1928,MFTM_A_new1021,2021.2.3,59.87694090111633,
,,,,,,,,stim/Instruction_adaptive.png,conditions/adaptive.xlsx,test,-0.6,-0.6,-0.6,0.6,0.6,left,L,,,,,0,1,1,1,0,37,37,69,,,,,,,,,,,,,,,,,,,,,,,,,,,,,,,,,,,,,,,,,,,,392.7297819000087,None,right,0,1.3771136000286788,393.23036460002186,394.5157437000307,393.23036460002186,394.01474210002925,393.23036460002186,394.01474210002925,393.23036460002186,394.01474210002925,393.23036460002186,394.01474210002925,393.23036460002186,394.01474210002925,393.9982063000207,394.4995390000404,393.9982063000207,394.4995390000404,393.9982063000207,394.4995390000404,393.9982063000207,394.4995390000404,393.9982063000207,394.4995390000404,393.9982063000207,394.4995390000404,393.9982063000207,394.4995390000404,393.9982063000207,394.4995390000404,393.23036460002186,None,394.4995390000404,396.00100789999124,0.7800000000000005,396.01772160001565,None,396.7704143000301,None,,,,,,,[1.49210526],2.920000000000002,0.7368421052631579,11010,001,2024_Jan_01_1928,MFTM_A_new1021,2021.2.3,59.87694090111633,
,,,,,,,,stim/Instruction_adaptive.png,conditions/adaptive.xlsx,test,-0.6,-0.6,-0.6,0.6,0.6,left,L,,,,,0,1,1,1,0,38,38,59,,,,,,,,,,,,,,,,,,,,,,,,,,,,,,,,,,,,,,,,,,,,397.286581900029,None,left,1,0.998341900005471,397.76991610002005,399.13925360003486,397.76991610002005,398.6543144999887,397.76991610002005,398.6543144999887,397.76991610002005,398.6543144999887,397.76991610002005,398.6543144999887,397.76991610002005,398.6543144999887,398.62102170003345,399.12258700001985,398.62102170003345,399.12258700001985,398.62102170003345,399.12258700001985,398.62102170003345,399.12258700001985,398.62102170003345,399.12258700001985,398.62102170003345,399.12258700001985,398.62102170003345,399.12258700001985,398.62102170003345,399.12258700001985,397.76991610002005,None,399.12258700001985,400.6245953000034,0.8700000000000006,400.64082770003006,None,401.39268930000253,None,,,,,,,[1.49564103],2.9700000000000024,0.7435897435897436,11010,001,2024_Jan_01_1928,MFTM_A_new1021,2021.2.3,59.87694090111633,
,,,,,,,,stim/Instruction_adaptive.png,conditions/adaptive.xlsx,test,0.6,0.6,0.6,-0.6,-0.6,right,R,,,,,0,1,1,1,0,39,39,0,,,,,,,,,,,,,,,,,,,,,,,,,,,,,,,,,,,,,,,,,,,,401.89288460003445,None,left,0,0.926117199996952,402.3933111000224,403.745853200031,402.3933111000224,403.2450392000028,402.3933111000224,403.2450392000028,402.3933111000224,403.2450392000028,402.3933111000224,403.2450392000028,402.3933111000224,403.2450392000028,403.2112275999971,403.71238030004315,403.2112275999971,403.71238030004315,403.2112275999971,403.71238030004315,403.2112275999971,403.71238030004315,403.2112275999971,403.71238030004315,403.2112275999971,403.71238030004315,403.2112275999971,403.71238030004315,403.2112275999971,403.71238030004315,402.3933111000224,None,403.71238030004315,405.2142476000008,0.8400000000000005,405.2476269000326,None,405.99901750002755,None,,,,,,,[1.49975],2.830000000000002,0.725,11010,001,2024_Jan_01_1928,MFTM_A_new1021,2021.2.3,59.87694090111633,
,,,,,,,,stim/Instruction_adaptive.png,conditions/adaptive.xlsx,test,-0.6,-0.6,-0.6,0.6,0.6,left,L,,,,,0,1,1,1,0,40,40,63,,,,,,,,,,,,,,,,,,,,,,,,,,,,,,,,,,,,,,,,,,,,406.49953880003886,None,right,0,1.2233129999949597,407.00026739999885,408.4364607000025,407.00026739999885,407.9356159000308,407.00026739999885,407.9356159000308,407.00026739999885,407.9356159000308,407.00026739999885,407.9356159000308,407.00026739999885,407.9356159000308,407.9181510999915,408.4188965000212,407.9181510999915,408.4188965000212,407.9181510999915,408.4188965000212,407.9181510999915,408.4188965000212,407.9181510999915,408.4188965000212,407.9181510999915,408.4188965000212,407.9181510999915,408.4188965000212,407.9181510999915,408.4188965000212,407.00026739999885,None,408.4188965000212,409.9219932000269,0.9300000000000006,409.9381260999944,None,410.68934899999294,None,,,,,,,[1.50146341],2.680000000000002,0.7073170731707317,11010,001,2024_Jan_01_1928,MFTM_A_new1021,2021.2.3,59.87694090111633,
,,,,,,,,stim/Instruction_adaptive.png,conditions/adaptive.xlsx,test,-0.6,-0.6,-0.6,0.6,0.6,left,L,,,,,0,1,1,1,0,41,41,77,,,,,,,,,,,,,,,,,,,,,,,,,,,,,,,,,,,,,,,,,,,,411.18966440000804,None,left,1,0.8525713999988511,411.69121570000425,413.22716240002774,411.69121570000425,412.72537530004047,411.69121570000425,412.72537530004047,411.69121570000425,412.72537530004047,411.69121570000425,412.72537530004047,411.69121570000425,412.72537530004047,412.7086913000094,413.2094188000192,412.7086913000094,413.2094188000192,412.7086913000094,413.2094188000192,412.7086913000094,413.2094188000192,412.7086913000094,413.2094188000192,412.7086913000094,413.2094188000192,412.7086913000094,413.2094188000192,412.7086913000094,413.2094188000192,411.69121570000425,None,413.2094188000192,414.6789418000262,1.0300000000000007,414.6952315000235,None,415.4464974000002,None,,,,,,,[[1.47]],2.730000000000002,0.7142857142857143,11010,001,2024_Jan_01_1928,MFTM_A_new1021,2021.2.3,59.87694090111633,
,,,,,,,,stim/Instruction_adaptive.png,conditions/adaptive.xlsx,test,0.6,0.6,0.6,-0.6,-0.6,right,R,,,,,0,1,1,1,0,42,42,60,,,,,,,,,,,,,,,,,,,,,,,,,,,,,,,,,,,,,,,,,,,,415.9468591000186,None,right,1,1.2082556000095792,416.4475207999931,417.9510150999995,416.4475207999931,417.4491335999919,416.4475207999931,417.4491335999919,416.4475207999931,417.4491335999919,416.4475207999931,417.4491335999919,416.4475207999931,417.4491335999919,417.4167773000081,417.9162268000073,417.4167773000081,417.9162268000073,417.4167773000081,417.9162268000073,417.4167773000081,417.9162268000073,417.4167773000081,417.9162268000073,417.4167773000081,417.9162268000073,417.4167773000081,417.9162268000073,417.4167773000081,417.9162268000073,416.4475207999931,None,417.9162268000073,419.4201697999961,0.9900000000000007,419.4526833000127,None,420.20311140001286,None,,,,,,,[1.50093023],2.780000000000002,0.7209302325581395,11010,001,2024_Jan_01_1928,MFTM_A_new1021,2021.2.3,59.87694090111633,
,,,,,,,,stim/Instruction_adaptive.png,conditions/adaptive.xlsx,test,0.6,0.6,0.6,-0.6,-0.6,right,R,,,,,0,1,1,1,0,43,43,32,,,,,,,,,,,,,,,,,,,,,,,,,,,,,,,,,,,,,,,,,,,,420.7038083000225,None,right,1,1.2275817000190727,421.20402010000544,422.67351240001153,421.20402010000544,422.17348860000493,421.20402010000544,422.17348860000493,421.20402010000544,422.17348860000493,421.20402010000544,422.17348860000493,421.20402010000544,422.17348860000493,422.1400093000266,422.6402080000262,422.1400093000266,422.6402080000262,422.1400093000266,422.6402080000262,422.1400093000266,422.6402080000262,422.1400093000266,422.6402080000262,422.1400093000266,422.6402080000262,422.1400093000266,422.6402080000262,422.1400093000266,422.6402080000262,421.20402010000544,None,422.6402080000262,424.1422234000056,0.9600000000000006,424.1755293000024,None,424.92700700002024,None,,,,,,,[1.50181818],2.830000000000002,0.7272727272727273,11010,001,2024_Jan_01_1928,MFTM_A_new1021,2021.2.3,59.87694090111633,
,,,,,,,,stim/Instruction_adaptive.png,conditions/adaptive.xlsx,test,-0.6,-0.6,-0.6,0.6,0.6,left,L,,,,,0,1,1,1,0,44,44,93,,,,,,,,,,,,,,,,,,,,,,,,,,,,,,,,,,,,,,,,,,,,425.42734669998754,None,left,1,1.295154999999795,425.92833860003157,427.36388160003116,425.92833860003157,426.86308790004114,425.92833860003157,426.86308790004114,425.92833860003157,426.86308790004114,425.92833860003157,426.86308790004114,425.92833860003157,426.86308790004114,426.8471667999984,427.3470249000238,426.8471667999984,427.3470249000238,426.8471667999984,427.3470249000238,426.8471667999984,427.3470249000238,426.8471667999984,427.3470249000238,426.8471667999984,427.3470249000238,426.8471667999984,427.3470249000238,426.8471667999984,427.3470249000238,425.92833860003157,None,427.3470249000238,None,0.9300000000000006,428.8660787999979,None,429.6171903000213,None,,,,,,,[1.50333333],2.880000000000002,0.7333333333333333,11010,001,2024_Jan_01_1928,MFTM_A_new1021,2021.2.3,59.87694090111633,
,,,,,,,,stim/Instruction_adaptive.png,conditions/adaptive.xlsx,test,-0.6,-0.6,-0.6,0.6,0.6,left,L,,,,,0,1,1,1,0,45,45,85,,,,,,,,,,,,,,,,,,,,,,,,,,,,,,,,,,,,,,,,,,,,430.1182294000173,None,left,1,1.3017193999839947,430.6184693000396,432.02136600000085,430.6184693000396,431.51982610003324,430.6184693000396,431.51982610003324,430.6184693000396,431.51982610003324,430.6184693000396,431.51982610003324,430.6184693000396,431.51982610003324,431.4863882000209,431.98722350003663,431.4863882000209,431.98722350003663,431.4863882000209,431.98722350003663,431.4863882000209,431.98722350003663,431.4863882000209,431.98722350003663,431.4863882000209,431.98722350003663,431.4863882000209,431.98722350003663,431.4863882000209,431.98722350003663,430.6184693000396,None,431.98722350003663,433.50655290001305,0.8900000000000006,433.52271039999323,None,434.27389479998965,None,,,,,,,[1.50565217],2.920000000000002,0.7391304347826086,11010,001,2024_Jan_01_1928,MFTM_A_new1021,2021.2.3,59.87694090111633,
,,,,,,,,stim/Instruction_adaptive.png,conditions/adaptive.xlsx,test,-0.6,-0.6,-0.6,0.6,0.6,left,L,,,,,0,1,1,1,0,46,46,31,,,,,,,,,,,,,,,,,,,,,,,,,,,,,,,,,,,,,,,,,,,,434.7746269000345,None,left,1,1.1242496999911964,435.27549940004246,436.66081510001095,435.27549940004246,436.1606143999961,435.27549940004246,436.1606143999961,435.27549940004246,436.1606143999961,435.27549940004246,436.1606143999961,435.27549940004246,436.1606143999961,436.12735090003116,436.6273999999976,436.12735090003116,436.6273999999976,436.12735090003116,436.6273999999976,436.12735090003116,436.6273999999976,436.12735090003116,436.6273999999976,436.12735090003116,436.6273999999976,436.12735090003116,436.6273999999976,436.12735090003116,436.6273999999976,435.27549940004246,None,436.6273999999976,438.14624880003976,0.8700000000000006,438.16295430000173,None,438.91413889999967,None,,,,,,,[1.50829787],2.960000000000002,0.7446808510638298,11010,001,2024_Jan_01_1928,MFTM_A_new1021,2021.2.3,59.87694090111633,
,,,,,,,,stim/Instruction_adaptive.png,conditions/adaptive.xlsx,test,-0.6,-0.6,-0.6,0.6,0.6,left,L,,,,,0,1,1,1,0,47,47,53,,,,,,,,,,,,,,,,,,,,,,,,,,,,,,,,,,,,,,,,,,,,439.4160405000439,None,right,0,1.2769823999842629,439.91570090001915,441.26849159999983,439.91570090001915,440.7668631999986,439.91570090001915,440.7668631999986,439.91570090001915,440.7668631999986,439.91570090001915,440.7668631999986,439.91570090001915,440.7668631999986,440.75088450004114,441.251224800013,440.75088450004114,441.251224800013,440.75088450004114,441.251224800013,440.75088450004114,441.251224800013,440.75088450004114,441.251224800013,440.75088450004114,441.251224800013,440.75088450004114,441.251224800013,440.75088450004114,441.251224800013,439.91570090001915,None,441.251224800013,442.77054120000685,0.8500000000000005,442.7860660000006,None,443.53770970000187,None,,,,,,,[1.51125],2.840000000000002,0.7291666666666666,11010,001,2024_Jan_01_1928,MFTM_A_new1021,2021.2.3,59.87694090111633,
,,,,,,,,stim/Instruction_adaptive.png,conditions/adaptive.xlsx,test,-0.6,-0.6,-0.6,0.6,0.6,left,L,,,,,0,1,1,1,0,48,48,89,,,,,,,,,,,,,,,,,,,,,,,,,,,,,,,,,,,,,,,,,,,,444.03926630003843,None,left,1,1.212809799995739,444.53903049998917,445.9586105000344,444.53903049998917,445.4737804000033,444.53903049998917,445.4737804000033,444.53903049998917,445.4737804000033,444.53903049998917,445.4737804000033,444.53903049998917,445.4737804000033,445.4412461000029,445.9415765000158,445.4412461000029,445.9415765000158,445.4412461000029,445.9415765000158,445.4412461000029,445.9415765000158,445.4412461000029,445.9415765000158,445.4412461000029,445.9415765000158,445.4412461000029,445.9415765000158,445.4412461000029,445.9415765000158,444.53903049998917,None,445.9415765000158,447.46007140004076,0.9200000000000006,447.4767548000091,None,448.2296382000204,None,,,,,,,[1.51265306],2.880000000000002,0.7346938775510204,11010,001,2024_Jan_01_1928,MFTM_A_new1021,2021.2.3,59.87694090111633,
,,,,,,,,stim/Instruction_adaptive.png,conditions/adaptive.xlsx,test,0.6,0.6,0.6,-0.6,-0.6,right,R,,,,,0,1,1,1,0,49,49,86,,,,,,,,,,,,,,,,,,,,,,,,,,,,,,,,,,,,,,,,,,,,448.72982420003973,None,right,1,1.3221017000032589,449.2295453000115,450.6315562000382,449.2295453000115,450.13075400004163,449.2295453000115,450.13075400004163,449.2295453000115,450.13075400004163,449.2295453000115,450.13075400004163,449.2295453000115,450.13075400004163,450.0976173999952,450.5980728000286,450.0976173999952,450.5980728000286,450.0976173999952,450.5980728000286,450.0976173999952,450.5980728000286,450.0976173999952,450.5980728000286,450.0976173999952,450.5980728000286,450.0976173999952,450.5980728000286,450.0976173999952,450.5980728000286,449.2295453000115,None,450.5980728000286,452.1170884000021,0.8900000000000006,452.1339896999998,None,452.88510750001296,None,,,,,,,[1.5146],2.920000000000002,0.74,11010,001,2024_Jan_01_1928,MFTM_A_new1021,2021.2.3,59.87694090111633,
,,,,,,,,stim/Instruction_adaptive.png,conditions/adaptive.xlsx,test,0.6,0.6,0.6,-0.6,-0.6,right,R,,,,,0,1,1,1,0,50,50,84,,,,,,,,,,,,,,,,,,,,,,,,,,,,,,,,,,,,,,,,,,,,453.3856151000364,None,right,1,1.3296924000023864,453.8861196000362,455.2553428999963,453.8861196000362,454.77105630002916,453.8861196000362,454.77105630002916,453.8861196000362,454.77105630002916,453.8861196000362,454.77105630002916,453.8861196000362,454.77105630002916,454.73768920003204,455.23899750004057,454.73768920003204,455.23899750004057,454.73768920003204,455.23899750004057,454.73768920003204,455.23899750004057,454.73768920003204,455.23899750004057,454.73768920003204,455.23899750004057,454.73768920003204,455.23899750004057,454.73768920003204,455.23899750004057,453.8861196000362,None,455.23899750004057,456.7580999000347,0.8700000000000006,456.77396930003306,None,457.5257855000091,None,,,,,,,[1.51686275],2.960000000000002,0.7450980392156863,11010,001,2024_Jan_01_1928,MFTM_A_new1021,2021.2.3,59.87694090111633,
,,,,,,,,stim/Instruction_adaptive.png,conditions/adaptive.xlsx,test,0.6,0.6,0.6,-0.6,-0.6,right,R,,,,,0,1,1,1,0,51,51,44,,,,,,,,,,,,,,,,,,,,,,,,,,,,,,,,,,,,,,,,,,,,458.02618710004026,None,right,1,1.5291141999769025,458.5265697000432,459.87862440000754,458.5265697000432,459.3781028999947,458.5265697000432,459.3781028999947,458.5265697000432,459.3781028999947,458.5265697000432,459.3781028999947,458.5265697000432,459.3781028999947,459.3617341000354,459.86244850000367,459.3617341000354,459.86244850000367,459.3617341000354,459.86244850000367,459.3617341000354,459.86244850000367,459.3617341000354,459.86244850000367,459.3617341000354,459.86244850000367,459.3617341000354,459.86244850000367,459.3617341000354,459.86244850000367,458.5265697000432,None,459.86244850000367,461.38134950003587,0.8500000000000005,461.39751159999287,None,462.14861640002346,None,,,,,,,[1.51942308],3.000000000000002,0.75,11010,001,2024_Jan_01_1928,MFTM_A_new1021,2021.2.3,59.87694090111633,
,,,,,,,,stim/Instruction_adaptive.png,conditions/adaptive.xlsx,test,0.6,0.6,0.6,-0.6,-0.6,right,R,,,,,0,1,1,1,0,52,52,26,,,,,,,,,,,,,,,,,,,,,,,,,,,,,,,,,,,,,,,,,,,,462.6504198000184,None,left,0,1.4342359000002034,463.15004919999046,464.4857198999962,463.15004919999046,463.9856399000273,463.15004919999046,463.9856399000273,463.15004919999046,463.9856399000273,463.15004919999046,463.9856399000273,463.15004919999046,463.9856399000273,463.9520575000206,464.4520947000128,463.9520575000206,464.4520947000128,463.9520575000206,464.4520947000128,463.9520575000206,464.4520947000128,463.9520575000206,464.4520947000128,463.9520575000206,464.4520947000128,463.9520575000206,464.4520947000128,463.9520575000206,464.4520947000128,463.15004919999046,None,464.4520947000128,465.98924000002444,0.8200000000000005,466.0041446000105,None,466.7553426999948,None,,,,,,,[1.52245283],2.8900000000000023,0.7358490566037735,11010,001,2024_Jan_01_1928,MFTM_A_new1021,2021.2.3,59.87694090111633,
,,,,,,,,stim/Instruction_adaptive.png,conditions/adaptive.xlsx,test,0.6,0.6,0.6,-0.6,-0.6,right,R,,,,,0,1,1,1,0,53,53,2,,,,,,,,,,,,,,,,,,,,,,,,,,,,,,,,,,,,,,,,,,,,467.25596219999716,None,right,1,1.2508540999842808,467.75755109998863,469.15914300002623,467.75755109998863,468.6585618000245,467.75755109998863,468.6585618000245,467.75755109998863,468.6585618000245,467.75755109998863,468.6585618000245,467.75755109998863,468.6585618000245,468.6253002000158,469.12643529998604,468.6253002000158,469.12643529998604,468.6253002000158,469.12643529998604,468.6253002000158,469.12643529998604,468.6253002000158,469.12643529998604,468.6253002000158,469.12643529998604,468.6253002000158,469.12643529998604,468.6253002000158,469.12643529998604,467.75755109998863,None,469.12643529998604,470.661434300011,0.8900000000000006,470.677885800018,None,471.42909930000314,None,,,,,,,[1.52407407],2.9300000000000024,0.7407407407407407,11010,001,2024_Jan_01_1928,MFTM_A_new1021,2021.2.3,59.87694090111633,
,,,,,,,,stim/Instruction_adaptive.png,conditions/adaptive.xlsx,test,-0.6,-0.6,-0.6,0.6,0.6,left,L,,,,,0,1,1,1,0,54,54,73,,,,,,,,,,,,,,,,,,,,,,,,,,,,,,,,,,,,,,,,,,,,471.93043250002665,None,left,1,1.3047032000031322,472.4309181999997,473.7999440000276,472.4309181999997,473.298545800033,472.4309181999997,473.298545800033,472.4309181999997,473.298545800033,472.4309181999997,473.298545800033,472.4309181999997,473.298545800033,473.2821093000239,473.78314170002704,473.2821093000239,473.78314170002704,473.2821093000239,473.78314170002704,473.2821093000239,473.78314170002704,473.2821093000239,473.78314170002704,473.2821093000239,473.78314170002704,473.2821093000239,473.78314170002704,473.2821093000239,473.78314170002704,472.4309181999997,None,473.78314170002704,None,0.8600000000000005,475.31808090000413,None,476.0693498000037,None,,,,,,,[1.52618182],2.960000000000002,0.7454545454545455,11010,001,2024_Jan_01_1928,MFTM_A_new1021,2021.2.3,59.87694090111633,
,,,,,,,,stim/Instruction_adaptive.png,conditions/adaptive.xlsx,test,-0.6,-0.6,-0.6,0.6,0.6,left,L,,,,,0,1,1,1,0,55,55,33,,,,,,,,,,,,,,,,,,,,,,,,,,,,,,,,,,,,,,,,,,,,476.57069369999226,None,left,1,0.992775899998378,477.07087039999897,478.4233445000136,477.07087039999897,477.9224571000086,477.07087039999897,477.9224571000086,477.07087039999897,477.9224571000086,477.07087039999897,477.9224571000086,477.07087039999897,477.9224571000086,477.90572360000806,478.4061411000439,477.90572360000806,478.4061411000439,477.90572360000806,478.4061411000439,477.90572360000806,478.4061411000439,477.90572360000806,478.4061411000439,477.90572360000806,478.4061411000439,477.90572360000806,478.4061411000439,477.90572360000806,478.4061411000439,477.07087039999897,None,478.4061411000439,479.9420106000034,0.8500000000000005,479.95826710003894,None,480.71014330000617,None,,,,,,,[1.52839286],3.000000000000002,0.75,11010,001,2024_Jan_01_1928,MFTM_A_new1021,2021.2.3,59.87694090111633,
,,,,,,,,stim/Instruction_adaptive.png,conditions/adaptive.xlsx,test,-0.6,-0.6,-0.6,0.6,0.6,left,L,,,,,0,1,1,1,0,56,56,15,,,,,,,,,,,,,,,,,,,,,,,,,,,,,,,,,,,,,,,,,,,,481.20996220002417,None,left,1,1.1923255999572575,481.7112095000339,483.04614370001946,481.7112095000339,482.5455815999885,481.7112095000339,482.5455815999885,481.7112095000339,482.5455815999885,481.7112095000339,482.5455815999885,481.7112095000339,482.5455815999885,482.5120004999917,483.01284020004096,482.5120004999917,483.01284020004096,482.5120004999917,483.01284020004096,482.5120004999917,483.01284020004096,482.5120004999917,483.01284020004096,482.5120004999917,483.01284020004096,482.5120004999917,483.01284020004096,482.5120004999917,483.01284020004096,481.7112095000339,None,483.01284020004096,484.5498929999885,0.8200000000000005,484.56499450001866,None,485.3159899000311,None,,,,,,,[1.53105263],3.030000000000002,0.7543859649122807,11010,001,2024_Jan_01_1928,MFTM_A_new1021,2021.2.3,59.87694090111633,
,,,,,,,,stim/Instruction_adaptive.png,conditions/adaptive.xlsx,test,0.6,0.6,0.6,-0.6,-0.6,right,R,,,,,0,1,1,1,0,57,57,12,,,,,,,,,,,,,,,,,,,,,,,,,,,,,,,,,,,,,,,,,,,,485.81773210002575,None,left,0,1.33911529998295,486.3172909000423,487.63701900001615,486.3172909000423,487.13587230001576,486.3172909000423,487.13587230001576,486.3172909000423,487.13587230001576,486.3172909000423,487.13587230001576,486.3172909000423,487.13587230001576,487.11896150000393,487.6195885000052,487.11896150000393,487.6195885000052,487.11896150000393,487.6195885000052,487.11896150000393,487.6195885000052,487.11896150000393,487.6195885000052,487.11896150000393,487.6195885000052,487.11896150000393,487.6195885000052,487.11896150000393,487.6195885000052,486.3172909000423,None,487.6195885000052,489.1554684000439,0.8100000000000005,489.1719516000012,None,489.9237888000207,None,,,,,,,[1.5337931],2.9300000000000024,0.7413793103448276,11010,001,2024_Jan_01_1928,MFTM_A_new1021,2021.2.3,59.87694090111633,
,,,,,,,,stim/Instruction_adaptive.png,conditions/adaptive.xlsx,test,0.6,0.6,0.6,-0.6,-0.6,right,R,,,,,0,1,1,1,0,58,58,58,,,,,,,,,,,,,,,,,,,,,,,,,,,,,,,,,,,,,,,,,,,,490.42391080001835,None,right,1,1.4754899999825284,490.9245225000195,492.2939703000011,490.9245225000195,491.7925847999868,490.9245225000195,491.7925847999868,490.9245225000195,491.7925847999868,490.9245225000195,491.7925847999868,490.9245225000195,491.7925847999868,491.7758463000064,492.27694880001945,491.7758463000064,492.27694880001945,491.7758463000064,492.27694880001945,491.7758463000064,492.27694880001945,491.7758463000064,492.27694880001945,491.7758463000064,492.27694880001945,491.7758463000064,492.27694880001945,491.7758463000064,492.27694880001945,490.9245225000195,None,492.27694880001945,493.81286060001,0.8600000000000005,493.82871400000295,None,494.5800637000357,None,,,,,,,[1.53559322],2.9700000000000024,0.7457627118644068,11010,001,2024_Jan_01_1928,MFTM_A_new1021,2021.2.3,59.87694090111633,
,,,,,,,,stim/Instruction_adaptive.png,conditions/adaptive.xlsx,test,-0.6,-0.6,-0.6,0.6,0.6,left,L,,,,,0,1,1,1,0,59,59,49,,,,,,,,,,,,,,,,,,,,,,,,,,,,,,,,,,,,,,,,,,,,495.0807863000082,None,right,0,1.4103477000026032,495.581478600041,496.93397890002234,495.581478600041,496.43346170004224,495.581478600041,496.43346170004224,495.581478600041,496.43346170004224,495.581478600041,496.43346170004224,495.581478600041,496.43346170004224,496.3994116000249,496.9006271000253,496.3994116000249,496.9006271000253,496.3994116000249,496.9006271000253,496.3994116000249,496.9006271000253,496.3994116000249,496.9006271000253,496.3994116000249,496.9006271000253,496.3994116000249,496.9006271000253,496.3994116000249,496.9006271000253,495.581478600041,None,496.9006271000253,498.45318519999273,0.8400000000000005,498.4691037000157,None,499.2212752000196,None,,,,,,,[1.53766667],2.870000000000002,0.7333333333333333,11010,001,2024_Jan_01_1928,MFTM_A_new1021,2021.2.3,59.87694090111633,
,,,,,,,,stim/Instruction_adaptive.png,conditions/adaptive.xlsx,test,-0.6,-0.6,-0.6,0.6,0.6,left,L,,,,,0,1,1,1,0,60,60,21,,,,,,,,,,,,,,,,,,,,,,,,,,,,,,,,,,,,,,,,,,,,499.72069450002164,None,left,1,1.0736521999933757,500.22215990000404,501.62413080001716,500.22215990000404,501.12314530002186,500.22215990000404,501.12314530002186,500.22215990000404,501.12314530002186,500.22215990000404,501.12314530002186,500.22215990000404,501.12314530002186,501.106457100017,501.6073738000123,501.106457100017,501.6073738000123,501.106457100017,501.6073738000123,501.106457100017,501.6073738000123,501.106457100017,501.6073738000123,501.106457100017,501.6073738000123,501.106457100017,501.6073738000123,501.106457100017,501.6073738000123,500.22215990000404,None,501.6073738000123,None,0.9000000000000006,503.1592577000265,None,503.91057400003774,None,,,,,,,[1.53868852],2.900000000000002,0.7377049180327869,11010,001,2024_Jan_01_1928,MFTM_A_new1021,2021.2.3,59.87694090111633,
,,,,,,,,stim/Instruction_adaptive.png,conditions/adaptive.xlsx,test,-0.6,-0.6,-0.6,0.6,0.6,left,L,,,,,0,1,1,1,0,61,61,97,,,,,,,,,,,,,,,,,,,,,,,,,,,,,,,,,,,,,,,,,,,,504.41122730000643,None,right,0,1.200254200026393,504.9119065999985,506.29810070001986,504.9119065999985,505.79653340001823,504.9119065999985,505.79653340001823,504.9119065999985,505.79653340001823,504.9119065999985,505.79653340001823,504.9119065999985,505.79653340001823,505.78011330001755,506.2806983999908,505.78011330001755,506.2806983999908,505.78011330001755,506.2806983999908,505.78011330001755,506.2806983999908,505.78011330001755,506.2806983999908,505.78011330001755,506.2806983999908,505.78011330001755,506.2806983999908,505.78011330001755,506.2806983999908,504.9119065999985,None,506.2806983999908,None,0.8800000000000006,507.83299850003095,None,508.58401190000586,None,,,,,,,[1.54],2.8100000000000023,0.7258064516129032,11010,001,2024_Jan_01_1928,MFTM_A_new1021,2021.2.3,59.87694090111633,
,,,,,,,,stim/Instruction_adaptive.png,conditions/adaptive.xlsx,test,0.6,0.6,0.6,-0.6,-0.6,right,R,,,,,0,1,1,1,0,62,62,28,,,,,,,,,,,,,,,,,,,,,,,,,,,,,,,,,,,,,,,,,,,,509.084600400005,None,left,0,1.310036700044293,509.5857010000036,511.03775560000213,509.5857010000036,510.5367479000124,509.5857010000036,510.5367479000124,509.5857010000036,510.5367479000124,509.5857010000036,510.5367479000124,509.5857010000036,510.5367479000124,510.5043406999903,511.00428669998655,510.5043406999903,511.00428669998655,510.5043406999903,511.00428669998655,510.5043406999903,511.00428669998655,510.5043406999903,511.00428669998655,510.5043406999903,511.00428669998655,510.5043406999903,511.00428669998655,510.5043406999903,511.00428669998655,509.5857010000036,None,511.00428669998655,512.5574120000238,0.9400000000000006,512.5731258000014,None,513.3243528000312,None,,,,,,,[1.54031746],2.700000000000002,0.7142857142857143,11010,001,2024_Jan_01_1928,MFTM_A_new1021,2021.2.3,59.87694090111633,
,,,,,,,,stim/Instruction_adaptive.png,conditions/adaptive.xlsx,test,-0.6,-0.6,-0.6,0.6,0.6,left,L,,,,,0,1,1,1,0,63,63,57,,,,,,,,,,,,,,,,,,,,,,,,,,,,,,,,,,,,,,,,,,,,513.8252447000123,None,left,1,1.1777834999957122,514.3258977000369,515.8447599000065,514.3258977000369,515.3440446000313,514.3258977000369,515.3440446000313,514.3258977000369,515.3440446000313,514.3258977000369,515.3440446000313,514.3258977000369,515.3440446000313,515.3276280999999,515.82874550001,515.3276280999999,515.82874550001,515.3276280999999,515.82874550001,515.3276280999999,515.82874550001,515.3276280999999,515.82874550001,515.3276280999999,515.82874550001,515.3276280999999,515.82874550001,515.3276280999999,515.82874550001,514.3258977000369,None,515.82874550001,None,1.0100000000000007,517.33074330003,None,518.0814107999904,None,,,,,,,[[1.49]],2.740000000000002,0.71875,11010,001,2024_Jan_01_1928,MFTM_A_new1021,2021.2.3,59.87694090111633,
,,,,,,,,stim/Instruction_adaptive.png,conditions/adaptive.xlsx,test,-0.6,-0.6,-0.6,0.6,0.6,left,L,,,,,0,1,1,1,0,64,64,43,,,,,,,,,,,,,,,,,,,,,,,,,,,,,,,,,,,,,,,,,,,,518.5822623000131,None,left,1,1.6128471000120044,519.08293460001,520.5685733000282,519.08293460001,520.0676295000012,519.08293460001,520.0676295000012,519.08293460001,520.0676295000012,519.08293460001,520.0676295000012,519.08293460001,520.0676295000012,520.051154899993,520.5522208000184,520.051154899993,520.5522208000184,520.051154899993,520.5522208000184,520.051154899993,520.5522208000184,520.051154899993,520.5522208000184,520.051154899993,520.5522208000184,520.051154899993,520.5522208000184,520.051154899993,520.5522208000184,519.08293460001,None,520.5522208000184,None,0.9800000000000006,522.0873610000126,None,522.8384203999885,None,,,,,,,[[1.52]],2.7700000000000022,0.7230769230769231,11010,001,2024_Jan_01_1928,MFTM_A_new1021,2021.2.3,59.87694090111633,
,,,,,,,,stim/Instruction_adaptive.png,conditions/adaptive.xlsx,test,-0.6,-0.6,-0.6,0.6,0.6,left,L,,,,,0,1,1,1,0,65,65,9,,,,,,,,,,,,,,,,,,,,,,,,,,,,,,,,,,,,,,,,,,,,523.3402683000313,None,right,0,1.6238031999673694,523.8399686000193,525.3094782000408,523.8399686000193,524.8088343000272,523.8399686000193,524.8088343000272,523.8399686000193,524.8088343000272,523.8399686000193,524.8088343000272,523.8399686000193,524.8088343000272,524.7747568000341,525.2757172000129,524.7747568000341,525.2757172000129,524.7747568000341,525.2757172000129,524.7747568000341,525.2757172000129,524.7747568000341,525.2757172000129,524.7747568000341,525.2757172000129,524.7747568000341,525.2757172000129,524.7747568000341,525.2757172000129,523.8399686000193,None,525.2757172000129,526.8280759000336,0.9600000000000006,526.8446040000417,None,527.5956220999942,None,,,,,,,[1.53924242],2.6700000000000017,0.7121212121212122,11010,001,2024_Jan_01_1928,MFTM_A_new1021,2021.2.3,59.87694090111633,
,,,,,,,,stim/Instruction_adaptive.png,conditions/adaptive.xlsx,test,0.6,0.6,0.6,-0.6,-0.6,right,R,,,,,0,1,1,1,0,66,66,52,,,,,,,,,,,,,,,,,,,,,,,,,,,,,,,,,,,,,,,,,,,,528.0969989000005,None,right,1,1.578587600030005,528.5971856000251,530.1328086000285,528.5971856000251,529.6317471000366,528.5971856000251,529.6317471000366,528.5971856000251,529.6317471000366,528.5971856000251,529.6317471000366,528.5971856000251,529.6317471000366,529.615296700038,530.1160159000428,529.615296700038,530.1160159000428,529.615296700038,530.1160159000428,529.615296700038,530.1160159000428,529.615296700038,530.1160159000428,529.615296700038,530.1160159000428,529.615296700038,530.1160159000428,529.615296700038,530.1160159000428,528.5971856000251,None,530.1160159000428,531.5855269000167,1.0300000000000007,531.6023131000111,None,532.3532751000021,None,,,,,,,[[1.47]],2.7100000000000017,0.7164179104477612,11010,001,2024_Jan_01_1928,MFTM_A_new1021,2021.2.3,59.87694090111633,
,,,,,,,,stim/Instruction_adaptive.png,conditions/adaptive.xlsx,test,-0.6,-0.6,-0.6,0.6,0.6,left,L,,,,,0,1,1,1,0,67,67,47,,,,,,,,,,,,,,,,,,,,,,,,,,,,,,,,,,,,,,,,,,,,532.8533765000175,None,left,1,1.4294549000333063,533.3541057000402,534.8731735000038,533.3541057000402,534.372973599995,533.3541057000402,534.372973599995,533.3541057000402,534.372973599995,533.3541057000402,534.372973599995,533.3541057000402,534.372973599995,534.3561196000082,534.8567555000191,534.3561196000082,534.8567555000191,534.3561196000082,534.8567555000191,534.3561196000082,534.8567555000191,534.3561196000082,534.8567555000191,534.3561196000082,534.8567555000191,534.3561196000082,534.8567555000191,534.3561196000082,534.8567555000191,533.3541057000402,None,534.8567555000191,None,1.0100000000000007,536.3586270000087,None,537.1105546000181,None,,,,,,,[[1.49]],2.740000000000002,0.7205882352941176,11010,001,2024_Jan_01_1928,MFTM_A_new1021,2021.2.3,59.87694090111633,
,,,,,,,,stim/Instruction_adaptive.png,conditions/adaptive.xlsx,test,-0.6,-0.6,-0.6,0.6,0.6,left,L,,,,,0,1,1,1,0,68,68,75,,,,,,,,,,,,,,,,,,,,,,,,,,,,,,,,,,,,,,,,,,,,537.6104698000127,None,left,1,0.9364148000022396,538.111154000042,539.5972793000401,538.111154000042,539.0959677000064,538.111154000042,539.0959677000064,538.111154000042,539.0959677000064,538.111154000042,539.0959677000064,538.111154000042,539.0959677000064,539.0793662000215,539.5808586000348,539.0793662000215,539.5808586000348,539.0793662000215,539.5808586000348,539.0793662000215,539.5808586000348,539.0793662000215,539.5808586000348,539.0793662000215,539.5808586000348,539.0793662000215,539.5808586000348,539.0793662000215,539.5808586000348,538.111154000042,None,539.5808586000348,None,0.9800000000000006,541.1157431000029,None,541.8673484000028,None,,,,,,,[[1.52]],2.7700000000000022,0.7246376811594203,11010,001,2024_Jan_01_1928,MFTM_A_new1021,2021.2.3,59.87694090111633,
,,,,,,,,stim/Instruction_adaptive.png,conditions/adaptive.xlsx,test,0.6,0.6,0.6,-0.6,-0.6,right,R,,,,,0,1,1,1,0,69,69,76,,,,,,,,,,,,,,,,,,,,,,,,,,,,,,,,,,,,,,,,,,,,542.3675290000392,None,right,1,1.3320073999930173,542.8682795999921,544.3377407999942,542.8682795999921,543.8367736000218,542.8682795999921,543.8367736000218,542.8682795999921,543.8367736000218,542.8682795999921,543.8367736000218,542.8682795999921,543.8367736000218,543.819697900035,544.3212229000055,543.819697900035,544.3212229000055,543.819697900035,544.3212229000055,543.819697900035,544.3212229000055,543.819697900035,544.3212229000055,543.819697900035,544.3212229000055,543.819697900035,544.3212229000055,543.819697900035,544.3212229000055,542.8682795999921,None,544.3212229000055,None,0.9600000000000006,545.8731495999964,None,546.624469100032,None,,,,,,,[1.53728571],2.8100000000000023,0.7285714285714285,11010,001,2024_Jan_01_1928,MFTM_A_new1021,2021.2.3,59.87694090111633,
,,,,,,,,stim/Instruction_adaptive.png,conditions/adaptive.xlsx,test,-0.6,-0.6,-0.6,0.6,0.6,left,L,,,,,0,1,1,1,0,70,70,95,,,,,,,,,,,,,,,,,,,,,,,,,,,,,,,,,,,,,,,,,,,,547.1254613000201,None,left,1,1.3187344999751076,547.6251562000252,549.0782247000025,547.6251562000252,548.5770428000251,547.6251562000252,548.5770428000251,547.6251562000252,548.5770428000251,547.6251562000252,548.5770428000251,547.6251562000252,548.5770428000251,548.5434673000127,549.0455370999989,548.5434673000127,549.0455370999989,548.5434673000127,549.0455370999989,548.5434673000127,549.0455370999989,548.5434673000127,549.0455370999989,548.5434673000127,549.0455370999989,548.5434673000127,549.0455370999989,548.5434673000127,549.0455370999989,547.6251562000252,None,549.0455370999989,550.5977756000357,0.9400000000000006,550.6130302000092,None,551.3647694000392,None,,,,,,,[1.53760563],2.840000000000002,0.7323943661971831,11010,001,2024_Jan_01_1928,MFTM_A_new1021,2021.2.3,59.87694090111633,
,,,,,,,,stim/Instruction_adaptive.png,conditions/adaptive.xlsx,test,0.6,0.6,0.6,-0.6,-0.6,right,R,,,,,0,1,1,1,0,71,71,34,,,,,,,,,,,,,,,,,,,,,,,,,,,,,,,,,,,,,,,,,,,,551.8655660999939,None,left,0,1.3386569999856874,552.3655094000278,553.8011935999966,552.3655094000278,553.3001681999885,552.3655094000278,553.3001681999885,552.3655094000278,553.3001681999885,552.3655094000278,553.3001681999885,552.3655094000278,553.3001681999885,553.267264300026,553.7677154000266,553.267264300026,553.7677154000266,553.267264300026,553.7677154000266,553.267264300026,553.7677154000266,553.267264300026,553.7677154000266,553.267264300026,553.7677154000266,553.267264300026,553.7677154000266,553.267264300026,553.7677154000266,552.3655094000278,None,553.7677154000266,555.3208727000165,0.9200000000000006,555.336553900037,None,556.0878170999931,None,,,,,,,[1.53819444],2.7500000000000018,0.7222222222222222,11010,001,2024_Jan_01_1928,MFTM_A_new1021,2021.2.3,59.87694090111633,
,,,,,,,,stim/Instruction_adaptive.png,conditions/adaptive.xlsx,test,-0.6,-0.6,-0.6,0.6,0.6,left,L,,,,,0,1,1,1,0,72,72,83,,,,,,,,,,,,,,,,,,,,,,,,,,,,,,,,,,,,,,,,,,,,556.5883715000236,None,left,1,1.2544416000018828,557.0892760000424,558.5748723000288,557.0892760000424,558.0740403000382,557.0892760000424,558.0740403000382,557.0892760000424,558.0740403000382,557.0892760000424,558.0740403000382,557.0892760000424,558.0740403000382,558.0576350000338,558.5582762000267,558.0576350000338,558.5582762000267,558.0576350000338,558.5582762000267,558.0576350000338,558.5582762000267,558.0576350000338,558.5582762000267,558.0576350000338,558.5582762000267,558.0576350000338,558.5582762000267,558.0576350000338,558.5582762000267,557.0892760000424,None,558.5582762000267,560.0772121000336,0.9800000000000006,560.0935753000085,None,560.8447326000314,None,,,,,,,[[1.52]],2.780000000000002,0.726027397260274,11010,001,2024_Jan_01_1928,MFTM_A_new1021,2021.2.3,59.87694090111633,
,,,,,,,,stim/Instruction_adaptive.png,conditions/adaptive.xlsx,test,0.6,0.6,0.6,-0.6,-0.6,right,R,,,,,0,1,1,1,0,73,73,4,,,,,,,,,,,,,,,,,,,,,,,,,,,,,,,,,,,,,,,,,,,,561.3455821000389,None,right,1,1.3287844999576919,561.8469067999977,563.3152293000021,561.8469067999977,562.8153228000156,561.8469067999977,562.8153228000156,561.8469067999977,562.8153228000156,561.8469067999977,562.8153228000156,561.8469067999977,562.8153228000156,562.7978692000033,563.2986246999935,562.7978692000033,563.2986246999935,562.7978692000033,563.2986246999935,562.7978692000033,563.2986246999935,562.7978692000033,563.2986246999935,562.7978692000033,563.2986246999935,562.7978692000033,563.2986246999935,562.7978692000033,563.2986246999935,561.8469067999977,None,563.2817635000101,564.8347355999867,0.9600000000000006,564.8505644000252,None,565.6018613000051,None,,,,,,,[1.53797297],2.8100000000000023,0.7297297297297297,11010,001,2024_Jan_01_1928,MFTM_A_new1021,2021.2.3,59.87694090111633,
,,,,,,,,stim/Instruction_adaptive.png,conditions/adaptive.xlsx,test,-0.6,-0.6,-0.6,0.6,0.6,left,L,,,,,0,1,1,1,0,74,74,65,,,,,,,,,,,,,,,,,,,,,,,,,,,,,,,,,,,,,,,,,,,,566.1027349000215,None,left,1,1.5087329999660142,566.6035195000004,568.0560131000238,566.6035195000004,567.5549069000408,566.6035195000004,567.5549069000408,566.6035195000004,567.5549069000408,566.6035195000004,567.5549069000408,566.6035195000004,567.5549069000408,567.5222170000197,568.0221437999862,567.5222170000197,568.0221437999862,567.5222170000197,568.0221437999862,567.5222170000197,568.0221437999862,567.5222170000197,568.0221437999862,567.5222170000197,568.0221437999862,567.5222170000197,568.0221437999862,567.5222170000197,568.0221437999862,566.6035195000004,None,568.0221437999862,569.5752823000075,0.9400000000000006,569.5912520000129,None,570.3418181000161,None,,,,,,,[1.53826667],2.840000000000002,0.7333333333333333,11010,001,2024_Jan_01_1928,MFTM_A_new1021,2021.2.3,59.87694090111633,
,,,,,,,,stim/Instruction_adaptive.png,conditions/adaptive.xlsx,test,-0.6,-0.6,-0.6,0.6,0.6,left,L,,,,,0,1,1,1,0,75,75,29,,,,,,,,,,,,,,,,,,,,,,,,,,,,,,,,,,,,,,,,,,,,570.8433049999876,None,left,1,1.9917755000060424,571.3441047000233,572.7627928000293,571.3441047000233,572.2793286000378,571.3441047000233,572.2793286000378,571.3441047000233,572.2793286000378,571.3441047000233,572.2793286000378,571.3441047000233,572.2793286000378,572.2455253000371,572.746688299987,572.2455253000371,572.746688299987,572.2455253000371,572.746688299987,572.2455253000371,572.746688299987,572.2455253000371,572.746688299987,572.2455253000371,572.746688299987,572.2455253000371,572.746688299987,572.2455253000371,572.746688299987,571.3441047000233,None,572.746688299987,574.2988142000395,0.9200000000000006,574.3150015000138,None,575.0661033000215,None,,,,,,,[1.53881579],2.860000000000002,0.7368421052631579,11010,001,2024_Jan_01_1928,MFTM_A_new1021,2021.2.3,59.87694090111633,
,,,,,,,,stim/Instruction_adaptive.png,conditions/adaptive.xlsx,test,-0.6,-0.6,-0.6,0.6,0.6,left,L,,,,,0,1,1,1,0,76,76,87,,,,,,,,,,,,,,,,,,,,,,,,,,,,,,,,,,,,,,,,,,,,575.5669180999976,None,left,1,1.3326340999919921,576.0674672999885,577.4868718000362,576.0674672999885,576.9866654000361,576.0674672999885,576.9866654000361,576.0674672999885,576.9866654000361,576.0674672999885,576.9866654000361,576.0674672999885,576.9866654000361,576.9528808000032,577.4532307999907,576.9528808000032,577.4532307999907,576.9528808000032,577.4532307999907,576.9528808000032,577.4532307999907,576.9528808000032,577.4532307999907,576.9528808000032,577.4532307999907,576.9528808000032,577.4532307999907,576.9528808000032,577.4532307999907,576.0674672999885,None,577.4532307999907,579.0053525000112,0.9100000000000006,579.0216625999892,None,579.7731626000023,None,,,,,,,[1.53948052],2.8900000000000023,0.7402597402597403,11010,001,2024_Jan_01_1928,MFTM_A_new1021,2021.2.3,59.87694090111633,
,,,,,,,,stim/Instruction_adaptive.png,conditions/adaptive.xlsx,test,0.6,0.6,0.6,-0.6,-0.6,right,R,,,,,0,1,1,1,0,77,77,88,,,,,,,,,,,,,,,,,,,,,,,,,,,,,,,,,,,,,,,,,,,,580.2734891000437,None,right,1,1.4810079999733716,580.7747173000243,582.1768701000256,580.7747173000243,581.6757692000247,580.7747173000243,581.6757692000247,580.7747173000243,581.6757692000247,580.7747173000243,581.6757692000247,580.7747173000243,581.6757692000247,581.6425337000401,582.1431876000133,581.6425337000401,582.1431876000133,581.6425337000401,582.1431876000133,581.6425337000401,582.1431876000133,581.6425337000401,582.1431876000133,581.6425337000401,582.1431876000133,581.6425337000401,582.1431876000133,581.6425337000401,582.1431876000133,580.7747173000243,None,582.1431876000133,583.6954602000187,0.8900000000000006,583.7121788000222,None,584.4638325000415,None,,,,,,,[1.54038462],2.910000000000002,0.7435897435897436,11010,001,2024_Jan_01_1928,MFTM_A_new1021,2021.2.3,59.87694090111633,
,,,,,,,,stim/Instruction_adaptive.png,conditions/adaptive.xlsx,test,-0.6,-0.6,-0.6,0.6,0.6,left,L,,,,,0,1,1,1,0,78,78,51,,,,,,,,,,,,,,,,,,,,,,,,,,,,,,,,,,,,,,,,,,,,584.9646024000249,None,right,0,2.0233470000093803,585.464986200037,586.8504624000052,585.464986200037,586.3496913000126,585.464986200037,586.3496913000126,585.464986200037,586.3496913000126,585.464986200037,586.3496913000126,585.464986200037,586.3496913000126,586.3334144999972,586.8342306000413,586.3334144999972,586.8342306000413,586.3334144999972,586.8342306000413,586.3334144999972,586.8342306000413,586.3334144999972,586.8342306000413,586.3334144999972,586.8342306000413,586.3334144999972,586.8342306000413,586.3334144999972,586.8342306000413,585.464986200037,None,586.8342306000413,None,0.8800000000000006,588.3856570000062,None,589.1372422000277,None,,,,,,,[1.54139241],2.840000000000002,0.7341772151898734,11010,001,2024_Jan_01_1928,MFTM_A_new1021,2021.2.3,59.87694090111633,
,,,,,,,,stim/Instruction_adaptive.png,conditions/adaptive.xlsx,test,0.6,0.6,0.6,-0.6,-0.6,right,R,,,,,0,1,1,1,0,79,79,80,,,,,,,,,,,,,,,,,,,,,,,,,,,,,,,,,,,,,,,,,,,,589.6374953000341,None,right,1,1.7648067999980412,590.1389380000182,591.5730594000197,590.1389380000182,591.0734438000363,590.1389380000182,591.0734438000363,590.1389380000182,591.0734438000363,590.1389380000182,591.0734438000363,590.1389380000182,591.0734438000363,591.0397196999984,591.5406373000005,591.0397196999984,591.5406373000005,591.0397196999984,591.5406373000005,591.0397196999984,591.5406373000005,591.0397196999984,591.5406373000005,591.0397196999984,591.5406373000005,591.0397196999984,591.5406373000005,591.0397196999984,591.5406373000005,590.1389380000182,None,591.5406373000005,593.0927866999991,0.9200000000000006,593.1092092000181,None,593.861551799986,None,,,,,,,[1.541875],2.860000000000002,0.7375,11010,001,2024_Jan_01_1928,MFTM_A_new1021,2021.2.3,59.87694090111633,
,,,,,,,,stim/Instruction_adaptive.png,conditions/adaptive.xlsx,test,-0.6,-0.6,-0.6,0.6,0.6,left,L,,,,,0,1,1,1,0,80,80,91,,,,,,,,,,,,,,,,,,,,,,,,,,,,,,,,,,,,,,,,,,,,594.3615533999982,None,left,1,1.2021078999969177,594.861931100022,596.2819608999998,594.861931100022,595.7806389000034,594.861931100022,595.7806389000034,594.861931100022,595.7806389000034,594.861931100022,595.7806389000034,594.861931100022,595.7806389000034,595.763792200014,596.26398779999,595.763792200014,596.26398779999,595.763792200014,596.26398779999,595.763792200014,596.26398779999,595.763792200014,596.26398779999,595.763792200014,596.26398779999,595.763792200014,596.26398779999,595.763792200014,596.26398779999,594.861931100022,None,596.26398779999,None,0.9100000000000006,597.8163407000247,None,598.5674096000148,None,,,,,,,[1.54246914],2.8900000000000023,0.7407407407407407,11010,001,2024_Jan_01_1928,MFTM_A_new1021,2021.2.3,59.87694090111633,
,,,,,,,,stim/Instruction_adaptive.png,conditions/adaptive.xlsx,test,-0.6,-0.6,-0.6,0.6,0.6,left,L,,,,,0,1,1,1,0,81,81,1,,,,,,,,,,,,,,,,,,,,,,,,,,,,,,,,,,,,,,,,,,,,599.0682532000355,None,right,0,1.1750793000101112,599.5689804000431,600.971438800043,599.5689804000431,600.4705194000271,599.5689804000431,600.4705194000271,599.5689804000431,600.4705194000271,599.5689804000431,600.4705194000271,599.5689804000431,600.4705194000271,600.4367860000348,600.9377946000313,600.4367860000348,600.9377946000313,600.4367860000348,600.9377946000313,600.4367860000348,600.9377946000313,600.4367860000348,600.9377946000313,600.4367860000348,600.9377946000313,600.4367860000348,600.9377946000313,600.4367860000348,600.9377946000313,599.5689804000431,None,600.9377946000313,602.4899956000154,0.8900000000000006,602.5067758000223,None,603.2578465000261,None,,,,,,,[1.54329268],2.820000000000002,0.7317073170731707,11010,001,2024_Jan_01_1928,MFTM_A_new1021,2021.2.3,59.87694090111633,
,,,,,,,,stim/Instruction_adaptive.png,conditions/adaptive.xlsx,test,-0.6,-0.6,-0.6,0.6,0.6,left,L,,,,,0,1,1,1,0,82,82,13,,,,,,,,,,,,,,,,,,,,,,,,,,,,,,,,,,,,,,,,,,,,603.7591279000044,None,left,1,2.1010021999827586,604.2591557000414,605.6951150000095,604.2591557000414,605.1944173999946,604.2591557000414,605.1944173999946,604.2591557000414,605.1944173999946,604.2591557000414,605.1944173999946,604.2591557000414,605.1944173999946,605.1774209000287,605.6786015999969,605.1774209000287,605.6786015999969,605.1774209000287,605.6786015999969,605.1774209000287,605.6786015999969,605.1774209000287,605.6786015999969,605.1774209000287,605.6786015999969,605.1774209000287,605.6786015999969,605.1774209000287,605.6786015999969,604.2591557000414,None,605.6786015999969,607.2304622000083,0.9300000000000006,607.2468397000339,None,607.998404700018,None,,,,,,,[1.54361446],2.840000000000002,0.7349397590361446,11010,001,2024_Jan_01_1928,MFTM_A_new1021,2021.2.3,59.87694090111633,
,,,,,,,,stim/Instruction_adaptive.png,conditions/adaptive.xlsx,test,-0.6,-0.6,-0.6,0.6,0.6,left,L,,,,,0,1,1,1,0,83,83,7,,,,,,,,,,,,,,,,,,,,,,,,,,,,,,,,,,,,,,,,,,,,608.499704100017,None,left,1,1.0635106999543495,609.0002641000319,610.4374687999953,609.0002641000319,609.9349960000254,609.0002641000319,609.9349960000254,609.0002641000319,609.9349960000254,609.0002641000319,609.9349960000254,609.0002641000319,609.9349960000254,609.9017464999924,610.4019044000306,609.9017464999924,610.4019044000306,609.9017464999924,610.4019044000306,609.9017464999924,610.4019044000306,609.9017464999924,610.4019044000306,609.9017464999924,610.4019044000306,609.9017464999924,610.4019044000306,609.9017464999924,610.4019044000306,609.0002641000319,None,610.4019044000306,611.9549172000261,0.9200000000000006,611.9704977000365,None,612.7215930999955,None,,,,,,,[1.54404762],2.870000000000002,0.7380952380952381,11010,001,2024_Jan_01_1928,MFTM_A_new1021,2021.2.3,59.87694090111633,
,,,,,,,,stim/Instruction_adaptive.png,conditions/adaptive.xlsx,test,-0.6,-0.6,-0.6,0.6,0.6,left,L,,,,,0,1,1,1,0,84,84,11,,,,,,,,,,,,,,,,,,,,,,,,,,,,,,,,,,,,,,,,,,,,613.2226126000169,None,right,0,1.8536395000410266,613.7231256000232,615.1255058000097,613.7231256000232,614.624529600027,613.7231256000232,614.624529600027,613.7231256000232,614.624529600027,613.7231256000232,614.624529600027,613.7231256000232,614.624529600027,614.608661300037,615.1084709000424,614.608661300037,615.1084709000424,614.608661300037,615.1084709000424,614.608661300037,615.1084709000424,614.608661300037,615.1084709000424,614.608661300037,615.1084709000424,614.608661300037,615.1084709000424,614.608661300037,615.1084709000424,613.7231256000232,None,615.1084709000424,616.6610508000012,0.9000000000000006,616.6776274000295,None,617.4292205999955,None,,,,,,,[1.54470588],2.790000000000002,0.7294117647058823,11010,001,2024_Jan_01_1928,MFTM_A_new1021,2021.2.3,59.87694090111633,
,,,,,,,,stim/Instruction_adaptive.png,conditions/adaptive.xlsx,test,0.6,0.6,0.6,-0.6,-0.6,right,R,,,,,0,1,1,1,0,85,85,30,,,,,,,,,,,,,,,,,,,,,,,,,,,,,,,,,,,,,,,,,,,,617.9292963999906,None,right,1,1.5774015000206418,618.4304340000381,619.8830974000157,618.4304340000381,619.3819488000008,618.4304340000381,619.3819488000008,618.4304340000381,619.3819488000008,618.4304340000381,619.3819488000008,618.4304340000381,619.3819488000008,619.3649092999985,619.866084200039,619.3649092999985,619.866084200039,619.3649092999985,619.866084200039,619.3649092999985,619.866084200039,619.3649092999985,619.866084200039,619.3649092999985,619.866084200039,619.3649092999985,619.866084200039,619.3649092999985,619.866084200039,618.4304340000381,None,619.866084200039,621.418592400034,0.9500000000000006,621.435082400043,None,622.1863470000098,None,,,,,,,[1.54476744],2.820000000000002,0.7325581395348837,11010,001,2024_Jan_01_1928,MFTM_A_new1021,2021.2.3,59.87694090111633,
,,,,,,,,stim/Instruction_adaptive.png,conditions/adaptive.xlsx,test,-0.6,-0.6,-0.6,0.6,0.6,left,L,,,,,0,1,1,1,0,86,86,55,,,,,,,,,,,,,,,,,,,,,,,,,,,,,,,,,,,,,,,,,,,,622.6865801000386,None,right,0,1.6843848999706097,623.1881189999986,624.6234603000339,623.1881189999986,624.1220470000408,623.1881189999986,624.1220470000408,623.1881189999986,624.1220470000408,623.1881189999986,624.1220470000408,623.1881189999986,624.1220470000408,624.105161799991,624.6069587999955,624.105161799991,624.6069587999955,624.105161799991,624.6069587999955,624.105161799991,624.6069587999955,624.105161799991,624.6069587999955,624.105161799991,624.6069587999955,624.105161799991,624.6069587999955,624.105161799991,624.6069587999955,623.1881189999986,None,624.6069587999955,626.1587723999983,0.9300000000000006,626.1750026000082,None,626.9262125000241,None,,,,,,,[1.54505747],2.7500000000000018,0.7241379310344828,11010,001,2024_Jan_01_1928,MFTM_A_new1021,2021.2.3,59.87694090111633,
,,,,,,,,stim/Instruction_adaptive.png,conditions/adaptive.xlsx,test,0.6,0.6,0.6,-0.6,-0.6,right,R,,,,,0,1,1,1,0,87,87,38,,,,,,,,,,,,,,,,,,,,,,,,,,,,,,,,,,,,,,,,,,,,627.4267380000092,None,right,1,1.128264200000558,627.9276609999943,629.413621100015,627.9276609999943,628.9126274000155,627.9276609999943,628.9126274000155,627.9276609999943,628.9126274000155,627.9276609999943,628.9126274000155,627.9276609999943,628.9126274000155,628.89562200004,629.3964808000019,628.89562200004,629.3964808000019,628.89562200004,629.3964808000019,628.89562200004,629.3964808000019,628.89562200004,629.3964808000019,628.89562200004,629.3964808000019,628.89562200004,629.3964808000019,628.89562200004,629.3964808000019,627.9276609999943,None,629.3964808000019,None,0.9800000000000006,630.9319154000259,None,631.683196900005,None,,,,,,,[[1.52]],2.7700000000000022,0.7272727272727273,11010,001,2024_Jan_01_1928,MFTM_A_new1021,2021.2.3,59.87694090111633,
,,,,,,,,stim/Instruction_adaptive.png,conditions/adaptive.xlsx,test,0.6,0.6,0.6,-0.6,-0.6,right,R,,,,,0,1,1,1,0,88,88,50,,,,,,,,,,,,,,,,,,,,,,,,,,,,,,,,,,,,,,,,,,,,632.1848099000053,None,right,1,1.1312870999681763,632.6847392999916,634.1541951000108,632.6847392999916,633.6528119000141,632.6847392999916,633.6528119000141,632.6847392999916,633.6528119000141,632.6847392999916,633.6528119000141,632.6847392999916,633.6528119000141,633.6366890000063,634.1375615000143,633.6366890000063,634.1375615000143,633.6366890000063,634.1375615000143,633.6366890000063,634.1375615000143,633.6366890000063,634.1375615000143,633.6366890000063,634.1375615000143,633.6366890000063,634.1375615000143,633.6366890000063,634.1375615000143,632.6847392999916,None,634.1210060000303,635.6729425000376,0.9600000000000006,635.6891276999959,None,636.4405874999939,None,,,,,,,[[1.54]],2.800000000000002,0.7303370786516854,11010,001,2024_Jan_01_1928,MFTM_A_new1021,2021.2.3,59.87694090111633,
,,,,,,,,stim/Instruction_adaptive.png,conditions/adaptive.xlsx,test,0.6,0.6,0.6,-0.6,-0.6,right,R,,,,,0,1,1,1,0,89,89,46,,,,,,,,,,,,,,,,,,,,,,,,,,,,,,,,,,,,,,,,,,,,636.9417950999923,None,right,1,1.2776550999842584,637.44212349999,638.8945389,637.44212349999,638.393767600006,637.44212349999,638.393767600006,637.44212349999,638.393767600006,637.44212349999,638.393767600006,637.44212349999,638.393767600006,638.359746400034,638.8611819000216,638.359746400034,638.8611819000216,638.359746400034,638.8611819000216,638.359746400034,638.8611819000216,638.359746400034,638.8611819000216,638.359746400034,638.8611819000216,638.359746400034,638.8611819000216,638.359746400034,638.8611819000216,637.44212349999,None,638.8611819000216,640.4132573000388,0.9400000000000006,640.4293831000105,None,641.1820462000323,None,,,,,,,[1.54488889],2.820000000000002,0.7333333333333333,11010,001,2024_Jan_01_1928,MFTM_A_new1021,2021.2.3,59.87694090111633,
,,,,,,,,stim/Instruction_adaptive.png,conditions/adaptive.xlsx,test,0.6,0.6,0.6,-0.6,-0.6,right,R,,,,,0,1,1,1,0,90,90,96,,,,,,,,,,,,,,,,,,,,,,,,,,,,,,,,,,,,,,,,,,,,641.6815424000379,None,right,1,1.377237300039269,642.1826286000432,643.6183016000432,642.1826286000432,643.116906100011,642.1826286000432,643.116906100011,642.1826286000432,643.116906100011,642.1826286000432,643.116906100011,642.1826286000432,643.116906100011,643.1000502000097,643.6013628999935,643.1000502000097,643.6013628999935,643.1000502000097,643.6013628999935,643.1000502000097,643.6013628999935,643.1000502000097,643.6013628999935,643.1000502000097,643.6013628999935,643.1000502000097,643.6013628999935,643.1000502000097,643.6013628999935,642.1826286000432,None,643.6013628999935,645.1531997999991,0.9300000000000006,645.1702023000107,None,645.9209134000121,None,,,,,,,[1.54516484],2.840000000000002,0.7362637362637363,11010,001,2024_Jan_01_1928,MFTM_A_new1021,2021.2.3,59.87694090111633,
,,,,,,,,stim/Instruction_adaptive.png,conditions/adaptive.xlsx,test,0.6,0.6,0.6,-0.6,-0.6,right,R,,,,,0,1,1,1,0,91,91,22,,,,,,,,,,,,,,,,,,,,,,,,,,,,,,,,,,,,,,,,,,,,646.4218661999912,None,right,1,0.7739921000320464,646.9223771000397,648.3593183000339,646.9223771000397,647.8571414999897,646.9223771000397,647.8571414999897,646.9223771000397,647.8571414999897,646.9223771000397,647.8571414999897,646.9223771000397,647.8571414999897,647.8240190999932,648.3245899000322,647.8240190999932,648.3245899000322,647.8240190999932,648.3245899000322,647.8240190999932,648.3245899000322,647.8240190999932,648.3245899000322,647.8240190999932,648.3245899000322,647.8240190999932,648.3245899000322,647.8240190999932,648.3245899000322,646.9223771000397,None,648.3245899000322,649.8769018999883,0.9200000000000006,649.8935044000391,None,650.6444384999922,None,,,,,,,[1.54554348],2.860000000000002,0.7391304347826086,11010,001,2024_Jan_01_1928,MFTM_A_new1021,2021.2.3,59.87694090111633,
,,,,,,,,stim/Instruction_adaptive.png,conditions/adaptive.xlsx,test,0.6,0.6,0.6,-0.6,-0.6,right,R,,,,,0,1,1,1,0,92,92,94,,,,,,,,,,,,,,,,,,,,,,,,,,,,,,,,,,,,,,,,,,,,651.1460537000094,None,left,0,1.4984554999973625,651.6459832999972,653.0647987000411,651.6459832999972,652.5642079000245,651.6459832999972,652.5642079000245,651.6459832999972,652.5642079000245,651.6459832999972,652.5642079000245,651.6459832999972,652.5642079000245,652.531830699998,653.0314416000037,652.531830699998,653.0314416000037,652.531830699998,653.0314416000037,652.531830699998,653.0314416000037,652.531830699998,653.0314416000037,652.531830699998,653.0314416000037,652.531830699998,653.0314416000037,652.531830699998,653.0314416000037,651.6459832999972,None,653.0314416000037,654.5838920000242,0.9100000000000006,654.6171907000244,None,655.3684296000283,None,,,,,,,[1.54602151],2.800000000000002,0.7311827956989247,11010,001,2024_Jan_01_1928,MFTM_A_new1021,2021.2.3,59.87694090111633,
,,,,,,,,stim/Instruction_adaptive.png,conditions/adaptive.xlsx,test,-0.6,-0.6,-0.6,0.6,0.6,left,L,,,,,0,1,1,1,0,93,93,3,,,,,,,,,,,,,,,,,,,,,,,,,,,,,,,,,,,,,,,,,,,,655.8691275999881,None,left,1,1.2704948999453336,656.3696180999978,657.8229589000111,656.3696180999978,657.3216319000348,656.3696180999978,657.3216319000348,656.3696180999978,657.3216319000348,656.3696180999978,657.3216319000348,656.3696180999978,657.3216319000348,657.2877139000339,657.7895252000308,657.2877139000339,657.7895252000308,657.2877139000339,657.7895252000308,657.2877139000339,657.7895252000308,657.2877139000339,657.7895252000308,657.2877139000339,657.7895252000308,657.2877139000339,657.7895252000308,657.2877139000339,657.7895252000308,656.3696180999978,None,657.7895252000308,659.3421669999952,0.9400000000000006,659.3574980000267,None,660.1087262000074,None,,,,,,,[1.54617021],2.820000000000002,0.7340425531914894,11010,001,2024_Jan_01_1928,MFTM_A_new1021,2021.2.3,59.87694090111633,
