arrwidth1,arrwidth2,arrwidth3,arrwidth4,arrwidth5,keyb,type,orientation,instruction_image,block_filename,block_type,arrow11,arrow22,arrow33,arrow44,arrow55,keyb_3,orientation3,trials.thisRepN,trials.thisTrialN,trials.thisN,trials.thisIndex,trials_3.thisRepN,trials_3.thisTrialN,trials_3.thisN,trials_3.thisIndex,trials_2.thisRepN,trials_2.thisTrialN,trials_2.thisN,trials_2.thisIndex,welcome.started,welcome.stopped,key_resp.keys,key_resp.rt,key_resp.started,key_resp.stopped,instruction_example.started,instruction_example.stopped,key_resp_3.keys,key_resp_3.rt,key_resp_3.started,key_resp_3.stopped,instruction_task.started,instruction_task.stopped,key_resp_2.keys,key_resp_2.rt,key_resp_2.started,key_resp_2.stopped,text_2.started,text_2.stopped,A1.started,A1.stopped,A2.started,A2.stopped,A3.started,A3.stopped,A4.started,A4.stopped,A5.started,A5.stopped,key_resp_4.keys,key_resp_4.corr,key_resp_4.rt,key_resp_4.started,key_resp_4.stopped,fb.started,fb.stopped,instruction_block.started,instruction_block.stopped,key_resp_8.keys,key_resp_8.rt,key_resp_8.started,key_resp_8.stopped,text_8.started,text_8.stopped,key_resp_9.keys,key_resp_9.corr,key_resp_9.rt,text_5.started,text_5.stopped,A11_3.started,A11_3.stopped,A22_2.started,A22_2.stopped,A33_2.started,A33_2.stopped,A44_2.started,A44_2.stopped,A55_2.started,A55_2.stopped,M1_3.started,M1_3.stopped,M2_2.started,M2_2.stopped,M3_2.started,M3_2.stopped,M4_2.started,M4_2.stopped,M5_2.started,M5_2.stopped,M6_2.started,M6_2.stopped,M7_2.started,M7_2.stopped,M8_2.started,M8_2.stopped,key_resp_9.started,key_resp_9.stopped,fixation.started,fixation.stopped,ET,fb_3.started,fb_3.stopped,text_9.started,text_9.stopped,fb_4.started,fb_4.stopped,text_7.started,text_7.stopped,endtext.started,endtext.stopped,fixation_ITI,CCC,Acc,participant,session,date,expName,psychopyVersion,frameRate,
,,,,,,,,,,,,,,,,,,,,,,,,,,,,,,22.98784010001691,None,space,4.460930600005668,22.98784010001691,None,,,,,,,,,,,,,,,,,,,,,,,,,,,,,,,,,,,,,,,,,,,,,,,,,,,,,,,,,,,,,,,,,,,,,,,,,,,,,,,,,,,,,,,,,11012,002,2024_Jan_02_1445,MFTM_A_new1021,2021.2.3,60.00092400729555,
,,,,,,,,,,,,,,,,,,,,,,,,,,,,,,,,,,,,27.47870839998359,None,space,7.8824323999579065,27.47870839998359,None,,,,,,,,,,,,,,,,,,,,,,,,,,,,,,,,,,,,,,,,,,,,,,,,,,,,,,,,,,,,,,,,,,,,,,,,,,,,,,,,,,,11012,002,2024_Jan_02_1445,MFTM_A_new1021,2021.2.3,60.00092400729555,
,,,,,,,,,,,,,,,,,,,,,,,,,,,,,,,,,,,,,,,,,,35.38975189998746,None,space,1.5867536999867298,35.38975189998746,None,,,,,,,,,,,,,,,,,,,,,,,,,,,,,,,,,,,,,,,,,,,,,,,,,,,,,,,,,,,,,,,,,,,,,,,,,,,,,11012,002,2024_Jan_02_1445,MFTM_A_new1021,2021.2.3,60.00092400729555,
0.6,0.6,0.6,-0.6,-0.6,right,3:2,R,,,,,,,,,,,0,0,0,0,,,,,,,,,,,,,,,,,,,,,,,,,,,37.00852999999188,None,37.00852999999188,None,37.00852999999188,None,37.00852999999188,None,37.00852999999188,None,37.00852999999188,None,right,1,2.832040000008419,37.00852999999188,None,39.88158869999461,None,,,,,,,,,,,,,,,,,,,,,,,,,,,,,,,,,,,,,,,,,,,,,,,,,,,,,,,,,,11012,002,2024_Jan_02_1445,MFTM_A_new1021,2021.2.3,60.00092400729555,
-0.6,-0.6,-0.6,0.6,0.6,left,3:2,L,,,,,,,,,,,0,1,1,1,,,,,,,,,,,,,,,,,,,,,,,,,,,40.631258699984755,None,40.631258699984755,None,40.631258699984755,None,40.631258699984755,None,40.631258699984755,None,40.631258699984755,None,left,1,1.8813968000467867,40.631258699984755,None,42.53344999998808,None,,,,,,,,,,,,,,,,,,,,,,,,,,,,,,,,,,,,,,,,,,,,,,,,,,,,,,,,,,11012,002,2024_Jan_02_1445,MFTM_A_new1021,2021.2.3,60.00092400729555,
0.6,0.6,0.6,-0.6,-0.6,right,3:2,R,,,,,,,,,,,1,0,2,0,,,,,,,,,,,,,,,,,,,,,,,,,,,43.28526009997586,None,43.28526009997586,None,43.28526009997586,None,43.28526009997586,None,43.28526009997586,None,43.28526009997586,None,right,1,1.6115260000224225,43.28526009997586,None,44.92044869996607,None,,,,,,,,,,,,,,,,,,,,,,,,,,,,,,,,,,,,,,,,,,,,,,,,,,,,,,,,,,11012,002,2024_Jan_02_1445,MFTM_A_new1021,2021.2.3,60.00092400729555,
-0.6,-0.6,-0.6,0.6,0.6,left,3:2,L,,,,,,,,,,,1,1,3,1,,,,,,,,,,,,,,,,,,,,,,,,,,,45.6716128999833,None,45.6716128999833,None,45.6716128999833,None,45.6716128999833,None,45.6716128999833,None,45.6716128999833,None,left,1,3.52119890000904,45.6716128999833,None,49.21009499998763,None,,,,,,,,,,,,,,,,,,,,,,,,,,,,,,,,,,,,,,,,,,,,,,,,,,,,,,,,,,11012,002,2024_Jan_02_1445,MFTM_A_new1021,2021.2.3,60.00092400729555,
,,,,,,,,stim/Instruction_mask.png,conditions/adaptive.xlsx,practice,0.6,0.6,0.6,-0.6,-0.6,right,R,,,,,0,0,0,0,0,0,0,32,,,,,,,,,,,,,,,,,,,,,,,,,,,,,,,,,,,,,,50.2134936999646,None,space,3.939446299977135,50.2134936999646,None,54.23356049996801,None,None,0,0,54.68492659996264,None,54.68492659996264,57.689386099984404,54.68492659996264,57.689386099984404,54.68492659996264,57.689386099984404,54.68492659996264,57.689386099984404,54.68492659996264,57.689386099984404,57.673302299983334,58.17372630001046,57.673302299983334,58.17372630001046,57.673302299983334,58.17372630001046,57.673302299983334,58.17372630001046,57.673302299983334,58.17372630001046,57.673302299983334,58.17372630001046,57.673302299983334,58.17372630001046,57.673302299983334,58.17372630001046,54.68492659996264,None,58.17372630001046,58.17372630001046,3,58.18975139997201,None,58.942035599960946,None,,,,,,,,,,11012,002,2024_Jan_02_1445,MFTM_A_new1021,2021.2.3,60.00092400729555,
,,,,,,,,stim/Instruction_mask.png,conditions/adaptive.xlsx,practice,-0.6,-0.6,-0.6,0.6,0.6,left,L,,,,,0,0,0,0,0,1,1,55,,,,,,,,,,,,,,,,,,,,,,,,,,,,,,,,,,,,,,,,,,,,59.441846499976236,None,right,0,2.689803600020241,59.942817999981344,61.94557380001061,59.942817999981344,61.44478119997075,59.942817999981344,61.44478119997075,59.942817999981344,61.44478119997075,59.942817999981344,61.44478119997075,59.942817999981344,61.44478119997075,61.4279680000036,61.92879619996529,61.4279680000036,61.92879619996529,61.4279680000036,61.92879619996529,61.4279680000036,61.92879619996529,61.4279680000036,61.92879619996529,61.4279680000036,61.92879619996529,61.4279680000036,61.92879619996529,61.4279680000036,61.92879619996529,59.942817999981344,None,61.92879619996529,63.431317700014915,1.5,63.44768529996509,None,64.19876609998755,None,,,,,,,,,,11012,002,2024_Jan_02_1445,MFTM_A_new1021,2021.2.3,60.00092400729555,
,,,,,,,,stim/Instruction_mask.png,conditions/adaptive.xlsx,practice,-0.6,-0.6,-0.6,0.6,0.6,left,L,,,,,0,0,0,0,0,2,2,65,,,,,,,,,,,,,,,,,,,,,,,,,,,,,,,,,,,,,,,,,,,,64.70178629999282,None,left,1,1.7521235999884084,65.20077759999549,66.50229530001525,65.20077759999549,66.00163730001077,65.20077759999549,66.00163730001077,65.20077759999549,66.00163730001077,65.20077759999549,66.00163730001077,65.20077759999549,66.00163730001077,65.98548540001502,66.48630549997324,65.98548540001502,66.48630549997324,65.98548540001502,66.48630549997324,65.98548540001502,66.48630549997324,65.98548540001502,66.48630549997324,65.98548540001502,66.48630549997324,65.98548540001502,66.48630549997324,65.98548540001502,66.48630549997324,65.20077759999549,None,66.48630549997324,68.68961359997047,0.8,68.70552640000824,None,69.45743660000153,None,,,,,,,,,,11012,002,2024_Jan_02_1445,MFTM_A_new1021,2021.2.3,60.00092400729555,
,,,,,,,,stim/Instruction_mask.png,conditions/adaptive.xlsx,practice,-0.6,-0.6,-0.6,0.6,0.6,left,L,,,,,0,0,0,0,0,3,3,9,,,,,,,,,,,,,,,,,,,,,,,,,,,,,,,,,,,,,,,,,,,,69.95820699998876,None,right,0,1.086025599972345,70.45893409999553,71.20992250001291,70.45893409999553,70.70858089998364,70.45893409999553,70.70858089998364,70.45893409999553,70.70858089998364,70.45893409999553,70.70858089998364,70.45893409999553,70.70858089998364,70.69217399996705,71.19311479997123,70.69217399996705,71.19311479997123,70.69217399996705,71.19311479997123,70.69217399996705,71.19311479997123,70.69217399996705,71.19311479997123,70.69217399996705,71.19311479997123,70.69217399996705,71.19311479997123,70.69217399996705,71.19311479997123,70.45893409999553,None,71.19311479997123,73.94761460000882,3,73.96356649999507,None,74.71565259998897,None,,,,,,,,,,11012,002,2024_Jan_02_1445,MFTM_A_new1021,2021.2.3,60.00092400729555,
,,,,,,,,stim/Instruction_mask.png,conditions/adaptive.xlsx,practice,,,,,,,,,,,,0,0,0,0,,,,,,,,,,,,,,,,,,,,,,,,,,,,,,,,,,,,,,,,,,,,,,,,,,,,,,,,,,,,,,,,,,,,,,,,,,,,,,,,,,,,,,,,,,75.2320272999932,76.23394800000824,76.2168048999738,76.2168048999738,76.2168048999738,None,,,,11012,002,2024_Jan_02_1445,MFTM_A_new1021,2021.2.3,60.00092400729555,
,,,,,,,,stim/Instruction_adaptive.png,conditions/adaptive.xlsx,test,-0.6,-0.6,-0.6,0.6,0.6,left,L,,,,,0,1,1,1,0,0,0,29,,,,,,,,,,,,,,,,,,,,,,,,,,,,,,,,,,,,,,79.37116460001562,None,space,5.149693500017747,79.37116460001562,None,84.56227270001546,None,left,1,3.0814027999877,85.06325820001075,None,85.06325820001075,88.06791929999599,85.06325820001075,88.06791929999599,85.06325820001075,88.06791929999599,85.06325820001075,88.06791929999599,85.06325820001075,88.06791929999599,88.05096269998467,88.55197440000484,88.05096269998467,88.55197440000484,88.05096269998467,88.55197440000484,88.05096269998467,88.55197440000484,88.05096269998467,88.55197440000484,88.05096269998467,88.55197440000484,88.05096269998467,88.55197440000484,88.05096269998467,88.55197440000484,85.06325820001075,None,88.55197440000484,88.55197440000484,3,88.56834619998699,None,89.31979549996322,None,,,,,,,0,6.000000000000005,1.0,11012,002,2024_Jan_02_1445,MFTM_A_new1021,2021.2.3,60.00092400729555,
,,,,,,,,stim/Instruction_adaptive.png,conditions/adaptive.xlsx,test,0.6,0.6,0.6,-0.6,-0.6,right,R,,,,,0,1,1,1,0,1,1,48,,,,,,,,,,,,,,,,,,,,,,,,,,,,,,,,,,,,,,,,,,,,89.8208521999768,None,right,1,1.687580700032413,90.32126489997609,91.07216310000513,90.32126489997609,90.57151059998432,90.32126489997609,90.57151059998432,90.32126489997609,90.57151059998432,90.32126489997609,90.57151059998432,90.32126489997609,90.57151059998432,90.55451649997849,91.05573269998422,90.55451649997849,91.05573269998422,90.55451649997849,91.05573269998422,90.55451649997849,91.05573269998422,90.55451649997849,91.05573269998422,90.55451649997849,91.05573269998422,90.55451649997849,91.05573269998422,90.55451649997849,91.05573269998422,90.32126489997609,None,91.05573269998422,92.02443629998015,0.25,92.04014880000614,None,92.79122919996735,None,,,,,,,[0.875],6.000000000000005,1.0,11012,002,2024_Jan_02_1445,MFTM_A_new1021,2021.2.3,60.00092400729555,
,,,,,,,,stim/Instruction_adaptive.png,conditions/adaptive.xlsx,test,0.6,0.6,0.6,-0.6,-0.6,right,R,,,,,0,1,1,1,0,2,2,70,,,,,,,,,,,,,,,,,,,,,,,,,,,,,,,,,,,,,,,,,,,,93.29368729999987,None,left,0,1.1200170000083745,93.79287880001357,94.54462689999491,93.79287880001357,94.0440263999626,93.79287880001357,94.0440263999626,93.79287880001357,94.0440263999626,93.79287880001357,94.0440263999626,93.79287880001357,94.0440263999626,94.0266210999689,94.52736800001003,94.0266210999689,94.52736800001003,94.0266210999689,94.52736800001003,94.0266210999689,94.52736800001003,94.0266210999689,94.52736800001003,94.0266210999689,94.52736800001003,94.0266210999689,94.52736800001003,94.0266210999689,94.52736800001003,93.79287880001357,None,94.52736800001003,95.86348699999508,0.25,95.87901530001545,None,96.63062319997698,None,,,,,,,[1.33333333],3.1800000000000024,0.6666666666666666,11012,002,2024_Jan_02_1445,MFTM_A_new1021,2021.2.3,60.00092400729555,
,,,,,,,,stim/Instruction_adaptive.png,conditions/adaptive.xlsx,test,-0.6,-0.6,-0.6,0.6,0.6,left,L,,,,,0,1,1,1,0,3,3,55,,,,,,,,,,,,,,,,,,,,,,,,,,,,,,,,,,,,,,,,,,,,97.13119539996842,None,left,1,1.0570462999748997,97.63186580000911,98.86743909999495,97.63186580000911,98.36731110000983,97.63186580000911,98.36731110000983,97.63186580000911,98.36731110000983,97.63186580000911,98.36731110000983,97.63186580000911,98.36731110000983,98.35021890001372,98.85104400001,98.35021890001372,98.85104400001,98.35021890001372,98.85104400001,98.35021890001372,98.85104400001,98.35021890001372,98.85104400001,98.35021890001372,98.85104400001,98.35021890001372,98.85104400001,98.35021890001372,98.85104400001,97.63186580000911,None,98.85104400001,100.30378519999795,0.7300000000000004,100.3190537999617,None,101.07085419999203,None,,,,,,,[1.4425],4.030000000000003,0.75,11012,002,2024_Jan_02_1445,MFTM_A_new1021,2021.2.3,60.00092400729555,
,,,,,,,,stim/Instruction_adaptive.png,conditions/adaptive.xlsx,test,-0.6,-0.6,-0.6,0.6,0.6,left,L,,,,,0,1,1,1,0,4,4,15,,,,,,,,,,,,,,,,,,,,,,,,,,,,,,,,,,,,,,,,,,,,101.57196959998691,None,left,1,1.441449099977035,102.07178379996913,102.97414429998025,102.07178379996913,102.472334399994,102.07178379996913,102.472334399994,102.07178379996913,102.472334399994,102.07178379996913,102.472334399994,102.07178379996913,102.472334399994,102.456378199975,102.95721239998238,102.456378199975,102.95721239998238,102.456378199975,102.95721239998238,102.456378199975,102.95721239998238,102.456378199975,102.95721239998238,102.456378199975,102.95721239998238,102.456378199975,102.95721239998238,102.456378199975,102.95721239998238,102.07178379996913,None,102.95721239998238,104.54291670001112,0.40000000000000013,104.55872380000073,None,105.31040630000643,None,,,,,,,[1.574],4.550000000000003,0.8,11012,002,2024_Jan_02_1445,MFTM_A_new1021,2021.2.3,60.00092400729555,
,,,,,,,,stim/Instruction_adaptive.png,conditions/adaptive.xlsx,test,-0.6,-0.6,-0.6,0.6,0.6,left,L,,,,,0,1,1,1,0,5,5,3,,,,,,,,,,,,,,,,,,,,,,,,,,,,,,,,,,,,,,,,,,,,105.81057440000586,None,right,0,1.3208143000374548,106.31183769996278,107.09592930000508,106.31183769996278,106.59518709999975,106.31183769996278,106.59518709999975,106.31183769996278,106.59518709999975,106.31183769996278,106.59518709999975,106.31183769996278,106.59518709999975,106.57921489997534,107.07936939998763,106.57921489997534,107.07936939998763,106.57921489997534,107.07936939998763,106.57921489997534,107.07936939998763,106.57921489997534,107.07936939998763,106.57921489997534,107.07936939998763,106.57921489997534,107.07936939998763,106.57921489997534,107.07936939998763,106.31183769996278,None,107.07936939998763,108.76500459999079,0.28,108.78161389997695,None,109.53358649997972,None,,,,,,,[1.68166667],3.5900000000000025,0.6666666666666666,11012,002,2024_Jan_02_1445,MFTM_A_new1021,2021.2.3,60.00092400729555,
,,,,,,,,stim/Instruction_adaptive.png,conditions/adaptive.xlsx,test,0.6,0.6,0.6,-0.6,-0.6,right,R,,,,,0,1,1,1,0,6,6,76,,,,,,,,,,,,,,,,,,,,,,,,,,,,,,,,,,,,,,,,,,,,110.034799200017,None,right,1,1.6827024999656714,110.53429639997194,111.58584399998654,110.53429639997194,111.08494039997458,110.53429639997194,111.08494039997458,110.53429639997194,111.08494039997458,110.53429639997194,111.08494039997458,110.53429639997194,111.08494039997458,111.06857629999286,111.56911360000959,111.06857629999286,111.56911360000959,111.06857629999286,111.56911360000959,111.06857629999286,111.56911360000959,111.06857629999286,111.56911360000959,111.06857629999286,111.56911360000959,111.06857629999286,111.56911360000959,111.06857629999286,111.56911360000959,110.53429639997194,None,111.56911360000959,113.289314499998,0.5500000000000003,113.30482069996651,None,114.05618349998258,None,,,,,,,[1.72],4.0000000000000036,0.7142857142857143,11012,002,2024_Jan_02_1445,MFTM_A_new1021,2021.2.3,60.00092400729555,
,,,,,,,,stim/Instruction_adaptive.png,conditions/adaptive.xlsx,test,-0.6,-0.6,-0.6,0.6,0.6,left,L,,,,,0,1,1,1,0,7,7,7,,,,,,,,,,,,,,,,,,,,,,,,,,,,,,,,,,,,,,,,,,,,114.55712499999208,None,left,1,1.486514599993825,115.05841210001381,115.97582210000837,115.05841210001381,115.47637240000768,115.05841210001381,115.47637240000768,115.05841210001381,115.47637240000768,115.05841210001381,115.47637240000768,115.05841210001381,115.47637240000768,115.44165220001014,115.94330819998868,115.44165220001014,115.94330819998868,115.44165220001014,115.94330819998868,115.44165220001014,115.94330819998868,115.44165220001014,115.94330819998868,115.44165220001014,115.94330819998868,115.44165220001014,115.94330819998868,115.44165220001014,115.94330819998868,115.05841210001381,None,115.94330819998868,117.7116207999643,0.41000000000000014,117.74496219999855,None,118.49739879998378,None,,,,,,,[1.76625],4.290000000000004,0.75,11012,002,2024_Jan_02_1445,MFTM_A_new1021,2021.2.3,60.00092400729555,
,,,,,,,,stim/Instruction_adaptive.png,conditions/adaptive.xlsx,test,-0.6,-0.6,-0.6,0.6,0.6,left,L,,,,,0,1,1,1,0,8,8,33,,,,,,,,,,,,,,,,,,,,,,,,,,,,,,,,,,,,,,,,,,,,118.99777869996615,None,left,1,1.1517663999693468,119.49762609996833,120.34883879998233,119.49762609996833,119.84795079997275,119.49762609996833,119.84795079997275,119.49762609996833,119.84795079997275,119.49762609996833,119.84795079997275,119.49762609996833,119.84795079997275,119.81552060000831,120.31676139996853,119.81552060000831,120.31676139996853,119.81552060000831,120.31676139996853,119.81552060000831,120.31676139996853,119.81552060000831,120.31676139996853,119.81552060000831,120.31676139996853,119.81552060000831,120.31676139996853,119.81552060000831,120.31676139996853,119.49762609996833,None,120.31676139996853,122.1352845999645,0.3400000000000001,122.1520355999819,None,122.90262969996547,None,,,,,,,[1.81],4.520000000000003,0.7777777777777778,11012,002,2024_Jan_02_1445,MFTM_A_new1021,2021.2.3,60.00092400729555,
,,,,,,,,stim/Instruction_adaptive.png,conditions/adaptive.xlsx,test,0.6,0.6,0.6,-0.6,-0.6,right,R,,,,,0,1,1,1,0,9,9,92,,,,,,,,,,,,,,,,,,,,,,,,,,,,,,,,,,,,,,,,,,,,123.40394079999533,None,right,1,0.9610356000484899,123.90412089996971,124.70670629997039,123.90412089996971,124.20504400000209,123.90412089996971,124.20504400000209,123.90412089996971,124.20504400000209,123.90412089996971,124.20504400000209,123.90412089996971,124.20504400000209,124.17133509996347,124.67355639999732,124.17133509996347,124.67355639999732,124.17133509996347,124.67355639999732,124.17133509996347,124.67355639999732,124.17133509996347,124.67355639999732,124.17133509996347,124.67355639999732,124.17133509996347,124.67355639999732,124.17133509996347,124.67355639999732,123.90412089996971,None,124.67355639999732,126.52531920000911,0.29000000000000004,126.55819959996734,None,127.30933439999353,None,,,,,,,[1.85],4.7100000000000035,0.8,11012,002,2024_Jan_02_1445,MFTM_A_new1021,2021.2.3,60.00092400729555,
,,,,,,,,stim/Instruction_adaptive.png,conditions/adaptive.xlsx,test,-0.6,-0.6,-0.6,0.6,0.6,left,L,,,,,0,1,1,1,0,10,10,91,,,,,,,,,,,,,,,,,,,,,,,,,,,,,,,,,,,,,,,,,,,,127.80993320001289,None,left,1,1.2819571999716572,128.31130689999554,129.0619369999622,128.31130689999554,128.56230639998103,128.31130689999554,128.56230639998103,128.31130689999554,128.56230639998103,128.31130689999554,128.56230639998103,128.31130689999554,128.56230639998103,128.54446569998981,129.04495389998192,128.54446569998981,129.04495389998192,128.54446569998981,129.04495389998192,128.54446569998981,129.04495389998192,128.54446569998981,129.04495389998192,128.54446569998981,129.04495389998192,128.54446569998981,129.04495389998192,128.54446569998981,129.04495389998192,128.31130689999554,None,129.04495389998192,130.93187570001464,0.25,130.94774159998633,None,131.69960880000144,None,,,,,,,[1.88636364],4.870000000000004,0.8181818181818182,11012,002,2024_Jan_02_1445,MFTM_A_new1021,2021.2.3,60.00092400729555,
,,,,,,,,stim/Instruction_adaptive.png,conditions/adaptive.xlsx,test,0.6,0.6,0.6,-0.6,-0.6,right,R,,,,,0,1,1,1,0,11,11,34,,,,,,,,,,,,,,,,,,,,,,,,,,,,,,,,,,,,,,,,,,,,132.19969759997912,None,right,1,0.8692092000273988,132.70112230000086,133.45159070001682,132.70112230000086,132.9508707000059,132.70112230000086,132.9508707000059,132.70112230000086,132.9508707000059,132.70112230000086,132.9508707000059,132.70112230000086,132.9508707000059,132.93449909996707,133.4349680999876,132.93449909996707,133.4349680999876,132.93449909996707,133.4349680999876,132.93449909996707,133.4349680999876,132.93449909996707,133.4349680999876,132.93449909996707,133.4349680999876,132.93449909996707,133.4349680999876,132.93449909996707,133.4349680999876,132.70112230000086,None,133.4349680999876,135.35512039996684,0.25,135.37168509996263,None,136.1224527999875,None,,,,,,,[1.91666667],5.010000000000004,0.8333333333333334,11012,002,2024_Jan_02_1445,MFTM_A_new1021,2021.2.3,60.00092400729555,
,,,,,,,,stim/Instruction_adaptive.png,conditions/adaptive.xlsx,test,-0.6,-0.6,-0.6,0.6,0.6,left,L,,,,,0,1,1,1,0,12,12,89,,,,,,,,,,,,,,,,,,,,,,,,,,,,,,,,,,,,,,,,,,,,136.6229803999886,None,right,0,0.9413152000051923,137.12403790000826,137.87490719999187,137.12403790000826,137.3749877999653,137.12403790000826,137.3749877999653,137.12403790000826,137.3749877999653,137.12403790000826,137.3749877999653,137.12403790000826,137.3749877999653,137.35724889999256,137.8581930999644,137.35724889999256,137.8581930999644,137.35724889999256,137.8581930999644,137.35724889999256,137.8581930999644,137.35724889999256,137.8581930999644,137.35724889999256,137.8581930999644,137.35724889999256,137.8581930999644,137.35724889999256,137.8581930999644,137.12403790000826,None,137.8581930999644,139.8110909999814,0.25,139.82767229998717,None,140.57911789999343,None,,,,,,,[1.94230769],4.570000000000004,0.7692307692307693,11012,002,2024_Jan_02_1445,MFTM_A_new1021,2021.2.3,60.00092400729555,
,,,,,,,,stim/Instruction_adaptive.png,conditions/adaptive.xlsx,test,0.6,0.6,0.6,-0.6,-0.6,right,R,,,,,0,1,1,1,0,13,13,66,,,,,,,,,,,,,,,,,,,,,,,,,,,,,,,,,,,,,,,,,,,,141.0793340000091,None,right,1,1.0917947000125423,141.58108619996347,142.36532629997237,141.58108619996347,141.864392199961,141.58108619996347,141.864392199961,141.58108619996347,141.864392199961,141.58108619996347,141.864392199961,141.58108619996347,141.864392199961,141.8490165999974,142.34925199998543,141.8490165999974,142.34925199998543,141.8490165999974,142.34925199998543,141.8490165999974,142.34925199998543,141.8490165999974,142.34925199998543,141.8490165999974,142.34925199998543,141.8490165999974,142.34925199998543,141.8490165999974,142.34925199998543,141.58108619996347,None,142.34925199998543,144.31876310001826,0.28,144.33442400000058,None,145.08548149996204,None,,,,,,,[1.96214286],4.7100000000000035,0.7857142857142857,11012,002,2024_Jan_02_1445,MFTM_A_new1021,2021.2.3,60.00092400729555,
,,,,,,,,stim/Instruction_adaptive.png,conditions/adaptive.xlsx,test,0.6,0.6,0.6,-0.6,-0.6,right,R,,,,,0,1,1,1,0,14,14,90,,,,,,,,,,,,,,,,,,,,,,,,,,,,,,,,,,,,,,,,,,,,145.5862797999871,None,left,0,0.9219060000032187,146.0871909999987,146.83862190000946,146.0871909999987,146.3373077000142,146.0871909999987,146.3373077000142,146.0871909999987,146.3373077000142,146.0871909999987,146.3373077000142,146.0871909999987,146.3373077000142,146.32056719996035,146.82191589998547,146.32056719996035,146.82191589998547,146.32056719996035,146.82191589998547,146.32056719996035,146.82191589998547,146.32056719996035,146.82191589998547,146.32056719996035,146.82191589998547,146.32056719996035,146.82191589998547,146.32056719996035,146.82191589998547,146.0871909999987,None,146.82191589998547,148.8085437999689,0.25,148.82389419997344,None,149.57629619998625,None,,,,,,,[1.98133333],4.350000000000003,0.7333333333333333,11012,002,2024_Jan_02_1445,MFTM_A_new1021,2021.2.3,60.00092400729555,
,,,,,,,,stim/Instruction_adaptive.png,conditions/adaptive.xlsx,test,-0.6,-0.6,-0.6,0.6,0.6,left,L,,,,,0,1,1,1,0,15,15,83,,,,,,,,,,,,,,,,,,,,,,,,,,,,,,,,,,,,,,,,,,,,150.07618410000578,None,right,0,0.9115395999979228,150.57725380000193,151.41234189999523,150.57725380000193,150.911490199971,150.57725380000193,150.911490199971,150.57725380000193,150.911490199971,150.57725380000193,150.911490199971,150.57725380000193,150.911490199971,150.8782959000091,151.3788262999733,150.8782959000091,151.3788262999733,150.8782959000091,151.3788262999733,150.8782959000091,151.3788262999733,150.8782959000091,151.3788262999733,150.8782959000091,151.3788262999733,150.8782959000091,151.3788262999733,150.8782959000091,151.3788262999733,150.57725380000193,None,151.3788262999733,153.3811701000086,0.32000000000000006,153.39779239997733,None,154.1490793999983,None,,,,,,,[1.99375],3.940000000000003,0.6875,11012,002,2024_Jan_02_1445,MFTM_A_new1021,2021.2.3,60.00092400729555,
,,,,,,,,stim/Instruction_adaptive.png,conditions/adaptive.xlsx,test,-0.6,-0.6,-0.6,0.6,0.6,left,L,,,,,0,1,1,1,0,16,16,59,,,,,,,,,,,,,,,,,,,,,,,,,,,,,,,,,,,,,,,,,,,,154.65017599996645,None,right,0,1.9863213999778964,155.15157099999487,156.0859013000154,155.15157099999487,155.5851338999928,155.15157099999487,155.5851338999928,155.15157099999487,155.5851338999928,155.15157099999487,155.5851338999928,155.15157099999487,155.5851338999928,155.56827589997556,156.06931220000843,155.56827589997556,156.06931220000843,155.56827589997556,156.06931220000843,155.56827589997556,156.06931220000843,155.56827589997556,156.06931220000843,155.56827589997556,156.06931220000843,155.56827589997556,156.06931220000843,155.56827589997556,156.06931220000843,155.15157099999487,None,156.06931220000843,158.07114539999748,0.43000000000000016,158.08804810000584,None,158.8397205999936,None,,,,,,,[1.99823529],3.4300000000000024,0.6470588235294118,11012,002,2024_Jan_02_1445,MFTM_A_new1021,2021.2.3,60.00092400729555,
,,,,,,,,stim/Instruction_adaptive.png,conditions/adaptive.xlsx,test,-0.6,-0.6,-0.6,0.6,0.6,left,L,,,,,0,1,1,1,0,17,17,75,,,,,,,,,,,,,,,,,,,,,,,,,,,,,,,,,,,,,,,,,,,,159.33988629997475,None,right,0,1.7441422999836504,159.84069489996182,160.95920059998753,159.84069489996182,160.45895950001432,159.84069489996182,160.45895950001432,159.84069489996182,160.45895950001432,159.84069489996182,160.45895950001432,159.84069489996182,160.45895950001432,160.42604330001632,160.92602670000633,160.42604330001632,160.92602670000633,160.42604330001632,160.92602670000633,160.42604330001632,160.92602670000633,160.42604330001632,160.92602670000633,160.42604330001632,160.92602670000633,160.42604330001632,160.92602670000633,160.42604330001632,160.92602670000633,159.84069489996182,None,160.92602670000633,162.8280945000006,0.6100000000000003,162.84498120000353,None,163.5977987999795,None,,,,,,,[[1.89]],2.780000000000002,0.6111111111111112,11012,002,2024_Jan_02_1445,MFTM_A_new1021,2021.2.3,60.00092400729555,
,,,,,,,,stim/Instruction_adaptive.png,conditions/adaptive.xlsx,test,-0.6,-0.6,-0.6,0.6,0.6,left,L,,,,,0,1,1,1,0,18,18,49,,,,,,,,,,,,,,,,,,,,,,,,,,,,,,,,,,,,,,,,,,,,164.09754899999825,None,left,1,1.2200299999676645,164.597781999968,166.06709309999133,164.597781999968,165.566169800004,164.597781999968,165.566169800004,164.597781999968,165.566169800004,164.597781999968,165.566169800004,164.597781999968,165.566169800004,165.53329709998798,166.03401649999432,165.53329709998798,166.03401649999432,165.53329709998798,166.03401649999432,165.53329709998798,166.03401649999432,165.53329709998798,166.03401649999432,165.53329709998798,166.03401649999432,165.53329709998798,166.03401649999432,165.53329709998798,166.03401649999432,164.597781999968,None,166.03401649999432,167.5858453999972,0.9600000000000006,167.60310800001025,None,168.3532933999668,None,,,,,,,[[1.54]],3.0500000000000025,0.631578947368421,11012,002,2024_Jan_02_1445,MFTM_A_new1021,2021.2.3,60.00092400729555,
,,,,,,,,stim/Instruction_adaptive.png,conditions/adaptive.xlsx,test,-0.6,-0.6,-0.6,0.6,0.6,left,L,,,,,0,1,1,1,0,19,19,93,,,,,,,,,,,,,,,,,,,,,,,,,,,,,,,,,,,,,,,,,,,,168.85394220001763,None,left,1,1.7989931999472901,169.35522650001803,170.65757639997173,169.35522650001803,170.15724029997364,169.35522650001803,170.15724029997364,169.35522650001803,170.15724029997364,169.35522650001803,170.15724029997364,169.35522650001803,170.15724029997364,170.12267369998153,170.62335020001046,170.12267369998153,170.62335020001046,170.12267369998153,170.62335020001046,170.12267369998153,170.62335020001046,170.12267369998153,170.62335020001046,170.12267369998153,170.62335020001046,170.12267369998153,170.62335020001046,170.12267369998153,170.62335020001046,169.35522650001803,None,170.62335020001046,172.3418711000122,0.7900000000000005,172.3593648999813,None,173.1114985999884,None,,,,,,,[[1.71]],3.2600000000000025,0.65,11012,002,2024_Jan_02_1445,MFTM_A_new1021,2021.2.3,60.00092400729555,
,,,,,,,,stim/Instruction_adaptive.png,conditions/adaptive.xlsx,test,-0.6,-0.6,-0.6,0.6,0.6,left,L,,,,,0,1,1,1,0,20,20,51,,,,,,,,,,,,,,,,,,,,,,,,,,,,,,,,,,,,,,,,,,,,173.61113839998143,None,left,1,1.3528333000140265,174.11190660001012,175.3148199999705,174.11190660001012,174.81347940000705,174.11190660001012,174.81347940000705,174.11190660001012,174.81347940000705,174.11190660001012,174.81347940000705,174.11190660001012,174.81347940000705,174.7794727999717,175.28016029996797,174.7794727999717,175.28016029996797,174.7794727999717,175.28016029996797,174.7794727999717,175.28016029996797,174.7794727999717,175.28016029996797,174.7794727999717,175.28016029996797,174.7794727999717,175.28016029996797,174.7794727999717,175.28016029996797,174.11190660001012,None,175.28016029996797,177.10048079997068,0.6900000000000004,177.11608800000977,None,177.867626799969,None,,,,,,,[[1.81]],3.4200000000000026,0.6666666666666666,11012,002,2024_Jan_02_1445,MFTM_A_new1021,2021.2.3,60.00092400729555,
,,,,,,,,stim/Instruction_adaptive.png,conditions/adaptive.xlsx,test,-0.6,-0.6,-0.6,0.6,0.6,left,L,,,,,0,1,1,1,0,21,21,5,,,,,,,,,,,,,,,,,,,,,,,,,,,,,,,,,,,,,,,,,,,,178.36878449999494,None,right,0,1.8523059000144713,178.86966389999725,179.9871906999615,178.86966389999725,179.48623509996105,178.86966389999725,179.48623509996105,178.86966389999725,179.48623509996105,178.86966389999725,179.48623509996105,178.86966389999725,179.48623509996105,179.46976659999928,179.9710369000095,179.46976659999928,179.9710369000095,179.46976659999928,179.9710369000095,179.46976659999928,179.9710369000095,179.46976659999928,179.9710369000095,179.46976659999928,179.9710369000095,179.46976659999928,179.9710369000095,179.46976659999928,179.9710369000095,178.86966389999725,None,179.95416369999293,181.85705350001808,0.6100000000000003,181.8731316999765,None,182.6251937999623,None,,,,,,,[[1.89]],3.000000000000002,0.6363636363636364,11012,002,2024_Jan_02_1445,MFTM_A_new1021,2021.2.3,60.00092400729555,
,,,,,,,,stim/Instruction_adaptive.png,conditions/adaptive.xlsx,test,-0.6,-0.6,-0.6,0.6,0.6,left,L,,,,,0,1,1,1,0,22,22,47,,,,,,,,,,,,,,,,,,,,,,,,,,,,,,,,,,,,,,,,,,,,183.12646990001667,None,left,1,1.6230518000083975,183.62594659999013,184.94538310001371,183.62594659999013,184.46114079997642,183.62594659999013,184.46114079997642,183.62594659999013,184.46114079997642,183.62594659999013,184.46114079997642,183.62594659999013,184.46114079997642,184.42775809997693,184.92843669996364,184.42775809997693,184.92843669996364,184.42775809997693,184.92843669996364,184.42775809997693,184.92843669996364,184.42775809997693,184.92843669996364,184.42775809997693,184.92843669996364,184.42775809997693,184.92843669996364,184.42775809997693,184.92843669996364,183.62594659999013,None,184.92843669996364,186.61374970001634,0.8200000000000005,186.63102839997737,None,187.38147089997074,None,,,,,,,[[1.68]],3.1600000000000024,0.6521739130434783,11012,002,2024_Jan_02_1445,MFTM_A_new1021,2021.2.3,60.00092400729555,
,,,,,,,,stim/Instruction_adaptive.png,conditions/adaptive.xlsx,test,0.6,0.6,0.6,-0.6,-0.6,right,R,,,,,0,1,1,1,0,23,23,50,,,,,,,,,,,,,,,,,,,,,,,,,,,,,,,,,,,,,,,,,,,,187.88288509997074,None,right,1,1.194077699969057,188.38290159997996,189.6348455999978,188.38290159997996,189.13472329999786,188.38290159997996,189.13472329999786,188.38290159997996,189.13472329999786,188.38290159997996,189.13472329999786,188.38290159997996,189.13472329999786,189.1009779999731,189.60213569999905,189.1009779999731,189.60213569999905,189.1009779999731,189.60213569999905,189.1009779999731,189.60213569999905,189.1009779999731,189.60213569999905,189.1009779999731,189.60213569999905,189.1009779999731,189.60213569999905,189.1009779999731,189.60213569999905,188.38290159997996,None,189.60213569999905,191.37078050000127,0.7400000000000004,191.3874243000173,None,192.13911899999948,None,,,,,,,[[1.76]],3.3000000000000025,0.6666666666666666,11012,002,2024_Jan_02_1445,MFTM_A_new1021,2021.2.3,60.00092400729555,
,,,,,,,,stim/Instruction_adaptive.png,conditions/adaptive.xlsx,test,-0.6,-0.6,-0.6,0.6,0.6,left,L,,,,,0,1,1,1,0,24,24,39,,,,,,,,,,,,,,,,,,,,,,,,,,,,,,,,,,,,,,,,,,,,192.63930330000585,None,right,0,2.0857805000268854,193.13994570000796,194.3268272000132,193.13994570000796,193.82456280000042,193.13994570000796,193.82456280000042,193.13994570000796,193.82456280000042,193.13994570000796,193.82456280000042,193.13994570000796,193.82456280000042,193.791226500005,194.2917024999624,193.791226500005,194.2917024999624,193.791226500005,194.2917024999624,193.791226500005,194.2917024999624,193.791226500005,194.2917024999624,193.791226500005,194.2917024999624,193.791226500005,194.2917024999624,193.791226500005,194.2917024999624,193.13994570000796,None,194.2917024999624,196.12836440000683,0.6700000000000004,196.14417669997783,None,196.89621209999314,None,,,,,,,[[1.83]],2.9300000000000024,0.64,11012,002,2024_Jan_02_1445,MFTM_A_new1021,2021.2.3,60.00092400729555,
,,,,,,,,stim/Instruction_adaptive.png,conditions/adaptive.xlsx,test,-0.6,-0.6,-0.6,0.6,0.6,left,L,,,,,0,1,1,1,0,25,25,61,,,,,,,,,,,,,,,,,,,,,,,,,,,,,,,,,,,,,,,,,,,,197.39696129999356,None,left,1,1.1684205000055954,197.89701229997445,199.26644919998944,197.89701229997445,198.76488799997605,197.89701229997445,198.76488799997605,197.89701229997445,198.76488799997605,197.89701229997445,198.76488799997605,197.89701229997445,198.76488799997605,198.74901550001232,199.24991419998696,198.74901550001232,199.24991419998696,198.74901550001232,199.24991419998696,198.74901550001232,199.24991419998696,198.74901550001232,199.24991419998696,198.74901550001232,199.24991419998696,198.74901550001232,199.24991419998696,198.74901550001232,199.24991419998696,197.89701229997445,None,199.24991419998696,None,0.8600000000000005,200.90151860000333,None,201.65272479999112,None,,,,,,,[[1.64]],3.070000000000002,0.6538461538461539,11012,002,2024_Jan_02_1445,MFTM_A_new1021,2021.2.3,60.00092400729555,
,,,,,,,,stim/Instruction_adaptive.png,conditions/adaptive.xlsx,test,0.6,0.6,0.6,-0.6,-0.6,right,R,,,,,0,1,1,1,0,26,26,72,,,,,,,,,,,,,,,,,,,,,,,,,,,,,,,,,,,,,,,,,,,,202.15334329998586,None,right,1,1.6257314000395127,202.6552661000169,203.94072179996874,202.6552661000169,203.438703599968,202.6552661000169,203.438703599968,202.6552661000169,203.438703599968,202.6552661000169,203.438703599968,202.6552661000169,203.438703599968,203.42187299998477,203.92360360000748,203.42187299998477,203.92360360000748,203.42187299998477,203.92360360000748,203.42187299998477,203.92360360000748,203.42187299998477,203.92360360000748,203.42187299998477,203.92360360000748,203.42187299998477,203.92360360000748,203.42187299998477,203.92360360000748,202.6552661000169,None,203.92360360000748,205.6424009000184,0.7800000000000005,205.65943230001722,None,206.4101437999634,None,,,,,,,[[1.72]],3.2000000000000024,0.6666666666666666,11012,002,2024_Jan_02_1445,MFTM_A_new1021,2021.2.3,60.00092400729555,
,,,,,,,,stim/Instruction_adaptive.png,conditions/adaptive.xlsx,test,-0.6,-0.6,-0.6,0.6,0.6,left,L,,,,,0,1,1,1,0,27,27,79,,,,,,,,,,,,,,,,,,,,,,,,,,,,,,,,,,,,,,,,,,,,206.91066559997853,None,left,1,1.276754999998957,207.41215499996906,208.64702470001066,207.41215499996906,208.14620169997215,207.41215499996906,208.14620169997215,207.41215499996906,208.14620169997215,207.41215499996906,208.14620169997215,207.41215499996906,208.14620169997215,208.1131888999953,208.61283180001192,208.1131888999953,208.61283180001192,208.1131888999953,208.61283180001192,208.1131888999953,208.61283180001192,208.1131888999953,208.61283180001192,208.1131888999953,208.61283180001192,208.1131888999953,208.61283180001192,208.1131888999953,208.61283180001192,207.41215499996906,None,208.61283180001192,210.39948829996865,0.7200000000000004,210.41557379998267,None,211.16737639997154,None,,,,,,,[[1.78]],3.3000000000000025,0.6785714285714286,11012,002,2024_Jan_02_1445,MFTM_A_new1021,2021.2.3,60.00092400729555,
,,,,,,,,stim/Instruction_adaptive.png,conditions/adaptive.xlsx,test,-0.6,-0.6,-0.6,0.6,0.6,left,L,,,,,0,1,1,1,0,28,28,53,,,,,,,,,,,,,,,,,,,,,,,,,,,,,,,,,,,,,,,,,,,,211.6676653000177,None,left,1,1.2163371000206098,212.16884279996157,213.35331939999014,212.16884279996157,212.85251870000502,212.16884279996157,212.85251870000502,212.16884279996157,212.85251870000502,212.16884279996157,212.85251870000502,212.16884279996157,212.85251870000502,212.82002189999912,213.319960599998,212.82002189999912,213.319960599998,212.82002189999912,213.319960599998,212.82002189999912,213.319960599998,212.82002189999912,213.319960599998,212.82002189999912,213.319960599998,212.82002189999912,213.319960599998,212.82002189999912,213.319960599998,212.16884279996157,None,213.319960599998,215.15599070000462,0.6700000000000004,215.17277060000924,None,215.92430269997567,None,,,,,,,[[1.83]],3.4000000000000026,0.6896551724137931,11012,002,2024_Jan_02_1445,MFTM_A_new1021,2021.2.3,60.00092400729555,
,,,,,,,,stim/Instruction_adaptive.png,conditions/adaptive.xlsx,test,-0.6,-0.6,-0.6,0.6,0.6,left,L,,,,,0,1,1,1,0,29,29,31,,,,,,,,,,,,,,,,,,,,,,,,,,,,,,,,,,,,,,,,,,,,216.42463089997182,None,left,1,1.252196300018113,216.92513609997695,218.06043099996168,216.92513609997695,217.55997399997432,216.92513609997695,217.55997399997432,216.92513609997695,217.55997399997432,216.92513609997695,217.55997399997432,216.92513609997695,217.55997399997432,217.5266729000141,218.02716070000315,217.5266729000141,218.02716070000315,217.5266729000141,218.02716070000315,217.5266729000141,218.02716070000315,217.5266729000141,218.02716070000315,217.5266729000141,218.02716070000315,217.5266729000141,218.02716070000315,217.5266729000141,218.02716070000315,216.92513609997695,None,218.02716070000315,219.91377459996147,0.6200000000000003,219.9303396999603,None,220.68092949996935,None,,,,,,,[[1.88]],3.4800000000000026,0.7,11012,002,2024_Jan_02_1445,MFTM_A_new1021,2021.2.3,60.00092400729555,
,,,,,,,,stim/Instruction_adaptive.png,conditions/adaptive.xlsx,test,-0.6,-0.6,-0.6,0.6,0.6,left,L,,,,,0,1,1,1,0,30,30,99,,,,,,,,,,,,,,,,,,,,,,,,,,,,,,,,,,,,,,,,,,,,221.1826723999693,None,left,1,1.742495299957227,221.6826964999782,222.78417629998876,221.6826964999782,222.28444929997204,221.6826964999782,222.28444929997204,221.6826964999782,222.28444929997204,221.6826964999782,222.28444929997204,221.6826964999782,222.28444929997204,222.24982259998797,222.75055100000463,222.24982259998797,222.75055100000463,222.24982259998797,222.75055100000463,222.24982259998797,222.75055100000463,222.24982259998797,222.75055100000463,222.24982259998797,222.75055100000463,222.24982259998797,222.75055100000463,222.24982259998797,222.75055100000463,221.6826964999782,None,222.75055100000463,224.65323569998145,0.5900000000000003,224.66991689999122,None,225.42111779999686,None,,,,,,,[1.89806452],3.5600000000000027,0.7096774193548387,11012,002,2024_Jan_02_1445,MFTM_A_new1021,2021.2.3,60.00092400729555,
,,,,,,,,stim/Instruction_adaptive.png,conditions/adaptive.xlsx,test,0.6,0.6,0.6,-0.6,-0.6,right,R,,,,,0,1,1,1,0,31,31,52,,,,,,,,,,,,,,,,,,,,,,,,,,,,,,,,,,,,,,,,,,,,225.92287090001628,None,right,1,1.114816699991934,226.42311849998077,227.49161759996787,226.42311849998077,226.99072369997157,226.42311849998077,226.99072369997157,226.42311849998077,226.99072369997157,226.42311849998077,226.99072369997157,226.42311849998077,226.99072369997157,226.97421539999777,227.47470089996932,226.97421539999777,227.47470089996932,226.97421539999777,227.47470089996932,226.97421539999777,227.47470089996932,226.97421539999777,227.47470089996932,226.97421539999777,227.47470089996932,226.97421539999777,227.47470089996932,226.97421539999777,227.47470089996932,226.42311849998077,None,227.47470089996932,229.37769069999922,0.5600000000000003,229.39447220001603,None,230.14552489999915,None,,,,,,,[1.899375],3.6300000000000026,0.71875,11012,002,2024_Jan_02_1445,MFTM_A_new1021,2021.2.3,60.00092400729555,
,,,,,,,,stim/Instruction_adaptive.png,conditions/adaptive.xlsx,test,0.6,0.6,0.6,-0.6,-0.6,right,R,,,,,0,1,1,1,0,32,32,18,,,,,,,,,,,,,,,,,,,,,,,,,,,,,,,,,,,,,,,,,,,,230.64563509996515,None,left,0,1.5828728000051342,231.1462320999708,232.18104230001336,231.1462320999708,231.6807187999948,231.1462320999708,231.6807187999948,231.1462320999708,231.6807187999948,231.1462320999708,231.6807187999948,231.1462320999708,231.6807187999948,231.66417880001245,232.1643511999864,231.66417880001245,232.1643511999864,231.66417880001245,232.1643511999864,231.66417880001245,232.1643511999864,231.66417880001245,232.1643511999864,231.66417880001245,232.1643511999864,231.66417880001245,232.1643511999864,231.66417880001245,232.1643511999864,231.1462320999708,None,232.1643511999864,234.06807280000066,0.5300000000000002,234.08374069997808,None,234.8357677999884,None,,,,,,,[1.90151515],3.4300000000000024,0.696969696969697,11012,002,2024_Jan_02_1445,MFTM_A_new1021,2021.2.3,60.00092400729555,
,,,,,,,,stim/Instruction_adaptive.png,conditions/adaptive.xlsx,test,0.6,0.6,0.6,-0.6,-0.6,right,R,,,,,0,1,1,1,0,33,33,32,,,,,,,,,,,,,,,,,,,,,,,,,,,,,,,,,,,,,,,,,,,,235.33629339997424,None,right,1,1.188324199989438,235.83699009998236,236.95585239998763,235.83699009998236,236.45420500001637,235.83699009998236,236.45420500001637,235.83699009998236,236.45420500001637,235.83699009998236,236.45420500001637,235.83699009998236,236.45420500001637,236.42154780001147,236.92228850000538,236.42154780001147,236.92228850000538,236.42154780001147,236.92228850000538,236.42154780001147,236.92228850000538,236.42154780001147,236.92228850000538,236.42154780001147,236.92228850000538,236.42154780001147,236.92228850000538,236.42154780001147,236.92228850000538,235.83699009998236,None,236.92228850000538,238.82463119999738,0.6100000000000003,238.8411238999688,None,239.59218229999533,None,,,,,,,[[1.89]],3.5000000000000027,0.7058823529411765,11012,002,2024_Jan_02_1445,MFTM_A_new1021,2021.2.3,60.00092400729555,
,,,,,,,,stim/Instruction_adaptive.png,conditions/adaptive.xlsx,test,-0.6,-0.6,-0.6,0.6,0.6,left,L,,,,,0,1,1,1,0,34,34,41,,,,,,,,,,,,,,,,,,,,,,,,,,,,,,,,,,,,,,,,,,,,240.09461739996914,None,right,0,1.214884000015445,240.59449300001143,241.67860089999158,240.59449300001143,241.1778379000025,240.59449300001143,241.1778379000025,240.59449300001143,241.1778379000025,240.59449300001143,241.1778379000025,240.59449300001143,241.1778379000025,241.16106469999067,241.66275469999528,241.16106469999067,241.66275469999528,241.16106469999067,241.66275469999528,241.16106469999067,241.66275469999528,241.16106469999067,241.66275469999528,241.16106469999067,241.66275469999528,241.16106469999067,241.66275469999528,241.16106469999067,241.66275469999528,240.59449300001143,None,241.66275469999528,243.56615389999934,0.5800000000000003,243.5813546999707,None,244.3327543999767,None,,,,,,,[1.90171429],3.3000000000000025,0.6857142857142857,11012,002,2024_Jan_02_1445,MFTM_A_new1021,2021.2.3,60.00092400729555,
,,,,,,,,stim/Instruction_adaptive.png,conditions/adaptive.xlsx,test,0.6,0.6,0.6,-0.6,-0.6,right,R,,,,,0,1,1,1,0,35,35,20,,,,,,,,,,,,,,,,,,,,,,,,,,,,,,,,,,,,,,,,,,,,244.83341540000401,None,right,1,1.914936100016348,245.3341184000019,246.5193231999874,245.3341184000019,246.00194909999846,245.3341184000019,246.00194909999846,245.3341184000019,246.00194909999846,245.3341184000019,246.00194909999846,245.3341184000019,246.00194909999846,245.986370300001,246.4856965999934,245.986370300001,246.4856965999934,245.986370300001,246.4856965999934,245.986370300001,246.4856965999934,245.986370300001,246.4856965999934,245.986370300001,246.4856965999934,245.986370300001,246.4856965999934,245.986370300001,246.4856965999934,245.3341184000019,None,246.4856965999934,248.32247409998672,0.6700000000000004,248.3384957999806,None,249.08974069997203,None,,,,,,,[[1.83]],3.3700000000000028,0.6944444444444444,11012,002,2024_Jan_02_1445,MFTM_A_new1021,2021.2.3,60.00092400729555,
,,,,,,,,stim/Instruction_adaptive.png,conditions/adaptive.xlsx,test,0.6,0.6,0.6,-0.6,-0.6,right,R,,,,,0,1,1,1,0,36,36,88,,,,,,,,,,,,,,,,,,,,,,,,,,,,,,,,,,,,,,,,,,,,249.5914783999906,None,right,1,1.2061035999795422,250.0911369000096,251.24284630001057,250.0911369000096,250.74191619997146,250.0911369000096,250.74191619997146,250.0911369000096,250.74191619997146,250.0911369000096,250.74191619997146,250.0911369000096,250.74191619997146,250.70934980001766,251.20962789998157,250.70934980001766,251.20962789998157,250.70934980001766,251.20962789998157,250.70934980001766,251.20962789998157,250.70934980001766,251.20962789998157,250.70934980001766,251.20962789998157,250.70934980001766,251.20962789998157,250.70934980001766,251.20962789998157,250.0911369000096,None,251.20962789998157,253.08056339999894,0.6400000000000003,253.09539839997888,None,253.84700429998338,None,,,,,,,[[1.86]],3.4400000000000026,0.7027027027027027,11012,002,2024_Jan_02_1445,MFTM_A_new1021,2021.2.3,60.00092400729555,
,,,,,,,,stim/Instruction_adaptive.png,conditions/adaptive.xlsx,test,-0.6,-0.6,-0.6,0.6,0.6,left,L,,,,,0,1,1,1,0,37,37,65,,,,,,,,,,,,,,,,,,,,,,,,,,,,,,,,,,,,,,,,,,,,254.34757099999115,None,right,0,1.392513400001917,254.8484644999844,255.96649489999982,254.8484644999844,255.46578879997833,254.8484644999844,255.46578879997833,254.8484644999844,255.46578879997833,254.8484644999844,255.46578879997833,254.8484644999844,255.46578879997833,255.44890600000508,255.95008430001326,255.44890600000508,255.95008430001326,255.44890600000508,255.95008430001326,255.44890600000508,255.95008430001326,255.44890600000508,255.95008430001326,255.44890600000508,255.95008430001326,255.44890600000508,255.95008430001326,255.44890600000508,255.95008430001326,254.8484644999844,None,255.93324899999425,257.8368064999813,0.6100000000000003,257.85260350001045,None,258.6036566999974,None,,,,,,,[[1.89]],3.2500000000000027,0.6842105263157895,11012,002,2024_Jan_02_1445,MFTM_A_new1021,2021.2.3,60.00092400729555,
,,,,,,,,stim/Instruction_adaptive.png,conditions/adaptive.xlsx,test,0.6,0.6,0.6,-0.6,-0.6,right,R,,,,,0,1,1,1,0,38,38,44,,,,,,,,,,,,,,,,,,,,,,,,,,,,,,,,,,,,,,,,,,,,259.10514130000956,None,right,1,1.1395812000264414,259.6055994000053,260.8069892000058,259.6055994000053,260.3064328999608,259.6055994000053,260.3064328999608,259.6055994000053,260.3064328999608,259.6055994000053,260.3064328999608,259.6055994000053,260.3064328999608,260.272758600011,260.77425259997835,260.272758600011,260.77425259997835,260.272758600011,260.77425259997835,260.272758600011,260.77425259997835,260.272758600011,260.77425259997835,260.272758600011,260.77425259997835,260.272758600011,260.77425259997835,260.272758600011,260.77425259997835,259.6055994000053,None,260.77425259997835,262.5935313999653,0.6900000000000004,262.6094844999607,None,263.36087029997725,None,,,,,,,[[1.81]],3.3200000000000025,0.6923076923076923,11012,002,2024_Jan_02_1445,MFTM_A_new1021,2021.2.3,60.00092400729555,
,,,,,,,,stim/Instruction_adaptive.png,conditions/adaptive.xlsx,test,-0.6,-0.6,-0.6,0.6,0.6,left,L,,,,,0,1,1,1,0,39,39,97,,,,,,,,,,,,,,,,,,,,,,,,,,,,,,,,,,,,,,,,,,,,263.8615412999643,None,right,0,1.3108456000336446,264.36227240000153,265.53079300001264,264.36227240000153,265.0304953000159,264.36227240000153,265.0304953000159,264.36227240000153,265.0304953000159,264.36227240000153,265.0304953000159,264.36227240000153,265.0304953000159,265.0144749999745,265.5139528000145,265.0144749999745,265.5139528000145,265.0144749999745,265.5139528000145,265.0144749999745,265.5139528000145,265.0144749999745,265.5139528000145,265.0144749999745,265.5139528000145,265.0144749999745,265.5139528000145,265.0144749999745,265.5139528000145,264.36227240000153,None,265.5139528000145,None,0.6600000000000004,267.3665041999775,None,268.11814279999817,None,,,,,,,[[1.84]],3.1200000000000023,0.675,11012,002,2024_Jan_02_1445,MFTM_A_new1021,2021.2.3,60.00092400729555,
,,,,,,,,stim/Instruction_adaptive.png,conditions/adaptive.xlsx,test,0.6,0.6,0.6,-0.6,-0.6,right,R,,,,,0,1,1,1,0,40,40,12,,,,,,,,,,,,,,,,,,,,,,,,,,,,,,,,,,,,,,,,,,,,268.6191935999668,None,right,1,1.26577840000391,269.11931179999374,270.38778379996074,269.11931179999374,269.88716749998275,269.11931179999374,269.88716749998275,269.11931179999374,269.88716749998275,269.11931179999374,269.88716749998275,269.11931179999374,269.88716749998275,269.8703747999971,270.371082299971,269.8703747999971,270.371082299971,269.8703747999971,270.371082299971,269.8703747999971,270.371082299971,269.8703747999971,270.371082299971,269.8703747999971,270.371082299971,269.8703747999971,270.371082299971,269.8703747999971,270.371082299971,269.11931179999374,None,270.3542168000131,272.1074032000033,0.7600000000000005,272.12559929996496,None,272.87465889996383,None,,,,,,,[[1.74]],3.190000000000002,0.6829268292682927,11012,002,2024_Jan_02_1445,MFTM_A_new1021,2021.2.3,60.00092400729555,
,,,,,,,,stim/Instruction_adaptive.png,conditions/adaptive.xlsx,test,0.6,0.6,0.6,-0.6,-0.6,right,R,,,,,0,1,1,1,0,41,41,68,,,,,,,,,,,,,,,,,,,,,,,,,,,,,,,,,,,,,,,,,,,,273.3761509999749,None,right,1,1.3567364000482485,273.87637079996057,275.09494829998584,273.87637079996057,274.61100819997955,273.87637079996057,274.61100819997955,273.87637079996057,274.61100819997955,273.87637079996057,274.61100819997955,273.87637079996057,274.61100819997955,274.5776684000157,275.07894869998563,274.5776684000157,275.07894869998563,274.5776684000157,275.07894869998563,274.5776684000157,275.07894869998563,274.5776684000157,275.07894869998563,274.5776684000157,275.07894869998563,274.5776684000157,275.07894869998563,274.5776684000157,275.07894869998563,273.87637079996057,None,275.07894869998563,276.86469580000266,0.7200000000000004,276.8807098999969,None,277.632733299979,None,,,,,,,[[1.78]],3.2600000000000025,0.6904761904761905,11012,002,2024_Jan_02_1445,MFTM_A_new1021,2021.2.3,60.00092400729555,
,,,,,,,,stim/Instruction_adaptive.png,conditions/adaptive.xlsx,test,0.6,0.6,0.6,-0.6,-0.6,right,R,,,,,0,1,1,1,0,42,42,54,,,,,,,,,,,,,,,,,,,,,,,,,,,,,,,,,,,,,,,,,,,,278.13334100000793,None,right,1,2.120611699996516,278.6334136999794,279.83501919999253,278.6334136999794,279.33517099998426,278.6334136999794,279.33517099998426,278.6334136999794,279.33517099998426,278.6334136999794,279.33517099998426,278.6334136999794,279.33517099998426,279.3018599000061,279.8020184999914,279.3018599000061,279.8020184999914,279.3018599000061,279.8020184999914,279.3018599000061,279.8020184999914,279.3018599000061,279.8020184999914,279.3018599000061,279.8020184999914,279.3018599000061,279.8020184999914,279.3018599000061,279.8020184999914,278.6334136999794,None,279.8020184999914,281.62200639996445,0.6900000000000004,281.6379241999821,None,282.3888723999844,None,,,,,,,[[1.81]],3.3200000000000025,0.6976744186046512,11012,002,2024_Jan_02_1445,MFTM_A_new1021,2021.2.3,60.00092400729555,
,,,,,,,,stim/Instruction_adaptive.png,conditions/adaptive.xlsx,test,-0.6,-0.6,-0.6,0.6,0.6,left,L,,,,,0,1,1,1,0,43,43,63,,,,,,,,,,,,,,,,,,,,,,,,,,,,,,,,,,,,,,,,,,,,282.88962079997873,None,right,0,1.370412899996154,283.39056249998976,284.558905199985,283.39056249998976,284.059001000016,283.39056249998976,284.059001000016,283.39056249998976,284.059001000016,283.39056249998976,284.059001000016,283.39056249998976,284.059001000016,284.0247837000061,284.5259786999668,284.0247837000061,284.5259786999668,284.0247837000061,284.5259786999668,284.0247837000061,284.5259786999668,284.0247837000061,284.5259786999668,284.0247837000061,284.5259786999668,284.0247837000061,284.5259786999668,284.0247837000061,284.5259786999668,283.39056249998976,None,284.5259786999668,286.379280299996,0.6600000000000004,286.39566229999764,None,287.146500199975,None,,,,,,,[[1.84]],3.1400000000000023,0.6818181818181818,11012,002,2024_Jan_02_1445,MFTM_A_new1021,2021.2.3,60.00092400729555,
,,,,,,,,stim/Instruction_adaptive.png,conditions/adaptive.xlsx,test,-0.6,-0.6,-0.6,0.6,0.6,left,L,,,,,0,1,1,1,0,44,44,71,,,,,,,,,,,,,,,,,,,,,,,,,,,,,,,,,,,,,,,,,,,,287.647681500006,None,right,0,1.1729907999979332,288.1479658000171,289.4003786999965,288.1479658000171,288.8987386999652,288.1479658000171,288.8987386999652,288.1479658000171,288.8987386999652,288.1479658000171,288.8987386999652,288.1479658000171,288.8987386999652,288.88193739997223,289.38390389998676,288.88193739997223,289.38390389998676,288.88193739997223,289.38390389998676,288.88193739997223,289.38390389998676,288.88193739997223,289.38390389998676,288.88193739997223,289.38390389998676,288.88193739997223,289.38390389998676,288.88193739997223,289.38390389998676,288.1479658000171,None,289.38390389998676,291.13567390001845,0.7500000000000004,291.15261059999466,None,291.90303909999784,None,,,,,,,[[1.75]],2.950000000000002,0.6666666666666666,11012,002,2024_Jan_02_1445,MFTM_A_new1021,2021.2.3,60.00092400729555,
,,,,,,,,stim/Instruction_adaptive.png,conditions/adaptive.xlsx,test,0.6,0.6,0.6,-0.6,-0.6,right,R,,,,,0,1,1,1,0,45,45,24,,,,,,,,,,,,,,,,,,,,,,,,,,,,,,,,,,,,,,,,,,,,292.40457879996393,None,right,1,1.217110399971716,292.9045549000148,294.25660019996576,292.9045549000148,293.755825500004,292.9045549000148,293.755825500004,292.9045549000148,293.755825500004,292.9045549000148,293.755825500004,292.9045549000148,293.755825500004,293.7389628000092,294.2405992000131,293.7389628000092,294.2405992000131,293.7389628000092,294.2405992000131,293.7389628000092,294.2405992000131,293.7389628000092,294.2405992000131,293.7389628000092,294.2405992000131,293.7389628000092,294.2405992000131,293.7389628000092,294.2405992000131,292.9045549000148,None,294.2405992000131,295.8924650999834,0.8500000000000005,295.909049400012,None,296.6612807000056,None,,,,,,,[[1.65]],3.0200000000000022,0.6739130434782609,11012,002,2024_Jan_02_1445,MFTM_A_new1021,2021.2.3,60.00092400729555,
,,,,,,,,stim/Instruction_adaptive.png,conditions/adaptive.xlsx,test,0.6,0.6,0.6,-0.6,-0.6,right,R,,,,,0,1,1,1,0,46,46,40,,,,,,,,,,,,,,,,,,,,,,,,,,,,,,,,,,,,,,,,,,,,297.1610823000083,None,right,1,1.1328789999824949,297.6613378999755,298.9802899999777,297.6613378999755,298.4802165000001,297.6613378999755,298.4802165000001,297.6613378999755,298.4802165000001,297.6613378999755,298.4802165000001,297.6613378999755,298.4802165000001,298.44677029998275,298.9474498999771,298.44677029998275,298.9474498999771,298.44677029998275,298.9474498999771,298.44677029998275,298.9474498999771,298.44677029998275,298.9474498999771,298.44677029998275,298.9474498999771,298.44677029998275,298.9474498999771,298.44677029998275,298.9474498999771,297.6613378999755,None,298.9474498999771,300.65006730001187,0.8100000000000005,300.6659943999839,None,301.41793779999716,None,,,,,,,[[1.69]],3.0800000000000023,0.6808510638297872,11012,002,2024_Jan_02_1445,MFTM_A_new1021,2021.2.3,60.00092400729555,
,,,,,,,,stim/Instruction_adaptive.png,conditions/adaptive.xlsx,test,-0.6,-0.6,-0.6,0.6,0.6,left,L,,,,,0,1,1,1,0,47,47,57,,,,,,,,,,,,,,,,,,,,,,,,,,,,,,,,,,,,,,,,,,,,301.9184965000022,None,right,0,1.382819299993571,302.41861409996636,303.7050423999899,302.41861409996636,303.20304749999195,302.41861409996636,303.20304749999195,302.41861409996636,303.20304749999195,302.41861409996636,303.20304749999195,302.41861409996636,303.20304749999195,303.18630739999935,303.68781939998735,303.18630739999935,303.68781939998735,303.18630739999935,303.68781939998735,303.18630739999935,303.68781939998735,303.18630739999935,303.68781939998735,303.18630739999935,303.68781939998735,303.18630739999935,303.68781939998735,303.18630739999935,303.68781939998735,302.41861409996636,None,303.68781939998735,None,0.7800000000000005,305.4230627999641,None,306.1741892999853,None,,,,,,,[[1.72]],2.900000000000002,0.6666666666666666,11012,002,2024_Jan_02_1445,MFTM_A_new1021,2021.2.3,60.00092400729555,
,,,,,,,,stim/Instruction_adaptive.png,conditions/adaptive.xlsx,test,0.6,0.6,0.6,-0.6,-0.6,right,R,,,,,0,1,1,1,0,48,48,30,,,,,,,,,,,,,,,,,,,,,,,,,,,,,,,,,,,,,,,,,,,,306.67587189999176,None,right,1,1.8971491999691352,307.1758927999763,308.56163229997037,307.1758927999763,308.06104529998265,307.1758927999763,308.06104529998265,307.1758927999763,308.06104529998265,307.1758927999763,308.06104529998265,307.1758927999763,308.06104529998265,308.04379679996055,308.5449498000089,308.04379679996055,308.5449498000089,308.04379679996055,308.5449498000089,308.04379679996055,308.5449498000089,308.04379679996055,308.5449498000089,308.04379679996055,308.5449498000089,308.04379679996055,308.5449498000089,308.04379679996055,308.5449498000089,307.1758927999763,None,308.5449498000089,310.16335779998917,0.8800000000000006,310.180031099997,None,310.9319994999678,None,,,,,,,[[1.62]],2.9700000000000024,0.673469387755102,11012,002,2024_Jan_02_1445,MFTM_A_new1021,2021.2.3,60.00092400729555,
,,,,,,,,stim/Instruction_adaptive.png,conditions/adaptive.xlsx,test,0.6,0.6,0.6,-0.6,-0.6,right,R,,,,,0,1,1,1,0,49,49,96,,,,,,,,,,,,,,,,,,,,,,,,,,,,,,,,,,,,,,,,,,,,311.43250439997064,None,right,1,1.5239293999620713,311.9334242999903,313.2849203000078,311.9334242999903,312.78424929996254,311.9334242999903,312.78424929996254,311.9334242999903,312.78424929996254,311.9334242999903,312.78424929996254,311.9334242999903,312.78424929996254,312.75051370001165,313.25088140001753,312.75051370001165,313.25088140001753,312.75051370001165,313.25088140001753,312.75051370001165,313.25088140001753,312.75051370001165,313.25088140001753,312.75051370001165,313.25088140001753,312.75051370001165,313.25088140001753,312.75051370001165,313.25088140001753,311.9334242999903,None,313.25088140001753,314.92180760001065,0.8400000000000005,314.93715079996036,None,315.6884107000078,None,,,,,,,[[1.66]],3.030000000000002,0.68,11012,002,2024_Jan_02_1445,MFTM_A_new1021,2021.2.3,60.00092400729555,
,,,,,,,,stim/Instruction_adaptive.png,conditions/adaptive.xlsx,test,-0.6,-0.6,-0.6,0.6,0.6,left,L,,,,,0,1,1,1,0,50,50,95,,,,,,,,,,,,,,,,,,,,,,,,,,,,,,,,,,,,,,,,,,,,316.19035619997885,None,left,1,1.4943567999871448,316.6907356000156,318.0084290999803,316.6907356000156,317.5075117999804,316.6907356000156,317.5075117999804,316.6907356000156,317.5075117999804,316.6907356000156,317.5075117999804,316.6907356000156,317.5075117999804,317.49123449996114,317.9916285999934,317.49123449996114,317.9916285999934,317.49123449996114,317.9916285999934,317.49123449996114,317.9916285999934,317.49123449996114,317.9916285999934,317.49123449996114,317.9916285999934,317.49123449996114,317.9916285999934,317.49123449996114,317.9916285999934,316.6907356000156,None,317.974817099981,319.67897969996557,0.8100000000000005,319.6941548999748,None,320.4460786000127,None,,,,,,,[[1.69]],3.0800000000000023,0.6862745098039216,11012,002,2024_Jan_02_1445,MFTM_A_new1021,2021.2.3,60.00092400729555,
,,,,,,,,stim/Instruction_adaptive.png,conditions/adaptive.xlsx,test,0.6,0.6,0.6,-0.6,-0.6,right,R,,,,,0,1,1,1,0,51,51,10,,,,,,,,,,,,,,,,,,,,,,,,,,,,,,,,,,,,,,,,,,,,320.94628209999064,None,right,1,1.0353344000177458,321.44693659996847,322.73262789996807,321.44693659996847,322.2313719000085,321.44693659996847,322.2313719000085,321.44693659996847,322.2313719000085,321.44693659996847,322.2313719000085,321.44693659996847,322.2313719000085,322.21540819999063,322.7160426999908,322.21540819999063,322.7160426999908,322.21540819999063,322.7160426999908,322.21540819999063,322.7160426999908,322.21540819999063,322.7160426999908,322.21540819999063,322.7160426999908,322.21540819999063,322.7160426999908,322.21540819999063,322.7160426999908,321.44693659996847,None,322.7160426999908,324.4355375000159,0.7800000000000005,324.4512009000173,None,325.20248009997886,None,,,,,,,[[1.72]],3.1400000000000023,0.6923076923076923,11012,002,2024_Jan_02_1445,MFTM_A_new1021,2021.2.3,60.00092400729555,
,,,,,,,,stim/Instruction_adaptive.png,conditions/adaptive.xlsx,test,0.6,0.6,0.6,-0.6,-0.6,right,R,,,,,0,1,1,1,0,52,52,8,,,,,,,,,,,,,,,,,,,,,,,,,,,,,,,,,,,,,,,,,,,,325.70300069998484,None,right,1,1.7896116999909282,326.2039361000061,327.45604379998986,326.2039361000061,326.95588989998214,326.2039361000061,326.95588989998214,326.2039361000061,326.95588989998214,326.2039361000061,326.95588989998214,326.2039361000061,326.95588989998214,326.9383877000073,327.43909389997134,326.9383877000073,327.43909389997134,326.9383877000073,327.43909389997134,326.9383877000073,327.43909389997134,326.9383877000073,327.43909389997134,326.9383877000073,327.43909389997134,326.9383877000073,327.43909389997134,326.9383877000073,327.43909389997134,326.2039361000061,None,327.43909389997134,329.1923183000181,0.7500000000000004,329.20884300000034,None,329.9594908999861,None,,,,,,,[[1.75]],3.190000000000002,0.6981132075471698,11012,002,2024_Jan_02_1445,MFTM_A_new1021,2021.2.3,60.00092400729555,
,,,,,,,,stim/Instruction_adaptive.png,conditions/adaptive.xlsx,test,-0.6,-0.6,-0.6,0.6,0.6,left,L,,,,,0,1,1,1,0,53,53,25,,,,,,,,,,,,,,,,,,,,,,,,,,,,,,,,,,,,,,,,,,,,330.46088789997157,None,right,0,1.4560777000151575,330.96106130001135,332.19607800000813,330.96106130001135,331.69585799996275,330.96106130001135,331.69585799996275,330.96106130001135,331.69585799996275,330.96106130001135,331.69585799996275,330.96106130001135,331.69585799996275,331.6620369000011,332.163118699973,331.6620369000011,332.163118699973,331.6620369000011,332.163118699973,331.6620369000011,332.163118699973,331.6620369000011,332.163118699973,331.6620369000011,332.163118699973,331.6620369000011,332.163118699973,331.6620369000011,332.163118699973,330.96106130001135,None,332.163118699973,333.94995829998516,0.7200000000000004,333.96506969997426,None,334.71646189998137,None,,,,,,,[[1.78]],3.0400000000000023,0.6851851851851852,11012,002,2024_Jan_02_1445,MFTM_A_new1021,2021.2.3,60.00092400729555,
,,,,,,,,stim/Instruction_adaptive.png,conditions/adaptive.xlsx,test,0.6,0.6,0.6,-0.6,-0.6,right,R,,,,,0,1,1,1,0,54,54,78,,,,,,,,,,,,,,,,,,,,,,,,,,,,,,,,,,,,,,,,,,,,335.2171604000032,None,right,1,1.5711279000388458,335.7180671999813,337.0205699999933,335.7180671999813,336.51929540000856,335.7180671999813,336.51929540000856,335.7180671999813,336.51929540000856,335.7180671999813,336.51929540000856,335.7180671999813,336.51929540000856,336.503078299982,337.00351159996353,336.503078299982,337.00351159996353,336.503078299982,337.00351159996353,336.503078299982,337.00351159996353,336.503078299982,337.00351159996353,336.503078299982,337.00351159996353,336.503078299982,337.00351159996353,336.503078299982,337.00351159996353,335.7180671999813,None,337.00351159996353,338.7066374999704,0.8000000000000005,338.72339529998135,None,339.4747474999749,None,,,,,,,[[1.7]],3.0900000000000025,0.6909090909090909,11012,002,2024_Jan_02_1445,MFTM_A_new1021,2021.2.3,60.00092400729555,
,,,,,,,,stim/Instruction_adaptive.png,conditions/adaptive.xlsx,test,0.6,0.6,0.6,-0.6,-0.6,right,R,,,,,0,1,1,1,0,55,55,58,,,,,,,,,,,,,,,,,,,,,,,,,,,,,,,,,,,,,,,,,,,,339.9747379000182,None,right,1,1.6703997000004165,340.47537020000163,341.7610546000069,340.47537020000163,341.25958519999404,340.47537020000163,341.25958519999404,340.47537020000163,341.25958519999404,340.47537020000163,341.25958519999404,340.47537020000163,341.25958519999404,341.22631920001004,341.72685939999064,341.22631920001004,341.72685939999064,341.22631920001004,341.72685939999064,341.22631920001004,341.72685939999064,341.22631920001004,341.72685939999064,341.22631920001004,341.72685939999064,341.22631920001004,341.72685939999064,341.22631920001004,341.72685939999064,340.47537020000163,None,341.72685939999064,343.46271839999827,0.7700000000000005,343.4796099999803,None,344.23040810000384,None,,,,,,,[[1.73]],3.1400000000000023,0.6964285714285714,11012,002,2024_Jan_02_1445,MFTM_A_new1021,2021.2.3,60.00092400729555,
,,,,,,,,stim/Instruction_adaptive.png,conditions/adaptive.xlsx,test,-0.6,-0.6,-0.6,0.6,0.6,left,L,,,,,0,1,1,1,0,56,56,23,,,,,,,,,,,,,,,,,,,,,,,,,,,,,,,,,,,,,,,,,,,,344.7316585999797,None,right,0,1.697610999981407,345.23214539996115,346.4839963999693,345.23214539996115,345.98341009998694,345.23214539996115,345.98341009998694,345.23214539996115,345.98341009998694,345.23214539996115,345.98341009998694,345.23214539996115,345.98341009998694,345.9668246000074,346.4673511000001,345.9668246000074,346.4673511000001,345.9668246000074,346.4673511000001,345.9668246000074,346.4673511000001,345.9668246000074,346.4673511000001,345.9668246000074,346.4673511000001,345.9668246000074,346.4673511000001,345.9668246000074,346.4673511000001,345.23214539996115,None,346.4673511000001,348.21995289996266,0.7500000000000004,348.23718569998164,None,348.9885319999885,None,,,,,,,[[1.75]],3.000000000000002,0.6842105263157895,11012,002,2024_Jan_02_1445,MFTM_A_new1021,2021.2.3,60.00092400729555,
,,,,,,,,stim/Instruction_adaptive.png,conditions/adaptive.xlsx,test,-0.6,-0.6,-0.6,0.6,0.6,left,L,,,,,0,1,1,1,0,57,57,73,,,,,,,,,,,,,,,,,,,,,,,,,,,,,,,,,,,,,,,,,,,,349.4884685999714,None,right,0,2.268365999974776,349.9892009999603,351.32508480001707,349.9892009999603,350.8238542000181,349.9892009999603,350.8238542000181,349.9892009999603,350.8238542000181,349.9892009999603,350.8238542000181,349.9892009999603,350.8238542000181,350.7909650999936,351.2909967000014,350.7909650999936,351.2909967000014,350.7909650999936,351.2909967000014,350.7909650999936,351.2909967000014,350.7909650999936,351.2909967000014,350.7909650999936,351.2909967000014,350.7909650999936,351.2909967000014,350.7909650999936,351.2909967000014,349.9892009999603,None,351.2909967000014,352.97766510001384,0.8200000000000005,352.99346570001217,None,353.74538549996214,None,,,,,,,[[1.68]],2.8500000000000023,0.6724137931034483,11012,002,2024_Jan_02_1445,MFTM_A_new1021,2021.2.3,60.00092400729555,
,,,,,,,,stim/Instruction_adaptive.png,conditions/adaptive.xlsx,test,0.6,0.6,0.6,-0.6,-0.6,right,R,,,,,0,1,1,1,0,58,58,82,,,,,,,,,,,,,,,,,,,,,,,,,,,,,,,,,,,,,,,,,,,,354.24621339997975,None,left,0,1.3585105999954976,354.74662300001364,356.16477570001734,354.74662300001364,355.66429599997355,354.74662300001364,355.66429599997355,354.74662300001364,355.66429599997355,354.74662300001364,355.66429599997355,354.74662300001364,355.66429599997355,355.6309687999892,356.1313108999748,355.6309687999892,356.1313108999748,355.6309687999892,356.1313108999748,355.6309687999892,356.1313108999748,355.6309687999892,356.1313108999748,355.6309687999892,356.1313108999748,355.6309687999892,356.1313108999748,355.6309687999892,356.1313108999748,354.74662300001364,None,356.1313108999748,357.7341228000005,0.9100000000000006,357.7506619999767,None,358.50259950000327,None,,,,,,,[[1.59]],2.690000000000002,0.6610169491525424,11012,002,2024_Jan_02_1445,MFTM_A_new1021,2021.2.3,60.00092400729555,
,,,,,,,,stim/Instruction_adaptive.png,conditions/adaptive.xlsx,test,-0.6,-0.6,-0.6,0.6,0.6,left,L,,,,,0,1,1,1,0,59,59,43,,,,,,,,,,,,,,,,,,,,,,,,,,,,,,,,,,,,,,,,,,,,359.0035079999943,None,left,1,2.2972686999710277,359.5037569999695,361.0229305999819,359.5037569999695,360.53893330000574,359.5037569999695,360.53893330000574,359.5037569999695,360.53893330000574,359.5037569999695,360.53893330000574,359.5037569999695,360.53893330000574,360.50536090001697,361.0062218999956,360.50536090001697,361.0062218999956,360.50536090001697,361.0062218999956,360.50536090001697,361.0062218999956,360.50536090001697,361.0062218999956,360.50536090001697,361.0062218999956,360.50536090001697,361.0062218999956,360.50536090001697,361.0062218999956,359.5037569999695,None,361.0062218999956,362.49179459997686,1.0200000000000007,362.50768739997875,None,363.25937639997574,None,,,,,,,[[1.48]],2.7500000000000018,0.6666666666666666,11012,002,2024_Jan_02_1445,MFTM_A_new1021,2021.2.3,60.00092400729555,
,,,,,,,,stim/Instruction_adaptive.png,conditions/adaptive.xlsx,test,0.6,0.6,0.6,-0.6,-0.6,right,R,,,,,0,1,1,1,0,60,60,98,,,,,,,,,,,,,,,,,,,,,,,,,,,,,,,,,,,,,,,,,,,,363.75978339998983,None,right,1,1.4689365000231192,364.2603026999859,365.74581519997446,364.2603026999859,365.2450407000142,364.2603026999859,365.2450407000142,364.2603026999859,365.2450407000142,364.2603026999859,365.2450407000142,364.2603026999859,365.2450407000142,365.22888830001466,365.7293932000175,365.22888830001466,365.7293932000175,365.22888830001466,365.7293932000175,365.22888830001466,365.7293932000175,365.22888830001466,365.7293932000175,365.22888830001466,365.7293932000175,365.22888830001466,365.7293932000175,365.22888830001466,365.7293932000175,364.2603026999859,None,365.7293932000175,None,0.9800000000000006,367.2647549000103,None,368.0167797000031,None,,,,,,,[[1.52]],2.800000000000002,0.6721311475409836,11012,002,2024_Jan_02_1445,MFTM_A_new1021,2021.2.3,60.00092400729555,
,,,,,,,,stim/Instruction_adaptive.png,conditions/adaptive.xlsx,test,-0.6,-0.6,-0.6,0.6,0.6,left,L,,,,,0,1,1,1,0,61,61,27,,,,,,,,,,,,,,,,,,,,,,,,,,,,,,,,,,,,,,,,,,,,368.5172733999789,None,left,1,2.120140100014396,369.0174189999816,370.471734199964,369.0174189999816,369.96933870000066,369.0174189999816,369.96933870000066,369.0174189999816,369.96933870000066,369.0174189999816,369.96933870000066,369.0174189999816,369.96933870000066,369.93525509996107,370.436979399994,369.93525509996107,370.436979399994,369.93525509996107,370.436979399994,369.93525509996107,370.436979399994,369.93525509996107,370.436979399994,369.93525509996107,370.436979399994,369.93525509996107,370.436979399994,369.93525509996107,370.436979399994,369.0174189999816,None,370.436979399994,372.0058271000162,0.9400000000000006,372.021844199975,None,372.7738403999829,None,,,,,,,[[1.56]],2.8500000000000023,0.6774193548387096,11012,002,2024_Jan_02_1445,MFTM_A_new1021,2021.2.3,60.00092400729555,
,,,,,,,,stim/Instruction_adaptive.png,conditions/adaptive.xlsx,test,0.6,0.6,0.6,-0.6,-0.6,right,R,,,,,0,1,1,1,0,62,62,60,,,,,,,,,,,,,,,,,,,,,,,,,,,,,,,,,,,,,,,,,,,,373.2750498999958,None,right,1,1.4256505999946967,373.77537940000184,375.1931006999803,373.77537940000184,374.69323069998063,373.77537940000184,374.69323069998063,373.77537940000184,374.69323069998063,373.77537940000184,374.69323069998063,373.77537940000184,374.69323069998063,374.67575759999454,375.176561500004,374.67575759999454,375.176561500004,374.67575759999454,375.176561500004,374.67575759999454,375.176561500004,374.67575759999454,375.176561500004,374.67575759999454,375.176561500004,374.67575759999454,375.176561500004,374.67575759999454,375.176561500004,373.77537940000184,None,375.15983119996963,376.76245569996536,0.9100000000000006,376.7788561999914,None,377.53100720001385,None,,,,,,,[[1.59]],2.900000000000002,0.6825396825396826,11012,002,2024_Jan_02_1445,MFTM_A_new1021,2021.2.3,60.00092400729555,
,,,,,,,,stim/Instruction_adaptive.png,conditions/adaptive.xlsx,test,0.6,0.6,0.6,-0.6,-0.6,right,R,,,,,0,1,1,1,0,63,63,86,,,,,,,,,,,,,,,,,,,,,,,,,,,,,,,,,,,,,,,,,,,,378.0312818000093,None,right,1,1.1739156999974512,378.53144619998056,379.9170735999942,378.53144619998056,379.4167201999808,378.53144619998056,379.4167201999808,378.53144619998056,379.4167201999808,378.53144619998056,379.4167201999808,378.53144619998056,379.4167201999808,379.3994992999942,379.900588999968,379.3994992999942,379.900588999968,379.3994992999942,379.900588999968,379.3994992999942,379.900588999968,379.3994992999942,379.900588999968,379.3994992999942,379.900588999968,379.3994992999942,379.900588999968,379.3994992999942,379.900588999968,378.53144619998056,None,379.900588999968,None,0.8800000000000006,381.5361108999932,None,382.2869478999637,None,,,,,,,[[1.62]],2.950000000000002,0.6875,11012,002,2024_Jan_02_1445,MFTM_A_new1021,2021.2.3,60.00092400729555,
,,,,,,,,stim/Instruction_adaptive.png,conditions/adaptive.xlsx,test,0.6,0.6,0.6,-0.6,-0.6,right,R,,,,,0,1,1,1,0,64,64,94,,,,,,,,,,,,,,,,,,,,,,,,,,,,,,,,,,,,,,,,,,,,382.78836720000254,None,right,1,1.2571306999889202,383.28823110001395,384.6409921000013,383.28823110001395,384.14048409997486,383.28823110001395,384.14048409997486,383.28823110001395,384.14048409997486,383.28823110001395,384.14048409997486,383.28823110001395,384.14048409997486,384.12341669999296,384.62373809999553,384.12341669999296,384.62373809999553,384.12341669999296,384.62373809999553,384.12341669999296,384.62373809999553,384.12341669999296,384.62373809999553,384.12341669999296,384.62373809999553,384.12341669999296,384.62373809999553,384.12341669999296,384.62373809999553,383.28823110001395,None,384.62373809999553,386.2769361999817,0.8500000000000005,386.29284680000274,None,387.0442600999959,None,,,,,,,[[1.65]],2.990000000000002,0.6923076923076923,11012,002,2024_Jan_02_1445,MFTM_A_new1021,2021.2.3,60.00092400729555,
,,,,,,,,stim/Instruction_adaptive.png,conditions/adaptive.xlsx,test,0.6,0.6,0.6,-0.6,-0.6,right,R,,,,,0,1,1,1,0,65,65,46,,,,,,,,,,,,,,,,,,,,,,,,,,,,,,,,,,,,,,,,,,,,387.54490979999537,None,right,1,1.5398580999462865,388.0453151999973,389.38241550000384,388.0453151999973,388.8800952999736,388.0453151999973,388.8800952999736,388.0453151999973,388.8800952999736,388.0453151999973,388.8800952999736,388.0453151999973,388.8800952999736,388.8635442999657,389.3650231999927,388.8635442999657,389.3650231999927,388.8635442999657,389.3650231999927,388.8635442999657,389.3650231999927,388.8635442999657,389.3650231999927,388.8635442999657,389.3650231999927,388.8635442999657,389.3650231999927,388.8635442999657,389.3650231999927,388.0453151999973,None,389.3650231999927,None,0.8300000000000005,391.0499808000168,None,391.8016404999653,None,,,,,,,[[1.67]],3.030000000000002,0.696969696969697,11012,002,2024_Jan_02_1445,MFTM_A_new1021,2021.2.3,60.00092400729555,
,,,,,,,,stim/Instruction_adaptive.png,conditions/adaptive.xlsx,test,0.6,0.6,0.6,-0.6,-0.6,right,R,,,,,0,1,1,1,0,66,66,14,,,,,,,,,,,,,,,,,,,,,,,,,,,,,,,,,,,,,,,,,,,,392.3021580000059,None,right,1,1.238711100013461,392.8025516999769,394.1211728999624,392.8025516999769,393.62038470001426,392.8025516999769,393.62038470001426,392.8025516999769,393.62038470001426,392.8025516999769,393.62038470001426,392.8025516999769,393.62038470001426,393.60436930001015,394.10427640000125,393.60436930001015,394.10427640000125,393.60436930001015,394.10427640000125,393.60436930001015,394.10427640000125,393.60436930001015,394.10427640000125,393.60436930001015,394.10427640000125,393.60436930001015,394.10427640000125,393.60436930001015,394.10427640000125,392.8025516999769,None,394.10427640000125,None,0.8100000000000005,395.8075592999812,None,396.5581245999783,None,,,,,,,[[1.69]],3.070000000000002,0.7014925373134329,11012,002,2024_Jan_02_1445,MFTM_A_new1021,2021.2.3,60.00092400729555,
,,,,,,,,stim/Instruction_adaptive.png,conditions/adaptive.xlsx,test,0.6,0.6,0.6,-0.6,-0.6,right,R,,,,,0,1,1,1,0,67,67,62,,,,,,,,,,,,,,,,,,,,,,,,,,,,,,,,,,,,,,,,,,,,397.06019009999,None,right,1,2.1289214999997057,397.56028049997985,398.8454944000114,397.56028049997985,398.34387509996304,397.56028049997985,398.34387509996304,397.56028049997985,398.34387509996304,397.56028049997985,398.34387509996304,397.56028049997985,398.34387509996304,398.32712819997687,398.8281888999627,398.32712819997687,398.8281888999627,398.32712819997687,398.8281888999627,398.32712819997687,398.8281888999627,398.32712819997687,398.8281888999627,398.32712819997687,398.8281888999627,398.32712819997687,398.8281888999627,398.32712819997687,398.8281888999627,397.56028049997985,None,398.8281888999627,400.54743809998035,0.7800000000000005,400.5639235000126,None,401.31702839996433,None,,,,,,,[[1.72]],3.110000000000002,0.7058823529411765,11012,002,2024_Jan_02_1445,MFTM_A_new1021,2021.2.3,60.00092400729555,
,,,,,,,,stim/Instruction_adaptive.png,conditions/adaptive.xlsx,test,0.6,0.6,0.6,-0.6,-0.6,right,R,,,,,0,1,1,1,0,68,68,56,,,,,,,,,,,,,,,,,,,,,,,,,,,,,,,,,,,,,,,,,,,,401.81670799996937,None,right,1,1.5885542000178248,402.316719800001,403.58520849997876,402.316719800001,403.0841675999691,402.316719800001,403.0841675999691,402.316719800001,403.0841675999691,402.316719800001,403.0841675999691,402.316719800001,403.0841675999691,403.051083999977,403.55177309998544,403.051083999977,403.55177309998544,403.051083999977,403.55177309998544,403.051083999977,403.55177309998544,403.051083999977,403.55177309998544,403.051083999977,403.55177309998544,403.051083999977,403.55177309998544,403.051083999977,403.55177309998544,402.316719800001,None,403.55177309998544,405.30516699998407,0.7600000000000005,405.3211827999912,None,406.0732306999853,None,,,,,,,[[1.74]],3.1400000000000023,0.7101449275362319,11012,002,2024_Jan_02_1445,MFTM_A_new1021,2021.2.3,60.00092400729555,
,,,,,,,,stim/Instruction_adaptive.png,conditions/adaptive.xlsx,test,-0.6,-0.6,-0.6,0.6,0.6,left,L,,,,,0,1,1,1,0,69,69,11,,,,,,,,,,,,,,,,,,,,,,,,,,,,,,,,,,,,,,,,,,,,406.57424889999675,None,right,0,1.4394189000013284,407.0738234000164,408.3256584999617,407.0738234000164,407.82480589998886,407.0738234000164,407.82480589998886,407.0738234000164,407.82480589998886,407.0738234000164,407.82480589998886,407.0738234000164,407.82480589998886,407.8084666999639,408.3088814999792,407.8084666999639,408.3088814999792,407.8084666999639,408.3088814999792,407.8084666999639,408.3088814999792,407.8084666999639,408.3088814999792,407.8084666999639,408.3088814999792,407.8084666999639,408.3088814999792,407.8084666999639,408.3088814999792,407.0738234000164,None,408.3088814999792,410.0621194000123,0.7500000000000004,410.0776548999711,None,410.82923089998076,None,,,,,,,[[1.75]],3.0400000000000023,0.7,11012,002,2024_Jan_02_1445,MFTM_A_new1021,2021.2.3,60.00092400729555,
,,,,,,,,stim/Instruction_adaptive.png,conditions/adaptive.xlsx,test,-0.6,-0.6,-0.6,0.6,0.6,left,L,,,,,0,1,1,1,0,70,70,85,,,,,,,,,,,,,,,,,,,,,,,,,,,,,,,,,,,,,,,,,,,,411.330091300013,None,right,0,1.9380192999960855,411.83118819998344,413.1328898000065,411.83118819998344,412.63296139996964,411.83118819998344,412.63296139996964,411.83118819998344,412.63296139996964,411.83118819998344,412.63296139996964,411.83118819998344,412.63296139996964,412.61545260000275,413.1159998999792,412.61545260000275,413.1159998999792,412.61545260000275,413.1159998999792,412.61545260000275,413.1159998999792,412.61545260000275,413.1159998999792,412.61545260000275,413.1159998999792,412.61545260000275,413.1159998999792,412.61545260000275,413.1159998999792,411.83118819998344,None,413.1159998999792,414.81859729997814,0.8000000000000005,414.83522169996286,None,415.58615129999816,None,,,,,,,[[1.7]],2.9300000000000024,0.6901408450704225,11012,002,2024_Jan_02_1445,MFTM_A_new1021,2021.2.3,60.00092400729555,
,,,,,,,,stim/Instruction_adaptive.png,conditions/adaptive.xlsx,test,0.6,0.6,0.6,-0.6,-0.6,right,R,,,,,0,1,1,1,0,71,71,16,,,,,,,,,,,,,,,,,,,,,,,,,,,,,,,,,,,,,,,,,,,,416.0876924999757,None,right,1,1.6374543000129052,416.5881047999719,417.95723259996157,416.5881047999719,417.456446999975,416.5881047999719,417.456446999975,416.5881047999719,417.456446999975,416.5881047999719,417.456446999975,416.5881047999719,417.456446999975,417.4393488999922,417.9397436999716,417.4393488999922,417.9397436999716,417.4393488999922,417.9397436999716,417.4393488999922,417.9397436999716,417.4393488999922,417.9397436999716,417.4393488999922,417.9397436999716,417.4393488999922,417.9397436999716,417.4393488999922,417.9397436999716,416.5881047999719,None,417.9397436999716,None,0.8600000000000005,419.59203429997433,None,420.3441174000036,None,,,,,,,[[1.64]],2.9700000000000024,0.6944444444444444,11012,002,2024_Jan_02_1445,MFTM_A_new1021,2021.2.3,60.00092400729555,
,,,,,,,,stim/Instruction_adaptive.png,conditions/adaptive.xlsx,test,-0.6,-0.6,-0.6,0.6,0.6,left,L,,,,,0,1,1,1,0,72,72,19,,,,,,,,,,,,,,,,,,,,,,,,,,,,,,,,,,,,,,,,,,,,420.8447110999841,None,left,1,1.3524384999764152,421.3452501000138,422.69731389998924,421.3452501000138,422.1971031000139,421.3452501000138,422.1971031000139,421.3452501000138,422.1971031000139,421.3452501000138,422.1971031000139,421.3452501000138,422.1971031000139,422.16274669999257,422.66433429997414,422.16274669999257,422.66433429997414,422.16274669999257,422.66433429997414,422.16274669999257,422.66433429997414,422.16274669999257,422.66433429997414,422.16274669999257,422.66433429997414,422.16274669999257,422.66433429997414,422.16274669999257,422.66433429997414,421.3452501000138,None,422.66433429997414,424.3333414999652,0.8400000000000005,424.3492639999604,None,425.101104500005,None,,,,,,,[[1.66]],3.000000000000002,0.6986301369863014,11012,002,2024_Jan_02_1445,MFTM_A_new1021,2021.2.3,60.00092400729555,
,,,,,,,,stim/Instruction_adaptive.png,conditions/adaptive.xlsx,test,0.6,0.6,0.6,-0.6,-0.6,right,R,,,,,0,1,1,1,0,73,73,74,,,,,,,,,,,,,,,,,,,,,,,,,,,,,,,,,,,,,,,,,,,,425.60128920001443,None,right,1,1.11578880000161,426.10191550001036,427.4206125999917,426.10191550001036,426.9367183999857,426.10191550001036,426.9367183999857,426.10191550001036,426.9367183999857,426.10191550001036,426.9367183999857,426.10191550001036,426.9367183999857,426.9031369999866,427.4045620000106,426.9031369999866,427.4045620000106,426.9031369999866,427.4045620000106,426.9031369999866,427.4045620000106,426.9031369999866,427.4045620000106,426.9031369999866,427.4045620000106,426.9031369999866,427.4045620000106,426.9031369999866,427.4045620000106,426.10191550001036,None,427.4045620000106,429.0899567999877,0.8200000000000005,429.1064624999999,None,429.8574006999843,None,,,,,,,[[1.68]],3.0400000000000023,0.7027027027027027,11012,002,2024_Jan_02_1445,MFTM_A_new1021,2021.2.3,60.00092400729555,
,,,,,,,,stim/Instruction_adaptive.png,conditions/adaptive.xlsx,test,-0.6,-0.6,-0.6,0.6,0.6,left,L,,,,,0,1,1,1,0,74,74,17,,,,,,,,,,,,,,,,,,,,,,,,,,,,,,,,,,,,,,,,,,,,430.35899609996704,None,right,0,1.430404200043995,430.85903619998135,432.1611843999708,430.85903619998135,431.6601709999959,430.85903619998135,431.6601709999959,430.85903619998135,431.6601709999959,430.85903619998135,431.6601709999959,430.85903619998135,431.6601709999959,431.64348949998384,432.14478619996225,431.64348949998384,432.14478619996225,431.64348949998384,432.14478619996225,431.64348949998384,432.14478619996225,431.64348949998384,432.14478619996225,431.64348949998384,432.14478619996225,431.64348949998384,432.14478619996225,431.64348949998384,432.14478619996225,430.85903619998135,None,432.14478619996225,433.84743019996677,0.8000000000000005,433.863455099985,None,434.6145561999874,None,,,,,,,[[1.7]],2.940000000000002,0.6933333333333334,11012,002,2024_Jan_02_1445,MFTM_A_new1021,2021.2.3,60.00092400729555,
,,,,,,,,stim/Instruction_adaptive.png,conditions/adaptive.xlsx,test,0.6,0.6,0.6,-0.6,-0.6,right,R,,,,,0,1,1,1,0,75,75,64,,,,,,,,,,,,,,,,,,,,,,,,,,,,,,,,,,,,,,,,,,,,435.11577649996616,None,right,1,1.345225400000345,435.6159881000058,436.9848305999767,435.6159881000058,436.48472229996696,435.6159881000058,436.48472229996696,435.6159881000058,436.48472229996696,435.6159881000058,436.48472229996696,435.6159881000058,436.48472229996696,436.4674470999744,436.9680893999757,436.4674470999744,436.9680893999757,436.4674470999744,436.9680893999757,436.4674470999744,436.9680893999757,436.4674470999744,436.9680893999757,436.4674470999744,436.9680893999757,436.4674470999744,436.9680893999757,436.4674470999744,436.9680893999757,435.6159881000058,None,436.9520841999911,438.6038606999791,0.8600000000000005,438.6206318999757,None,439.3726788999629,None,,,,,,,[[1.64]],2.9700000000000024,0.6973684210526315,11012,002,2024_Jan_02_1445,MFTM_A_new1021,2021.2.3,60.00092400729555,
,,,,,,,,stim/Instruction_adaptive.png,conditions/adaptive.xlsx,test,0.6,0.6,0.6,-0.6,-0.6,right,R,,,,,0,1,1,1,0,76,76,22,,,,,,,,,,,,,,,,,,,,,,,,,,,,,,,,,,,,,,,,,,,,439.8730745000066,None,right,1,1.0429241000092588,440.3742723999894,441.7256144999992,440.3742723999894,441.22511010000017,440.3742723999894,441.22511010000017,440.3742723999894,441.22511010000017,440.3742723999894,441.22511010000017,440.3742723999894,441.22511010000017,441.19178019999526,441.6923992999946,441.19178019999526,441.6923992999946,441.19178019999526,441.6923992999946,441.19178019999526,441.6923992999946,441.19178019999526,441.6923992999946,441.19178019999526,441.6923992999946,441.19178019999526,441.6923992999946,441.19178019999526,441.6923992999946,440.3742723999894,None,441.6923992999946,443.3615856000106,0.8400000000000005,443.37794619996566,None,444.1293936999864,None,,,,,,,[[1.66]],3.0100000000000025,0.7012987012987013,11012,002,2024_Jan_02_1445,MFTM_A_new1021,2021.2.3,60.00092400729555,
,,,,,,,,stim/Instruction_adaptive.png,conditions/adaptive.xlsx,test,-0.6,-0.6,-0.6,0.6,0.6,left,L,,,,,0,1,1,1,0,77,77,45,,,,,,,,,,,,,,,,,,,,,,,,,,,,,,,,,,,,,,,,,,,,444.62938679999206,None,left,1,1.7196773999603465,445.1300277999835,446.46625339996535,445.1300277999835,445.9656949999626,445.1300277999835,445.9656949999626,445.1300277999835,445.9656949999626,445.1300277999835,445.9656949999626,445.1300277999835,445.9656949999626,445.93216699996265,446.4320863999892,445.93216699996265,446.4320863999892,445.93216699996265,446.4320863999892,445.93216699996265,446.4320863999892,445.93216699996265,446.4320863999892,445.93216699996265,446.4320863999892,445.93216699996265,446.4320863999892,445.93216699996265,446.4320863999892,445.1300277999835,None,446.4320863999892,448.1184050000156,0.8200000000000005,448.1350367999985,None,448.8857140999753,None,,,,,,,[[1.68]],3.0400000000000023,0.7051282051282052,11012,002,2024_Jan_02_1445,MFTM_A_new1021,2021.2.3,60.00092400729555,
,,,,,,,,stim/Instruction_adaptive.png,conditions/adaptive.xlsx,test,0.6,0.6,0.6,-0.6,-0.6,right,R,,,,,0,1,1,1,0,78,78,0,,,,,,,,,,,,,,,,,,,,,,,,,,,,,,,,,,,,,,,,,,,,449.38650769996457,None,right,1,1.5143702999921516,449.88694759999635,451.19019549997756,449.88694759999635,450.6890245999675,449.88694759999635,450.6890245999675,449.88694759999635,450.6890245999675,449.88694759999635,450.6890245999675,449.88694759999635,450.6890245999675,450.6716806999757,451.1723365999642,450.6716806999757,451.1723365999642,450.6716806999757,451.1723365999642,450.6716806999757,451.1723365999642,450.6716806999757,451.1723365999642,450.6716806999757,451.1723365999642,450.6716806999757,451.1723365999642,450.6716806999757,451.1723365999642,449.88694759999635,None,451.1723365999642,452.8756579000037,0.8000000000000005,452.89228229998844,None,453.6426857999759,None,,,,,,,[[1.7]],3.070000000000002,0.7088607594936709,11012,002,2024_Jan_02_1445,MFTM_A_new1021,2021.2.3,60.00092400729555,
,,,,,,,,stim/Instruction_adaptive.png,conditions/adaptive.xlsx,test,-0.6,-0.6,-0.6,0.6,0.6,left,L,,,,,0,1,1,1,0,79,79,81,,,,,,,,,,,,,,,,,,,,,,,,,,,,,,,,,,,,,,,,,,,,454.14499170001363,None,right,0,1.293414199957624,454.6439156999695,455.9293585999985,454.6439156999695,455.4290590999881,454.6439156999695,455.4290590999881,454.6439156999695,455.4290590999881,454.6439156999695,455.4290590999881,454.6439156999695,455.4290590999881,455.41199330001837,455.9124929999816,455.41199330001837,455.9124929999816,455.41199330001837,455.9124929999816,455.41199330001837,455.9124929999816,455.41199330001837,455.9124929999816,455.41199330001837,455.9124929999816,455.41199330001837,455.9124929999816,455.41199330001837,455.9124929999816,454.6439156999695,None,455.9124929999816,457.6323283999809,0.7800000000000005,457.64862619998166,None,458.3996423999779,None,,,,,,,[[1.72]],2.980000000000002,0.7,11012,002,2024_Jan_02_1445,MFTM_A_new1021,2021.2.3,60.00092400729555,
,,,,,,,,stim/Instruction_adaptive.png,conditions/adaptive.xlsx,test,-0.6,-0.6,-0.6,0.6,0.6,left,L,,,,,0,1,1,1,0,80,80,1,,,,,,,,,,,,,,,,,,,,,,,,,,,,,,,,,,,,,,,,,,,,458.9018917999929,None,left,1,1.2801209000172094,459.401078099967,460.73657609999646,459.401078099967,460.2366309000063,459.401078099967,460.2366309000063,459.401078099967,460.2366309000063,459.401078099967,460.2366309000063,459.401078099967,460.2366309000063,460.219207999995,460.72048359998735,460.219207999995,460.72048359998735,460.219207999995,460.72048359998735,460.219207999995,460.72048359998735,460.219207999995,460.72048359998735,460.219207999995,460.72048359998735,460.219207999995,460.72048359998735,460.219207999995,460.72048359998735,459.401078099967,None,460.72048359998735,None,0.8300000000000005,462.4060529000126,None,463.15745339996647,None,,,,,,,[[1.67]],3.0100000000000025,0.7037037037037037,11012,002,2024_Jan_02_1445,MFTM_A_new1021,2021.2.3,60.00092400729555,
,,,,,,,,stim/Instruction_adaptive.png,conditions/adaptive.xlsx,test,0.6,0.6,0.6,-0.6,-0.6,right,R,,,,,0,1,1,1,0,81,81,6,,,,,,,,,,,,,,,,,,,,,,,,,,,,,,,,,,,,,,,,,,,,463.6573919999646,None,left,0,1.8906233999878168,464.1590071999817,465.4775365999667,464.1590071999817,464.99300029996084,464.1590071999817,464.99300029996084,464.1590071999817,464.99300029996084,464.1590071999817,464.99300029996084,464.1590071999817,464.99300029996084,464.9595530999941,465.461641700007,464.9595530999941,465.461641700007,464.9595530999941,465.461641700007,464.9595530999941,465.461641700007,464.9595530999941,465.461641700007,464.9595530999941,465.461641700007,464.9595530999941,465.461641700007,464.9595530999941,465.461641700007,464.1590071999817,None,465.461641700007,467.1462226000149,0.8200000000000005,467.16302539996104,None,467.913873100013,None,,,,,,,[[1.68]],2.920000000000002,0.6951219512195121,11012,002,2024_Jan_02_1445,MFTM_A_new1021,2021.2.3,60.00092400729555,
,,,,,,,,stim/Instruction_adaptive.png,conditions/adaptive.xlsx,test,-0.6,-0.6,-0.6,0.6,0.6,left,L,,,,,0,1,1,1,0,82,82,9,,,,,,,,,,,,,,,,,,,,,,,,,,,,,,,,,,,,,,,,,,,,468.41447889996925,None,left,1,1.277503399993293,468.91573169996263,470.284059699974,468.91573169996263,469.7834428999922,468.91573169996263,469.7834428999922,468.91573169996263,469.7834428999922,468.91573169996263,469.7834428999922,468.91573169996263,469.7834428999922,469.76805899996543,470.2681672999752,469.76805899996543,470.2681672999752,469.76805899996543,470.2681672999752,469.76805899996543,470.2681672999752,469.76805899996543,470.2681672999752,469.76805899996543,470.2681672999752,469.76805899996543,470.2681672999752,469.76805899996543,470.2681672999752,468.91573169996263,None,470.2681672999752,471.90325719997054,0.8700000000000006,471.9197448999621,None,472.6722749999608,None,,,,,,,[[1.63]],2.950000000000002,0.6987951807228916,11012,002,2024_Jan_02_1445,MFTM_A_new1021,2021.2.3,60.00092400729555,
,,,,,,,,stim/Instruction_adaptive.png,conditions/adaptive.xlsx,test,0.6,0.6,0.6,-0.6,-0.6,right,R,,,,,0,1,1,1,0,83,83,42,,,,,,,,,,,,,,,,,,,,,,,,,,,,,,,,,,,,,,,,,,,,473.17143919999944,None,right,1,1.1851343999733217,473.6724756999756,475.0250986000174,473.6724756999756,474.5243605999858,473.6724756999756,474.5243605999858,473.6724756999756,474.5243605999858,473.6724756999756,474.5243605999858,473.6724756999756,474.5243605999858,474.5073561000172,475.008341400011,474.5073561000172,475.008341400011,474.5073561000172,475.008341400011,474.5073561000172,475.008341400011,474.5073561000172,475.008341400011,474.5073561000172,475.008341400011,474.5073561000172,475.008341400011,474.5073561000172,475.008341400011,473.6724756999756,None,475.008341400011,476.66020400001435,0.8500000000000005,476.67680020001717,None,477.4279568999773,None,,,,,,,[[1.65]],2.980000000000002,0.7023809523809523,11012,002,2024_Jan_02_1445,MFTM_A_new1021,2021.2.3,60.00092400729555,
,,,,,,,,stim/Instruction_adaptive.png,conditions/adaptive.xlsx,test,-0.6,-0.6,-0.6,0.6,0.6,left,L,,,,,0,1,1,1,0,84,84,13,,,,,,,,,,,,,,,,,,,,,,,,,,,,,,,,,,,,,,,,,,,,477.9291500999825,None,left,1,1.5004065000102855,478.42945419996977,479.76454110001214,478.42945419996977,479.26461089996155,478.42945419996977,479.26461089996155,478.42945419996977,479.26461089996155,478.42945419996977,479.26461089996155,478.42945419996977,479.26461089996155,479.2482216999633,479.7480881999945,479.2482216999633,479.7480881999945,479.2482216999633,479.7480881999945,479.2482216999633,479.7480881999945,479.2482216999633,479.7480881999945,479.2482216999633,479.7480881999945,479.2482216999633,479.7480881999945,479.2482216999633,479.7480881999945,478.42945419996977,None,479.7480881999945,481.41832569998223,0.8300000000000005,481.4337802999653,None,482.186241599964,None,,,,,,,[[1.67]],3.0100000000000025,0.7058823529411765,11012,002,2024_Jan_02_1445,MFTM_A_new1021,2021.2.3,60.00092400729555,
,,,,,,,,stim/Instruction_adaptive.png,conditions/adaptive.xlsx,test,0.6,0.6,0.6,-0.6,-0.6,right,R,,,,,0,1,1,1,0,85,85,4,,,,,,,,,,,,,,,,,,,,,,,,,,,,,,,,,,,,,,,,,,,,482.6865153000108,None,right,1,1.7263573000091128,483.1870983999688,484.50564659998054,483.1870983999688,484.02176679996774,483.1870983999688,484.02176679996774,483.1870983999688,484.02176679996774,483.1870983999688,484.02176679996774,483.1870983999688,484.02176679996774,483.98764439998195,484.4894884999958,483.98764439998195,484.4894884999958,483.98764439998195,484.4894884999958,483.98764439998195,484.4894884999958,483.98764439998195,484.4894884999958,483.98764439998195,484.4894884999958,483.98764439998195,484.4894884999958,483.98764439998195,484.4894884999958,483.1870983999688,None,484.4894884999958,486.1754389000125,0.8200000000000005,486.1907911999733,None,486.94220509997103,None,,,,,,,[[1.68]],3.0400000000000023,0.7093023255813954,11012,002,2024_Jan_02_1445,MFTM_A_new1021,2021.2.3,60.00092400729555,
,,,,,,,,stim/Instruction_adaptive.png,conditions/adaptive.xlsx,test,-0.6,-0.6,-0.6,0.6,0.6,left,L,,,,,0,1,1,1,0,86,86,35,,,,,,,,,,,,,,,,,,,,,,,,,,,,,,,,,,,,,,,,,,,,487.4430780999828,None,left,1,1.3705172999761999,487.94361560000107,489.2457452999661,487.94361560000107,488.74474230001215,487.94361560000107,488.74474230001215,487.94361560000107,488.74474230001215,487.94361560000107,488.74474230001215,487.94361560000107,488.74474230001215,488.7280710999621,489.2294705999666,488.7280710999621,489.2294705999666,488.7280710999621,489.2294705999666,488.7280710999621,489.2294705999666,488.7280710999621,489.2294705999666,488.7280710999621,489.2294705999666,488.7280710999621,489.2294705999666,488.7280710999621,489.2294705999666,487.94361560000107,None,489.2294705999666,490.9313963999739,0.8000000000000005,490.94781889999285,None,491.69934150000336,None,,,,,,,[[1.7]],3.070000000000002,0.7126436781609196,11012,002,2024_Jan_02_1445,MFTM_A_new1021,2021.2.3,60.00092400729555,
,,,,,,,,stim/Instruction_adaptive.png,conditions/adaptive.xlsx,test,-0.6,-0.6,-0.6,0.6,0.6,left,L,,,,,0,1,1,1,0,87,87,21,,,,,,,,,,,,,,,,,,,,,,,,,,,,,,,,,,,,,,,,,,,,492.20069590001367,None,left,1,1.6044458000105806,492.700896299968,493.98657299997285,492.700896299968,493.48609700001543,492.700896299968,493.48609700001543,492.700896299968,493.48609700001543,492.700896299968,493.48609700001543,492.700896299968,493.48609700001543,493.4685058000032,493.97009079996496,493.4685058000032,493.97009079996496,493.4685058000032,493.97009079996496,493.4685058000032,493.97009079996496,493.4685058000032,493.97009079996496,493.4685058000032,493.97009079996496,493.4685058000032,493.97009079996496,493.4685058000032,493.97009079996496,492.700896299968,None,493.97009079996496,495.68844679999165,0.7800000000000005,495.7049885999877,None,496.45599569997285,None,,,,,,,[[1.72]],3.0900000000000025,0.7159090909090909,11012,002,2024_Jan_02_1445,MFTM_A_new1021,2021.2.3,60.00092400729555,
,,,,,,,,stim/Instruction_adaptive.png,conditions/adaptive.xlsx,test,-0.6,-0.6,-0.6,0.6,0.6,left,L,,,,,0,1,1,1,0,88,88,69,,,,,,,,,,,,,,,,,,,,,,,,,,,,,,,,,,,,,,,,,,,,496.9578279000125,None,right,0,1.6393468999885954,497.45818399998825,498.7429824999999,497.45818399998825,498.24224019999383,497.45818399998825,498.24224019999383,497.45818399998825,498.24224019999383,497.45818399998825,498.24224019999383,497.45818399998825,498.24224019999383,498.20969210000476,498.7097120999824,498.20969210000476,498.7097120999824,498.20969210000476,498.7097120999824,498.20969210000476,498.7097120999824,498.20969210000476,498.7097120999824,498.20969210000476,498.7097120999824,498.20969210000476,498.7097120999824,498.20969210000476,498.7097120999824,497.45818399998825,None,498.7097120999824,500.44575119996443,0.7700000000000005,500.4621588999871,None,501.2134634999675,None,,,,,,,[[1.73]],3.0100000000000025,0.7078651685393258,11012,002,2024_Jan_02_1445,MFTM_A_new1021,2021.2.3,60.00092400729555,
,,,,,,,,stim/Instruction_adaptive.png,conditions/adaptive.xlsx,test,0.6,0.6,0.6,-0.6,-0.6,right,R,,,,,0,1,1,1,0,89,89,28,,,,,,,,,,,,,,,,,,,,,,,,,,,,,,,,,,,,,,,,,,,,501.7150566999917,None,left,0,1.9627638999954797,502.2147213999997,503.5340417000116,502.2147213999997,503.05035939998925,502.2147213999997,503.05035939998925,502.2147213999997,503.05035939998925,502.2147213999997,503.05035939998925,502.2147213999997,503.05035939998925,503.016055999964,503.5170838999911,503.016055999964,503.5170838999911,503.016055999964,503.5170838999911,503.016055999964,503.5170838999911,503.016055999964,503.5170838999911,503.016055999964,503.5170838999911,503.016055999964,503.5170838999911,503.016055999964,503.5170838999911,502.2147213999997,None,503.5170838999911,505.2028780999826,0.8200000000000005,505.21956120000686,None,505.97177900001407,None,,,,,,,[[1.68]],2.9300000000000024,0.7,11012,002,2024_Jan_02_1445,MFTM_A_new1021,2021.2.3,60.00092400729555,
,,,,,,,,stim/Instruction_adaptive.png,conditions/adaptive.xlsx,test,0.6,0.6,0.6,-0.6,-0.6,right,R,,,,,0,1,1,1,0,90,90,26,,,,,,,,,,,,,,,,,,,,,,,,,,,,,,,,,,,,,,,,,,,,506.4713697999832,None,right,1,2.2613965999917127,506.9718700000085,508.3405156999943,506.9718700000085,507.83958849997725,506.9718700000085,507.83958849997725,506.9718700000085,507.83958849997725,506.9718700000085,507.83958849997725,506.9718700000085,507.83958849997725,507.8235503999749,508.32423019997077,507.8235503999749,508.32423019997077,507.8235503999749,508.32423019997077,507.8235503999749,508.32423019997077,507.8235503999749,508.32423019997077,507.8235503999749,508.32423019997077,507.8235503999749,508.32423019997077,507.8235503999749,508.32423019997077,506.9718700000085,None,508.307247299992,509.9595313000027,0.8600000000000005,509.97630649997154,None,510.7276196000166,None,,,,,,,[[1.64]],2.960000000000002,0.7032967032967034,11012,002,2024_Jan_02_1445,MFTM_A_new1021,2021.2.3,60.00092400729555,
,,,,,,,,stim/Instruction_adaptive.png,conditions/adaptive.xlsx,test,0.6,0.6,0.6,-0.6,-0.6,right,R,,,,,0,1,1,1,0,91,91,38,,,,,,,,,,,,,,,,,,,,,,,,,,,,,,,,,,,,,,,,,,,,511.22875870001735,None,right,1,1.3687821000348777,511.7287959000096,513.0812943999772,511.7287959000096,512.5811664999928,511.7287959000096,512.5811664999928,511.7287959000096,512.5811664999928,511.7287959000096,512.5811664999928,511.7287959000096,512.5811664999928,512.5640816999949,513.0649908999912,512.5640816999949,513.0649908999912,512.5640816999949,513.0649908999912,512.5640816999949,513.0649908999912,512.5640816999949,513.0649908999912,512.5640816999949,513.0649908999912,512.5640816999949,513.0649908999912,512.5640816999949,513.0649908999912,511.7287959000096,None,513.0649908999912,514.7166456999839,0.8500000000000005,514.7333218000131,None,515.4850117000169,None,,,,,,,[[1.65]],2.990000000000002,0.7065217391304348,11012,002,2024_Jan_02_1445,MFTM_A_new1021,2021.2.3,60.00092400729555,
,,,,,,,,stim/Instruction_adaptive.png,conditions/adaptive.xlsx,test,0.6,0.6,0.6,-0.6,-0.6,right,R,,,,,0,1,1,1,0,92,92,84,,,,,,,,,,,,,,,,,,,,,,,,,,,,,,,,,,,,,,,,,,,,515.985714200011,None,right,1,1.258462600002531,516.4869151000166,517.8219774999889,516.4869151000166,517.3205129000125,516.4869151000166,517.3205129000125,516.4869151000166,517.3205129000125,516.4869151000166,517.3205129000125,516.4869151000166,517.3205129000125,517.3048236999894,517.8043357999995,517.3048236999894,517.8043357999995,517.3048236999894,517.8043357999995,517.3048236999894,517.8043357999995,517.3048236999894,517.8043357999995,517.3048236999894,517.8043357999995,517.3048236999894,517.8043357999995,517.3048236999894,517.8043357999995,516.4869151000166,None,517.8043357999995,519.4746166999685,0.8300000000000005,519.4906274999958,None,520.2419175999821,None,,,,,,,[[1.67]],3.0100000000000025,0.7096774193548387,11012,002,2024_Jan_02_1445,MFTM_A_new1021,2021.2.3,60.00092400729555,
,,,,,,,,stim/Instruction_adaptive.png,conditions/adaptive.xlsx,test,-0.6,-0.6,-0.6,0.6,0.6,left,L,,,,,0,1,1,1,0,93,93,37,,,,,,,,,,,,,,,,,,,,,,,,,,,,,,,,,,,,,,,,,,,,520.742155999993,None,left,1,1.374880499963183,521.2430880999891,522.5783049999736,521.2430880999891,522.0775036999839,521.2430880999891,522.0775036999839,521.2430880999891,522.0775036999839,521.2430880999891,522.0775036999839,521.2430880999891,522.0775036999839,522.0440815999755,522.5447243999806,522.0440815999755,522.5447243999806,522.0440815999755,522.5447243999806,522.0440815999755,522.5447243999806,522.0440815999755,522.5447243999806,522.0440815999755,522.5447243999806,522.0440815999755,522.5447243999806,522.0440815999755,522.5447243999806,521.2430880999891,None,522.5447243999806,524.2306946999743,0.8200000000000005,524.2474519999814,None,524.9993859999813,None,,,,,,,[[1.68]],3.0400000000000023,0.7127659574468085,11012,002,2024_Jan_02_1445,MFTM_A_new1021,2021.2.3,60.00092400729555,
