arrwidth1,arrwidth2,arrwidth3,arrwidth4,arrwidth5,keyb,type,orientation,instruction_image,block_filename,block_type,arrow11,arrow22,arrow33,arrow44,arrow55,keyb_3,orientation3,trials.thisRepN,trials.thisTrialN,trials.thisN,trials.thisIndex,trials_3.thisRepN,trials_3.thisTrialN,trials_3.thisN,trials_3.thisIndex,trials_2.thisRepN,trials_2.thisTrialN,trials_2.thisN,trials_2.thisIndex,welcome.started,welcome.stopped,key_resp.keys,key_resp.rt,key_resp.started,key_resp.stopped,instruction_example.started,instruction_example.stopped,key_resp_3.keys,key_resp_3.rt,key_resp_3.started,key_resp_3.stopped,instruction_task.started,instruction_task.stopped,key_resp_2.keys,key_resp_2.rt,key_resp_2.started,key_resp_2.stopped,text_2.started,text_2.stopped,A1.started,A1.stopped,A2.started,A2.stopped,A3.started,A3.stopped,A4.started,A4.stopped,A5.started,A5.stopped,key_resp_4.keys,key_resp_4.corr,key_resp_4.rt,key_resp_4.started,key_resp_4.stopped,fb.started,fb.stopped,instruction_block.started,instruction_block.stopped,key_resp_8.keys,key_resp_8.rt,key_resp_8.started,key_resp_8.stopped,text_8.started,text_8.stopped,key_resp_9.keys,key_resp_9.corr,key_resp_9.rt,text_5.started,text_5.stopped,A11_3.started,A11_3.stopped,A22_2.started,A22_2.stopped,A33_2.started,A33_2.stopped,A44_2.started,A44_2.stopped,A55_2.started,A55_2.stopped,M1_3.started,M1_3.stopped,M2_2.started,M2_2.stopped,M3_2.started,M3_2.stopped,M4_2.started,M4_2.stopped,M5_2.started,M5_2.stopped,M6_2.started,M6_2.stopped,M7_2.started,M7_2.stopped,M8_2.started,M8_2.stopped,key_resp_9.started,key_resp_9.stopped,fixation.started,fixation.stopped,ET,fb_3.started,fb_3.stopped,text_9.started,text_9.stopped,fb_4.started,fb_4.stopped,text_7.started,text_7.stopped,endtext.started,endtext.stopped,fixation_ITI,CCC,Acc,participant,session,date,expName,psychopyVersion,frameRate,
,,,,,,,,,,,,,,,,,,,,,,,,,,,,,,13.997894900036044,None,space,5.303842700028326,13.997894900036044,None,,,,,,,,,,,,,,,,,,,,,,,,,,,,,,,,,,,,,,,,,,,,,,,,,,,,,,,,,,,,,,,,,,,,,,,,,,,,,,,,,,,,,,,,,11011,002,2024_Jan_02_1552,MFTM_A_new1021,2021.2.3,59.82947403709823,
,,,,,,,,,,,,,,,,,,,,,,,,,,,,,,,,,,,,19.32320190005703,None,space,3.586098400002811,19.32320190005703,None,,,,,,,,,,,,,,,,,,,,,,,,,,,,,,,,,,,,,,,,,,,,,,,,,,,,,,,,,,,,,,,,,,,,,,,,,,,,,,,,,,,11011,002,2024_Jan_02_1552,MFTM_A_new1021,2021.2.3,59.82947403709823,
,,,,,,,,,,,,,,,,,,,,,,,,,,,,,,,,,,,,,,,,,,22.92784220003523,None,space,2.109498599951621,22.92784220003523,None,,,,,,,,,,,,,,,,,,,,,,,,,,,,,,,,,,,,,,,,,,,,,,,,,,,,,,,,,,,,,,,,,,,,,,,,,,,,,11011,002,2024_Jan_02_1552,MFTM_A_new1021,2021.2.3,59.82947403709823,
-0.6,-0.6,-0.6,0.6,0.6,left,3:2,L,,,,,,,,,,,0,0,0,1,,,,,,,,,,,,,,,,,,,,,,,,,,,25.08170280000195,None,25.08170280000195,None,25.08170280000195,None,25.08170280000195,None,25.08170280000195,None,25.08170280000195,None,left,1,2.1794155999668874,25.08170280000195,None,27.30174480000278,None,,,,,,,,,,,,,,,,,,,,,,,,,,,,,,,,,,,,,,,,,,,,,,,,,,,,,,,,,,11011,002,2024_Jan_02_1552,MFTM_A_new1021,2021.2.3,59.82947403709823,
0.6,0.6,0.6,-0.6,-0.6,right,3:2,R,,,,,,,,,,,0,1,1,0,,,,,,,,,,,,,,,,,,,,,,,,,,,28.052037700021174,None,28.052037700021174,None,28.052037700021174,None,28.052037700021174,None,28.052037700021174,None,28.052037700021174,None,right,1,1.9051466999808326,28.052037700021174,None,29.988363300042693,None,,,,,,,,,,,,,,,,,,,,,,,,,,,,,,,,,,,,,,,,,,,,,,,,,,,,,,,,,,11011,002,2024_Jan_02_1552,MFTM_A_new1021,2021.2.3,59.82947403709823,
0.6,0.6,0.6,-0.6,-0.6,right,3:2,R,,,,,,,,,,,1,0,2,0,,,,,,,,,,,,,,,,,,,,,,,,,,,30.73940840002615,None,30.73940840002615,None,30.73940840002615,None,30.73940840002615,None,30.73940840002615,None,30.73940840002615,None,left,0,2.1300128999864683,30.73940840002615,None,32.892536900006235,None,,,,,,,,,,,,,,,,,,,,,,,,,,,,,,,,,,,,,,,,,,,,,,,,,,,,,,,,,,11011,002,2024_Jan_02_1552,MFTM_A_new1021,2021.2.3,59.82947403709823,
-0.6,-0.6,-0.6,0.6,0.6,left,3:2,L,,,,,,,,,,,1,1,3,1,,,,,,,,,,,,,,,,,,,,,,,,,,,33.643735800054856,None,33.643735800054856,None,33.643735800054856,None,33.643735800054856,None,33.643735800054856,None,33.643735800054856,None,left,1,3.129544499970507,33.643735800054856,None,36.79870840004878,None,,,,,,,,,,,,,,,,,,,,,,,,,,,,,,,,,,,,,,,,,,,,,,,,,,,,,,,,,,11011,002,2024_Jan_02_1552,MFTM_A_new1021,2021.2.3,59.82947403709823,
,,,,,,,,stim/Instruction_mask.png,conditions/adaptive.xlsx,practice,0.6,0.6,0.6,-0.6,-0.6,right,R,,,,,0,0,0,0,0,0,0,94,,,,,,,,,,,,,,,,,,,,,,,,,,,,,,,,,,,,,,37.83303870004602,None,space,4.8042368000024,37.83303870004602,None,42.7406825000071,None,right,1,2.3506560000241734,43.17460700002266,None,43.17460700002266,46.17906840000069,43.17460700002266,46.17906840000069,43.17460700002266,46.17906840000069,43.17460700002266,46.17906840000069,43.17460700002266,46.17906840000069,46.16308030002983,46.66359690000536,46.16308030002983,46.66359690000536,46.16308030002983,46.66359690000536,46.16308030002983,46.66359690000536,46.16308030002983,46.66359690000536,46.16308030002983,46.66359690000536,46.16308030002983,46.66359690000536,46.16308030002983,46.66359690000536,43.17460700002266,None,46.66359690000536,46.66359690000536,3,46.67972790001659,None,47.43103990005329,None,,,,,,,,,,11011,002,2024_Jan_02_1552,MFTM_A_new1021,2021.2.3,59.82947403709823,
,,,,,,,,stim/Instruction_mask.png,conditions/adaptive.xlsx,practice,0.6,0.6,0.6,-0.6,-0.6,right,R,,,,,0,0,0,0,0,1,1,48,,,,,,,,,,,,,,,,,,,,,,,,,,,,,,,,,,,,,,,,,,,,47.93140780000249,None,right,1,2.0771443000412546,48.43225800001528,50.435499600018375,48.43225800001528,49.934622000029776,48.43225800001528,49.934622000029776,48.43225800001528,49.934622000029776,48.43225800001528,49.934622000029776,48.43225800001528,49.934622000029776,49.91780100000324,50.41856200003531,49.91780100000324,50.41856200003531,49.91780100000324,50.41856200003531,49.91780100000324,50.41856200003531,49.91780100000324,50.41856200003531,49.91780100000324,50.41856200003531,49.91780100000324,50.41856200003531,49.91780100000324,50.41856200003531,48.43225800001528,None,50.41856200003531,51.92067910003243,1.5,51.937710600032005,None,52.68956840003375,None,,,,,,,,,,11011,002,2024_Jan_02_1552,MFTM_A_new1021,2021.2.3,59.82947403709823,
,,,,,,,,stim/Instruction_mask.png,conditions/adaptive.xlsx,practice,-0.6,-0.6,-0.6,0.6,0.6,left,L,,,,,0,0,0,0,0,2,2,83,,,,,,,,,,,,,,,,,,,,,,,,,,,,,,,,,,,,,,,,,,,,53.18934660003288,None,left,1,1.2270929000223987,53.690222700010054,54.9927760999999,53.690222700010054,54.491048000054434,53.690222700010054,54.491048000054434,53.690222700010054,54.491048000054434,53.690222700010054,54.491048000054434,53.690222700010054,54.491048000054434,54.475082400022075,54.97548960003769,54.475082400022075,54.97548960003769,54.475082400022075,54.97548960003769,54.475082400022075,54.97548960003769,54.475082400022075,54.97548960003769,54.475082400022075,54.97548960003769,54.475082400022075,54.97548960003769,54.475082400022075,54.97548960003769,53.690222700010054,None,54.97548960003769,57.17900960001862,0.8,57.19592120003654,None,57.947477800014894,None,,,,,,,,,,11011,002,2024_Jan_02_1552,MFTM_A_new1021,2021.2.3,59.82947403709823,
,,,,,,,,stim/Instruction_mask.png,conditions/adaptive.xlsx,practice,0.6,0.6,0.6,-0.6,-0.6,right,R,,,,,0,0,0,0,0,3,3,96,,,,,,,,,,,,,,,,,,,,,,,,,,,,,,,,,,,,,,,,,,,,58.44758300000103,None,right,1,1.1454241999890655,58.9479466000339,59.69917910004733,58.9479466000339,59.19824100000551,58.9479466000339,59.19824100000551,58.9479466000339,59.19824100000551,58.9479466000339,59.19824100000551,58.9479466000339,59.19824100000551,59.18160510004964,59.682845500006806,59.18160510004964,59.682845500006806,59.18160510004964,59.682845500006806,59.18160510004964,59.682845500006806,59.18160510004964,59.682845500006806,59.18160510004964,59.682845500006806,59.18160510004964,59.682845500006806,59.18160510004964,59.682845500006806,58.9479466000339,None,59.682845500006806,62.43649510003161,3,62.452799000020605,None,63.20426090003457,None,,,,,,,,,,11011,002,2024_Jan_02_1552,MFTM_A_new1021,2021.2.3,59.82947403709823,
,,,,,,,,stim/Instruction_mask.png,conditions/adaptive.xlsx,practice,,,,,,,,,,,,0,0,0,0,,,,,,,,,,,,,,,,,,,,,,,,,,,,,,,,,,,,,,,,,,,,,,,,,,,,,,,,,,,,,,,,,,,,,,,,,,,,,,,,,,,,,,,,,,63.721722200047225,64.72390810004435,64.70640740002273,64.70640740002273,64.70640740002273,None,,,,11011,002,2024_Jan_02_1552,MFTM_A_new1021,2021.2.3,59.82947403709823,
,,,,,,,,stim/Instruction_adaptive.png,conditions/adaptive.xlsx,test,-0.6,-0.6,-0.6,0.6,0.6,left,L,,,,,0,1,1,1,0,0,0,7,,,,,,,,,,,,,,,,,,,,,,,,,,,,,,,,,,,,,,67.89443410001695,None,space,1.7356329000322148,67.89443410001695,None,69.6635725000524,None,left,1,2.36840499995742,70.16505770001095,None,70.16505770001095,73.17005810001865,70.16505770001095,73.17005810001865,70.16505770001095,73.17005810001865,70.16505770001095,73.17005810001865,70.16505770001095,73.17005810001865,73.15216770005645,73.65368300001137,73.15216770005645,73.65368300001137,73.15216770005645,73.65368300001137,73.15216770005645,73.65368300001137,73.15216770005645,73.65368300001137,73.15216770005645,73.65368300001137,73.15216770005645,73.65368300001137,73.15216770005645,73.65368300001137,70.16505770001095,None,73.65368300001137,73.65368300001137,3,73.66970060003223,None,74.42086030001519,None,,,,,,,0,6.000000000000005,1.0,11011,002,2024_Jan_02_1552,MFTM_A_new1021,2021.2.3,59.82947403709823,
,,,,,,,,stim/Instruction_adaptive.png,conditions/adaptive.xlsx,test,0.6,0.6,0.6,-0.6,-0.6,right,R,,,,,0,1,1,1,0,1,1,98,,,,,,,,,,,,,,,,,,,,,,,,,,,,,,,,,,,,,,,,,,,,74.92177160002757,None,right,1,0.8710899000288919,75.42221580003388,76.1733280000044,75.42221580003388,75.67279260000214,75.42221580003388,75.67279260000214,75.42221580003388,75.67279260000214,75.42221580003388,75.67279260000214,75.42221580003388,75.67279260000214,75.65639870002633,76.15713970002253,75.65639870002633,76.15713970002253,75.65639870002633,76.15713970002253,75.65639870002633,76.15713970002253,75.65639870002633,76.15713970002253,75.65639870002633,76.15713970002253,75.65639870002633,76.15713970002253,75.65639870002633,76.15713970002253,75.42221580003388,None,76.15713970002253,77.04199980001431,0.25,77.05790370004252,None,77.81008420005674,None,,,,,,,[0.875],6.000000000000005,1.0,11011,002,2024_Jan_02_1552,MFTM_A_new1021,2021.2.3,59.82947403709823,
,,,,,,,,stim/Instruction_adaptive.png,conditions/adaptive.xlsx,test,0.6,0.6,0.6,-0.6,-0.6,right,R,,,,,0,1,1,1,0,2,2,12,,,,,,,,,,,,,,,,,,,,,,,,,,,,,,,,,,,,,,,,,,,,78.3107932000421,None,right,1,0.8666038999799639,78.8111544000567,79.56257230002666,78.8111544000567,79.06082770001376,78.8111544000567,79.06082770001376,78.8111544000567,79.06082770001376,78.8111544000567,79.06082770001376,78.8111544000567,79.06082770001376,79.0443990000058,79.54510410001967,79.0443990000058,79.54510410001967,79.0443990000058,79.54510410001967,79.0443990000058,79.54510410001967,79.0443990000058,79.54510410001967,79.0443990000058,79.54510410001967,79.0443990000058,79.54510410001967,79.0443990000058,79.54510410001967,78.8111544000567,None,79.54510410001967,80.8803370000096,0.25,80.89723930001492,None,81.64852460002294,None,,,,,,,[1.33333333],6.000000000000005,1.0,11011,002,2024_Jan_02_1552,MFTM_A_new1021,2021.2.3,59.82947403709823,
,,,,,,,,stim/Instruction_adaptive.png,conditions/adaptive.xlsx,test,-0.6,-0.6,-0.6,0.6,0.6,left,L,,,,,0,1,1,1,0,3,3,63,,,,,,,,,,,,,,,,,,,,,,,,,,,,,,,,,,,,,,,,,,,,82.14895400003297,None,left,1,1.0197592999902554,82.64960460003931,83.4008566000266,82.64960460003931,82.90022250002949,82.64960460003931,82.90022250002949,82.64960460003931,82.90022250002949,82.64960460003931,82.90022250002949,82.64960460003931,82.90022250002949,82.88340720004635,83.38531370001147,82.88340720004635,83.38531370001147,82.88340720004635,83.38531370001147,82.88340720004635,83.38531370001147,82.88340720004635,83.38531370001147,82.88340720004635,83.38531370001147,82.88340720004635,83.38531370001147,82.88340720004635,83.38531370001147,82.64960460003931,None,83.38531370001147,84.95418750005774,0.25,84.97001710004406,None,85.72133950004354,None,,,,,,,[1.5625],6.000000000000005,1.0,11011,002,2024_Jan_02_1552,MFTM_A_new1021,2021.2.3,59.82947403709823,
,,,,,,,,stim/Instruction_adaptive.png,conditions/adaptive.xlsx,test,-0.6,-0.6,-0.6,0.6,0.6,left,L,,,,,0,1,1,1,0,4,4,75,,,,,,,,,,,,,,,,,,,,,,,,,,,,,,,,,,,,,,,,,,,,86.22241130005568,None,right,0,0.7465090000187047,86.72312280000187,87.47354070004076,86.72312280000187,86.97296100005042,86.72312280000187,86.97296100005042,86.72312280000187,86.97296100005042,86.72312280000187,86.97296100005042,86.72312280000187,86.97296100005042,86.95588480000151,87.45754230004968,86.95588480000151,87.45754230004968,86.95588480000151,87.45754230004968,86.95588480000151,87.45754230004968,86.95588480000151,87.45754230004968,86.95588480000151,87.45754230004968,86.95588480000151,87.45754230004968,86.95588480000151,87.45754230004968,86.72312280000187,None,87.45754230004968,89.16032730002189,0.25,89.17580770002678,None,89.9271872000536,None,,,,,,,[1.7],4.720000000000004,0.8,11011,002,2024_Jan_02_1552,MFTM_A_new1021,2021.2.3,59.82947403709823,
,,,,,,,,stim/Instruction_adaptive.png,conditions/adaptive.xlsx,test,0.6,0.6,0.6,-0.6,-0.6,right,R,,,,,0,1,1,1,0,5,5,54,,,,,,,,,,,,,,,,,,,,,,,,,,,,,,,,,,,,,,,,,,,,90.42803480004659,None,right,1,1.1005151999997906,90.928731800057,91.67981640005019,90.928731800057,91.17958580004051,90.928731800057,91.17958580004051,90.928731800057,91.17958580004051,90.928731800057,91.17958580004051,90.928731800057,91.17958580004051,91.16221370000858,91.66320020001149,91.16221370000858,91.66320020001149,91.16221370000858,91.66320020001149,91.16221370000858,91.66320020001149,91.16221370000858,91.66320020001149,91.16221370000858,91.66320020001149,91.16221370000858,91.66320020001149,91.16221370000858,91.66320020001149,90.928731800057,None,91.66320020001149,93.46637560002273,0.25,93.48241150000831,None,94.23368410003604,None,,,,,,,[1.79166667],5.1200000000000045,0.8333333333333334,11011,002,2024_Jan_02_1552,MFTM_A_new1021,2021.2.3,59.82947403709823,
,,,,,,,,stim/Instruction_adaptive.png,conditions/adaptive.xlsx,test,-0.6,-0.6,-0.6,0.6,0.6,left,L,,,,,0,1,1,1,0,6,6,87,,,,,,,,,,,,,,,,,,,,,,,,,,,,,,,,,,,,,,,,,,,,94.7347525000223,None,right,0,0.8423717999830842,95.2349222000339,95.98626920004608,95.2349222000339,95.48549010005081,95.2349222000339,95.48549010005081,95.2349222000339,95.48549010005081,95.2349222000339,95.48549010005081,95.2349222000339,95.48549010005081,95.46862330002477,95.96939180005575,95.46862330002477,95.96939180005575,95.46862330002477,95.96939180005575,95.46862330002477,95.96939180005575,95.46862330002477,95.96939180005575,95.46862330002477,95.96939180005575,95.46862330002477,95.96939180005575,95.46862330002477,95.96939180005575,95.2349222000339,None,95.96939180005575,97.83890760003123,0.25,97.85555650002789,None,98.60662650002632,None,,,,,,,[1.85714286],3.990000000000003,0.7142857142857143,11011,002,2024_Jan_02_1552,MFTM_A_new1021,2021.2.3,59.82947403709823,
,,,,,,,,stim/Instruction_adaptive.png,conditions/adaptive.xlsx,test,0.6,0.6,0.6,-0.6,-0.6,right,R,,,,,0,1,1,1,0,7,7,48,,,,,,,,,,,,,,,,,,,,,,,,,,,,,,,,,,,,,,,,,,,,99.10788510000566,None,right,1,1.5892401000019163,99.6080431000446,100.52604730002349,99.6080431000446,100.02601670002332,99.6080431000446,100.02601670002332,99.6080431000446,100.02601670002332,99.6080431000446,100.02601670002332,99.6080431000446,100.02601670002332,99.99287970003206,100.49326860002475,99.99287970003206,100.49326860002475,99.99287970003206,100.49326860002475,99.99287970003206,100.49326860002475,99.99287970003206,100.49326860002475,99.99287970003206,100.49326860002475,99.99287970003206,100.49326860002475,99.99287970003206,100.49326860002475,99.6080431000446,None,100.49326860002475,102.37892580003245,0.41000000000000014,102.41226250003092,None,103.16392760002054,None,,,,,,,[1.88625],4.4200000000000035,0.75,11011,002,2024_Jan_02_1552,MFTM_A_new1021,2021.2.3,59.82947403709823,
,,,,,,,,stim/Instruction_adaptive.png,conditions/adaptive.xlsx,test,-0.6,-0.6,-0.6,0.6,0.6,left,L,,,,,0,1,1,1,0,8,8,41,,,,,,,,,,,,,,,,,,,,,,,,,,,,,,,,,,,,,,,,,,,,103.66533170000184,None,left,1,1.2642690000357106,104.16504280001391,104.98379240004579,104.16504280001391,104.48202470003162,104.16504280001391,104.48202470003162,104.16504280001391,104.48202470003162,104.16504280001391,104.48202470003162,104.16504280001391,104.48202470003162,104.44864830002189,104.94968760001939,104.44864830002189,104.94968760001939,104.44864830002189,104.94968760001939,104.44864830002189,104.94968760001939,104.44864830002189,104.94968760001939,104.44864830002189,104.94968760001939,104.44864830002189,104.94968760001939,104.44864830002189,104.94968760001939,104.16504280001391,None,104.94968760001939,106.86932110000635,0.31000000000000005,106.9023246000288,None,107.6541401000577,None,,,,,,,[1.92],4.700000000000004,0.7777777777777778,11011,002,2024_Jan_02_1552,MFTM_A_new1021,2021.2.3,59.82947403709823,
,,,,,,,,stim/Instruction_adaptive.png,conditions/adaptive.xlsx,test,-0.6,-0.6,-0.6,0.6,0.6,left,L,,,,,0,1,1,1,0,9,9,21,,,,,,,,,,,,,,,,,,,,,,,,,,,,,,,,,,,,,,,,,,,,108.1542723000166,None,right,0,1.2468096000375226,108.654969300027,109.40667940001003,108.654969300027,108.90527550003026,108.654969300027,108.90527550003026,108.654969300027,108.90527550003026,108.654969300027,108.90527550003026,108.654969300027,108.90527550003026,108.88862760004122,109.38935080001829,108.88862760004122,109.38935080001829,108.88862760004122,109.38935080001829,108.88862760004122,109.38935080001829,108.88862760004122,109.38935080001829,108.88862760004122,109.38935080001829,108.88862760004122,109.38935080001829,108.88862760004122,109.38935080001829,108.654969300027,None,109.38935080001829,111.34341850003693,0.25,111.35949050000636,None,112.1099199000164,None,,,,,,,[1.953],4.040000000000003,0.7,11011,002,2024_Jan_02_1552,MFTM_A_new1021,2021.2.3,59.82947403709823,
,,,,,,,,stim/Instruction_adaptive.png,conditions/adaptive.xlsx,test,0.6,0.6,0.6,-0.6,-0.6,right,R,,,,,0,1,1,1,0,10,10,66,,,,,,,,,,,,,,,,,,,,,,,,,,,,,,,,,,,,,,,,,,,,112.6106777000241,None,left,0,1.2696506000356749,113.11190300004091,114.01338140002917,113.11190300004091,113.51208250003401,113.11190300004091,113.51208250003401,113.11190300004091,113.51208250003401,113.11190300004091,113.51208250003401,113.11190300004091,113.51208250003401,113.49542020005174,113.99646920000669,113.49542020005174,113.99646920000669,113.49542020005174,113.99646920000669,113.49542020005174,113.99646920000669,113.49542020005174,113.99646920000669,113.49542020005174,113.99646920000669,113.49542020005174,113.99646920000669,113.49542020005174,113.99646920000669,113.11190300004091,None,113.99646920000669,115.96633550000843,0.40000000000000013,115.98236980004003,None,116.73370080004679,None,,,,,,,[1.96636364],3.1400000000000023,0.6363636363636364,11011,002,2024_Jan_02_1552,MFTM_A_new1021,2021.2.3,59.82947403709823,
,,,,,,,,stim/Instruction_adaptive.png,conditions/adaptive.xlsx,test,0.6,0.6,0.6,-0.6,-0.6,right,R,,,,,0,1,1,1,0,11,11,46,,,,,,,,,,,,,,,,,,,,,,,,,,,,,,,,,,,,,,,,,,,,117.23403340001823,None,right,1,1.5427749000373296,117.73500850005075,118.98751380003523,117.73500850005075,118.48604980000528,117.73500850005075,118.48604980000528,117.73500850005075,118.48604980000528,117.73500850005075,118.48604980000528,117.73500850005075,118.48604980000528,118.46957090002252,118.97096330003114,118.46957090002252,118.97096330003114,118.46957090002252,118.97096330003114,118.46957090002252,118.97096330003114,118.46957090002252,118.97096330003114,118.46957090002252,118.97096330003114,118.46957090002252,118.97096330003114,118.46957090002252,118.97096330003114,117.73500850005075,None,118.97096330003114,120.72357210004702,0.7500000000000004,120.73938170005567,None,121.49059890001081,None,,,,,,,[[1.75]],3.530000000000003,0.6666666666666666,11011,002,2024_Jan_02_1552,MFTM_A_new1021,2021.2.3,59.82947403709823,
,,,,,,,,stim/Instruction_adaptive.png,conditions/adaptive.xlsx,test,0.6,0.6,0.6,-0.6,-0.6,right,R,,,,,0,1,1,1,0,12,12,58,,,,,,,,,,,,,,,,,,,,,,,,,,,,,,,,,,,,,,,,,,,,121.99121990002459,None,right,1,1.4888112000189722,122.4925443000393,123.57745480001904,122.4925443000393,123.07746490003774,122.4925443000393,123.07746490003774,122.4925443000393,123.07746490003774,122.4925443000393,123.07746490003774,122.4925443000393,123.07746490003774,123.04302989999996,123.54373660002602,123.04302989999996,123.54373660002602,123.04302989999996,123.54373660002602,123.04302989999996,123.54373660002602,123.04302989999996,123.54373660002602,123.04302989999996,123.54373660002602,123.04302989999996,123.54373660002602,123.04302989999996,123.54373660002602,122.4925443000393,None,123.54373660002602,125.4812610000372,0.5700000000000003,125.49635070003569,None,126.2475962000317,None,,,,,,,[[1.93]],3.810000000000003,0.6923076923076923,11011,002,2024_Jan_02_1552,MFTM_A_new1021,2021.2.3,59.82947403709823,
,,,,,,,,stim/Instruction_adaptive.png,conditions/adaptive.xlsx,test,-0.6,-0.6,-0.6,0.6,0.6,left,L,,,,,0,1,1,1,0,13,13,71,,,,,,,,,,,,,,,,,,,,,,,,,,,,,,,,,,,,,,,,,,,,126.74903270002687,None,left,1,1.1405687000369653,127.2491061000037,128.2351941000088,127.2491061000037,127.73340890003601,127.2491061000037,127.73340890003601,127.2491061000037,127.73340890003601,127.2491061000037,127.73340890003601,127.2491061000037,127.73340890003601,127.70090890000574,128.20044060004875,127.70090890000574,128.20044060004875,127.70090890000574,128.20044060004875,127.70090890000574,128.20044060004875,127.70090890000574,128.20044060004875,127.70090890000574,128.20044060004875,127.70090890000574,128.20044060004875,127.70090890000574,128.20044060004875,127.2491061000037,None,128.20044060004875,130.15338820003672,0.4700000000000002,130.18679790000897,None,130.93825790000847,None,,,,,,,[1.95285714],4.020000000000003,0.7142857142857143,11011,002,2024_Jan_02_1552,MFTM_A_new1021,2021.2.3,59.82947403709823,
,,,,,,,,stim/Instruction_adaptive.png,conditions/adaptive.xlsx,test,0.6,0.6,0.6,-0.6,-0.6,right,R,,,,,0,1,1,1,0,14,14,74,,,,,,,,,,,,,,,,,,,,,,,,,,,,,,,,,,,,,,,,,,,,131.43940130004194,None,left,0,0.9700807000044733,131.93935730005614,132.85827580001205,131.93935730005614,132.35664320003707,131.93935730005614,132.35664320003707,131.93935730005614,132.35664320003707,131.93935730005614,132.35664320003707,131.93935730005614,132.35664320003707,132.34080430003814,132.84088470001006,132.34080430003814,132.84088470001006,132.34080430003814,132.84088470001006,132.34080430003814,132.84088470001006,132.34080430003814,132.84088470001006,132.34080430003814,132.84088470001006,132.34080430003814,132.84088470001006,132.34080430003814,132.84088470001006,131.93935730005614,None,132.84088470001006,134.81032840005355,0.41000000000000014,134.82684830005746,None,135.57838880002964,None,,,,,,,[1.962],3.490000000000003,0.6666666666666666,11011,002,2024_Jan_02_1552,MFTM_A_new1021,2021.2.3,59.82947403709823,
,,,,,,,,stim/Instruction_adaptive.png,conditions/adaptive.xlsx,test,-0.6,-0.6,-0.6,0.6,0.6,left,L,,,,,0,1,1,1,0,15,15,61,,,,,,,,,,,,,,,,,,,,,,,,,,,,,,,,,,,,,,,,,,,,136.0793079000432,None,left,1,1.6334465999971144,136.58045450004283,137.68130000005476,136.58045450004283,137.18150370003423,136.58045450004283,137.18150370003423,136.58045450004283,137.18150370003423,136.58045450004283,137.18150370003423,136.58045450004283,137.18150370003423,137.14716810005484,137.64860560005764,137.14716810005484,137.64860560005764,137.14716810005484,137.64860560005764,137.14716810005484,137.64860560005764,137.14716810005484,137.64860560005764,137.14716810005484,137.64860560005764,137.14716810005484,137.64860560005764,137.14716810005484,137.64860560005764,136.58045450004283,None,137.64860560005764,139.56741420004983,0.5900000000000003,139.5838726000511,None,140.33573870005785,None,,,,,,,[[1.91]],3.700000000000003,0.6875,11011,002,2024_Jan_02_1552,MFTM_A_new1021,2021.2.3,59.82947403709823,
,,,,,,,,stim/Instruction_adaptive.png,conditions/adaptive.xlsx,test,0.6,0.6,0.6,-0.6,-0.6,right,R,,,,,0,1,1,1,0,16,16,8,,,,,,,,,,,,,,,,,,,,,,,,,,,,,,,,,,,,,,,,,,,,140.83672860002844,None,right,1,0.9963800000259653,141.337143700046,142.3555332000251,141.337143700046,141.85396510001738,141.337143700046,141.85396510001738,141.337143700046,141.85396510001738,141.337143700046,141.85396510001738,141.337143700046,141.85396510001738,141.82072720001452,142.32153220003238,141.82072720001452,142.32153220003238,141.82072720001452,142.32153220003238,141.82072720001452,142.32153220003238,141.82072720001452,142.32153220003238,141.82072720001452,142.32153220003238,141.82072720001452,142.32153220003238,141.82072720001452,142.32153220003238,141.337143700046,None,142.32153220003238,144.29167830001097,0.5100000000000002,144.30823810002767,None,145.05895510001574,None,,,,,,,[1.96058824],3.8700000000000028,0.7058823529411765,11011,002,2024_Jan_02_1552,MFTM_A_new1021,2021.2.3,59.82947403709823,
,,,,,,,,stim/Instruction_adaptive.png,conditions/adaptive.xlsx,test,0.6,0.6,0.6,-0.6,-0.6,right,R,,,,,0,1,1,1,0,17,17,10,,,,,,,,,,,,,,,,,,,,,,,,,,,,,,,,,,,,,,,,,,,,145.56033270002808,None,right,1,1.161008800030686,146.06047630001558,147.01204880001023,146.06047630001558,146.51104180002585,146.06047630001558,146.51104180002585,146.06047630001558,146.51104180002585,146.06047630001558,146.51104180002585,146.06047630001558,146.51104180002585,146.49428670003545,146.9952775000129,146.49428670003545,146.9952775000129,146.49428670003545,146.9952775000129,146.49428670003545,146.9952775000129,146.49428670003545,146.9952775000129,146.49428670003545,146.9952775000129,146.49428670003545,146.9952775000129,146.49428670003545,146.9952775000129,146.06047630001558,None,146.9952775000129,148.96528300002683,0.4500000000000002,148.98123780003516,None,149.73241760005476,None,,,,,,,[1.96555556],4.010000000000003,0.7222222222222222,11011,002,2024_Jan_02_1552,MFTM_A_new1021,2021.2.3,59.82947403709823,
,,,,,,,,stim/Instruction_adaptive.png,conditions/adaptive.xlsx,test,-0.6,-0.6,-0.6,0.6,0.6,left,L,,,,,0,1,1,1,0,18,18,53,,,,,,,,,,,,,,,,,,,,,,,,,,,,,,,,,,,,,,,,,,,,150.2329929000116,None,left,1,1.223134099971503,150.73446310003055,151.65205240005162,150.73446310003055,151.15096360002644,150.73446310003055,151.15096360002644,150.73446310003055,151.15096360002644,150.73446310003055,151.15096360002644,150.73446310003055,151.15096360002644,151.13516010000603,151.63532560004387,151.13516010000603,151.63532560004387,151.13516010000603,151.63532560004387,151.13516010000603,151.63532560004387,151.13516010000603,151.63532560004387,151.13516010000603,151.63532560004387,151.13516010000603,151.63532560004387,151.13516010000603,151.63532560004387,150.73446310003055,None,151.61928740004078,153.605399400054,0.41000000000000014,153.62146900000516,None,154.3729475000291,None,,,,,,,[1.97210526],4.1300000000000034,0.7368421052631579,11011,002,2024_Jan_02_1552,MFTM_A_new1021,2021.2.3,59.82947403709823,
,,,,,,,,stim/Instruction_adaptive.png,conditions/adaptive.xlsx,test,0.6,0.6,0.6,-0.6,-0.6,right,R,,,,,0,1,1,1,0,19,19,0,,,,,,,,,,,,,,,,,,,,,,,,,,,,,,,,,,,,,,,,,,,,154.8735196000198,None,right,1,0.7594707999960519,155.37391320004826,156.25879380002152,155.37391320004826,155.75897070002975,155.37391320004826,155.75897070002975,155.37391320004826,155.75897070002975,155.37391320004826,155.75897070002975,155.37391320004826,155.75897070002975,155.74118150002323,156.24220940005034,155.74118150002323,156.24220940005034,155.74118150002323,156.24220940005034,155.74118150002323,156.24220940005034,155.74118150002323,156.24220940005034,155.74118150002323,156.24220940005034,155.74118150002323,156.24220940005034,155.74118150002323,156.24220940005034,155.37391320004826,None,156.24220940005034,158.22904130001552,0.3800000000000001,158.24567010003375,None,158.99710600002436,None,,,,,,,[1.9795],4.240000000000004,0.75,11011,002,2024_Jan_02_1552,MFTM_A_new1021,2021.2.3,59.82947403709823,
,,,,,,,,stim/Instruction_adaptive.png,conditions/adaptive.xlsx,test,0.6,0.6,0.6,-0.6,-0.6,right,R,,,,,0,1,1,1,0,20,20,28,,,,,,,,,,,,,,,,,,,,,,,,,,,,,,,,,,,,,,,,,,,,159.49693380005192,None,left,0,1.5911084999679588,159.9982901000185,160.849115500052,159.9982901000185,160.3480961000314,159.9982901000185,160.3480961000314,159.9982901000185,160.3480961000314,159.9982901000185,160.3480961000314,159.9982901000185,160.3480961000314,160.33154160005506,160.83227360004093,160.33154160005506,160.83227360004093,160.33154160005506,160.83227360004093,160.33154160005506,160.83227360004093,160.33154160005506,160.83227360004093,160.33154160005506,160.83227360004093,160.33154160005506,160.83227360004093,160.33154160005506,160.83227360004093,159.9982901000185,None,160.83227360004093,162.81881800002884,0.3500000000000001,162.8352219000226,None,163.58638390002307,None,,,,,,,[1.98761905],3.940000000000003,0.7142857142857143,11011,002,2024_Jan_02_1552,MFTM_A_new1021,2021.2.3,59.82947403709823,
,,,,,,,,stim/Instruction_adaptive.png,conditions/adaptive.xlsx,test,-0.6,-0.6,-0.6,0.6,0.6,left,L,,,,,0,1,1,1,0,21,21,85,,,,,,,,,,,,,,,,,,,,,,,,,,,,,,,,,,,,,,,,,,,,164.08699660003185,None,left,1,1.193636400043033,164.58775630005402,165.52324620005675,164.58775630005402,165.02181030000793,164.58775630005402,165.02181030000793,164.58775630005402,165.02181030000793,164.58775630005402,165.02181030000793,164.58775630005402,165.02181030000793,165.0050744000473,165.50715640001,165.0050744000473,165.50715640001,165.0050744000473,165.50715640001,165.0050744000473,165.50715640001,165.0050744000473,165.50715640001,165.0050744000473,165.50715640001,165.0050744000473,165.50715640001,165.0050744000473,165.50715640001,164.58775630005402,None,165.50715640001,None,0.43000000000000016,167.50886360002914,None,168.2598699000082,None,,,,,,,[1.99136364],4.050000000000003,0.7272727272727273,11011,002,2024_Jan_02_1552,MFTM_A_new1021,2021.2.3,59.82947403709823,
,,,,,,,,stim/Instruction_adaptive.png,conditions/adaptive.xlsx,test,-0.6,-0.6,-0.6,0.6,0.6,left,L,,,,,0,1,1,1,0,22,22,35,,,,,,,,,,,,,,,,,,,,,,,,,,,,,,,,,,,,,,,,,,,,168.7610831000493,None,left,1,0.9120642999769188,169.26167280005757,170.16301760001807,169.26167280005757,169.66253980004694,169.26167280005757,169.66253980004694,169.26167280005757,169.66253980004694,169.26167280005757,169.66253980004694,169.26167280005757,169.66253980004694,169.64604510000208,170.14673780003795,169.64604510000208,170.14673780003795,169.64604510000208,170.14673780003795,169.64604510000208,170.14673780003795,169.64604510000208,170.14673780003795,169.64604510000208,170.14673780003795,169.64604510000208,170.14673780003795,169.64604510000208,170.14673780003795,169.26167280005757,None,170.14673780003795,172.1490512000164,0.40000000000000013,172.1658193000476,None,172.91819140000734,None,,,,,,,[1.99608696],4.150000000000003,0.7391304347826086,11011,002,2024_Jan_02_1552,MFTM_A_new1021,2021.2.3,59.82947403709823,
,,,,,,,,stim/Instruction_adaptive.png,conditions/adaptive.xlsx,test,0.6,0.6,0.6,-0.6,-0.6,right,R,,,,,0,1,1,1,0,23,23,84,,,,,,,,,,,,,,,,,,,,,,,,,,,,,,,,,,,,,,,,,,,,173.4176505000214,None,right,1,1.5431524000014178,173.91814890003297,174.80290320003405,173.91814890003297,174.30323100002715,173.91814890003297,174.30323100002715,173.91814890003297,174.30323100002715,173.91814890003297,174.30323100002715,173.91814890003297,174.30323100002715,174.26879150001332,174.76958910003304,174.26879150001332,174.76958910003304,174.26879150001332,174.76958910003304,174.26879150001332,174.76958910003304,174.26879150001332,174.76958910003304,174.26879150001332,174.76958910003304,174.26879150001332,174.76958910003304,174.26879150001332,174.76958910003304,173.91814890003297,None,174.76958910003304,176.77352170000086,0.3700000000000001,176.7892692000023,None,177.54099500004668,None,,,,,,,[2.00166667],4.240000000000004,0.75,11011,002,2024_Jan_02_1552,MFTM_A_new1021,2021.2.3,59.82947403709823,
,,,,,,,,stim/Instruction_adaptive.png,conditions/adaptive.xlsx,test,-0.6,-0.6,-0.6,0.6,0.6,left,L,,,,,0,1,1,1,0,24,24,31,,,,,,,,,,,,,,,,,,,,,,,,,,,,,,,,,,,,,,,,,,,,178.04118480003672,None,left,1,0.9033885999815539,178.5419985000044,179.39299980003852,178.5419985000044,178.8935067000566,178.5419985000044,178.8935067000566,178.5419985000044,178.8935067000566,178.5419985000044,178.8935067000566,178.5419985000044,178.8935067000566,178.8762458000565,179.37636470003054,178.8762458000565,179.37636470003054,178.8762458000565,179.37636470003054,178.8762458000565,179.37636470003054,178.8762458000565,179.37636470003054,178.8762458000565,179.37636470003054,178.8762458000565,179.37636470003054,178.8762458000565,179.37636470003054,178.5419985000044,None,179.37636470003054,181.3960981000564,0.3500000000000001,181.4126413000049,None,182.16416510002455,None,,,,,,,[2.0076],4.320000000000004,0.76,11011,002,2024_Jan_02_1552,MFTM_A_new1021,2021.2.3,59.82947403709823,
,,,,,,,,stim/Instruction_adaptive.png,conditions/adaptive.xlsx,test,0.6,0.6,0.6,-0.6,-0.6,right,R,,,,,0,1,1,1,0,25,25,24,,,,,,,,,,,,,,,,,,,,,,,,,,,,,,,,,,,,,,,,,,,,182.66485270002158,None,right,1,1.128232899995055,183.16527840000344,183.9996593000251,183.16527840000344,183.4994215000188,183.16527840000344,183.4994215000188,183.16527840000344,183.4994215000188,183.16527840000344,183.4994215000188,183.16527840000344,183.4994215000188,183.48280360002536,183.9834198000026,183.48280360002536,183.9834198000026,183.48280360002536,183.9834198000026,183.48280360002536,183.9834198000026,183.48280360002536,183.9834198000026,183.48280360002536,183.9834198000026,183.48280360002536,183.9834198000026,183.48280360002536,183.9834198000026,183.16527840000344,None,183.9834198000026,186.0030178000452,0.33000000000000007,186.02032700000564,None,186.77171460003592,None,,,,,,,[2.01384615],4.390000000000003,0.7692307692307693,11011,002,2024_Jan_02_1552,MFTM_A_new1021,2021.2.3,59.82947403709823,
,,,,,,,,stim/Instruction_adaptive.png,conditions/adaptive.xlsx,test,-0.6,-0.6,-0.6,0.6,0.6,left,L,,,,,0,1,1,1,0,26,26,33,,,,,,,,,,,,,,,,,,,,,,,,,,,,,,,,,,,,,,,,,,,,187.27225300000282,None,None,0,0,187.77288310002768,188.59021120000398,187.77288310002768,188.08932020002976,187.77288310002768,188.08932020002976,187.77288310002768,188.08932020002976,187.77288310002768,188.08932020002976,187.77288310002768,188.08932020002976,188.07270670001162,188.57402770000044,188.07270670001162,188.57402770000044,188.07270670001162,188.57402770000044,188.07270670001162,188.57402770000044,188.07270670001162,188.57402770000044,188.07270670001162,188.57402770000044,188.07270670001162,188.57402770000044,188.07270670001162,188.57402770000044,187.77288310002768,None,188.57402770000044,None,0.31000000000000005,191.27713380003115,None,192.02857700001914,None,,,,,,,[[2.69]],4.190000000000003,0.7407407407407407,11011,002,2024_Jan_02_1552,MFTM_A_new1021,2021.2.3,59.82947403709823,
,,,,,,,,stim/Instruction_adaptive.png,conditions/adaptive.xlsx,test,0.6,0.6,0.6,-0.6,-0.6,right,R,,,,,0,1,1,1,0,27,27,18,,,,,,,,,,,,,,,,,,,,,,,,,,,,,,,,,,,,,,,,,,,,192.5291616000468,None,left,0,0.8317567000049166,193.02978190005524,193.89774470002158,193.02978190005524,193.39706380001735,193.02978190005524,193.39706380001735,193.02978190005524,193.39706380001735,193.02978190005524,193.39706380001735,193.02978190005524,193.39706380001735,193.3641622000141,193.86451120005222,193.3641622000141,193.86451120005222,193.3641622000141,193.86451120005222,193.3641622000141,193.86451120005222,193.3641622000141,193.86451120005222,193.3641622000141,193.86451120005222,193.3641622000141,193.86451120005222,193.3641622000141,193.86451120005222,193.02978190005524,None,193.86451120005222,195.9021179000265,0.3600000000000001,195.91689380002208,None,196.66871160001028,None,,,,,,,[2.02464286],3.960000000000003,0.7142857142857143,11011,002,2024_Jan_02_1552,MFTM_A_new1021,2021.2.3,59.82947403709823,
,,,,,,,,stim/Instruction_adaptive.png,conditions/adaptive.xlsx,test,-0.6,-0.6,-0.6,0.6,0.6,left,L,,,,,0,1,1,1,0,28,28,13,,,,,,,,,,,,,,,,,,,,,,,,,,,,,,,,,,,,,,,,,,,,197.16944830003195,None,left,1,0.9751121000153944,197.67021280003246,198.60490790003678,197.67021280003246,198.10414990002755,197.67021280003246,198.10414990002755,197.67021280003246,198.10414990002755,197.67021280003246,198.10414990002755,197.67021280003246,198.10414990002755,198.0708059000317,198.57143450004514,198.0708059000317,198.57143450004514,198.0708059000317,198.57143450004514,198.0708059000317,198.57143450004514,198.0708059000317,198.57143450004514,198.0708059000317,198.57143450004514,198.0708059000317,198.57143450004514,198.0708059000317,198.57143450004514,197.67021280003246,None,198.57143450004514,200.60847990005277,0.42000000000000015,200.62455710000359,None,201.37587590003386,None,,,,,,,[2.02655172],4.040000000000003,0.7241379310344828,11011,002,2024_Jan_02_1552,MFTM_A_new1021,2021.2.3,59.82947403709823,
,,,,,,,,stim/Instruction_adaptive.png,conditions/adaptive.xlsx,test,-0.6,-0.6,-0.6,0.6,0.6,left,L,,,,,0,1,1,1,0,29,29,3,,,,,,,,,,,,,,,,,,,,,,,,,,,,,,,,,,,,,,,,,,,,201.8764843000099,None,right,0,0.9883793999906629,202.3772597000352,203.27936530002626,202.3772597000352,202.7791740000248,202.3772597000352,202.7791740000248,202.3772597000352,202.7791740000248,202.3772597000352,202.7791740000248,202.3772597000352,202.7791740000248,202.76103110000258,203.26275950000854,202.76103110000258,203.26275950000854,202.76103110000258,203.26275950000854,202.76103110000258,203.26275950000854,202.76103110000258,203.26275950000854,202.76103110000258,203.26275950000854,202.76103110000258,203.26275950000854,202.76103110000258,203.26275950000854,202.3772597000352,None,203.26275950000854,205.29785750003066,0.40000000000000013,205.31460260000313,None,206.0659856000566,None,,,,,,,[2.029],3.810000000000003,0.7,11011,002,2024_Jan_02_1552,MFTM_A_new1021,2021.2.3,59.82947403709823,
,,,,,,,,stim/Instruction_adaptive.png,conditions/adaptive.xlsx,test,0.6,0.6,0.6,-0.6,-0.6,right,R,,,,,0,1,1,1,0,30,30,88,,,,,,,,,,,,,,,,,,,,,,,,,,,,,,,,,,,,,,,,,,,,206.5665667000576,None,right,1,1.9618065999820828,207.0677506000502,208.0521181000513,207.0677506000502,207.55225280002924,207.0677506000502,207.55225280002924,207.0677506000502,207.55225280002924,207.0677506000502,207.55225280002924,207.0677506000502,207.55225280002924,207.51877570000943,208.01889070001198,207.51877570000943,208.01889070001198,207.51877570000943,208.01889070001198,207.51877570000943,208.01889070001198,207.51877570000943,208.01889070001198,207.51877570000943,208.01889070001198,207.51877570000943,208.01889070001198,207.51877570000943,208.01889070001198,207.0677506000502,None,208.01889070001198,210.0559540000395,0.4700000000000002,210.0718752000248,None,210.82453290000558,None,,,,,,,[2.02903226],3.900000000000003,0.7096774193548387,11011,002,2024_Jan_02_1552,MFTM_A_new1021,2021.2.3,59.82947403709823,
,,,,,,,,stim/Instruction_adaptive.png,conditions/adaptive.xlsx,test,0.6,0.6,0.6,-0.6,-0.6,right,R,,,,,0,1,1,1,0,31,31,38,,,,,,,,,,,,,,,,,,,,,,,,,,,,,,,,,,,,,,,,,,,,211.32407730002888,None,right,1,1.2930853000143543,211.8245815000264,212.77608760003932,211.8245815000264,212.27605620003305,211.8245815000264,212.27605620003305,211.8245815000264,212.27605620003305,211.8245815000264,212.27605620003305,211.8245815000264,212.27605620003305,212.24268860003212,212.7425839000498,212.24268860003212,212.7425839000498,212.24268860003212,212.7425839000498,212.24268860003212,212.7425839000498,212.24268860003212,212.7425839000498,212.24268860003212,212.7425839000498,212.24268860003212,212.7425839000498,212.24268860003212,212.7425839000498,211.8245815000264,None,212.7425839000498,214.7796076000086,0.44000000000000017,214.7953868000186,None,215.54643450002186,None,,,,,,,[2.03],3.9700000000000033,0.71875,11011,002,2024_Jan_02_1552,MFTM_A_new1021,2021.2.3,59.82947403709823,
,,,,,,,,stim/Instruction_adaptive.png,conditions/adaptive.xlsx,test,-0.6,-0.6,-0.6,0.6,0.6,left,L,,,,,0,1,1,1,0,32,32,43,,,,,,,,,,,,,,,,,,,,,,,,,,,,,,,,,,,,,,,,,,,,216.0481319000246,None,left,1,0.8500541999819688,216.54810480005108,217.48345130000962,216.54810480005108,216.98215450003045,216.54810480005108,216.98215450003045,216.54810480005108,216.98215450003045,216.54810480005108,216.98215450003045,216.54810480005108,216.98215450003045,216.9492728000041,217.44957880000584,216.9492728000041,217.44957880000584,216.9492728000041,217.44957880000584,216.9492728000041,217.44957880000584,216.9492728000041,217.44957880000584,216.9492728000041,217.44957880000584,216.9492728000041,217.44957880000584,216.9492728000041,217.44957880000584,216.54810480005108,None,217.44957880000584,219.48651860002428,0.42000000000000015,219.50244540005224,None,220.25398730003508,None,,,,,,,[2.03151515],4.040000000000003,0.7272727272727273,11011,002,2024_Jan_02_1552,MFTM_A_new1021,2021.2.3,59.82947403709823,
,,,,,,,,stim/Instruction_adaptive.png,conditions/adaptive.xlsx,test,-0.6,-0.6,-0.6,0.6,0.6,left,L,,,,,0,1,1,1,0,33,33,59,,,,,,,,,,,,,,,,,,,,,,,,,,,,,,,,,,,,,,,,,,,,220.75489890004974,None,right,0,1.102221200009808,221.25520720001077,222.15643640002236,221.25520720001077,221.65568970004097,221.25520720001077,221.65568970004097,221.25520720001077,221.65568970004097,221.25520720001077,221.65568970004097,221.25520720001077,221.65568970004097,221.63910280005075,222.1404237000388,221.63910280005075,222.1404237000388,221.63910280005075,222.1404237000388,221.63910280005075,222.1404237000388,221.63910280005075,222.1404237000388,221.63910280005075,222.1404237000388,221.63910280005075,222.1404237000388,221.63910280005075,222.1404237000388,221.25520720001077,None,222.1404237000388,224.1759704000433,0.40000000000000013,224.19275980000384,None,224.944552400033,None,,,,,,,[2.03352941],3.850000000000003,0.7058823529411765,11011,002,2024_Jan_02_1552,MFTM_A_new1021,2021.2.3,59.82947403709823,
,,,,,,,,stim/Instruction_adaptive.png,conditions/adaptive.xlsx,test,-0.6,-0.6,-0.6,0.6,0.6,left,L,,,,,0,1,1,1,0,34,34,17,,,,,,,,,,,,,,,,,,,,,,,,,,,,,,,,,,,,,,,,,,,,225.44458390004002,None,left,1,0.844131899997592,225.9454996000277,226.9133233000175,225.9454996000277,226.41282170003979,225.9454996000277,226.41282170003979,225.9454996000277,226.41282170003979,225.9454996000277,226.41282170003979,225.9454996000277,226.41282170003979,226.37927310005762,226.88076450000517,226.37927310005762,226.88076450000517,226.37927310005762,226.88076450000517,226.37927310005762,226.88076450000517,226.37927310005762,226.88076450000517,226.37927310005762,226.88076450000517,226.37927310005762,226.88076450000517,226.37927310005762,226.88076450000517,225.9454996000277,None,226.88076450000517,228.91707220004173,0.4600000000000002,228.95092850003857,None,229.70094670000253,None,,,,,,,[2.03371429],3.920000000000003,0.7142857142857143,11011,002,2024_Jan_02_1552,MFTM_A_new1021,2021.2.3,59.82947403709823,
,,,,,,,,stim/Instruction_adaptive.png,conditions/adaptive.xlsx,test,0.6,0.6,0.6,-0.6,-0.6,right,R,,,,,0,1,1,1,0,35,35,96,,,,,,,,,,,,,,,,,,,,,,,,,,,,,,,,,,,,,,,,,,,,230.2014156000223,None,right,1,1.1909673999762163,230.70261700003175,231.63720890000695,230.70261700003175,231.13616850000108,230.70261700003175,231.13616850000108,230.70261700003175,231.13616850000108,230.70261700003175,231.13616850000108,230.70261700003175,231.13616850000108,231.12105250003515,231.62067710002884,231.12105250003515,231.62067710002884,231.12105250003515,231.62067710002884,231.12105250003515,231.62067710002884,231.12105250003515,231.62067710002884,231.12105250003515,231.62067710002884,231.12105250003515,231.62067710002884,231.12105250003515,231.62067710002884,230.70261700003175,None,231.62067710002884,233.65683300001547,0.43000000000000016,233.6735684000305,None,234.4246328000445,None,,,,,,,[2.03472222],3.980000000000003,0.7222222222222222,11011,002,2024_Jan_02_1552,MFTM_A_new1021,2021.2.3,59.82947403709823,
,,,,,,,,stim/Instruction_adaptive.png,conditions/adaptive.xlsx,test,0.6,0.6,0.6,-0.6,-0.6,right,R,,,,,0,1,1,1,0,36,36,16,,,,,,,,,,,,,,,,,,,,,,,,,,,,,,,,,,,,,,,,,,,,234.92599980003433,None,left,0,0.8275939000304788,235.42619900003774,236.36067620001268,235.42619900003774,235.86008300003596,235.42619900003774,235.86008300003596,235.42619900003774,235.86008300003596,235.42619900003774,235.86008300003596,235.42619900003774,235.86008300003596,235.82761160004884,236.32813220005482,235.82761160004884,236.32813220005482,235.82761160004884,236.32813220005482,235.82761160004884,236.32813220005482,235.82761160004884,236.32813220005482,235.82761160004884,236.32813220005482,235.82761160004884,236.32813220005482,235.82761160004884,236.32813220005482,235.42619900003774,None,236.32813220005482,238.3642908000038,0.42000000000000015,238.39714710001135,None,239.14893570001004,None,,,,,,,[2.03594595],3.7900000000000027,0.7027027027027027,11011,002,2024_Jan_02_1552,MFTM_A_new1021,2021.2.3,59.82947403709823,
,,,,,,,,stim/Instruction_adaptive.png,conditions/adaptive.xlsx,test,0.6,0.6,0.6,-0.6,-0.6,right,R,,,,,0,1,1,1,0,37,37,82,,,,,,,,,,,,,,,,,,,,,,,,,,,,,,,,,,,,,,,,,,,,239.648943600012,None,left,0,1.1915913000120781,240.1497870000312,241.13465680001536,240.1497870000312,240.63383460004115,240.1497870000312,240.63383460004115,240.1497870000312,240.63383460004115,240.1497870000312,240.63383460004115,240.1497870000312,240.63383460004115,240.6172592000221,241.11860180000076,240.6172592000221,241.11860180000076,240.6172592000221,241.11860180000076,240.6172592000221,241.11860180000076,240.6172592000221,241.11860180000076,240.6172592000221,241.11860180000076,240.6172592000221,241.11860180000076,240.6172592000221,241.11860180000076,240.1497870000312,None,241.11860180000076,243.13808080001036,0.4800000000000002,243.15418130002217,None,243.9054498000187,None,,,,,,,[[2.02]],3.5800000000000027,0.6842105263157895,11011,002,2024_Jan_02_1552,MFTM_A_new1021,2021.2.3,59.82947403709823,
,,,,,,,,stim/Instruction_adaptive.png,conditions/adaptive.xlsx,test,0.6,0.6,0.6,-0.6,-0.6,right,R,,,,,0,1,1,1,0,38,38,68,,,,,,,,,,,,,,,,,,,,,,,,,,,,,,,,,,,,,,,,,,,,244.40635650005424,None,left,0,1.2668924999888986,244.9066404000041,245.95843910000985,244.9066404000041,245.4587029000395,244.9066404000041,245.4587029000395,244.9066404000041,245.4587029000395,244.9066404000041,245.4587029000395,244.9066404000041,245.4587029000395,245.44087940000463,245.94203850004124,245.44087940000463,245.94203850004124,245.44087940000463,245.94203850004124,245.44087940000463,245.94203850004124,245.44087940000463,245.94203850004124,245.44087940000463,245.94203850004124,245.44087940000463,245.94203850004124,245.44087940000463,245.94203850004124,244.9066404000041,None,245.94203850004124,247.89485380001133,0.5500000000000003,247.9112680000253,None,248.66357940004673,None,,,,,,,[[1.95]],3.3400000000000025,0.6666666666666666,11011,002,2024_Jan_02_1552,MFTM_A_new1021,2021.2.3,59.82947403709823,
,,,,,,,,stim/Instruction_adaptive.png,conditions/adaptive.xlsx,test,0.6,0.6,0.6,-0.6,-0.6,right,R,,,,,0,1,1,1,0,39,39,26,,,,,,,,,,,,,,,,,,,,,,,,,,,,,,,,,,,,,,,,,,,,249.16311150003457,None,right,1,1.5978993000462651,249.66364290000638,250.8171651000157,249.66364290000638,250.31498140003532,249.66364290000638,250.31498140003532,249.66364290000638,250.31498140003532,249.66364290000638,250.31498140003532,249.66364290000638,250.31498140003532,250.29893040005118,250.80019700003322,250.29893040005118,250.80019700003322,250.29893040005118,250.80019700003322,250.29893040005118,250.80019700003322,250.29893040005118,250.80019700003322,250.29893040005118,250.80019700003322,250.29893040005118,250.80019700003322,250.29893040005118,250.80019700003322,249.66364290000638,None,250.80019700003322,252.65233530005207,0.6500000000000004,252.66823590005515,None,253.41939940000884,None,,,,,,,[[1.85]],3.4300000000000024,0.675,11011,002,2024_Jan_02_1552,MFTM_A_new1021,2021.2.3,59.82947403709823,
,,,,,,,,stim/Instruction_adaptive.png,conditions/adaptive.xlsx,test,-0.6,-0.6,-0.6,0.6,0.6,left,L,,,,,0,1,1,1,0,40,40,45,,,,,,,,,,,,,,,,,,,,,,,,,,,,,,,,,,,,,,,,,,,,253.9208779000328,None,right,0,1.417363100044895,254.4207384000183,255.53896890004398,254.4207384000183,255.03877630003262,254.4207384000183,255.03877630003262,254.4207384000183,255.03877630003262,254.4207384000183,255.03877630003262,254.4207384000183,255.03877630003262,255.00519530003658,255.5062431000406,255.00519530003658,255.5062431000406,255.00519530003658,255.5062431000406,255.00519530003658,255.5062431000406,255.00519530003658,255.5062431000406,255.00519530003658,255.5062431000406,255.00519530003658,255.5062431000406,255.00519530003658,255.5062431000406,254.4207384000183,None,255.5062431000406,257.4099775000359,0.6100000000000003,257.42515110003296,None,258.17650810000487,None,,,,,,,[[1.89]],3.1800000000000024,0.6585365853658537,11011,002,2024_Jan_02_1552,MFTM_A_new1021,2021.2.3,59.82947403709823,
,,,,,,,,stim/Instruction_adaptive.png,conditions/adaptive.xlsx,test,-0.6,-0.6,-0.6,0.6,0.6,left,L,,,,,0,1,1,1,0,41,41,83,,,,,,,,,,,,,,,,,,,,,,,,,,,,,,,,,,,,,,,,,,,,258.6782728000544,None,left,1,1.5487918999860995,259.17773690004833,260.4134506000555,259.17773690004833,259.9123164000339,259.17773690004833,259.9123164000339,259.17773690004833,259.9123164000339,259.17773690004833,259.9123164000339,259.17773690004833,259.9123164000339,259.89568940002937,260.39691090001725,259.89568940002937,260.39691090001725,259.89568940002937,260.39691090001725,259.89568940002937,260.39691090001725,259.89568940002937,260.39691090001725,259.89568940002937,260.39691090001725,259.89568940002937,260.39691090001725,259.89568940002937,260.39691090001725,259.17773690004833,None,260.39691090001725,None,0.7300000000000004,262.1823105000076,None,262.9334897000226,None,,,,,,,[[1.77]],3.2800000000000025,0.6666666666666666,11011,002,2024_Jan_02_1552,MFTM_A_new1021,2021.2.3,59.82947403709823,
,,,,,,,,stim/Instruction_adaptive.png,conditions/adaptive.xlsx,test,-0.6,-0.6,-0.6,0.6,0.6,left,L,,,,,0,1,1,1,0,42,42,81,,,,,,,,,,,,,,,,,,,,,,,,,,,,,,,,,,,,,,,,,,,,263.4356111000525,None,right,0,1.5101921000168659,263.93532240000786,265.12028430000646,263.93532240000786,264.6198372000363,263.93532240000786,264.6198372000363,263.93532240000786,264.6198372000363,263.93532240000786,264.6198372000363,263.93532240000786,264.6198372000363,264.60265060001984,265.1040170000051,264.60265060001984,265.1040170000051,264.60265060001984,265.1040170000051,264.60265060001984,265.1040170000051,264.60265060001984,265.1040170000051,264.60265060001984,265.1040170000051,264.60265060001984,265.1040170000051,264.60265060001984,265.1040170000051,263.93532240000786,None,265.1040170000051,266.92342520004604,0.6800000000000004,266.9392814000021,None,267.69069930003025,None,,,,,,,[[1.82]],3.0200000000000022,0.6511627906976745,11011,002,2024_Jan_02_1552,MFTM_A_new1021,2021.2.3,59.82947403709823,
,,,,,,,,stim/Instruction_adaptive.png,conditions/adaptive.xlsx,test,0.6,0.6,0.6,-0.6,-0.6,right,R,,,,,0,1,1,1,0,43,43,76,,,,,,,,,,,,,,,,,,,,,,,,,,,,,,,,,,,,,,,,,,,,268.1923731000279,None,right,1,1.5691090999753214,268.69284410000546,270.0114672000054,268.69284410000546,269.50980900001014,268.69284410000546,269.50980900001014,268.69284410000546,269.50980900001014,268.69284410000546,269.50980900001014,268.69284410000546,269.50980900001014,269.4933888000087,269.9939411000232,269.4933888000087,269.9939411000232,269.4933888000087,269.9939411000232,269.4933888000087,269.9939411000232,269.4933888000087,269.9939411000232,269.4933888000087,269.9939411000232,269.4933888000087,269.9939411000232,269.4933888000087,269.9939411000232,268.69284410000546,None,269.9939411000232,None,0.8100000000000005,271.69660810002824,None,272.4476124000503,None,,,,,,,[[1.69]],3.110000000000002,0.6590909090909091,11011,002,2024_Jan_02_1552,MFTM_A_new1021,2021.2.3,59.82947403709823,
,,,,,,,,stim/Instruction_adaptive.png,conditions/adaptive.xlsx,test,-0.6,-0.6,-0.6,0.6,0.6,left,L,,,,,0,1,1,1,0,44,44,19,,,,,,,,,,,,,,,,,,,,,,,,,,,,,,,,,,,,,,,,,,,,272.94932600000175,None,right,0,1.7169402000145055,273.4491298000212,274.7183570000343,273.4491298000212,274.2169875000254,273.4491298000212,274.2169875000254,273.4491298000212,274.2169875000254,273.4491298000212,274.2169875000254,273.4491298000212,274.2169875000254,274.2002734000562,274.7010122000356,274.2002734000562,274.7010122000356,274.2002734000562,274.7010122000356,274.2002734000562,274.7010122000356,274.2002734000562,274.7010122000356,274.2002734000562,274.7010122000356,274.2002734000562,274.7010122000356,274.2002734000562,274.7010122000356,273.4491298000212,None,274.7010122000356,None,0.7600000000000005,276.45339530002093,None,277.20578640000895,None,,,,,,,[[1.74]],2.840000000000002,0.6444444444444445,11011,002,2024_Jan_02_1552,MFTM_A_new1021,2021.2.3,59.82947403709823,
,,,,,,,,stim/Instruction_adaptive.png,conditions/adaptive.xlsx,test,0.6,0.6,0.6,-0.6,-0.6,right,R,,,,,0,1,1,1,0,45,45,40,,,,,,,,,,,,,,,,,,,,,,,,,,,,,,,,,,,,,,,,,,,,277.705391000025,None,left,0,1.9429153999662958,278.206615800038,279.641575000016,278.206615800038,279.14092550001806,278.206615800038,279.14092550001806,278.206615800038,279.14092550001806,278.206615800038,279.14092550001806,278.206615800038,279.14092550001806,279.107546400046,279.6081372000044,279.107546400046,279.6081372000044,279.107546400046,279.6081372000044,279.107546400046,279.6081372000044,279.107546400046,279.6081372000044,279.107546400046,279.6081372000044,279.107546400046,279.6081372000044,279.107546400046,279.6081372000044,278.206615800038,None,279.6081372000044,281.19513590005226,0.9200000000000006,281.21048870001687,None,281.9624138000072,None,,,,,,,[[1.58]],2.5100000000000016,0.6304347826086957,11011,002,2024_Jan_02_1552,MFTM_A_new1021,2021.2.3,59.82947403709823,
,,,,,,,,stim/Instruction_adaptive.png,conditions/adaptive.xlsx,test,-0.6,-0.6,-0.6,0.6,0.6,left,L,,,,,0,1,1,1,0,46,46,57,,,,,,,,,,,,,,,,,,,,,,,,,,,,,,,,,,,,,,,,,,,,282.463118500018,None,left,1,1.8662870000116527,282.96323380002286,284.61571030004416,282.96323380002286,284.11501540004974,282.96323380002286,284.11501540004974,282.96323380002286,284.11501540004974,282.96323380002286,284.11501540004974,282.96323380002286,284.11501540004974,284.0991734000272,284.5989387000445,284.0991734000272,284.5989387000445,284.0991734000272,284.5989387000445,284.0991734000272,284.5989387000445,284.0991734000272,284.5989387000445,284.0991734000272,284.5989387000445,284.0991734000272,284.5989387000445,284.0991734000272,284.5989387000445,282.96323380002286,None,284.5989387000445,285.95105820003664,1.1500000000000008,285.9674791000434,None,286.7195526000578,None,,,,,,,[[1.35]],2.640000000000002,0.6382978723404256,11011,002,2024_Jan_02_1552,MFTM_A_new1021,2021.2.3,59.82947403709823,
,,,,,,,,stim/Instruction_adaptive.png,conditions/adaptive.xlsx,test,-0.6,-0.6,-0.6,0.6,0.6,left,L,,,,,0,1,1,1,0,47,47,89,,,,,,,,,,,,,,,,,,,,,,,,,,,,,,,,,,,,,,,,,,,,287.22027450002497,None,left,1,1.3413055000128224,287.7204019000055,289.2901305000414,287.7204019000055,288.78847920004046,287.7204019000055,288.78847920004046,287.7204019000055,288.78847920004046,287.7204019000055,288.78847920004046,287.7204019000055,288.78847920004046,288.77226300002076,289.27233000000706,288.77226300002076,289.27233000000706,288.77226300002076,289.27233000000706,288.77226300002076,289.27233000000706,288.77226300002076,289.27233000000706,288.77226300002076,289.27233000000706,288.77226300002076,289.27233000000706,288.77226300002076,289.27233000000706,287.7204019000055,None,289.2558667000267,290.7086100000306,1.0600000000000007,290.72447140002623,None,291.47727930004476,None,,,,,,,[[1.44]],2.7500000000000018,0.6458333333333334,11011,002,2024_Jan_02_1552,MFTM_A_new1021,2021.2.3,59.82947403709823,
,,,,,,,,stim/Instruction_adaptive.png,conditions/adaptive.xlsx,test,0.6,0.6,0.6,-0.6,-0.6,right,R,,,,,0,1,1,1,0,48,48,14,,,,,,,,,,,,,,,,,,,,,,,,,,,,,,,,,,,,,,,,,,,,291.97660710004857,None,left,0,1.7846438999986276,292.4772054000059,293.96301000000676,292.4772054000059,293.46206180000445,292.4772054000059,293.46206180000445,292.4772054000059,293.46206180000445,292.4772054000059,293.46206180000445,292.4772054000059,293.46206180000445,293.44620470004156,293.94640570000047,293.44620470004156,293.94640570000047,293.44620470004156,293.94640570000047,293.44620470004156,293.94640570000047,293.44620470004156,293.94640570000047,293.44620470004156,293.94640570000047,293.44620470004156,293.94640570000047,293.44620470004156,293.94640570000047,292.4772054000059,None,293.94640570000047,295.46514370001387,0.9800000000000006,295.48175610002363,None,296.23369420005474,None,,,,,,,[[1.52]],2.4400000000000017,0.6326530612244898,11011,002,2024_Jan_02_1552,MFTM_A_new1021,2021.2.3,59.82947403709823,
,,,,,,,,stim/Instruction_adaptive.png,conditions/adaptive.xlsx,test,0.6,0.6,0.6,-0.6,-0.6,right,R,,,,,0,1,1,1,0,49,49,72,,,,,,,,,,,,,,,,,,,,,,,,,,,,,,,,,,,,,,,,,,,,296.7336278000148,None,left,0,1.8186874000239186,297.23502640001243,298.95382520003477,297.23502640001243,298.4526282000006,297.23502640001243,298.4526282000006,297.23502640001243,298.4526282000006,297.23502640001243,298.4526282000006,297.23502640001243,298.4526282000006,298.41936240001814,298.9210091000423,298.41936240001814,298.9210091000423,298.41936240001814,298.9210091000423,298.41936240001814,298.9210091000423,298.41936240001814,298.9210091000423,298.41936240001814,298.9210091000423,298.41936240001814,298.9210091000423,298.41936240001814,298.9210091000423,297.23502640001243,None,298.9210091000423,300.22264530003304,1.2100000000000009,300.23885960003827,None,300.9906934000319,None,,,,,,,[[1.29]],2.0500000000000016,0.62,11011,002,2024_Jan_02_1552,MFTM_A_new1021,2021.2.3,59.82947403709823,
,,,,,,,,stim/Instruction_adaptive.png,conditions/adaptive.xlsx,test,0.6,0.6,0.6,-0.6,-0.6,right,R,,,,,0,1,1,1,0,50,50,94,,,,,,,,,,,,,,,,,,,,,,,,,,,,,,,,,,,,,,,,,,,,301.4906916000182,None,right,1,1.4939525999943726,301.99161510000704,304.094993500039,301.99161510000704,303.5948566000443,301.99161510000704,303.5948566000443,301.99161510000704,303.5948566000443,301.99161510000704,303.5948566000443,301.99161510000704,303.5948566000443,303.560448800039,304.06168960005743,303.560448800039,304.06168960005743,303.560448800039,304.06168960005743,303.560448800039,304.06168960005743,303.560448800039,304.06168960005743,303.560448800039,304.06168960005743,303.560448800039,304.06168960005743,303.560448800039,304.06168960005743,301.99161510000704,None,304.06168960005743,304.9797290000133,1.5900000000000012,304.9958858000464,None,305.74701180000557,None,,,,,,,[[0.91]],2.2100000000000017,0.6274509803921569,11011,002,2024_Jan_02_1552,MFTM_A_new1021,2021.2.3,59.82947403709823,
,,,,,,,,stim/Instruction_adaptive.png,conditions/adaptive.xlsx,test,-0.6,-0.6,-0.6,0.6,0.6,left,L,,,,,0,1,1,1,0,51,51,77,,,,,,,,,,,,,,,,,,,,,,,,,,,,,,,,,,,,,,,,,,,,306.2480604000157,None,left,1,2.440108400012832,306.74959340004716,308.6854775000247,306.74959340004716,308.1839726000326,306.74959340004716,308.1839726000326,306.74959340004716,308.1839726000326,306.74959340004716,308.1839726000326,306.74959340004716,308.1839726000326,308.1517448000377,308.65146190003725,308.1517448000377,308.65146190003725,308.1517448000377,308.65146190003725,308.1517448000377,308.65146190003725,308.1517448000377,308.65146190003725,308.1517448000377,308.65146190003725,308.1517448000377,308.65146190003725,308.1517448000377,308.65146190003725,306.74959340004716,None,308.65146190003725,309.7365416000248,1.420000000000001,309.7529570000479,None,310.5058209000272,None,,,,,,,[[1.08]],2.330000000000002,0.6346153846153846,11011,002,2024_Jan_02_1552,MFTM_A_new1021,2021.2.3,59.82947403709823,
,,,,,,,,stim/Instruction_adaptive.png,conditions/adaptive.xlsx,test,-0.6,-0.6,-0.6,0.6,0.6,left,L,,,,,0,1,1,1,0,52,52,73,,,,,,,,,,,,,,,,,,,,,,,,,,,,,,,,,,,,,,,,,,,,311.02211250003893,None,left,1,2.3075081999995746,311.52223820000654,313.34206610004185,311.52223820000654,312.8408274000394,311.52223820000654,312.8408274000394,311.52223820000654,312.8408274000394,311.52223820000654,312.8408274000394,311.52223820000654,312.8408274000394,312.80738870002097,313.3081809000578,312.80738870002097,313.3081809000578,312.80738870002097,313.3081809000578,312.80738870002097,313.3081809000578,312.80738870002097,313.3081809000578,312.80738870002097,313.3081809000578,312.80738870002097,313.3081809000578,312.80738870002097,313.3081809000578,311.52223820000654,None,313.3081809000578,314.51022630004445,1.310000000000001,314.52670720004244,None,315.27776640001684,None,,,,,,,[[1.19]],2.4400000000000017,0.6415094339622641,11011,002,2024_Jan_02_1552,MFTM_A_new1021,2021.2.3,59.82947403709823,
,,,,,,,,stim/Instruction_adaptive.png,conditions/adaptive.xlsx,test,-0.6,-0.6,-0.6,0.6,0.6,left,L,,,,,0,1,1,1,0,53,53,97,,,,,,,,,,,,,,,,,,,,,,,,,,,,,,,,,,,,,,,,,,,,315.7785098000313,None,left,1,1.4933052000124007,316.2803458000417,317.9991917000152,316.2803458000417,317.49775800004136,316.2803458000417,317.49775800004136,316.2803458000417,317.49775800004136,316.2803458000417,317.49775800004136,316.2803458000417,317.49775800004136,317.46467800001847,317.96520150004653,317.46467800001847,317.96520150004653,317.46467800001847,317.96520150004653,317.46467800001847,317.96520150004653,317.46467800001847,317.96520150004653,317.46467800001847,317.96520150004653,317.46467800001847,317.96520150004653,317.46467800001847,317.96520150004653,316.2803458000417,None,317.96520150004653,319.2671285000397,1.2100000000000009,319.2837894000113,None,320.03513670002576,None,,,,,,,[[1.29]],2.540000000000002,0.6481481481481481,11011,002,2024_Jan_02_1552,MFTM_A_new1021,2021.2.3,59.82947403709823,
,,,,,,,,stim/Instruction_adaptive.png,conditions/adaptive.xlsx,test,-0.6,-0.6,-0.6,0.6,0.6,left,L,,,,,0,1,1,1,0,54,54,47,,,,,,,,,,,,,,,,,,,,,,,,,,,,,,,,,,,,,,,,,,,,320.5357542000129,None,right,0,1.7931583999888971,321.0364142000326,322.67192350002006,321.0364142000326,322.1712484000018,321.0364142000326,322.1712484000018,321.0364142000326,322.1712484000018,321.0364142000326,322.1712484000018,321.0364142000326,322.1712484000018,322.15474820003146,322.65546160005033,322.15474820003146,322.65546160005033,322.15474820003146,322.65546160005033,322.15474820003146,322.65546160005033,322.15474820003146,322.65546160005033,322.15474820003146,322.65546160005033,322.15474820003146,322.65546160005033,322.15474820003146,322.65546160005033,321.0364142000326,None,322.65546160005033,324.0244251000113,1.1300000000000008,324.0408025000361,None,324.7919931000215,None,,,,,,,[[1.37]],2.2700000000000014,0.6363636363636364,11011,002,2024_Jan_02_1552,MFTM_A_new1021,2021.2.3,59.82947403709823,
,,,,,,,,stim/Instruction_adaptive.png,conditions/adaptive.xlsx,test,-0.6,-0.6,-0.6,0.6,0.6,left,L,,,,,0,1,1,1,0,55,55,29,,,,,,,,,,,,,,,,,,,,,,,,,,,,,,,,,,,,,,,,,,,,325.29310500004794,None,left,1,1.828692399954889,325.7932337000384,327.6634263000451,325.7932337000384,327.1621850000229,325.7932337000384,327.1621850000229,325.7932337000384,327.1621850000229,325.7932337000384,327.1621850000229,325.7932337000384,327.1621850000229,327.14582120004343,327.64612380001927,327.14582120004343,327.64612380001927,327.14582120004343,327.64612380001927,327.14582120004343,327.64612380001927,327.14582120004343,327.64612380001927,327.14582120004343,327.64612380001927,327.14582120004343,327.64612380001927,327.14582120004343,327.64612380001927,325.7932337000384,None,327.62964660004945,328.78126690001227,1.360000000000001,328.79778510000324,None,329.5497675000224,None,,,,,,,[[1.14]],2.370000000000002,0.6428571428571429,11011,002,2024_Jan_02_1552,MFTM_A_new1021,2021.2.3,59.82947403709823,
,,,,,,,,stim/Instruction_adaptive.png,conditions/adaptive.xlsx,test,0.6,0.6,0.6,-0.6,-0.6,right,R,,,,,0,1,1,1,0,56,56,2,,,,,,,,,,,,,,,,,,,,,,,,,,,,,,,,,,,,,,,,,,,,330.05043570004636,None,left,0,1.6073333999956958,330.5502692000009,332.319884000055,330.5502692000009,331.82022180000786,330.5502692000009,331.82022180000786,330.5502692000009,331.82022180000786,330.5502692000009,331.82022180000786,330.5502692000009,331.82022180000786,331.8025895000319,332.3030739000533,331.8025895000319,332.3030739000533,331.8025895000319,332.3030739000533,331.8025895000319,332.3030739000533,331.8025895000319,332.3030739000533,331.8025895000319,332.3030739000533,331.8025895000319,332.3030739000533,331.8025895000319,332.3030739000533,330.5502692000009,None,332.3030739000533,333.53884820005624,1.270000000000001,333.5548660000204,None,334.3060513000237,None,,,,,,,[[1.23]],2.0900000000000016,0.631578947368421,11011,002,2024_Jan_02_1552,MFTM_A_new1021,2021.2.3,59.82947403709823,
,,,,,,,,stim/Instruction_adaptive.png,conditions/adaptive.xlsx,test,0.6,0.6,0.6,-0.6,-0.6,right,R,,,,,0,1,1,1,0,57,57,80,,,,,,,,,,,,,,,,,,,,,,,,,,,,,,,,,,,,,,,,,,,,334.807147500047,None,right,1,1.7464444999932311,335.30724020005437,337.36044650000986,335.30724020005437,336.86025150003843,335.30724020005437,336.86025150003843,335.30724020005437,336.86025150003843,335.30724020005437,336.86025150003843,335.30724020005437,336.86025150003843,336.84359720000066,337.34488390001934,336.84359720000066,337.34488390001934,336.84359720000066,337.34488390001934,336.84359720000066,337.34488390001934,336.84359720000066,337.34488390001934,336.84359720000066,337.34488390001934,336.84359720000066,337.34488390001934,336.84359720000066,337.34488390001934,335.30724020005437,None,337.34488390001934,338.2952649000217,1.5500000000000012,338.31178910000017,None,339.063783300051,None,,,,,,,[[0.95]],2.2000000000000015,0.6379310344827587,11011,002,2024_Jan_02_1552,MFTM_A_new1021,2021.2.3,59.82947403709823,
,,,,,,,,stim/Instruction_adaptive.png,conditions/adaptive.xlsx,test,0.6,0.6,0.6,-0.6,-0.6,right,R,,,,,0,1,1,1,0,58,58,52,,,,,,,,,,,,,,,,,,,,,,,,,,,,,,,,,,,,,,,,,,,,339.5640395000228,None,right,1,1.3647827999666333,340.0650585000403,342.00251650001155,340.0650585000403,341.4999956000247,340.0650585000403,341.4999956000247,340.0650585000403,341.4999956000247,340.0650585000403,341.4999956000247,340.0650585000403,341.4999956000247,341.4832454000134,341.9839171000058,341.4832454000134,341.9839171000058,341.4832454000134,341.9839171000058,341.4832454000134,341.9839171000058,341.4832454000134,341.9839171000058,341.4832454000134,341.9839171000058,341.4832454000134,341.9839171000058,341.4832454000134,341.9839171000058,340.0650585000403,None,341.9839171000058,None,1.430000000000001,343.06899130000966,None,343.8201757000061,None,,,,,,,[[1.07]],2.290000000000002,0.6440677966101694,11011,002,2024_Jan_02_1552,MFTM_A_new1021,2021.2.3,59.82947403709823,
,,,,,,,,stim/Instruction_adaptive.png,conditions/adaptive.xlsx,test,0.6,0.6,0.6,-0.6,-0.6,right,R,,,,,0,1,1,1,0,59,59,36,,,,,,,,,,,,,,,,,,,,,,,,,,,,,,,,,,,,,,,,,,,,344.3218783000484,None,right,1,1.4001385000301525,344.8216618000297,346.6742284000502,344.8216618000297,346.1736271000118,344.8216618000297,346.1736271000118,344.8216618000297,346.1736271000118,344.8216618000297,346.1736271000118,344.8216618000297,346.1736271000118,346.1579221000429,346.6582448000554,346.1579221000429,346.6582448000554,346.1579221000429,346.6582448000554,346.1579221000429,346.6582448000554,346.1579221000429,346.6582448000554,346.1579221000429,346.6582448000554,346.1579221000429,346.6582448000554,346.1579221000429,346.6582448000554,344.8216618000297,None,346.6582448000554,347.8096815000172,1.350000000000001,347.82595440000296,None,348.5770890000276,None,,,,,,,[[1.15]],2.370000000000002,0.65,11011,002,2024_Jan_02_1552,MFTM_A_new1021,2021.2.3,59.82947403709823,
,,,,,,,,stim/Instruction_adaptive.png,conditions/adaptive.xlsx,test,-0.6,-0.6,-0.6,0.6,0.6,left,L,,,,,0,1,1,1,0,60,60,1,,,,,,,,,,,,,,,,,,,,,,,,,,,,,,,,,,,,,,,,,,,,349.0787529000081,None,left,1,1.8275161000201479,349.5787524000043,351.34812180005247,349.5787524000043,350.8639123000321,349.5787524000043,350.8639123000321,349.5787524000043,350.8639123000321,349.5787524000043,350.8639123000321,349.5787524000043,350.8639123000321,350.8305335000041,351.3318196000182,350.8305335000041,351.3318196000182,350.8305335000041,351.3318196000182,350.8305335000041,351.3318196000182,350.8305335000041,351.3318196000182,350.8305335000041,351.3318196000182,350.8305335000041,351.3318196000182,350.8305335000041,351.3318196000182,349.5787524000043,None,351.3318196000182,352.56773390003946,1.270000000000001,352.5829189000069,None,353.3342007000465,None,,,,,,,[[1.23]],2.450000000000002,0.6557377049180327,11011,002,2024_Jan_02_1552,MFTM_A_new1021,2021.2.3,59.82947403709823,
,,,,,,,,stim/Instruction_adaptive.png,conditions/adaptive.xlsx,test,0.6,0.6,0.6,-0.6,-0.6,right,R,,,,,0,1,1,1,0,61,61,22,,,,,,,,,,,,,,,,,,,,,,,,,,,,,,,,,,,,,,,,,,,,353.8347663000459,None,left,0,1.773988000000827,354.33571230003145,356.03793280001264,354.33571230003145,355.5373958000564,354.33571230003145,355.5373958000564,354.33571230003145,355.5373958000564,354.33571230003145,355.5373958000564,354.33571230003145,355.5373958000564,355.5207496000221,356.02169280004455,355.5207496000221,356.02169280004455,355.5207496000221,356.02169280004455,355.5207496000221,356.02169280004455,355.5207496000221,356.02169280004455,355.5207496000221,356.02169280004455,355.5207496000221,356.02169280004455,355.5207496000221,356.02169280004455,354.33571230003145,None,356.02169280004455,357.32437910005683,1.2000000000000008,357.33990180003457,None,358.0911524000112,None,,,,,,,[[1.3]],2.2400000000000015,0.6451612903225806,11011,002,2024_Jan_02_1552,MFTM_A_new1021,2021.2.3,59.82947403709823,
,,,,,,,,stim/Instruction_adaptive.png,conditions/adaptive.xlsx,test,0.6,0.6,0.6,-0.6,-0.6,right,R,,,,,0,1,1,1,0,62,62,50,,,,,,,,,,,,,,,,,,,,,,,,,,,,,,,,,,,,,,,,,,,,358.5918535000528,None,right,1,1.7863049000152387,359.0927805000101,360.9960060000303,359.0927805000101,360.4952293000533,359.0927805000101,360.4952293000533,359.0927805000101,360.4952293000533,359.0927805000101,360.4952293000533,359.0927805000101,360.4952293000533,360.4620816000388,360.96276870003203,360.4620816000388,360.96276870003203,360.4620816000388,360.96276870003203,360.4620816000388,360.96276870003203,360.4620816000388,360.96276870003203,360.4620816000388,360.96276870003203,360.4620816000388,360.96276870003203,360.4620816000388,360.96276870003203,359.0927805000101,None,360.96276870003203,362.0803632000461,1.390000000000001,362.0970231000101,None,362.84804860001896,None,,,,,,,[[1.11]],2.3100000000000014,0.6507936507936508,11011,002,2024_Jan_02_1552,MFTM_A_new1021,2021.2.3,59.82947403709823,
,,,,,,,,stim/Instruction_adaptive.png,conditions/adaptive.xlsx,test,-0.6,-0.6,-0.6,0.6,0.6,left,L,,,,,0,1,1,1,0,63,63,99,,,,,,,,,,,,,,,,,,,,,,,,,,,,,,,,,,,,,,,,,,,,363.34933470003307,None,left,1,2.084555899957195,363.8497470000293,365.6858470000443,363.8497470000293,365.184994500014,363.8497470000293,365.184994500014,363.8497470000293,365.184994500014,363.8497470000293,365.184994500014,363.8497470000293,365.184994500014,365.16936860000715,365.669109200011,365.16936860000715,365.669109200011,365.16936860000715,365.669109200011,365.16936860000715,365.669109200011,365.16936860000715,365.669109200011,365.16936860000715,365.669109200011,365.16936860000715,365.669109200011,365.16936860000715,365.669109200011,363.8497470000293,None,365.669109200011,None,1.330000000000001,366.85395870002685,None,367.6063557000016,None,,,,,,,[[1.17]],2.3800000000000017,0.65625,11011,002,2024_Jan_02_1552,MFTM_A_new1021,2021.2.3,59.82947403709823,
,,,,,,,,stim/Instruction_adaptive.png,conditions/adaptive.xlsx,test,0.6,0.6,0.6,-0.6,-0.6,right,R,,,,,0,1,1,1,0,64,64,20,,,,,,,,,,,,,,,,,,,,,,,,,,,,,,,,,,,,,,,,,,,,368.10656360001303,None,right,1,1.551840899977833,368.6066949000233,370.37730900000315,368.6066949000233,369.8754088000278,368.6066949000233,369.8754088000278,368.6066949000233,369.8754088000278,368.6066949000233,369.8754088000278,368.6066949000233,369.8754088000278,369.8418473000056,370.34339700004784,369.8418473000056,370.34339700004784,369.8418473000056,370.34339700004784,369.8418473000056,370.34339700004784,369.8418473000056,370.34339700004784,369.8418473000056,370.34339700004784,369.8418473000056,370.34339700004784,369.8418473000056,370.34339700004784,368.6066949000233,None,370.34339700004784,371.59458980005,1.260000000000001,371.61164650000865,None,372.36320870002965,None,,,,,,,[[1.24]],2.450000000000002,0.6615384615384615,11011,002,2024_Jan_02_1552,MFTM_A_new1021,2021.2.3,59.82947403709823,
,,,,,,,,stim/Instruction_adaptive.png,conditions/adaptive.xlsx,test,0.6,0.6,0.6,-0.6,-0.6,right,R,,,,,0,1,1,1,0,65,65,60,,,,,,,,,,,,,,,,,,,,,,,,,,,,,,,,,,,,,,,,,,,,372.8631253000349,None,right,1,1.7061172000248916,373.3639121000306,375.06646640005056,373.3639121000306,374.56591200002003,373.3639121000306,374.56591200002003,373.3639121000306,374.56591200002003,373.3639121000306,374.56591200002003,373.3639121000306,374.56591200002003,374.5488892000285,375.0500626000576,374.5488892000285,375.0500626000576,374.5488892000285,375.0500626000576,374.5488892000285,375.0500626000576,374.5488892000285,375.0500626000576,374.5488892000285,375.0500626000576,374.5488892000285,375.0500626000576,374.5488892000285,375.0500626000576,373.3639121000306,None,375.0500626000576,376.3527601000387,1.2000000000000008,376.3683313000365,None,377.1196967000142,None,,,,,,,[[1.3]],2.5100000000000016,0.6666666666666666,11011,002,2024_Jan_02_1552,MFTM_A_new1021,2021.2.3,59.82947403709823,
,,,,,,,,stim/Instruction_adaptive.png,conditions/adaptive.xlsx,test,-0.6,-0.6,-0.6,0.6,0.6,left,L,,,,,0,1,1,1,0,66,66,15,,,,,,,,,,,,,,,,,,,,,,,,,,,,,,,,,,,,,,,,,,,,377.6204206000548,None,left,1,1.4447343000210822,378.12099950003903,379.7741544000455,378.12099950003903,379.27270890004,378.12099950003903,379.27270890004,378.12099950003903,379.27270890004,378.12099950003903,379.27270890004,378.12099950003903,379.27270890004,379.25654510001186,379.7567222000216,379.25654510001186,379.7567222000216,379.25654510001186,379.7567222000216,379.25654510001186,379.7567222000216,379.25654510001186,379.7567222000216,379.25654510001186,379.7567222000216,379.25654510001186,379.7567222000216,379.25654510001186,379.7567222000216,378.12099950003903,None,379.7567222000216,381.1087618000456,1.1500000000000008,381.12578800000483,None,381.8771017000545,None,,,,,,,[[1.35]],2.560000000000002,0.6716417910447762,11011,002,2024_Jan_02_1552,MFTM_A_new1021,2021.2.3,59.82947403709823,
,,,,,,,,stim/Instruction_adaptive.png,conditions/adaptive.xlsx,test,-0.6,-0.6,-0.6,0.6,0.6,left,L,,,,,0,1,1,1,0,67,67,79,,,,,,,,,,,,,,,,,,,,,,,,,,,,,,,,,,,,,,,,,,,,382.37721560004866,None,left,1,1.3441518999752589,382.8778020000318,384.49694980005734,382.8778020000318,384.01294010004494,382.8778020000318,384.01294010004494,382.8778020000318,384.01294010004494,382.8778020000318,384.01294010004494,382.8778020000318,384.01294010004494,383.97945420001633,384.4806049000472,383.97945420001633,384.4806049000472,383.97945420001633,384.4806049000472,383.97945420001633,384.4806049000472,383.97945420001633,384.4806049000472,383.97945420001633,384.4806049000472,383.97945420001633,384.4806049000472,383.97945420001633,384.4806049000472,382.8778020000318,None,384.4806049000472,385.86643940000795,1.1200000000000008,385.882450300036,None,386.6338643000345,None,,,,,,,[[1.38]],2.610000000000002,0.6764705882352942,11011,002,2024_Jan_02_1552,MFTM_A_new1021,2021.2.3,59.82947403709823,
,,,,,,,,stim/Instruction_adaptive.png,conditions/adaptive.xlsx,test,0.6,0.6,0.6,-0.6,-0.6,right,R,,,,,0,1,1,1,0,68,68,92,,,,,,,,,,,,,,,,,,,,,,,,,,,,,,,,,,,,,,,,,,,,387.1347198000294,None,right,1,1.803583900036756,387.63501210004324,389.221105500008,387.63501210004324,388.720316800056,387.63501210004324,388.720316800056,387.63501210004324,388.720316800056,387.63501210004324,388.720316800056,387.63501210004324,388.720316800056,388.7030420000083,389.2041974000167,388.7030420000083,389.2041974000167,388.7030420000083,389.2041974000167,388.7030420000083,389.2041974000167,388.7030420000083,389.2041974000167,388.7030420000083,389.2041974000167,388.7030420000083,389.2041974000167,388.7030420000083,389.2041974000167,387.63501210004324,None,389.2041974000167,390.62275520002004,1.0800000000000007,390.6398825000506,None,391.3919614000479,None,,,,,,,[[1.42]],2.660000000000002,0.6811594202898551,11011,002,2024_Jan_02_1552,MFTM_A_new1021,2021.2.3,59.82947403709823,
,,,,,,,,stim/Instruction_adaptive.png,conditions/adaptive.xlsx,test,-0.6,-0.6,-0.6,0.6,0.6,left,L,,,,,0,1,1,1,0,69,69,37,,,,,,,,,,,,,,,,,,,,,,,,,,,,,,,,,,,,,,,,,,,,391.89156560000265,None,left,1,1.8937299000099301,392.3919504000223,393.9443309000344,392.3919504000223,393.44351110002026,392.3919504000223,393.44351110002026,392.3919504000223,393.44351110002026,392.3919504000223,393.44351110002026,392.3919504000223,393.44351110002026,393.4112369000213,393.91100320004625,393.4112369000213,393.91100320004625,393.4112369000213,393.91100320004625,393.4112369000213,393.91100320004625,393.4112369000213,393.91100320004625,393.4112369000213,393.91100320004625,393.4112369000213,393.91100320004625,393.4112369000213,393.91100320004625,392.3919504000223,None,393.91100320004625,395.37992910004687,1.0400000000000007,395.39693010004703,None,396.1476991000236,None,,,,,,,[[1.46]],2.7100000000000017,0.6857142857142857,11011,002,2024_Jan_02_1552,MFTM_A_new1021,2021.2.3,59.82947403709823,
,,,,,,,,stim/Instruction_adaptive.png,conditions/adaptive.xlsx,test,0.6,0.6,0.6,-0.6,-0.6,right,R,,,,,0,1,1,1,0,70,70,64,,,,,,,,,,,,,,,,,,,,,,,,,,,,,,,,,,,,,,,,,,,,396.64840270002605,None,right,1,1.1692940999637358,397.1489883000031,398.6679850000073,397.1489883000031,398.1673532000277,397.1489883000031,398.1673532000277,397.1489883000031,398.1673532000277,397.1489883000031,398.1673532000277,397.1489883000031,398.1673532000277,398.1506007000571,398.6512946000439,398.1506007000571,398.6512946000439,398.1506007000571,398.6512946000439,398.1506007000571,398.6512946000439,398.1506007000571,398.6512946000439,398.1506007000571,398.6512946000439,398.1506007000571,398.6512946000439,398.1506007000571,398.6512946000439,397.1489883000031,None,398.6512946000439,None,1.0100000000000007,400.15339820005465,None,400.9046702000196,None,,,,,,,[[1.49]],2.7500000000000018,0.6901408450704225,11011,002,2024_Jan_02_1552,MFTM_A_new1021,2021.2.3,59.82947403709823,
,,,,,,,,stim/Instruction_adaptive.png,conditions/adaptive.xlsx,test,0.6,0.6,0.6,-0.6,-0.6,right,R,,,,,0,1,1,1,0,71,71,44,,,,,,,,,,,,,,,,,,,,,,,,,,,,,,,,,,,,,,,,,,,,401.40605070005404,None,right,1,1.6919018999906257,401.9059584000497,403.3916514000157,401.9059584000497,402.8911018000217,401.9059584000497,402.8911018000217,401.9059584000497,402.8911018000217,401.9059584000497,402.8911018000217,401.9059584000497,402.8911018000217,402.87439140002243,403.37498820002656,402.87439140002243,403.37498820002656,402.87439140002243,403.37498820002656,402.87439140002243,403.37498820002656,402.87439140002243,403.37498820002656,402.87439140002243,403.37498820002656,402.87439140002243,403.37498820002656,402.87439140002243,403.37498820002656,401.9059584000497,None,403.37498820002656,404.89390890003415,0.9800000000000006,404.91054140002234,None,405.6619251000229,None,,,,,,,[[1.52]],2.790000000000002,0.6944444444444444,11011,002,2024_Jan_02_1552,MFTM_A_new1021,2021.2.3,59.82947403709823,
,,,,,,,,stim/Instruction_adaptive.png,conditions/adaptive.xlsx,test,-0.6,-0.6,-0.6,0.6,0.6,left,L,,,,,0,1,1,1,0,72,72,91,,,,,,,,,,,,,,,,,,,,,,,,,,,,,,,,,,,,,,,,,,,,406.16251340002054,None,left,1,1.2311376000288874,406.663000200002,408.1161909000366,406.663000200002,407.61531240004115,406.663000200002,407.61531240004115,406.663000200002,407.61531240004115,406.663000200002,407.61531240004115,406.663000200002,407.61531240004115,407.5979261000175,408.09866900002817,407.5979261000175,408.09866900002817,407.5979261000175,408.09866900002817,407.5979261000175,408.09866900002817,407.5979261000175,408.09866900002817,407.5979261000175,408.09866900002817,407.5979261000175,408.09866900002817,407.5979261000175,408.09866900002817,406.663000200002,None,408.09866900002817,409.6517187000136,0.9500000000000006,409.66792460001307,None,410.418867600034,None,,,,,,,[[1.55]],2.830000000000002,0.6986301369863014,11011,002,2024_Jan_02_1552,MFTM_A_new1021,2021.2.3,59.82947403709823,
,,,,,,,,stim/Instruction_adaptive.png,conditions/adaptive.xlsx,test,0.6,0.6,0.6,-0.6,-0.6,right,R,,,,,0,1,1,1,0,73,73,30,,,,,,,,,,,,,,,,,,,,,,,,,,,,,,,,,,,,,,,,,,,,410.9204440000467,None,left,0,1.4004305000416934,411.4216075000004,412.855782300001,411.4216075000004,412.3548885000055,411.4216075000004,412.3548885000055,411.4216075000004,412.3548885000055,411.4216075000004,412.3548885000055,411.4216075000004,412.3548885000055,412.3389377000276,412.83966020005755,412.3389377000276,412.83966020005755,412.3389377000276,412.83966020005755,412.3389377000276,412.83966020005755,412.3389377000276,412.83966020005755,412.3389377000276,412.83966020005755,412.3389377000276,412.83966020005755,412.3389377000276,412.83966020005755,411.4216075000004,None,412.83966020005755,None,0.9300000000000006,414.4246581000043,None,415.1759507000097,None,,,,,,,[[1.57]],2.720000000000002,0.6891891891891891,11011,002,2024_Jan_02_1552,MFTM_A_new1021,2021.2.3,59.82947403709823,
,,,,,,,,stim/Instruction_adaptive.png,conditions/adaptive.xlsx,test,0.6,0.6,0.6,-0.6,-0.6,right,R,,,,,0,1,1,1,0,74,74,4,,,,,,,,,,,,,,,,,,,,,,,,,,,,,,,,,,,,,,,,,,,,415.6765810000361,None,right,1,1.3644570999895222,416.17740720004076,417.6802000000025,416.17740720004076,417.1787282000296,416.17740720004076,417.1787282000296,416.17740720004076,417.1787282000296,416.17740720004076,417.1787282000296,416.17740720004076,417.1787282000296,417.16284330002964,417.66280030005146,417.16284330002964,417.66280030005146,417.16284330002964,417.66280030005146,417.16284330002964,417.66280030005146,417.16284330002964,417.66280030005146,417.16284330002964,417.66280030005146,417.16284330002964,417.66280030005146,417.16284330002964,417.66280030005146,416.17740720004076,None,417.66280030005146,419.1654677000479,1.0000000000000007,419.1816815000493,None,419.93295920005767,None,,,,,,,[[1.5]],2.7500000000000018,0.6933333333333334,11011,002,2024_Jan_02_1552,MFTM_A_new1021,2021.2.3,59.82947403709823,
,,,,,,,,stim/Instruction_adaptive.png,conditions/adaptive.xlsx,test,-0.6,-0.6,-0.6,0.6,0.6,left,L,,,,,0,1,1,1,0,75,75,25,,,,,,,,,,,,,,,,,,,,,,,,,,,,,,,,,,,,,,,,,,,,420.4334849000443,None,left,1,1.4553915000287816,420.9343342000502,422.41997070005164,420.9343342000502,421.9190556000103,420.9343342000502,421.9190556000103,420.9343342000502,421.9190556000103,420.9343342000502,421.9190556000103,420.9343342000502,421.9190556000103,421.9023807000485,422.4034707000246,421.9023807000485,422.4034707000246,421.9023807000485,422.4034707000246,421.9023807000485,422.4034707000246,421.9023807000485,422.4034707000246,421.9023807000485,422.4034707000246,421.9023807000485,422.4034707000246,421.9023807000485,422.4034707000246,420.9343342000502,None,422.4034707000246,None,0.9800000000000006,423.9390632000286,None,424.6903925000224,None,,,,,,,[[1.52]],2.790000000000002,0.6973684210526315,11011,002,2024_Jan_02_1552,MFTM_A_new1021,2021.2.3,59.82947403709823,
,,,,,,,,stim/Instruction_adaptive.png,conditions/adaptive.xlsx,test,0.6,0.6,0.6,-0.6,-0.6,right,R,,,,,0,1,1,1,0,76,76,62,,,,,,,,,,,,,,,,,,,,,,,,,,,,,,,,,,,,,,,,,,,,425.1916420000489,None,right,1,1.0182560000102967,425.6917887000018,427.14431410003453,425.6917887000018,426.6426713000401,425.6917887000018,426.6426713000401,425.6917887000018,426.6426713000401,425.6917887000018,426.6426713000401,425.6917887000018,426.6426713000401,426.62743790005334,427.12696850002976,426.62743790005334,427.12696850002976,426.62743790005334,427.12696850002976,426.62743790005334,427.12696850002976,426.62743790005334,427.12696850002976,426.62743790005334,427.12696850002976,426.62743790005334,427.12696850002976,426.62743790005334,427.12696850002976,425.6917887000018,None,427.12696850002976,428.68202080001356,0.9500000000000006,428.6956905000261,None,429.4469645000063,None,,,,,,,[[1.55]],2.830000000000002,0.7012987012987013,11011,002,2024_Jan_02_1552,MFTM_A_new1021,2021.2.3,59.82947403709823,
,,,,,,,,stim/Instruction_adaptive.png,conditions/adaptive.xlsx,test,-0.6,-0.6,-0.6,0.6,0.6,left,L,,,,,0,1,1,1,0,77,77,65,,,,,,,,,,,,,,,,,,,,,,,,,,,,,,,,,,,,,,,,,,,,429.9474146000575,None,left,1,1.2688947999849916,430.44888800004264,431.88385560002644,430.44888800004264,431.38318240002263,430.44888800004264,431.38318240002263,430.44888800004264,431.38318240002263,430.44888800004264,431.38318240002263,430.44888800004264,431.38318240002263,431.3670095000416,431.86761560000014,431.3670095000416,431.86761560000014,431.3670095000416,431.86761560000014,431.3670095000416,431.86761560000014,431.3670095000416,431.86761560000014,431.3670095000416,431.86761560000014,431.3670095000416,431.86761560000014,431.3670095000416,431.86761560000014,430.44888800004264,None,431.86761560000014,None,0.9300000000000006,433.4530375000322,None,434.20503320003627,None,,,,,,,[[1.57]],2.860000000000002,0.7051282051282052,11011,002,2024_Jan_02_1552,MFTM_A_new1021,2021.2.3,59.82947403709823,
,,,,,,,,stim/Instruction_adaptive.png,conditions/adaptive.xlsx,test,0.6,0.6,0.6,-0.6,-0.6,right,R,,,,,0,1,1,1,0,78,78,86,,,,,,,,,,,,,,,,,,,,,,,,,,,,,,,,,,,,,,,,,,,,434.70530080003664,None,right,1,1.4562545000226237,435.20551780000096,436.6248678000411,435.20551780000096,436.1234820000245,435.20551780000096,436.1234820000245,435.20551780000096,436.1234820000245,435.20551780000096,436.1234820000245,435.20551780000096,436.1234820000245,436.10710270004347,436.60759540001163,436.10710270004347,436.60759540001163,436.10710270004347,436.60759540001163,436.10710270004347,436.60759540001163,436.10710270004347,436.60759540001163,436.10710270004347,436.60759540001163,436.10710270004347,436.60759540001163,436.10710270004347,436.60759540001163,435.20551780000096,None,436.60759540001163,None,0.9100000000000006,438.20976290002,None,438.96148330002325,None,,,,,,,[[1.59]],2.900000000000002,0.7088607594936709,11011,002,2024_Jan_02_1552,MFTM_A_new1021,2021.2.3,59.82947403709823,
,,,,,,,,stim/Instruction_adaptive.png,conditions/adaptive.xlsx,test,-0.6,-0.6,-0.6,0.6,0.6,left,L,,,,,0,1,1,1,0,79,79,95,,,,,,,,,,,,,,,,,,,,,,,,,,,,,,,,,,,,,,,,,,,,439.46175370004494,None,left,1,1.5471568999928422,439.96248950000154,441.3477815000224,439.96248950000154,440.8479357000324,439.96248950000154,440.8479357000324,439.96248950000154,440.8479357000324,439.96248950000154,440.8479357000324,439.96248950000154,440.8479357000324,440.831020200043,441.33102130005136,440.831020200043,441.33102130005136,440.831020200043,441.33102130005136,440.831020200043,441.33102130005136,440.831020200043,441.33102130005136,440.831020200043,441.33102130005136,440.831020200043,441.33102130005136,440.831020200043,441.33102130005136,439.96248950000154,None,441.33102130005136,442.9503235000302,0.8800000000000006,442.96697660000063,None,443.71897700004047,None,,,,,,,[[1.62]],2.9300000000000024,0.7125,11011,002,2024_Jan_02_1552,MFTM_A_new1021,2021.2.3,59.82947403709823,
,,,,,,,,stim/Instruction_adaptive.png,conditions/adaptive.xlsx,test,0.6,0.6,0.6,-0.6,-0.6,right,R,,,,,0,1,1,1,0,80,80,6,,,,,,,,,,,,,,,,,,,,,,,,,,,,,,,,,,,,,,,,,,,,444.2189947000006,None,right,1,1.4060722999856807,444.72003010002663,446.08896420005476,444.72003010002663,445.58781240001554,444.72003010002663,445.58781240001554,444.72003010002663,445.58781240001554,444.72003010002663,445.58781240001554,444.72003010002663,445.58781240001554,445.55397870001616,446.0557023000438,445.55397870001616,446.0557023000438,445.55397870001616,446.0557023000438,445.55397870001616,446.0557023000438,445.55397870001616,446.0557023000438,445.55397870001616,446.0557023000438,445.55397870001616,446.0557023000438,445.55397870001616,446.0557023000438,444.72003010002663,None,446.0557023000438,447.70741280005313,0.8600000000000005,447.7239665000234,None,448.4753998000524,None,,,,,,,[[1.64]],2.960000000000002,0.7160493827160493,11011,002,2024_Jan_02_1552,MFTM_A_new1021,2021.2.3,59.82947403709823,
,,,,,,,,stim/Instruction_adaptive.png,conditions/adaptive.xlsx,test,0.6,0.6,0.6,-0.6,-0.6,right,R,,,,,0,1,1,1,0,81,81,78,,,,,,,,,,,,,,,,,,,,,,,,,,,,,,,,,,,,,,,,,,,,448.97693520004395,None,right,1,1.3052909999969415,449.4765892000287,450.82893750001676,449.4765892000287,450.32849850005005,449.4765892000287,450.32849850005005,449.4765892000287,450.32849850005005,449.4765892000287,450.32849850005005,449.4765892000287,450.32849850005005,450.3119684000267,450.8124910000479,450.3119684000267,450.8124910000479,450.3119684000267,450.8124910000479,450.3119684000267,450.8124910000479,450.3119684000267,450.8124910000479,450.3119684000267,450.8124910000479,450.3119684000267,450.8124910000479,450.3119684000267,450.8124910000479,449.4765892000287,None,450.8124910000479,452.4641436000238,0.8500000000000005,452.481136300019,None,453.23226730001625,None,,,,,,,[[1.65]],2.990000000000002,0.7195121951219512,11011,002,2024_Jan_02_1552,MFTM_A_new1021,2021.2.3,59.82947403709823,
,,,,,,,,stim/Instruction_adaptive.png,conditions/adaptive.xlsx,test,-0.6,-0.6,-0.6,0.6,0.6,left,L,,,,,0,1,1,1,0,82,82,11,,,,,,,,,,,,,,,,,,,,,,,,,,,,,,,,,,,,,,,,,,,,453.7334381000255,None,right,0,1.2351995999924839,454.23440820001997,455.5694678000291,454.23440820001997,455.068182100018,454.23440820001997,455.068182100018,454.23440820001997,455.068182100018,454.23440820001997,455.068182100018,454.23440820001997,455.068182100018,455.05354540003464,455.5694678000291,455.05354540003464,455.5694678000291,455.05354540003464,455.5694678000291,455.05354540003464,455.5694678000291,455.05354540003464,455.5694678000291,455.05354540003464,455.5694678000291,455.05354540003464,455.5694678000291,455.05354540003464,455.5694678000291,454.23440820001997,None,455.5522805000073,457.22159200004535,0.8300000000000005,457.23816780000925,None,457.9895682000206,None,,,,,,,[[1.67]],2.900000000000002,0.7108433734939759,11011,002,2024_Jan_02_1552,MFTM_A_new1021,2021.2.3,59.82947403709823,
,,,,,,,,stim/Instruction_adaptive.png,conditions/adaptive.xlsx,test,0.6,0.6,0.6,-0.6,-0.6,right,R,,,,,0,1,1,1,0,83,83,42,,,,,,,,,,,,,,,,,,,,,,,,,,,,,,,,,,,,,,,,,,,,458.4899430000223,None,left,0,1.3021938999881968,458.9915163000114,460.3762375000515,458.9915163000114,459.87635070004035,458.9915163000114,459.87635070004035,458.9915163000114,459.87635070004035,458.9915163000114,459.87635070004035,458.9915163000114,459.87635070004035,459.85851930000354,460.35955940000713,459.85851930000354,460.35955940000713,459.85851930000354,460.35955940000713,459.85851930000354,460.35955940000713,459.85851930000354,460.35955940000713,459.85851930000354,460.35955940000713,459.85851930000354,460.35955940000713,459.85851930000354,460.35955940000713,458.9915163000114,None,460.35955940000713,461.97892380005214,0.8800000000000006,461.9952611000044,None,462.7465096000233,None,,,,,,,[[1.62]],2.8100000000000023,0.7023809523809523,11011,002,2024_Jan_02_1552,MFTM_A_new1021,2021.2.3,59.82947403709823,
,,,,,,,,stim/Instruction_adaptive.png,conditions/adaptive.xlsx,test,-0.6,-0.6,-0.6,0.6,0.6,left,L,,,,,0,1,1,1,0,84,84,51,,,,,,,,,,,,,,,,,,,,,,,,,,,,,,,,,,,,,,,,,,,,463.24764990003314,None,left,1,1.3693136999499984,463.74912540003425,465.1997980000451,463.74912540003425,464.69915140001103,463.74912540003425,464.69915140001103,463.74912540003425,464.69915140001103,463.74912540003425,464.69915140001103,463.74912540003425,464.69915140001103,464.6659610000206,465.16652960004285,464.6659610000206,465.16652960004285,464.6659610000206,465.16652960004285,464.6659610000206,465.16652960004285,464.6659610000206,465.16652960004285,464.6659610000206,465.16652960004285,464.6659610000206,465.16652960004285,464.6659610000206,465.16652960004285,463.74912540003425,None,465.16652960004285,466.73568840004737,0.9400000000000006,466.7522108000121,None,467.5040028000367,None,,,,,,,[[1.56]],2.840000000000002,0.7058823529411765,11011,002,2024_Jan_02_1552,MFTM_A_new1021,2021.2.3,59.82947403709823,
,,,,,,,,stim/Instruction_adaptive.png,conditions/adaptive.xlsx,test,-0.6,-0.6,-0.6,0.6,0.6,left,L,,,,,0,1,1,1,0,85,85,9,,,,,,,,,,,,,,,,,,,,,,,,,,,,,,,,,,,,,,,,,,,,468.0043223000248,None,left,1,1.2050167999695987,468.5054019000381,469.94096180005,468.5054019000381,469.44064730004175,468.5054019000381,469.44064730004175,468.5054019000381,469.44064730004175,468.5054019000381,469.44064730004175,468.5054019000381,469.44064730004175,469.4063188,469.9073545000283,469.4063188,469.9073545000283,469.4063188,469.9073545000283,469.4063188,469.9073545000283,469.4063188,469.9073545000283,469.4063188,469.9073545000283,469.4063188,469.9073545000283,469.4063188,469.9073545000283,468.5054019000381,None,469.9073545000283,471.4931904000114,0.9200000000000006,471.5093840000336,None,472.26074290002,None,,,,,,,[[1.58]],2.870000000000002,0.7093023255813954,11011,002,2024_Jan_02_1552,MFTM_A_new1021,2021.2.3,59.82947403709823,
,,,,,,,,stim/Instruction_adaptive.png,conditions/adaptive.xlsx,test,0.6,0.6,0.6,-0.6,-0.6,right,R,,,,,0,1,1,1,0,86,86,70,,,,,,,,,,,,,,,,,,,,,,,,,,,,,,,,,,,,,,,,,,,,472.76169820001815,None,right,1,1.8241102999891154,473.2618497000076,474.66529980005,473.2618497000076,474.1630825000466,473.2618497000076,474.1630825000466,473.2618497000076,474.1630825000466,473.2618497000076,474.1630825000466,473.2618497000076,474.1630825000466,474.1466252000537,474.647369000013,474.1466252000537,474.647369000013,474.1466252000537,474.647369000013,474.1466252000537,474.647369000013,474.1466252000537,474.647369000013,474.1466252000537,474.647369000013,474.1466252000537,474.647369000013,474.1466252000537,474.647369000013,473.2618497000076,None,474.647369000013,476.25040870002704,0.9000000000000006,476.26635140000144,None,477.017736800015,None,,,,,,,[[1.6]],2.900000000000002,0.7126436781609196,11011,002,2024_Jan_02_1552,MFTM_A_new1021,2021.2.3,59.82947403709823,
,,,,,,,,stim/Instruction_adaptive.png,conditions/adaptive.xlsx,test,-0.6,-0.6,-0.6,0.6,0.6,left,L,,,,,0,1,1,1,0,87,87,5,,,,,,,,,,,,,,,,,,,,,,,,,,,,,,,,,,,,,,,,,,,,477.5188796000439,None,right,0,1.891484500025399,478.01889360003406,479.4044270000304,478.01889360003406,478.90385690005496,478.01889360003406,478.90385690005496,478.01889360003406,478.90385690005496,478.01889360003406,478.90385690005496,478.01889360003406,478.90385690005496,478.8870003000484,479.3876690000179,478.8870003000484,479.3876690000179,478.8870003000484,479.3876690000179,478.8870003000484,479.3876690000179,478.8870003000484,479.3876690000179,478.8870003000484,479.3876690000179,478.8870003000484,479.3876690000179,478.8870003000484,479.3876690000179,478.01889360003406,None,479.3876690000179,481.00740510004107,0.8800000000000006,481.02280090004206,None,481.77528050000547,None,,,,,,,[[1.62]],2.820000000000002,0.7045454545454546,11011,002,2024_Jan_02_1552,MFTM_A_new1021,2021.2.3,59.82947403709823,
,,,,,,,,stim/Instruction_adaptive.png,conditions/adaptive.xlsx,test,-0.6,-0.6,-0.6,0.6,0.6,left,L,,,,,0,1,1,1,0,88,88,93,,,,,,,,,,,,,,,,,,,,,,,,,,,,,,,,,,,,,,,,,,,,482.27653380000265,None,right,0,1.8779662000015378,482.7758194000344,484.2114360000123,482.7758194000344,483.710646200052,482.7758194000344,483.710646200052,482.7758194000344,483.710646200052,482.7758194000344,483.710646200052,482.7758194000344,483.710646200052,483.6949029000243,484.1947030000156,483.6949029000243,484.1947030000156,483.6949029000243,484.1947030000156,483.6949029000243,484.1947030000156,483.6949029000243,484.1947030000156,483.6949029000243,484.1947030000156,483.6949029000243,484.1947030000156,483.6949029000243,484.1947030000156,482.7758194000344,None,484.1947030000156,485.7651924000238,0.9300000000000006,485.78044110001065,None,486.531675300037,None,,,,,,,[[1.57]],2.730000000000002,0.6966292134831461,11011,002,2024_Jan_02_1552,MFTM_A_new1021,2021.2.3,59.82947403709823,
,,,,,,,,stim/Instruction_adaptive.png,conditions/adaptive.xlsx,test,-0.6,-0.6,-0.6,0.6,0.6,left,L,,,,,0,1,1,1,0,89,89,39,,,,,,,,,,,,,,,,,,,,,,,,,,,,,,,,,,,,,,,,,,,,487.0331525000511,None,left,1,1.2161505999974906,487.53407800005516,489.0360859000357,487.53407800005516,488.53442340000765,487.53407800005516,488.53442340000765,487.53407800005516,488.53442340000765,487.53407800005516,488.53442340000765,487.53407800005516,488.53442340000765,488.5011203000322,489.0017457000213,488.5011203000322,489.0017457000213,488.5011203000322,489.0017457000213,488.5011203000322,489.0017457000213,488.5011203000322,489.0017457000213,488.5011203000322,489.0017457000213,488.5011203000322,489.0017457000213,488.5011203000322,489.0017457000213,487.53407800005516,None,489.0017457000213,490.5221649000305,0.9900000000000007,490.5377011000528,None,491.28857800003607,None,,,,,,,[[1.51]],2.760000000000002,0.7,11011,002,2024_Jan_02_1552,MFTM_A_new1021,2021.2.3,59.82947403709823,
,,,,,,,,stim/Instruction_adaptive.png,conditions/adaptive.xlsx,test,-0.6,-0.6,-0.6,0.6,0.6,left,L,,,,,0,1,1,1,0,90,90,69,,,,,,,,,,,,,,,,,,,,,,,,,,,,,,,,,,,,,,,,,,,,491.7902619000524,None,left,1,1.2673855000175536,492.29056090000086,493.7754641000065,492.29056090000086,493.27480060001835,492.29056090000086,493.27480060001835,492.29056090000086,493.27480060001835,492.29056090000086,493.27480060001835,492.29056090000086,493.27480060001835,493.24171650002245,493.74235810001846,493.24171650002245,493.74235810001846,493.24171650002245,493.74235810001846,493.24171650002245,493.74235810001846,493.24171650002245,493.74235810001846,493.24171650002245,493.74235810001846,493.24171650002245,493.74235810001846,493.24171650002245,493.74235810001846,492.29056090000086,None,493.74235810001846,495.2776912000263,0.9700000000000006,495.29452950000996,None,496.04555050004274,None,,,,,,,[[1.53]],2.790000000000002,0.7032967032967034,11011,002,2024_Jan_02_1552,MFTM_A_new1021,2021.2.3,59.82947403709823,
,,,,,,,,stim/Instruction_adaptive.png,conditions/adaptive.xlsx,test,-0.6,-0.6,-0.6,0.6,0.6,left,L,,,,,0,1,1,1,0,91,91,27,,,,,,,,,,,,,,,,,,,,,,,,,,,,,,,,,,,,,,,,,,,,496.54613830003655,None,left,1,1.3829909000196494,497.04708600003505,498.49967540003126,497.04708600003505,497.998504600022,497.04708600003505,497.998504600022,497.04708600003505,497.998504600022,497.04708600003505,497.998504600022,497.04708600003505,497.998504600022,497.9818995000096,498.4826870000106,497.9818995000096,498.4826870000106,497.9818995000096,498.4826870000106,497.9818995000096,498.4826870000106,497.9818995000096,498.4826870000106,497.9818995000096,498.4826870000106,497.9818995000096,498.4826870000106,497.9818995000096,498.4826870000106,497.04708600003505,None,498.4826870000106,500.03562210005475,0.9500000000000006,500.0514506000327,None,500.8030567000387,None,,,,,,,[[1.55]],2.820000000000002,0.7065217391304348,11011,002,2024_Jan_02_1552,MFTM_A_new1021,2021.2.3,59.82947403709823,
,,,,,,,,stim/Instruction_adaptive.png,conditions/adaptive.xlsx,test,0.6,0.6,0.6,-0.6,-0.6,right,R,,,,,0,1,1,1,0,92,92,56,,,,,,,,,,,,,,,,,,,,,,,,,,,,,,,,,,,,,,,,,,,,501.3043271000497,None,right,1,1.3452281999634579,501.80460900004255,503.2395998000284,501.80460900004255,502.7394350000541,501.80460900004255,502.7394350000541,501.80460900004255,502.7394350000541,501.80460900004255,502.7394350000541,501.80460900004255,502.7394350000541,502.7229737000307,503.2228276000242,502.7229737000307,503.2228276000242,502.7229737000307,503.2228276000242,502.7229737000307,503.2228276000242,502.7229737000307,503.2228276000242,502.7229737000307,503.2228276000242,502.7229737000307,503.2228276000242,502.7229737000307,503.2228276000242,501.80460900004255,None,503.2228276000242,504.7922506000032,0.9300000000000006,504.808503200009,None,505.56022540002596,None,,,,,,,[[1.57]],2.840000000000002,0.7096774193548387,11011,002,2024_Jan_02_1552,MFTM_A_new1021,2021.2.3,59.82947403709823,
,,,,,,,,stim/Instruction_adaptive.png,conditions/adaptive.xlsx,test,0.6,0.6,0.6,-0.6,-0.6,right,R,,,,,0,1,1,1,0,93,93,34,,,,,,,,,,,,,,,,,,,,,,,,,,,,,,,,,,,,,,,,,,,,506.061161300051,None,left,0,0.924818100000266,506.5612349000294,507.9965835000039,506.5612349000294,507.4967152000172,506.5612349000294,507.4967152000172,506.5612349000294,507.4967152000172,506.5612349000294,507.4967152000172,506.5612349000294,507.4967152000172,507.4628242000472,507.9634086000151,507.4628242000472,507.9634086000151,507.4628242000472,507.9634086000151,507.4628242000472,507.9634086000151,507.4628242000472,507.9634086000151,507.4628242000472,507.9634086000151,507.4628242000472,507.9634086000151,507.4628242000472,507.9634086000151,506.5612349000294,None,507.9634086000151,509.55110270000296,0.9200000000000006,509.5837150000152,None,510.3350048000575,None,,,,,,,[[1.58]],2.760000000000002,0.7021276595744681,11011,002,2024_Jan_02_1552,MFTM_A_new1021,2021.2.3,59.82947403709823,
