arrwidth1,arrwidth2,arrwidth3,arrwidth4,arrwidth5,keyb,type,orientation,instruction_image,block_filename,block_type,arrow11,arrow22,arrow33,arrow44,arrow55,keyb_3,orientation3,trials.thisRepN,trials.thisTrialN,trials.thisN,trials.thisIndex,trials_3.thisRepN,trials_3.thisTrialN,trials_3.thisN,trials_3.thisIndex,trials_2.thisRepN,trials_2.thisTrialN,trials_2.thisN,trials_2.thisIndex,welcome.started,welcome.stopped,key_resp.keys,key_resp.rt,key_resp.started,key_resp.stopped,instruction_example.started,instruction_example.stopped,key_resp_3.keys,key_resp_3.rt,key_resp_3.started,key_resp_3.stopped,instruction_task.started,instruction_task.stopped,key_resp_2.keys,key_resp_2.rt,key_resp_2.started,key_resp_2.stopped,text_2.started,text_2.stopped,A1.started,A1.stopped,A2.started,A2.stopped,A3.started,A3.stopped,A4.started,A4.stopped,A5.started,A5.stopped,key_resp_4.keys,key_resp_4.corr,key_resp_4.rt,key_resp_4.started,key_resp_4.stopped,fb.started,fb.stopped,instruction_block.started,instruction_block.stopped,key_resp_8.keys,key_resp_8.rt,key_resp_8.started,key_resp_8.stopped,text_8.started,text_8.stopped,key_resp_9.keys,key_resp_9.corr,key_resp_9.rt,text_5.started,text_5.stopped,A11_3.started,A11_3.stopped,A22_2.started,A22_2.stopped,A33_2.started,A33_2.stopped,A44_2.started,A44_2.stopped,A55_2.started,A55_2.stopped,M1_3.started,M1_3.stopped,M2_2.started,M2_2.stopped,M3_2.started,M3_2.stopped,M4_2.started,M4_2.stopped,M5_2.started,M5_2.stopped,M6_2.started,M6_2.stopped,M7_2.started,M7_2.stopped,M8_2.started,M8_2.stopped,key_resp_9.started,key_resp_9.stopped,fixation.started,fixation.stopped,ET,fb_3.started,fb_3.stopped,text_9.started,text_9.stopped,fb_4.started,fb_4.stopped,text_7.started,text_7.stopped,endtext.started,endtext.stopped,fixation_ITI,CCC,Acc,participant,session,date,expName,psychopyVersion,frameRate,
,,,,,,,,,,,,,,,,,,,,,,,,,,,,,,9.565546399913728,None,space,10.97717199998442,9.565546399913728,None,,,,,,,,,,,,,,,,,,,,,,,,,,,,,,,,,,,,,,,,,,,,,,,,,,,,,,,,,,,,,,,,,,,,,,,,,,,,,,,,,,,,,,,,,11014,001,2024_Jan_04_1001,MFTM_A_new1021,2021.2.3,59.54436651778971,
,,,,,,,,,,,,,,,,,,,,,,,,,,,,,,,,,,,,20.565111699979752,None,space,22.921445699990727,20.565111699979752,None,,,,,,,,,,,,,,,,,,,,,,,,,,,,,,,,,,,,,,,,,,,,,,,,,,,,,,,,,,,,,,,,,,,,,,,,,,,,,,,,,,,11014,001,2024_Jan_04_1001,MFTM_A_new1021,2021.2.3,59.54436651778971,
,,,,,,,,,,,,,,,,,,,,,,,,,,,,,,,,,,,,,,,,,,43.51579209999181,None,space,7.867090699961409,43.51579209999181,None,,,,,,,,,,,,,,,,,,,,,,,,,,,,,,,,,,,,,,,,,,,,,,,,,,,,,,,,,,,,,,,,,,,,,,,,,,,,,11014,001,2024_Jan_04_1001,MFTM_A_new1021,2021.2.3,59.54436651778971,
-0.6,-0.6,-0.6,0.6,0.6,left,3:2,L,,,,,,,,,,,0,0,0,1,,,,,,,,,,,,,,,,,,,,,,,,,,,51.42776989995036,None,51.42776989995036,None,51.42776989995036,None,51.42776989995036,None,51.42776989995036,None,51.42776989995036,None,left,1,1.4908223999664187,51.42776989995036,None,52.96319559996482,None,,,,,,,,,,,,,,,,,,,,,,,,,,,,,,,,,,,,,,,,,,,,,,,,,,,,,,,,,,11014,001,2024_Jan_04_1001,MFTM_A_new1021,2021.2.3,59.54436651778971,
0.6,0.6,0.6,-0.6,-0.6,right,3:2,R,,,,,,,,,,,0,1,1,0,,,,,,,,,,,,,,,,,,,,,,,,,,,53.71468939993065,None,53.71468939993065,None,53.71468939993065,None,53.71468939993065,None,53.71468939993065,None,53.71468939993065,None,right,1,3.0850344999926165,53.71468939993065,None,56.818759899935685,None,,,,,,,,,,,,,,,,,,,,,,,,,,,,,,,,,,,,,,,,,,,,,,,,,,,,,,,,,,11014,001,2024_Jan_04_1001,MFTM_A_new1021,2021.2.3,59.54436651778971,
-0.6,-0.6,-0.6,0.6,0.6,left,3:2,L,,,,,,,,,,,1,0,2,1,,,,,,,,,,,,,,,,,,,,,,,,,,,57.57006089994684,None,57.57006089994684,None,57.57006089994684,None,57.57006089994684,None,57.57006089994684,None,57.57006089994684,None,left,1,2.2285244000377133,57.57006089994684,None,59.82335439999588,None,,,,,,,,,,,,,,,,,,,,,,,,,,,,,,,,,,,,,,,,,,,,,,,,,,,,,,,,,,11014,001,2024_Jan_04_1001,MFTM_A_new1021,2021.2.3,59.54436651778971,
0.6,0.6,0.6,-0.6,-0.6,right,3:2,R,,,,,,,,,,,1,1,3,0,,,,,,,,,,,,,,,,,,,,,,,,,,,60.57603100000415,None,60.57603100000415,None,60.57603100000415,None,60.57603100000415,None,60.57603100000415,None,60.57603100000415,None,right,1,4.143185100052506,60.57603100000415,None,64.74749879993033,None,,,,,,,,,,,,,,,,,,,,,,,,,,,,,,,,,,,,,,,,,,,,,,,,,,,,,,,,,,11014,001,2024_Jan_04_1001,MFTM_A_new1021,2021.2.3,59.54436651778971,
,,,,,,,,stim/Instruction_mask.png,conditions/adaptive.xlsx,practice,-0.6,-0.6,-0.6,0.6,0.6,left,L,,,,,0,0,0,0,0,0,0,89,,,,,,,,,,,,,,,,,,,,,,,,,,,,,,,,,,,,,,65.7154778999975,None,space,41.94725980004296,65.7154778999975,None,107.76148220000323,None,right,0,0.835344799910672,108.19558369996957,None,108.19558369996957,111.19941489992198,108.19558369996957,111.19941489992198,108.19558369996957,111.19941489992198,108.19558369996957,111.19941489992198,108.19558369996957,111.19941489992198,111.18285709992051,111.68349450000096,111.18285709992051,111.68349450000096,111.18285709992051,111.68349450000096,111.18285709992051,111.68349450000096,111.18285709992051,111.68349450000096,111.18285709992051,111.68349450000096,111.18285709992051,111.68349450000096,111.18285709992051,111.68349450000096,108.19558369996957,None,111.68349450000096,111.68349450000096,3,111.69958649994805,None,112.45189409994055,None,,,,,,,,,,11014,001,2024_Jan_04_1001,MFTM_A_new1021,2021.2.3,59.54436651778971,
,,,,,,,,stim/Instruction_mask.png,conditions/adaptive.xlsx,practice,0.6,0.6,0.6,-0.6,-0.6,right,R,,,,,0,0,0,0,0,1,1,42,,,,,,,,,,,,,,,,,,,,,,,,,,,,,,,,,,,,,,,,,,,,112.95206669997424,None,right,1,3.1298575999680907,113.45279439992737,115.45674069994129,113.45279439992737,114.95512719999533,113.45279439992737,114.95512719999533,113.45279439992737,114.95512719999533,113.45279439992737,114.95512719999533,113.45279439992737,114.95512719999533,114.9382184999995,115.44027899997309,114.9382184999995,115.44027899997309,114.9382184999995,115.44027899997309,114.9382184999995,115.44027899997309,114.9382184999995,115.44027899997309,114.9382184999995,115.44027899997309,114.9382184999995,115.44027899997309,114.9382184999995,115.44027899997309,113.45279439992737,None,115.44027899997309,116.94252629997209,1.5,116.95855649991427,None,117.70953339990228,None,,,,,,,,,,11014,001,2024_Jan_04_1001,MFTM_A_new1021,2021.2.3,59.54436651778971,
,,,,,,,,stim/Instruction_mask.png,conditions/adaptive.xlsx,practice,-0.6,-0.6,-0.6,0.6,0.6,left,L,,,,,0,0,0,0,0,2,2,75,,,,,,,,,,,,,,,,,,,,,,,,,,,,,,,,,,,,,,,,,,,,118.20987239992246,None,left,1,1.7848920000251383,118.71047139994334,120.01231989997905,118.71047139994334,119.51288329996169,118.71047139994334,119.51288329996169,118.71047139994334,119.51288329996169,118.71047139994334,119.51288329996169,118.71047139994334,119.51288329996169,119.4957917999709,119.9959578999551,119.4957917999709,119.9959578999551,119.4957917999709,119.9959578999551,119.4957917999709,119.9959578999551,119.4957917999709,119.9959578999551,119.4957917999709,119.9959578999551,119.4957917999709,119.9959578999551,119.4957917999709,119.9959578999551,118.71047139994334,None,119.9959578999551,122.19897859997582,0.8,122.21666199993342,None,122.96762119990308,None,,,,,,,,,,11014,001,2024_Jan_04_1001,MFTM_A_new1021,2021.2.3,59.54436651778971,
,,,,,,,,stim/Instruction_mask.png,conditions/adaptive.xlsx,practice,-0.6,-0.6,-0.6,0.6,0.6,left,L,,,,,0,0,0,0,0,3,3,37,,,,,,,,,,,,,,,,,,,,,,,,,,,,,,,,,,,,,,,,,,,,123.46773999999277,None,right,0,1.4465037999907508,123.9689716999419,124.71999179990962,123.9689716999419,124.21955569996499,123.9689716999419,124.21955569996499,123.9689716999419,124.21955569996499,123.9689716999419,124.21955569996499,123.9689716999419,124.21955569996499,124.20289600000251,124.70313269994222,124.20289600000251,124.70313269994222,124.20289600000251,124.70313269994222,124.20289600000251,124.70313269994222,124.20289600000251,124.70313269994222,124.20289600000251,124.70313269994222,124.20289600000251,124.70313269994222,124.20289600000251,124.70313269994222,123.9689716999419,None,124.70313269994222,127.45701909996569,3,127.47353859990835,None,128.22542549995705,None,,,,,,,,,,11014,001,2024_Jan_04_1001,MFTM_A_new1021,2021.2.3,59.54436651778971,
,,,,,,,,stim/Instruction_mask.png,conditions/adaptive.xlsx,practice,,,,,,,,,,,,0,0,0,0,,,,,,,,,,,,,,,,,,,,,,,,,,,,,,,,,,,,,,,,,,,,,,,,,,,,,,,,,,,,,,,,,,,,,,,,,,,,,,,,,,,,,,,,,,128.75987700000405,129.76195770001505,129.74385410000104,129.74385410000104,129.74385410000104,None,,,,11014,001,2024_Jan_04_1001,MFTM_A_new1021,2021.2.3,59.54436651778971,
,,,,,,,,stim/Instruction_adaptive.png,conditions/adaptive.xlsx,test,-0.6,-0.6,-0.6,0.6,0.6,left,L,,,,,0,1,1,1,0,0,0,83,,,,,,,,,,,,,,,,,,,,,,,,,,,,,,,,,,,,,,132.88177520001773,None,space,23.869427300058305,132.88177520001773,None,156.7834038999863,None,left,1,1.9372430000221357,157.2857001000084,None,157.2857001000084,160.28915829991456,157.2857001000084,160.28915829991456,157.2857001000084,160.28915829991456,157.2857001000084,160.28915829991456,157.2857001000084,160.28915829991456,160.27214239991736,160.77410769998096,160.27214239991736,160.77410769998096,160.27214239991736,160.77410769998096,160.27214239991736,160.77410769998096,160.27214239991736,160.77410769998096,160.27214239991736,160.77410769998096,160.27214239991736,160.77410769998096,160.27214239991736,160.77410769998096,157.2857001000084,None,160.77410769998096,160.77410769998096,3,160.7893991000019,None,161.54138279997278,None,,,,,,,0,6.000000000000005,1.0,11014,001,2024_Jan_04_1001,MFTM_A_new1021,2021.2.3,59.54436651778971,
,,,,,,,,stim/Instruction_adaptive.png,conditions/adaptive.xlsx,test,-0.6,-0.6,-0.6,0.6,0.6,left,L,,,,,0,1,1,1,0,1,1,15,,,,,,,,,,,,,,,,,,,,,,,,,,,,,,,,,,,,,,,,,,,,162.0415159999393,None,right,0,1.232763799955137,162.5421420999337,163.29418490000535,162.5421420999337,162.79249339993112,162.5421420999337,162.79249339993112,162.5421420999337,162.79249339993112,162.5421420999337,162.79249339993112,162.5421420999337,162.79249339993112,162.7759638999123,163.2771531000035,162.7759638999123,163.2771531000035,162.7759638999123,163.2771531000035,162.7759638999123,163.2771531000035,162.7759638999123,163.2771531000035,162.7759638999123,163.2771531000035,162.7759638999123,163.2771531000035,162.7759638999123,163.2771531000035,162.5421420999337,None,163.2771531000035,164.16240589995869,0.25,164.1777151999995,None,164.9288937000092,None,,,,,,,[0.875],2.570000000000002,0.5,11014,001,2024_Jan_04_1001,MFTM_A_new1021,2021.2.3,59.54436651778971,
,,,,,,,,stim/Instruction_adaptive.png,conditions/adaptive.xlsx,test,0.6,0.6,0.6,-0.6,-0.6,right,R,,,,,0,1,1,1,0,2,2,36,,,,,,,,,,,,,,,,,,,,,,,,,,,,,,,,,,,,,,,,,,,,165.43073809996713,None,right,1,1.427651199977845,165.93116809998173,167.54960899997968,165.93116809998173,167.04894679994322,165.93116809998173,167.04894679994322,165.93116809998173,167.04894679994322,165.93116809998173,167.04894679994322,165.93116809998173,167.04894679994322,167.01598339993507,167.51622280001175,167.01598339993507,167.51622280001175,167.01598339993507,167.51622280001175,167.01598339993507,167.51622280001175,167.01598339993507,167.51622280001175,167.01598339993507,167.51622280001175,167.01598339993507,167.51622280001175,167.01598339993507,167.51622280001175,165.93116809998173,None,167.51622280001175,168.56790299993008,1.1100000000000008,168.6012056999607,None,169.35309099999722,None,,,,,,,[1.04666667],3.3800000000000026,0.6666666666666666,11014,001,2024_Jan_04_1001,MFTM_A_new1021,2021.2.3,59.54436651778971,
,,,,,,,,stim/Instruction_adaptive.png,conditions/adaptive.xlsx,test,0.6,0.6,0.6,-0.6,-0.6,right,R,,,,,0,1,1,1,0,3,3,84,,,,,,,,,,,,,,,,,,,,,,,,,,,,,,,,,,,,,,,,,,,,169.85336239996832,None,right,1,0.9491911000804976,170.35367099998984,171.48886109993327,170.35367099998984,170.98915889998898,170.35367099998984,170.98915889998898,170.35367099998984,170.98915889998898,170.35367099998984,170.98915889998898,170.35367099998984,170.98915889998898,170.97138519992586,171.47265409992542,170.97138519992586,171.47265409992542,170.97138519992586,171.47265409992542,170.97138519992586,171.47265409992542,170.97138519992586,171.47265409992542,170.97138519992586,171.47265409992542,170.97138519992586,171.47265409992542,170.97138519992586,171.47265409992542,170.35367099998984,None,171.47265409992542,172.724279499962,0.6300000000000003,172.74058320000768,None,173.49254179990385,None,,,,,,,[1.2525],3.940000000000003,0.75,11014,001,2024_Jan_04_1001,MFTM_A_new1021,2021.2.3,59.54436651778971,
,,,,,,,,stim/Instruction_adaptive.png,conditions/adaptive.xlsx,test,-0.6,-0.6,-0.6,0.6,0.6,left,L,,,,,0,1,1,1,0,4,4,41,,,,,,,,,,,,,,,,,,,,,,,,,,,,,,,,,,,,,,,,,,,,173.99397650000174,None,left,1,1.3135792999528348,174.4930857999716,175.43037949991412,174.4930857999716,174.927182000014,174.4930857999716,174.927182000014,174.4930857999716,174.927182000014,174.4930857999716,174.927182000014,174.4930857999716,174.927182000014,174.9105569999665,175.41128889995161,174.9105569999665,175.41128889995161,174.9105569999665,175.41128889995161,174.9105569999665,175.41128889995161,174.9105569999665,175.41128889995161,174.9105569999665,175.41128889995161,174.9105569999665,175.41128889995161,174.9105569999665,175.41128889995161,174.4930857999716,None,175.41128889995161,176.83013439993374,0.43000000000000016,176.84682709991466,None,177.5987938999897,None,,,,,,,[1.416],4.370000000000004,0.8,11014,001,2024_Jan_04_1001,MFTM_A_new1021,2021.2.3,59.54436651778971,
,,,,,,,,stim/Instruction_adaptive.png,conditions/adaptive.xlsx,test,-0.6,-0.6,-0.6,0.6,0.6,left,L,,,,,0,1,1,1,0,5,5,1,,,,,,,,,,,,,,,,,,,,,,,,,,,,,,,,,,,,,,,,,,,,178.09971119998954,None,left,1,0.8635943999979645,178.59982759994455,179.43371589994058,178.59982759994455,178.93325979996007,178.59982759994455,178.93325979996007,178.59982759994455,178.93325979996007,178.59982759994455,178.93325979996007,178.59982759994455,178.93325979996007,178.89972380001564,179.40165699995123,178.89972380001564,179.40165699995123,178.89972380001564,179.40165699995123,178.89972380001564,179.40165699995123,178.89972380001564,179.40165699995123,178.89972380001564,179.40165699995123,178.89972380001564,179.40165699995123,178.89972380001564,179.40165699995123,178.59982759994455,None,179.40165699995123,180.95349300000817,0.32000000000000006,180.97023809992243,None,181.72072519990616,None,,,,,,,[1.54333333],4.7100000000000035,0.8333333333333334,11014,001,2024_Jan_04_1001,MFTM_A_new1021,2021.2.3,59.54436651778971,
,,,,,,,,stim/Instruction_adaptive.png,conditions/adaptive.xlsx,test,0.6,0.6,0.6,-0.6,-0.6,right,R,,,,,0,1,1,1,0,6,6,14,,,,,,,,,,,,,,,,,,,,,,,,,,,,,,,,,,,,,,,,,,,,182.22147009999026,None,left,0,0.9161641000537202,182.72278650000226,183.47381489991676,182.72278650000226,182.97335429990198,182.72278650000226,182.97335429990198,182.72278650000226,182.97335429990198,182.72278650000226,182.97335429990198,182.72278650000226,182.97335429990198,182.9556286999723,183.45640059991274,182.9556286999723,183.45640059991274,182.9556286999723,183.45640059991274,182.9556286999723,183.45640059991274,182.9556286999723,183.45640059991274,182.9556286999723,183.45640059991274,182.9556286999723,183.45640059991274,182.9556286999723,183.45640059991274,182.72278650000226,None,183.45640059991274,185.11004239995964,0.25,185.1250736999791,None,185.87796069995966,None,,,,,,,[1.64428571],4.010000000000003,0.7142857142857143,11014,001,2024_Jan_04_1001,MFTM_A_new1021,2021.2.3,59.54436651778971,
,,,,,,,,stim/Instruction_adaptive.png,conditions/adaptive.xlsx,test,0.6,0.6,0.6,-0.6,-0.6,right,R,,,,,0,1,1,1,0,7,7,68,,,,,,,,,,,,,,,,,,,,,,,,,,,,,,,,,,,,,,,,,,,,186.37865979992785,None,right,1,1.0246927000116557,186.87826829997357,187.7964001999935,186.87826829997357,187.29546009993646,186.87826829997357,187.29546009993646,186.87826829997357,187.29546009993646,186.87826829997357,187.29546009993646,186.87826829997357,187.29546009993646,187.27891879994422,187.78031760000158,187.27891879994422,187.78031760000158,187.27891879994422,187.78031760000158,187.27891879994422,187.78031760000158,187.27891879994422,187.78031760000158,187.27891879994422,187.78031760000158,187.27891879994422,187.78031760000158,187.27891879994422,187.78031760000158,186.87826829997357,None,187.78031760000158,189.48220739990938,0.41000000000000014,189.49912880000193,None,190.2499282999197,None,,,,,,,[1.7],4.280000000000003,0.75,11014,001,2024_Jan_04_1001,MFTM_A_new1021,2021.2.3,59.54436651778971,
,,,,,,,,stim/Instruction_adaptive.png,conditions/adaptive.xlsx,test,-0.6,-0.6,-0.6,0.6,0.6,left,L,,,,,0,1,1,1,0,8,8,23,,,,,,,,,,,,,,,,,,,,,,,,,,,,,,,,,,,,,,,,,,,,190.75081130000763,None,right,0,1.3546973000047728,191.2520705999341,192.10303289990406,191.2520705999341,191.60241900000256,191.2520705999341,191.60241900000256,191.2520705999341,191.60241900000256,191.2520705999341,191.60241900000256,191.2520705999341,191.60241900000256,191.56858279998414,192.06914609996602,191.56858279998414,192.06914609996602,191.56858279998414,192.06914609996602,191.56858279998414,192.06914609996602,191.56858279998414,192.06914609996602,191.56858279998414,192.06914609996602,191.56858279998414,192.06914609996602,191.56858279998414,192.06914609996602,191.2520705999341,None,192.06914609996602,193.82278419996146,0.3400000000000001,193.8552112999605,None,194.60696559993085,None,,,,,,,[1.75111111],3.650000000000003,0.6666666666666666,11014,001,2024_Jan_04_1001,MFTM_A_new1021,2021.2.3,59.54436651778971,
,,,,,,,,stim/Instruction_adaptive.png,conditions/adaptive.xlsx,test,-0.6,-0.6,-0.6,0.6,0.6,left,L,,,,,0,1,1,1,0,9,9,35,,,,,,,,,,,,,,,,,,,,,,,,,,,,,,,,,,,,,,,,,,,,195.10730859998148,None,right,0,1.6230971000622958,195.60776019992772,196.62633200001437,195.60776019992772,196.14211719995365,195.60776019992772,196.14211719995365,195.60776019992772,196.14211719995365,195.60776019992772,196.14211719995365,195.60776019992772,196.14211719995365,196.1094621999655,196.60998129996005,196.1094621999655,196.60998129996005,196.1094621999655,196.60998129996005,196.1094621999655,196.60998129996005,196.1094621999655,196.60998129996005,196.1094621999655,196.60998129996005,196.1094621999655,196.60998129996005,196.1094621999655,196.60998129996005,195.60776019992772,None,196.60998129996005,198.39564429991879,0.5200000000000002,198.41207510000095,None,199.1636519000167,None,,,,,,,[1.774],2.940000000000002,0.6,11014,001,2024_Jan_04_1001,MFTM_A_new1021,2021.2.3,59.54436651778971,
,,,,,,,,stim/Instruction_adaptive.png,conditions/adaptive.xlsx,test,0.6,0.6,0.6,-0.6,-0.6,right,R,,,,,0,1,1,1,0,10,10,48,,,,,,,,,,,,,,,,,,,,,,,,,,,,,,,,,,,,,,,,,,,,199.66389219998382,None,right,1,1.3222264000214636,200.16455519990996,201.53394559992012,200.16455519990996,201.03315669996664,200.16455519990996,201.03315669996664,200.16455519990996,201.03315669996664,200.16455519990996,201.03315669996664,200.16455519990996,201.03315669996664,201.01589779998176,201.51708149991464,201.01589779998176,201.51708149991464,201.01589779998176,201.51708149991464,201.01589779998176,201.51708149991464,201.01589779998176,201.51708149991464,201.01589779998176,201.51708149991464,201.01589779998176,201.51708149991464,201.01589779998176,201.51708149991464,200.16455519990996,None,201.51708149991464,None,0.8600000000000005,203.16903409990482,None,203.9209334999323,None,,,,,,,[[1.64]],3.230000000000002,0.6363636363636364,11014,001,2024_Jan_04_1001,MFTM_A_new1021,2021.2.3,59.54436651778971,
,,,,,,,,stim/Instruction_adaptive.png,conditions/adaptive.xlsx,test,0.6,0.6,0.6,-0.6,-0.6,right,R,,,,,0,1,1,1,0,11,11,66,,,,,,,,,,,,,,,,,,,,,,,,,,,,,,,,,,,,,,,,,,,,204.42212369991466,None,left,0,1.4610783000243828,204.92198949994054,206.1235368999187,204.92198949994054,205.62355199991725,204.92198949994054,205.62355199991725,204.92198949994054,205.62355199991725,204.92198949994054,205.62355199991725,204.92198949994054,205.62355199991725,205.60600959998555,206.106689899927,205.60600959998555,206.106689899927,205.60600959998555,206.106689899927,205.60600959998555,206.106689899927,205.60600959998555,206.106689899927,205.60600959998555,206.106689899927,205.60600959998555,206.106689899927,205.60600959998555,206.106689899927,204.92198949994054,None,206.106689899927,207.8758735000156,0.7000000000000004,207.89259089995176,None,208.6439715999877,None,,,,,,,[1.765],2.5500000000000016,0.5833333333333334,11014,001,2024_Jan_04_1001,MFTM_A_new1021,2021.2.3,59.54436651778971,
,,,,,,,,stim/Instruction_adaptive.png,conditions/adaptive.xlsx,test,-0.6,-0.6,-0.6,0.6,0.6,left,L,,,,,0,1,1,1,0,12,12,57,,,,,,,,,,,,,,,,,,,,,,,,,,,,,,,,,,,,,,,,,,,,209.14635900000576,None,right,0,1.6901951999170706,209.6452430000063,211.26436399994418,209.6452430000063,210.7647255999036,209.6452430000063,210.7647255999036,209.6452430000063,210.7647255999036,209.6452430000063,210.7647255999036,209.6452430000063,210.7647255999036,210.74788319994695,211.24846249993425,210.74788319994695,211.24846249993425,210.74788319994695,211.24846249993425,210.74788319994695,211.24846249993425,210.74788319994695,211.24846249993425,210.74788319994695,211.24846249993425,210.74788319994695,211.24846249993425,210.74788319994695,211.24846249993425,209.6452430000063,None,211.24846249993425,212.63399399991613,1.1200000000000008,212.64959439996164,None,213.40073379990645,None,,,,,,,[[1.38]],1.610000000000001,0.5384615384615384,11014,001,2024_Jan_04_1001,MFTM_A_new1021,2021.2.3,59.54436651778971,
,,,,,,,,stim/Instruction_adaptive.png,conditions/adaptive.xlsx,test,0.6,0.6,0.6,-0.6,-0.6,right,R,,,,,0,1,1,1,0,13,13,46,,,,,,,,,,,,,,,,,,,,,,,,,,,,,,,,,,,,,,,,,,,,213.9017346999608,None,right,1,2.8599775000475347,214.40316320001148,217.0729119000025,214.40316320001148,216.57295820000581,214.40316320001148,216.57295820000581,214.40316320001148,216.57295820000581,214.40316320001148,216.57295820000581,214.40316320001148,216.57295820000581,216.53886729991063,217.03973269998096,216.53886729991063,217.03973269998096,216.53886729991063,217.03973269998096,216.53886729991063,217.03973269998096,216.53886729991063,217.03973269998096,216.53886729991063,217.03973269998096,216.53886729991063,217.03973269998096,216.53886729991063,217.03973269998096,214.40316320001148,None,217.03973269998096,217.39011879998725,2.160000000000002,217.40679959999397,None,218.1589736000169,None,,,,,,,[[0.34]],2.0400000000000014,0.5714285714285714,11014,001,2024_Jan_04_1001,MFTM_A_new1021,2021.2.3,59.54436651778971,
,,,,,,,,stim/Instruction_adaptive.png,conditions/adaptive.xlsx,test,-0.6,-0.6,-0.6,0.6,0.6,left,L,,,,,0,1,1,1,0,14,14,93,,,,,,,,,,,,,,,,,,,,,,,,,,,,,,,,,,,,,,,,,,,,218.6594871999696,None,left,1,1.9188135000877082,219.16020789998583,221.2627916999627,219.16020789998583,220.76183069997933,219.16020789998583,220.76183069997933,219.16020789998583,220.76183069997933,219.16020789998583,220.76183069997933,219.16020789998583,220.76183069997933,220.74502089992166,221.24779079994187,220.74502089992166,221.24779079994187,220.74502089992166,221.24779079994187,220.74502089992166,221.24779079994187,220.74502089992166,221.24779079994187,220.74502089992166,221.24779079994187,220.74502089992166,221.24779079994187,220.74502089992166,221.24779079994187,219.16020789998583,None,221.24779079994187,222.14747329999227,1.6000000000000012,222.163860199973,None,222.91570479993243,None,,,,,,,[[0.9]],2.3200000000000016,0.6,11014,001,2024_Jan_04_1001,MFTM_A_new1021,2021.2.3,59.54436651778971,
,,,,,,,,stim/Instruction_adaptive.png,conditions/adaptive.xlsx,test,-0.6,-0.6,-0.6,0.6,0.6,left,L,,,,,0,1,1,1,0,15,15,65,,,,,,,,,,,,,,,,,,,,,,,,,,,,,,,,,,,,,,,,,,,,223.4159984999569,None,left,1,1.7388521999819204,223.91648759995587,225.7364584999159,223.91648759995587,225.235176499933,223.91648759995587,225.235176499933,223.91648759995587,225.235176499933,223.91648759995587,225.235176499933,223.91648759995587,225.235176499933,225.21876359998714,225.72074439993594,225.21876359998714,225.72074439993594,225.21876359998714,225.72074439993594,225.21876359998714,225.72074439993594,225.21876359998714,225.72074439993594,225.21876359998714,225.72074439993594,225.21876359998714,225.72074439993594,225.21876359998714,225.72074439993594,223.91648759995587,None,225.72074439993594,226.9043925999431,1.320000000000001,226.92098840000108,None,227.67189379991032,None,,,,,,,[[1.18]],2.530000000000002,0.625,11014,001,2024_Jan_04_1001,MFTM_A_new1021,2021.2.3,59.54436651778971,
,,,,,,,,stim/Instruction_adaptive.png,conditions/adaptive.xlsx,test,-0.6,-0.6,-0.6,0.6,0.6,left,L,,,,,0,1,1,1,0,16,16,13,,,,,,,,,,,,,,,,,,,,,,,,,,,,,,,,,,,,,,,,,,,,228.17339050001465,None,right,0,2.0702556999167427,228.67357799992897,230.32702759990934,228.67357799992897,229.82535149995238,228.67357799992897,229.82535149995238,228.67357799992897,229.82535149995238,228.67357799992897,229.82535149995238,228.67357799992897,229.82535149995238,229.7917376999976,230.2924457999179,229.7917376999976,230.2924457999179,229.7917376999976,230.2924457999179,229.7917376999976,230.2924457999179,229.7917376999976,230.2924457999179,229.7917376999976,230.2924457999179,229.7917376999976,230.2924457999179,229.7917376999976,230.2924457999179,228.67357799992897,None,230.2924457999179,231.66194489994086,1.1400000000000008,231.6779379999498,None,232.4297654000111,None,,,,,,,[[1.36]],2.0000000000000013,0.5882352941176471,11014,001,2024_Jan_04_1001,MFTM_A_new1021,2021.2.3,59.54436651778971,
,,,,,,,,stim/Instruction_adaptive.png,conditions/adaptive.xlsx,test,0.6,0.6,0.6,-0.6,-0.6,right,R,,,,,0,1,1,1,0,17,17,50,,,,,,,,,,,,,,,,,,,,,,,,,,,,,,,,,,,,,,,,,,,,232.93054859992117,None,right,1,1.208318299963139,233.43065889994614,235.58378559991252,233.43065889994614,235.08301159995608,233.43065889994614,235.08301159995608,233.43065889994614,235.08301159995608,233.43065889994614,235.08301159995608,233.43065889994614,235.08301159995608,235.04971179994754,235.55034409998916,235.04971179994754,235.55034409998916,235.04971179994754,235.55034409998916,235.04971179994754,235.55034409998916,235.04971179994754,235.55034409998916,235.04971179994754,235.55034409998916,235.04971179994754,235.55034409998916,235.04971179994754,235.55034409998916,233.43065889994614,None,235.55034409998916,236.41853529994842,1.6400000000000012,236.43489439995028,None,237.18778369994834,None,,,,,,,[[0.86]],2.2100000000000017,0.6111111111111112,11014,001,2024_Jan_04_1001,MFTM_A_new1021,2021.2.3,59.54436651778971,
,,,,,,,,stim/Instruction_adaptive.png,conditions/adaptive.xlsx,test,0.6,0.6,0.6,-0.6,-0.6,right,R,,,,,0,1,1,1,0,18,18,92,,,,,,,,,,,,,,,,,,,,,,,,,,,,,,,,,,,,,,,,,,,,237.68761649995577,None,right,1,1.9631110000191256,238.1880063000135,240.10731029999442,238.1880063000135,239.60749799991027,238.1880063000135,239.60749799991027,238.1880063000135,239.60749799991027,238.1880063000135,239.60749799991027,238.1880063000135,239.60749799991027,239.5904634000035,240.09099289996084,239.5904634000035,240.09099289996084,239.5904634000035,240.09099289996084,239.5904634000035,240.09099289996084,239.5904634000035,240.09099289996084,239.5904634000035,240.09099289996084,239.5904634000035,240.09099289996084,239.5904634000035,240.09099289996084,238.1880063000135,None,240.09099289996084,241.1761915999232,1.420000000000001,241.19239360000938,None,241.94339629996102,None,,,,,,,[[1.08]],2.3800000000000017,0.631578947368421,11014,001,2024_Jan_04_1001,MFTM_A_new1021,2021.2.3,59.54436651778971,
,,,,,,,,stim/Instruction_adaptive.png,conditions/adaptive.xlsx,test,0.6,0.6,0.6,-0.6,-0.6,right,R,,,,,0,1,1,1,0,19,19,54,,,,,,,,,,,,,,,,,,,,,,,,,,,,,,,,,,,,,,,,,,,,242.44390700000804,None,right,1,1.7984465999761596,242.9449359999271,244.71470499993302,242.9449359999271,244.213448699913,242.9449359999271,244.213448699913,242.9449359999271,244.213448699913,242.9449359999271,244.213448699913,242.9449359999271,244.213448699913,244.1798077999847,244.68070469994564,244.1798077999847,244.68070469994564,244.1798077999847,244.68070469994564,244.1798077999847,244.68070469994564,244.1798077999847,244.68070469994564,244.1798077999847,244.68070469994564,244.1798077999847,244.68070469994564,244.1798077999847,244.68070469994564,242.9449359999271,None,244.68070469994564,245.93295299995225,1.260000000000001,245.94954429997597,None,246.70107339997776,None,,,,,,,[[1.24]],2.520000000000002,0.65,11014,001,2024_Jan_04_1001,MFTM_A_new1021,2021.2.3,59.54436651778971,
,,,,,,,,stim/Instruction_adaptive.png,conditions/adaptive.xlsx,test,0.6,0.6,0.6,-0.6,-0.6,right,R,,,,,0,1,1,1,0,20,20,6,,,,,,,,,,,,,,,,,,,,,,,,,,,,,,,,,,,,,,,,,,,,247.200881299912,None,left,0,2.328059999970719,247.70276789995842,249.3552173000062,247.70276789995842,248.85342099994887,247.70276789995842,248.85342099994887,247.70276789995842,248.85342099994887,247.70276789995842,248.85342099994887,247.70276789995842,248.85342099994887,248.83760789991356,249.33839689998422,248.83760789991356,249.33839689998422,248.83760789991356,249.33839689998422,248.83760789991356,249.33839689998422,248.83760789991356,249.33839689998422,248.83760789991356,249.33839689998422,248.83760789991356,249.33839689998422,248.83760789991356,249.33839689998422,247.70276789995842,None,249.33839689998422,250.6911816999782,1.1500000000000008,250.7059825999895,None,251.45772929990198,None,,,,,,,[[1.35]],2.1500000000000012,0.6190476190476191,11014,001,2024_Jan_04_1001,MFTM_A_new1021,2021.2.3,59.54436651778971,
,,,,,,,,stim/Instruction_adaptive.png,conditions/adaptive.xlsx,test,0.6,0.6,0.6,-0.6,-0.6,right,R,,,,,0,1,1,1,0,21,21,52,,,,,,,,,,,,,,,,,,,,,,,,,,,,,,,,,,,,,,,,,,,,251.95810229994822,None,left,0,2.2601883000461385,252.4589729999425,254.44539159990381,252.4589729999425,253.94433819991536,252.4589729999425,253.94433819991536,252.4589729999425,253.94433819991536,252.4589729999425,253.94433819991536,252.4589729999425,253.94433819991536,253.92761879996397,254.42904529999942,253.92761879996397,254.42904529999942,253.92761879996397,254.42904529999942,253.92761879996397,254.42904529999942,253.92761879996397,254.42904529999942,253.92761879996397,254.42904529999942,253.92761879996397,254.42904529999942,253.92761879996397,254.42904529999942,252.4589729999425,None,254.42904529999942,255.44654979999177,1.480000000000001,255.4635487999767,None,256.2150928999763,None,,,,,,,[[1.02]],1.690000000000001,0.5909090909090909,11014,001,2024_Jan_04_1001,MFTM_A_new1021,2021.2.3,59.54436651778971,
,,,,,,,,stim/Instruction_adaptive.png,conditions/adaptive.xlsx,test,0.6,0.6,0.6,-0.6,-0.6,right,R,,,,,0,1,1,1,0,22,22,34,,,,,,,,,,,,,,,,,,,,,,,,,,,,,,,,,,,,,,,,,,,,256.7153710999992,None,right,1,1.2712169999722391,257.2156571999658,259.77016109996475,257.2156571999658,259.26961099996697,257.2156571999658,259.26961099996697,257.2156571999658,259.26961099996697,257.2156571999658,259.26961099996697,257.2156571999658,259.26961099996697,259.23544799990486,259.7369081999641,259.23544799990486,259.7369081999641,259.23544799990486,259.7369081999641,259.23544799990486,259.7369081999641,259.23544799990486,259.7369081999641,259.23544799990486,259.7369081999641,259.23544799990486,259.7369081999641,259.23544799990486,259.7369081999641,257.2156571999658,None,259.7369081999641,260.203493900015,2.040000000000002,260.22022069990635,None,260.97138499992434,None,,,,,,,[[0.46]],1.8700000000000012,0.6086956521739131,11014,001,2024_Jan_04_1001,MFTM_A_new1021,2021.2.3,59.54436651778971,
,,,,,,,,stim/Instruction_adaptive.png,conditions/adaptive.xlsx,test,-0.6,-0.6,-0.6,0.6,0.6,left,L,,,,,0,1,1,1,0,23,23,9,,,,,,,,,,,,,,,,,,,,,,,,,,,,,,,,,,,,,,,,,,,,261.47321239998564,None,left,1,2.1534686000086367,261.9735927999718,264.27639639994595,261.9735927999718,263.7756335999584,261.9735927999718,263.7756335999584,261.9735927999718,263.7756335999584,261.9735927999718,263.7756335999584,261.9735927999718,263.7756335999584,263.75895799999125,264.2603451999603,263.75895799999125,264.2603451999603,263.75895799999125,264.2603451999603,263.75895799999125,264.2603451999603,263.75895799999125,264.2603451999603,263.75895799999125,264.2603451999603,263.75895799999125,264.2603451999603,263.75895799999125,264.2603451999603,261.9735927999718,None,264.2603451999603,264.96086929994635,1.8000000000000014,264.97732429997995,None,265.72912109992467,None,,,,,,,[[0.7]],2.0200000000000014,0.625,11014,001,2024_Jan_04_1001,MFTM_A_new1021,2021.2.3,59.54436651778971,
,,,,,,,,stim/Instruction_adaptive.png,conditions/adaptive.xlsx,test,0.6,0.6,0.6,-0.6,-0.6,right,R,,,,,0,1,1,1,0,24,24,64,,,,,,,,,,,,,,,,,,,,,,,,,,,,,,,,,,,,,,,,,,,,266.23022439994384,None,right,1,2.5967644000193104,266.73049320001155,268.8504211999243,266.73049320001155,268.3491394999437,266.73049320001155,268.3491394999437,266.73049320001155,268.3491394999437,266.73049320001155,268.3491394999437,266.73049320001155,268.3491394999437,268.33344999991823,268.83358089998364,268.33344999991823,268.83358089998364,268.33344999991823,268.83358089998364,268.33344999991823,268.83358089998364,268.33344999991823,268.83358089998364,268.33344999991823,268.83358089998364,268.33344999991823,268.83358089998364,268.33344999991823,268.83358089998364,266.73049320001155,None,268.83358089998364,269.71767349995207,1.6200000000000012,269.73439709993545,None,270.4856729999883,None,,,,,,,[[0.88]],2.1500000000000012,0.64,11014,001,2024_Jan_04_1001,MFTM_A_new1021,2021.2.3,59.54436651778971,
,,,,,,,,stim/Instruction_adaptive.png,conditions/adaptive.xlsx,test,-0.6,-0.6,-0.6,0.6,0.6,left,L,,,,,0,1,1,1,0,25,25,53,,,,,,,,,,,,,,,,,,,,,,,,,,,,,,,,,,,,,,,,,,,,270.9862506999634,None,left,1,2.2322755000786856,271.48693159990944,273.47363559994847,271.48693159990944,272.972442499944,271.48693159990944,272.972442499944,271.48693159990944,272.972442499944,271.48693159990944,272.972442499944,271.48693159990944,272.972442499944,272.9392690999666,273.44068299990613,272.9392690999666,273.44068299990613,272.9392690999666,273.44068299990613,272.9392690999666,273.44068299990613,272.9392690999666,273.44068299990613,272.9392690999666,273.44068299990613,272.9392690999666,273.44068299990613,272.9392690999666,273.44068299990613,271.48693159990944,None,273.44068299990613,274.47541899990756,1.480000000000001,274.4925149999326,None,275.2430507999379,None,,,,,,,[[1.02]],2.2600000000000016,0.6538461538461539,11014,001,2024_Jan_04_1001,MFTM_A_new1021,2021.2.3,59.54436651778971,
,,,,,,,,stim/Instruction_adaptive.png,conditions/adaptive.xlsx,test,0.6,0.6,0.6,-0.6,-0.6,right,R,,,,,0,1,1,1,0,26,26,2,,,,,,,,,,,,,,,,,,,,,,,,,,,,,,,,,,,,,,,,,,,,275.74308849999215,None,left,0,3.0908945000264794,276.24406229995657,278.11331419995986,276.24406229995657,277.62932289997116,276.24406229995657,277.62932289997116,276.24406229995657,277.62932289997116,276.24406229995657,277.62932289997116,276.24406229995657,277.62932289997116,277.5960187999299,278.0966978999786,277.5960187999299,278.0966978999786,277.5960187999299,278.0966978999786,277.5960187999299,278.0966978999786,277.5960187999299,278.0966978999786,277.5960187999299,278.0966978999786,277.5960187999299,278.0966978999786,277.5960187999299,278.0966978999786,276.24406229995657,None,278.0966978999786,279.3654413999757,1.370000000000001,279.3818259999389,None,280.13301340001635,None,,,,,,,[[1.13]],1.9600000000000013,0.6296296296296297,11014,001,2024_Jan_04_1001,MFTM_A_new1021,2021.2.3,59.54436651778971,
,,,,,,,,stim/Instruction_adaptive.png,conditions/adaptive.xlsx,test,0.6,0.6,0.6,-0.6,-0.6,right,R,,,,,0,1,1,1,0,27,27,12,,,,,,,,,,,,,,,,,,,,,,,,,,,,,,,,,,,,,,,,,,,,280.6345130999107,None,right,1,2.832875599968247,281.13458359998185,283.3379400999984,281.13458359998185,282.83763229998294,281.13458359998185,282.83763229998294,281.13458359998185,282.83763229998294,281.13458359998185,282.83763229998294,281.13458359998185,282.83763229998294,282.8036913999822,283.3045056000119,282.8036913999822,283.3045056000119,282.8036913999822,283.3045056000119,282.8036913999822,283.3045056000119,282.8036913999822,283.3045056000119,282.8036913999822,283.3045056000119,282.8036913999822,283.3045056000119,282.8036913999822,283.3045056000119,281.13458359998185,None,283.3045056000119,284.1227645999752,1.6900000000000013,284.13954929995816,None,284.8906908999197,None,,,,,,,[[0.81]],2.070000000000001,0.6428571428571429,11014,001,2024_Jan_04_1001,MFTM_A_new1021,2021.2.3,59.54436651778971,
,,,,,,,,stim/Instruction_adaptive.png,conditions/adaptive.xlsx,test,-0.6,-0.6,-0.6,0.6,0.6,left,L,,,,,0,1,1,1,0,28,28,19,,,,,,,,,,,,,,,,,,,,,,,,,,,,,,,,,,,,,,,,,,,,285.39101729996037,None,left,1,2.115549399983138,285.89172129996587,287.96222939994186,285.89172129996587,287.4614404999884,285.89172129996587,287.4614404999884,285.89172129996587,287.4614404999884,285.89172129996587,287.4614404999884,285.89172129996587,287.4614404999884,287.4446637999499,287.94552449998446,287.4446637999499,287.94552449998446,287.4446637999499,287.94552449998446,287.4446637999499,287.94552449998446,287.4446637999499,287.94552449998446,287.4446637999499,287.94552449998446,287.4446637999499,287.94552449998446,287.4446637999499,287.94552449998446,285.89172129996587,None,287.94552449998446,288.8803375000134,1.5700000000000012,288.8965826999629,None,289.6472653999226,None,,,,,,,[[0.93]],2.1700000000000017,0.6551724137931034,11014,001,2024_Jan_04_1001,MFTM_A_new1021,2021.2.3,59.54436651778971,
,,,,,,,,stim/Instruction_adaptive.png,conditions/adaptive.xlsx,test,-0.6,-0.6,-0.6,0.6,0.6,left,L,,,,,0,1,1,1,0,29,29,81,,,,,,,,,,,,,,,,,,,,,,,,,,,,,,,,,,,,,,,,,,,,290.1480262000114,None,left,1,2.278192500001751,290.64874809992034,292.6181014999747,290.64874809992034,292.11766649992205,290.64874809992034,292.11766649992205,290.64874809992034,292.11766649992205,290.64874809992034,292.11766649992205,290.64874809992034,292.11766649992205,292.08448720001616,292.5854896999663,292.08448720001616,292.5854896999663,292.08448720001616,292.5854896999663,292.08448720001616,292.5854896999663,292.08448720001616,292.5854896999663,292.08448720001616,292.5854896999663,292.08448720001616,292.5854896999663,292.08448720001616,292.5854896999663,290.64874809992034,None,292.5854896999663,293.6368472999893,1.460000000000001,293.65326439996716,None,294.40410759998485,None,,,,,,,[[1.04]],2.2600000000000016,0.6666666666666666,11014,001,2024_Jan_04_1001,MFTM_A_new1021,2021.2.3,59.54436651778971,
,,,,,,,,stim/Instruction_adaptive.png,conditions/adaptive.xlsx,test,0.6,0.6,0.6,-0.6,-0.6,right,R,,,,,0,1,1,1,0,30,30,28,,,,,,,,,,,,,,,,,,,,,,,,,,,,,,,,,,,,,,,,,,,,294.90562839992344,None,right,1,1.4728019000031054,295.4068263999652,297.2916564999614,295.4068263999652,296.79108150000684,295.4068263999652,296.79108150000684,295.4068263999652,296.79108150000684,295.4068263999652,296.79108150000684,295.4068263999652,296.79108150000684,296.757820699946,297.2587307000067,296.757820699946,297.2587307000067,296.757820699946,297.2587307000067,296.757820699946,297.2587307000067,296.757820699946,297.2587307000067,296.757820699946,297.2587307000067,296.757820699946,297.2587307000067,296.757820699946,297.2587307000067,295.4068263999652,None,297.2587307000067,298.39400620001834,1.370000000000001,298.41113749996293,None,299.16211469995324,None,,,,,,,[[1.13]],2.3400000000000016,0.6774193548387096,11014,001,2024_Jan_04_1001,MFTM_A_new1021,2021.2.3,59.54436651778971,
,,,,,,,,stim/Instruction_adaptive.png,conditions/adaptive.xlsx,test,0.6,0.6,0.6,-0.6,-0.6,right,R,,,,,0,1,1,1,0,31,31,42,,,,,,,,,,,,,,,,,,,,,,,,,,,,,,,,,,,,,,,,,,,,299.6623253999278,None,right,1,1.3882376999827102,300.1626528999768,301.96611209993716,300.1626528999768,301.4648310999619,300.1626528999768,301.4648310999619,300.1626528999768,301.4648310999619,300.1626528999768,301.4648310999619,300.1626528999768,301.4648310999619,301.44914569996763,301.9493894999614,301.44914569996763,301.9493894999614,301.44914569996763,301.9493894999614,301.44914569996763,301.9493894999614,301.44914569996763,301.9493894999614,301.44914569996763,301.9493894999614,301.44914569996763,301.9493894999614,301.44914569996763,301.9493894999614,300.1626528999768,None,301.9493894999614,303.15128290001303,1.300000000000001,303.167213800014,None,303.9191893999232,None,,,,,,,[[1.2]],2.410000000000002,0.6875,11014,001,2024_Jan_04_1001,MFTM_A_new1021,2021.2.3,59.54436651778971,
,,,,,,,,stim/Instruction_adaptive.png,conditions/adaptive.xlsx,test,0.6,0.6,0.6,-0.6,-0.6,right,R,,,,,0,1,1,1,0,32,32,8,,,,,,,,,,,,,,,,,,,,,,,,,,,,,,,,,,,,,,,,,,,,304.41970849991776,None,left,0,2.735197899979539,304.91975409991574,306.6726029999554,304.91975409991574,306.1718164999038,304.91975409991574,306.1718164999038,304.91975409991574,306.1718164999038,304.91975409991574,306.1718164999038,304.91975409991574,306.1718164999038,306.13833609991707,306.6392381999176,306.13833609991707,306.6392381999176,306.13833609991707,306.6392381999176,306.13833609991707,306.6392381999176,306.13833609991707,306.6392381999176,306.13833609991707,306.6392381999176,306.13833609991707,306.6392381999176,306.13833609991707,306.6392381999176,304.91975409991574,None,306.6392381999176,307.9081606999971,1.2400000000000009,307.92430969991256,None,308.6761607999215,None,,,,,,,[[1.26]],2.2000000000000015,0.6666666666666666,11014,001,2024_Jan_04_1001,MFTM_A_new1021,2021.2.3,59.54436651778971,
,,,,,,,,stim/Instruction_adaptive.png,conditions/adaptive.xlsx,test,0.6,0.6,0.6,-0.6,-0.6,right,R,,,,,0,1,1,1,0,33,33,26,,,,,,,,,,,,,,,,,,,,,,,,,,,,,,,,,,,,,,,,,,,,309.17628169991076,None,left,0,2.4181736999889836,309.6777628000127,311.61319629999343,309.6777628000127,311.1134806999471,309.6777628000127,311.1134806999471,309.6777628000127,311.1134806999471,309.6777628000127,311.1134806999471,309.6777628000127,311.1134806999471,311.0957209999906,311.59702949994244,311.0957209999906,311.59702949994244,311.0957209999906,311.59702949994244,311.0957209999906,311.59702949994244,311.0957209999906,311.59702949994244,311.0957209999906,311.59702949994244,311.0957209999906,311.59702949994244,311.0957209999906,311.59702949994244,309.6777628000127,None,311.59702949994244,None,1.430000000000001,312.6820025999332,None,313.43241379992105,None,,,,,,,[[1.07]],1.9700000000000013,0.6470588235294118,11014,001,2024_Jan_04_1001,MFTM_A_new1021,2021.2.3,59.54436651778971,
,,,,,,,,stim/Instruction_adaptive.png,conditions/adaptive.xlsx,test,-0.6,-0.6,-0.6,0.6,0.6,left,L,,,,,0,1,1,1,0,34,34,77,,,,,,,,,,,,,,,,,,,,,,,,,,,,,,,,,,,,,,,,,,,,313.93346109997947,None,left,1,1.7335151999723166,314.433765499969,316.6205157999648,314.433765499969,316.11987679998856,314.433765499969,316.11987679998856,314.433765499969,316.11987679998856,314.433765499969,316.11987679998856,314.433765499969,316.11987679998856,316.1031280999305,316.60392659995705,316.1031280999305,316.60392659995705,316.1031280999305,316.60392659995705,316.1031280999305,316.60392659995705,316.1031280999305,316.60392659995705,316.1031280999305,316.60392659995705,316.1031280999305,316.60392659995705,316.1031280999305,316.60392659995705,314.433765499969,None,316.60392659995705,None,1.6800000000000013,317.43901679990813,None,318.19010110001545,None,,,,,,,[[0.82]],2.0600000000000014,0.6571428571428571,11014,001,2024_Jan_04_1001,MFTM_A_new1021,2021.2.3,59.54436651778971,
,,,,,,,,stim/Instruction_adaptive.png,conditions/adaptive.xlsx,test,-0.6,-0.6,-0.6,0.6,0.6,left,L,,,,,0,1,1,1,0,35,35,17,,,,,,,,,,,,,,,,,,,,,,,,,,,,,,,,,,,,,,,,,,,,318.6902364999987,None,right,0,3.1921686999266967,319.1908620999893,321.27741499990225,319.1908620999893,320.7766851999331,319.1908620999893,320.7766851999331,319.1908620999893,320.7766851999331,319.1908620999893,320.7766851999331,319.1908620999893,320.7766851999331,320.760070099961,321.2606211999664,320.760070099961,321.2606211999664,320.760070099961,321.2606211999664,320.760070099961,321.2606211999664,320.760070099961,321.2606211999664,320.760070099961,321.2606211999664,320.760070099961,321.2606211999664,320.760070099961,321.2606211999664,319.1908620999893,None,321.2606211999664,322.4129163000034,1.5800000000000012,322.4289516999852,None,323.1802900999319,None,,,,,,,[[0.92]],1.8200000000000012,0.6388888888888888,11014,001,2024_Jan_04_1001,MFTM_A_new1021,2021.2.3,59.54436651778971,
,,,,,,,,stim/Instruction_adaptive.png,conditions/adaptive.xlsx,test,0.6,0.6,0.6,-0.6,-0.6,right,R,,,,,0,1,1,1,0,36,36,40,,,,,,,,,,,,,,,,,,,,,,,,,,,,,,,,,,,,,,,,,,,,323.68175150000025,None,right,1,1.2018586000194773,324.1817499999888,326.55167169997003,324.1817499999888,326.0515884999186,324.1817499999888,326.0515884999186,324.1817499999888,326.0515884999186,324.1817499999888,326.0515884999186,324.1817499999888,326.0515884999186,326.0187029999215,326.5191984999692,326.0187029999215,326.5191984999692,326.0187029999215,326.5191984999692,326.0187029999215,326.5191984999692,326.0187029999215,326.5191984999692,326.0187029999215,326.5191984999692,326.0187029999215,326.5191984999692,326.0187029999215,326.5191984999692,324.1817499999888,None,326.5191984999692,327.17151179991197,1.8600000000000014,327.18597230000887,None,327.9379198999377,None,,,,,,,[[0.64]],1.9100000000000013,0.6486486486486487,11014,001,2024_Jan_04_1001,MFTM_A_new1021,2021.2.3,59.54436651778971,
,,,,,,,,stim/Instruction_adaptive.png,conditions/adaptive.xlsx,test,-0.6,-0.6,-0.6,0.6,0.6,left,L,,,,,0,1,1,1,0,37,37,87,,,,,,,,,,,,,,,,,,,,,,,,,,,,,,,,,,,,,,,,,,,,328.43822709994856,None,left,1,2.2926461999304593,328.93861009995453,331.19266009994317,328.93861009995453,330.69232929998543,328.93861009995453,330.69232929998543,328.93861009995453,330.69232929998543,328.93861009995453,330.69232929998543,328.93861009995453,330.69232929998543,330.67529239994474,331.1756114999298,330.67529239994474,331.1756114999298,330.67529239994474,331.1756114999298,330.67529239994474,331.1756114999298,330.67529239994474,331.1756114999298,330.67529239994474,331.1756114999298,330.67529239994474,331.1756114999298,330.67529239994474,331.1756114999298,328.93861009995453,None,331.1756114999298,331.92761959997006,1.7500000000000013,331.9432657000143,None,332.69494580000173,None,,,,,,,[[0.75]],1.9900000000000013,0.6578947368421053,11014,001,2024_Jan_04_1001,MFTM_A_new1021,2021.2.3,59.54436651778971,
,,,,,,,,stim/Instruction_adaptive.png,conditions/adaptive.xlsx,test,-0.6,-0.6,-0.6,0.6,0.6,left,L,,,,,0,1,1,1,0,38,38,95,,,,,,,,,,,,,,,,,,,,,,,,,,,,,,,,,,,,,,,,,,,,333.19620080001187,None,left,1,2.5675458000041544,333.6956596999662,335.8663732999703,333.6956596999662,335.36595549993217,333.6956596999662,335.36595549993217,333.6956596999662,335.36595549993217,333.6956596999662,335.36595549993217,333.6956596999662,335.36595549993217,335.34824189997744,335.84992229996715,335.34824189997744,335.84992229996715,335.34824189997744,335.84992229996715,335.34824189997744,335.84992229996715,335.34824189997744,335.84992229996715,335.34824189997744,335.84992229996715,335.34824189997744,335.84992229996715,335.34824189997744,335.84992229996715,333.6956596999662,None,335.84992229996715,None,1.6600000000000013,336.7002674000105,None,337.4513159999624,None,,,,,,,[[0.84]],2.0600000000000014,0.6666666666666666,11014,001,2024_Jan_04_1001,MFTM_A_new1021,2021.2.3,59.54436651778971,
,,,,,,,,stim/Instruction_adaptive.png,conditions/adaptive.xlsx,test,0.6,0.6,0.6,-0.6,-0.6,right,R,,,,,0,1,1,1,0,39,39,62,,,,,,,,,,,,,,,,,,,,,,,,,,,,,,,,,,,,,,,,,,,,337.95223379996605,None,right,1,2.2262658000690863,338.45290669996757,340.5392420999706,338.45290669996757,340.0391366999829,338.45290669996757,340.0391366999829,338.45290669996757,340.0391366999829,338.45290669996757,340.0391366999829,338.45290669996757,340.0391366999829,340.0218118999619,340.5227967000101,340.0218118999619,340.5227967000101,340.0218118999619,340.5227967000101,340.0218118999619,340.5227967000101,340.0218118999619,340.5227967000101,340.0218118999619,340.5227967000101,340.0218118999619,340.5227967000101,340.0218118999619,340.5227967000101,338.45290669996757,None,340.5227967000101,341.4418322999263,1.5800000000000012,341.4572493999731,None,342.2085186999757,None,,,,,,,[[0.92]],2.1200000000000014,0.675,11014,001,2024_Jan_04_1001,MFTM_A_new1021,2021.2.3,59.54436651778971,
,,,,,,,,stim/Instruction_adaptive.png,conditions/adaptive.xlsx,test,-0.6,-0.6,-0.6,0.6,0.6,left,L,,,,,0,1,1,1,0,40,40,3,,,,,,,,,,,,,,,,,,,,,,,,,,,,,,,,,,,,,,,,,,,,342.7101943999296,None,left,1,1.7412407000083476,343.2099196999334,345.230221399921,343.2099196999334,344.73020260001067,343.2099196999334,344.73020260001067,343.2099196999334,344.73020260001067,343.2099196999334,344.73020260001067,343.2099196999334,344.73020260001067,344.6961294999346,345.19711519998964,344.6961294999346,345.19711519998964,344.6961294999346,345.19711519998964,344.6961294999346,345.19711519998964,344.6961294999346,345.19711519998964,344.6961294999346,345.19711519998964,344.6961294999346,345.19711519998964,344.6961294999346,345.19711519998964,343.2099196999334,None,345.19711519998964,346.19839849998243,1.5100000000000011,346.2143813999137,None,346.96539339993615,None,,,,,,,[[0.99]],2.1900000000000013,0.6829268292682927,11014,001,2024_Jan_04_1001,MFTM_A_new1021,2021.2.3,59.54436651778971,
,,,,,,,,stim/Instruction_adaptive.png,conditions/adaptive.xlsx,test,0.6,0.6,0.6,-0.6,-0.6,right,R,,,,,0,1,1,1,0,41,41,10,,,,,,,,,,,,,,,,,,,,,,,,,,,,,,,,,,,,,,,,,,,,347.4660385999596,None,left,0,2.0321478000842035,347.9670899999328,349.9198777999263,347.9670899999328,349.4192734999815,347.9670899999328,349.4192734999815,347.9670899999328,349.4192734999815,347.9670899999328,349.4192734999815,347.9670899999328,349.4192734999815,349.3857453999808,349.88653079990763,349.3857453999808,349.88653079990763,349.3857453999808,349.88653079990763,349.3857453999808,349.88653079990763,349.3857453999808,349.88653079990763,349.3857453999808,349.88653079990763,349.3857453999808,349.88653079990763,349.3857453999808,349.88653079990763,347.9670899999328,None,349.88653079990763,350.9550933999708,1.440000000000001,350.97127169999294,None,351.7234460999025,None,,,,,,,[[1.06]],2.0100000000000016,0.6666666666666666,11014,001,2024_Jan_04_1001,MFTM_A_new1021,2021.2.3,59.54436651778971,
,,,,,,,,stim/Instruction_adaptive.png,conditions/adaptive.xlsx,test,-0.6,-0.6,-0.6,0.6,0.6,left,L,,,,,0,1,1,1,0,42,42,43,,,,,,,,,,,,,,,,,,,,,,,,,,,,,,,,,,,,,,,,,,,,352.22421959997155,None,left,1,1.594884599908255,352.72416450001765,354.8605651999824,352.72416450001765,354.36027569998987,352.72416450001765,354.36027569998987,352.72416450001765,354.36027569998987,352.72416450001765,354.36027569998987,352.72416450001765,354.36027569998987,354.3431590999244,354.8443910999922,354.3431590999244,354.8443910999922,354.3431590999244,354.8443910999922,354.3431590999244,354.8443910999922,354.3431590999244,354.8443910999922,354.3431590999244,354.8443910999922,354.3431590999244,354.8443910999922,354.3431590999244,354.8443910999922,352.72416450001765,None,354.8443910999922,None,1.6300000000000012,355.72834319993854,None,356.4800055999076,None,,,,,,,[[0.87]],2.070000000000001,0.6744186046511628,11014,001,2024_Jan_04_1001,MFTM_A_new1021,2021.2.3,59.54436651778971,
,,,,,,,,stim/Instruction_adaptive.png,conditions/adaptive.xlsx,test,0.6,0.6,0.6,-0.6,-0.6,right,R,,,,,0,1,1,1,0,43,43,32,,,,,,,,,,,,,,,,,,,,,,,,,,,,,,,,,,,,,,,,,,,,356.98108850000426,None,right,1,1.42207089997828,357.481141999946,359.55062999995425,357.481141999946,359.04997019993607,357.481141999946,359.04997019993607,357.481141999946,359.04997019993607,357.481141999946,359.04997019993607,357.481141999946,359.04997019993607,359.0333570999792,359.53413389995694,359.0333570999792,359.53413389995694,359.0333570999792,359.53413389995694,359.0333570999792,359.53413389995694,359.0333570999792,359.53413389995694,359.0333570999792,359.53413389995694,359.0333570999792,359.53413389995694,359.0333570999792,359.53413389995694,357.481141999946,None,359.53413389995694,360.46863939997274,1.5700000000000012,360.48525239992887,None,361.2365743999835,None,,,,,,,[[0.93]],2.1300000000000017,0.6818181818181818,11014,001,2024_Jan_04_1001,MFTM_A_new1021,2021.2.3,59.54436651778971,
,,,,,,,,stim/Instruction_adaptive.png,conditions/adaptive.xlsx,test,0.6,0.6,0.6,-0.6,-0.6,right,R,,,,,0,1,1,1,0,44,44,38,,,,,,,,,,,,,,,,,,,,,,,,,,,,,,,,,,,,,,,,,,,,361.738704499905,None,left,0,1.4890822999877855,362.23821330000646,364.24186499998905,362.23821330000646,363.74065859999973,362.23821330000646,363.74065859999973,362.23821330000646,363.74065859999973,362.23821330000646,363.74065859999973,362.23821330000646,363.74065859999973,363.72424469992984,364.22510619997047,363.72424469992984,364.22510619997047,363.72424469992984,364.22510619997047,363.72424469992984,364.22510619997047,363.72424469992984,364.22510619997047,363.72424469992984,364.22510619997047,363.72424469992984,364.22510619997047,363.72424469992984,364.22510619997047,362.23821330000646,None,364.22510619997047,365.2262134999037,1.500000000000001,365.2422409999417,None,365.9945148999104,None,,,,,,,[[1.]],1.9700000000000013,0.6666666666666666,11014,001,2024_Jan_04_1001,MFTM_A_new1021,2021.2.3,59.54436651778971,
,,,,,,,,stim/Instruction_adaptive.png,conditions/adaptive.xlsx,test,-0.6,-0.6,-0.6,0.6,0.6,left,L,,,,,0,1,1,1,0,45,45,71,,,,,,,,,,,,,,,,,,,,,,,,,,,,,,,,,,,,,,,,,,,,366.49448719993234,None,left,1,2.068305699969642,366.9951358999824,369.18182389996946,366.9951358999824,368.6817202999955,366.9951358999824,368.6817202999955,366.9951358999824,368.6817202999955,366.9951358999824,368.6817202999955,366.9951358999824,368.6817202999955,368.66479149996303,369.16564959997777,368.66479149996303,369.16564959997777,368.66479149996303,369.16564959997777,368.66479149996303,369.16564959997777,368.66479149996303,369.16564959997777,368.66479149996303,369.16564959997777,368.66479149996303,369.16564959997777,368.66479149996303,369.16564959997777,366.9951358999824,None,369.16564959997777,None,1.6800000000000013,369.99970259994734,None,370.7514521999983,None,,,,,,,[[0.82]],2.030000000000001,0.6739130434782609,11014,001,2024_Jan_04_1001,MFTM_A_new1021,2021.2.3,59.54436651778971,
,,,,,,,,stim/Instruction_adaptive.png,conditions/adaptive.xlsx,test,0.6,0.6,0.6,-0.6,-0.6,right,R,,,,,0,1,1,1,0,46,46,58,,,,,,,,,,,,,,,,,,,,,,,,,,,,,,,,,,,,,,,,,,,,371.2524058999261,None,left,0,2.406161900027655,371.7528738999972,373.8718792999862,371.7528738999972,373.3726672999328,371.7528738999972,373.3726672999328,371.7528738999972,373.3726672999328,371.7528738999972,373.3726672999328,371.7528738999972,373.3726672999328,373.3378040000098,373.8385094999103,373.3378040000098,373.8385094999103,373.3378040000098,373.8385094999103,373.3378040000098,373.8385094999103,373.3378040000098,373.8385094999103,373.3378040000098,373.8385094999103,373.3378040000098,373.8385094999103,373.3378040000098,373.8385094999103,371.7528738999972,None,373.8385094999103,374.7408467999194,1.6100000000000012,374.7566437999485,None,375.508666299982,None,,,,,,,[[0.89]],1.8600000000000012,0.6595744680851063,11014,001,2024_Jan_04_1001,MFTM_A_new1021,2021.2.3,59.54436651778971,
,,,,,,,,stim/Instruction_adaptive.png,conditions/adaptive.xlsx,test,0.6,0.6,0.6,-0.6,-0.6,right,R,,,,,0,1,1,1,0,47,47,74,,,,,,,,,,,,,,,,,,,,,,,,,,,,,,,,,,,,,,,,,,,,376.0097376999911,None,right,1,2.3617929000174627,376.5093355999561,378.8292299999157,376.5093355999561,378.3286366999382,376.5093355999561,378.3286366999382,376.5093355999561,378.3286366999382,376.5093355999561,378.3286366999382,376.5093355999561,378.3286366999382,378.2952845999971,378.79626629990526,378.2952845999971,378.79626629990526,378.2952845999971,378.79626629990526,378.2952845999971,378.79626629990526,378.2952845999971,378.79626629990526,378.2952845999971,378.79626629990526,378.2952845999971,378.79626629990526,378.2952845999971,378.79626629990526,376.5093355999561,None,378.79626629990526,379.49712929991074,1.8100000000000014,379.5138091999106,None,380.2661374999443,None,,,,,,,[[0.69]],1.9200000000000013,0.6666666666666666,11014,001,2024_Jan_04_1001,MFTM_A_new1021,2021.2.3,59.54436651778971,
,,,,,,,,stim/Instruction_adaptive.png,conditions/adaptive.xlsx,test,0.6,0.6,0.6,-0.6,-0.6,right,R,,,,,0,1,1,1,0,48,48,80,,,,,,,,,,,,,,,,,,,,,,,,,,,,,,,,,,,,,,,,,,,,380.7656648999546,None,right,1,1.060704900068231,381.26640779990703,383.52007570001297,381.26640779990703,383.02036959992256,381.26640779990703,383.02036959992256,381.26640779990703,383.02036959992256,381.26640779990703,383.02036959992256,381.26640779990703,383.02036959992256,382.98623119993135,383.48661099991295,382.98623119993135,383.48661099991295,382.98623119993135,383.48661099991295,382.98623119993135,383.48661099991295,382.98623119993135,383.48661099991295,382.98623119993135,383.48661099991295,382.98623119993135,383.48661099991295,382.98623119993135,383.48661099991295,381.26640779990703,None,383.48661099991295,384.25501909991726,1.7400000000000013,384.2715726000024,None,385.0226175999269,None,,,,,,,[[0.76]],1.9700000000000013,0.673469387755102,11014,001,2024_Jan_04_1001,MFTM_A_new1021,2021.2.3,59.54436651778971,
,,,,,,,,stim/Instruction_adaptive.png,conditions/adaptive.xlsx,test,-0.6,-0.6,-0.6,0.6,0.6,left,L,,,,,0,1,1,1,0,49,49,99,,,,,,,,,,,,,,,,,,,,,,,,,,,,,,,,,,,,,,,,,,,,385.5226743000094,None,left,1,2.647630300023593,386.02346629998647,388.21072470000945,386.02346629998647,387.70927140000276,386.02346629998647,387.70927140000276,386.02346629998647,387.70927140000276,386.02346629998647,387.70927140000276,386.02346629998647,387.70927140000276,387.69368259992916,388.19420759996865,387.69368259992916,388.19420759996865,387.69368259992916,388.19420759996865,387.69368259992916,388.19420759996865,387.69368259992916,388.19420759996865,387.69368259992916,388.19420759996865,387.69368259992916,388.19420759996865,387.69368259992916,388.19420759996865,386.02346629998647,None,388.19420759996865,None,1.6800000000000013,389.02852859999985,None,389.7789009999251,None,,,,,,,[[0.82]],2.030000000000001,0.68,11014,001,2024_Jan_04_1001,MFTM_A_new1021,2021.2.3,59.54436651778971,
,,,,,,,,stim/Instruction_adaptive.png,conditions/adaptive.xlsx,test,-0.6,-0.6,-0.6,0.6,0.6,left,L,,,,,0,1,1,1,0,50,50,47,,,,,,,,,,,,,,,,,,,,,,,,,,,,,,,,,,,,,,,,,,,,390.28026979998685,None,left,1,2.441797300009057,390.78170469996985,392.90074229997117,390.78170469996985,392.4004547999939,390.78170469996985,392.4004547999939,390.78170469996985,392.4004547999939,390.78170469996985,392.4004547999939,390.78170469996985,392.4004547999939,392.3666127999313,392.86760439991485,392.3666127999313,392.86760439991485,392.3666127999313,392.86760439991485,392.3666127999313,392.86760439991485,392.3666127999313,392.86760439991485,392.3666127999313,392.86760439991485,392.3666127999313,392.86760439991485,392.3666127999313,392.86760439991485,390.78170469996985,None,392.86760439991485,393.76821729994845,1.6100000000000012,393.7856301999418,None,394.5368699999526,None,,,,,,,[[0.89]],2.0800000000000014,0.6862745098039216,11014,001,2024_Jan_04_1001,MFTM_A_new1021,2021.2.3,59.54436651778971,
,,,,,,,,stim/Instruction_adaptive.png,conditions/adaptive.xlsx,test,-0.6,-0.6,-0.6,0.6,0.6,left,L,,,,,0,1,1,1,0,51,51,51,,,,,,,,,,,,,,,,,,,,,,,,,,,,,,,,,,,,,,,,,,,,395.03677359991707,None,left,1,2.5730643999995664,395.5379957999103,397.60756089992356,395.5379957999103,397.10650120000355,395.5379957999103,397.10650120000355,395.5379957999103,397.10650120000355,395.5379957999103,397.10650120000355,395.5379957999103,397.10650120000355,397.07381829991937,397.5738632999128,397.07381829991937,397.5738632999128,397.07381829991937,397.5738632999128,397.07381829991937,397.5738632999128,397.07381829991937,397.5738632999128,397.07381829991937,397.5738632999128,397.07381829991937,397.5738632999128,397.07381829991937,397.5738632999128,395.5379957999103,None,397.5738632999128,398.52571229997557,1.5600000000000012,398.54194559995085,None,399.2933992999606,None,,,,,,,[[0.94]],2.1200000000000014,0.6923076923076923,11014,001,2024_Jan_04_1001,MFTM_A_new1021,2021.2.3,59.54436651778971,
,,,,,,,,stim/Instruction_adaptive.png,conditions/adaptive.xlsx,test,-0.6,-0.6,-0.6,0.6,0.6,left,L,,,,,0,1,1,1,0,52,52,39,,,,,,,,,,,,,,,,,,,,,,,,,,,,,,,,,,,,,,,,,,,,399.7941570999101,None,left,1,1.5212086000246927,400.29431319993455,402.3150855000131,400.29431319993455,401.81395109998994,400.29431319993455,401.81395109998994,400.29431319993455,401.81395109998994,400.29431319993455,401.81395109998994,400.29431319993455,401.81395109998994,401.7799441999523,402.2808587999316,401.7799441999523,402.2808587999316,401.7799441999523,402.2808587999316,401.7799441999523,402.2808587999316,401.7799441999523,402.2808587999316,401.7799441999523,402.2808587999316,401.7799441999523,402.2808587999316,401.7799441999523,402.2808587999316,400.29431319993455,None,402.2808587999316,403.28288610000163,1.5100000000000011,403.29958250001073,None,404.0508186999941,None,,,,,,,[[0.99]],2.1700000000000017,0.6981132075471698,11014,001,2024_Jan_04_1001,MFTM_A_new1021,2021.2.3,59.54436651778971,
,,,,,,,,stim/Instruction_adaptive.png,conditions/adaptive.xlsx,test,0.6,0.6,0.6,-0.6,-0.6,right,R,,,,,0,1,1,1,0,53,53,16,,,,,,,,,,,,,,,,,,,,,,,,,,,,,,,,,,,,,,,,,,,,404.55090429994743,None,left,0,2.2436548999976367,405.05138189997524,407.0211272999877,405.05138189997524,406.5202206999529,405.05138189997524,406.5202206999529,405.05138189997524,406.5202206999529,405.05138189997524,406.5202206999529,405.05138189997524,406.5202206999529,406.48751529993024,406.9883814000059,406.48751529993024,406.9883814000059,406.48751529993024,406.9883814000059,406.48751529993024,406.9883814000059,406.48751529993024,406.9883814000059,406.48751529993024,406.9883814000059,406.48751529993024,406.9883814000059,406.48751529993024,406.9883814000059,405.05138189997524,None,406.9883814000059,408.03920309990644,1.460000000000001,408.0562090999447,None,408.8077579999808,None,,,,,,,[[1.04]],2.0400000000000014,0.6851851851851852,11014,001,2024_Jan_04_1001,MFTM_A_new1021,2021.2.3,59.54436651778971,
,,,,,,,,stim/Instruction_adaptive.png,conditions/adaptive.xlsx,test,-0.6,-0.6,-0.6,0.6,0.6,left,L,,,,,0,1,1,1,0,54,54,91,,,,,,,,,,,,,,,,,,,,,,,,,,,,,,,,,,,,,,,,,,,,409.3080670000054,None,left,1,1.96666809997987,409.80868669995107,411.912346099969,409.80868669995107,411.41151619993616,409.80868669995107,411.41151619993616,409.80868669995107,411.41151619993616,409.80868669995107,411.41151619993616,409.80868669995107,411.41151619993616,411.3949037999846,411.89567849994637,411.3949037999846,411.89567849994637,411.3949037999846,411.89567849994637,411.3949037999846,411.89567849994637,411.3949037999846,411.89567849994637,411.3949037999846,411.89567849994637,411.3949037999846,411.89567849994637,411.3949037999846,411.89567849994637,409.80868669995107,None,411.89567849994637,412.79706219991203,1.6000000000000012,412.81317999993917,None,413.5642727999948,None,,,,,,,[[0.9]],2.0900000000000016,0.6909090909090909,11014,001,2024_Jan_04_1001,MFTM_A_new1021,2021.2.3,59.54436651778971,
,,,,,,,,stim/Instruction_adaptive.png,conditions/adaptive.xlsx,test,0.6,0.6,0.6,-0.6,-0.6,right,R,,,,,0,1,1,1,0,55,55,96,,,,,,,,,,,,,,,,,,,,,,,,,,,,,,,,,,,,,,,,,,,,414.0661179999588,None,right,1,2.4009586999891326,414.566344599938,416.6190231000073,414.566344599938,416.1187444999814,414.566344599938,416.1187444999814,414.566344599938,416.1187444999814,414.566344599938,416.1187444999814,414.566344599938,416.1187444999814,416.10188339999877,416.6020004999591,416.10188339999877,416.6020004999591,416.10188339999877,416.6020004999591,416.10188339999877,416.6020004999591,416.10188339999877,416.6020004999591,416.10188339999877,416.6020004999591,416.10188339999877,416.6020004999591,416.10188339999877,416.6020004999591,414.566344599938,None,416.6020004999591,417.5544888000004,1.5500000000000012,417.57069339999,None,418.32137159991544,None,,,,,,,[[0.95]],2.1300000000000017,0.6964285714285714,11014,001,2024_Jan_04_1001,MFTM_A_new1021,2021.2.3,59.54436651778971,
,,,,,,,,stim/Instruction_adaptive.png,conditions/adaptive.xlsx,test,0.6,0.6,0.6,-0.6,-0.6,right,R,,,,,0,1,1,1,0,56,56,30,,,,,,,,,,,,,,,,,,,,,,,,,,,,,,,,,,,,,,,,,,,,418.8217577999458,None,left,0,2.204407900106162,419.32268879993353,421.3257586999098,419.32268879993353,420.82521319994703,419.32268879993353,420.82521319994703,419.32268879993353,420.82521319994703,419.32268879993353,420.82521319994703,419.32268879993353,420.82521319994703,420.8088710999582,421.30969139991794,420.8088710999582,421.30969139991794,420.8088710999582,421.30969139991794,420.8088710999582,421.30969139991794,420.8088710999582,421.30969139991794,420.8088710999582,421.30969139991794,420.8088710999582,421.30969139991794,420.8088710999582,421.30969139991794,419.32268879993353,None,421.30969139991794,422.31049549998716,1.500000000000001,422.3271076999372,None,423.0781006999314,None,,,,,,,[[1.]],2.0000000000000013,0.6842105263157895,11014,001,2024_Jan_04_1001,MFTM_A_new1021,2021.2.3,59.54436651778971,
,,,,,,,,stim/Instruction_adaptive.png,conditions/adaptive.xlsx,test,-0.6,-0.6,-0.6,0.6,0.6,left,L,,,,,0,1,1,1,0,57,57,97,,,,,,,,,,,,,,,,,,,,,,,,,,,,,,,,,,,,,,,,,,,,423.5792620999273,None,left,1,1.6554767000488937,424.07978359994013,426.2328372999327,424.07978359994013,425.7330059999367,424.07978359994013,425.7330059999367,424.07978359994013,425.7330059999367,424.07978359994013,425.7330059999367,424.07978359994013,425.7330059999367,425.69884039997123,426.2006972999079,425.69884039997123,426.2006972999079,425.69884039997123,426.2006972999079,425.69884039997123,426.2006972999079,425.69884039997123,426.2006972999079,425.69884039997123,426.2006972999079,425.69884039997123,426.2006972999079,425.69884039997123,426.2006972999079,424.07978359994013,None,426.2006972999079,427.0687676999951,1.6400000000000012,427.08359950000886,None,427.8359871999128,None,,,,,,,[[0.86]],2.0500000000000016,0.6896551724137931,11014,001,2024_Jan_04_1001,MFTM_A_new1021,2021.2.3,59.54436651778971,
,,,,,,,,stim/Instruction_adaptive.png,conditions/adaptive.xlsx,test,0.6,0.6,0.6,-0.6,-0.6,right,R,,,,,0,1,1,1,0,58,58,18,,,,,,,,,,,,,,,,,,,,,,,,,,,,,,,,,,,,,,,,,,,,428.3359917999478,None,left,0,2.018411900033243,428.8369808999123,430.9409898999147,428.8369808999123,430.4394423000049,428.8369808999123,430.4394423000049,428.8369808999123,430.4394423000049,428.8369808999123,430.4394423000049,428.8369808999123,430.4394423000049,430.40584259992465,430.9063611999154,430.40584259992465,430.9063611999154,430.40584259992465,430.9063611999154,430.40584259992465,430.9063611999154,430.40584259992465,430.9063611999154,430.40584259992465,430.9063611999154,430.40584259992465,430.9063611999154,430.40584259992465,430.9063611999154,428.8369808999123,None,430.9063611999154,431.8245508999098,1.5900000000000012,431.842045999947,None,432.5931955999695,None,,,,,,,[[0.91]],1.9200000000000013,0.6779661016949152,11014,001,2024_Jan_04_1001,MFTM_A_new1021,2021.2.3,59.54436651778971,
,,,,,,,,stim/Instruction_adaptive.png,conditions/adaptive.xlsx,test,-0.6,-0.6,-0.6,0.6,0.6,left,L,,,,,0,1,1,1,0,59,59,79,,,,,,,,,,,,,,,,,,,,,,,,,,,,,,,,,,,,,,,,,,,,433.09369399992283,None,right,0,2.7252811000216752,433.59421020001173,435.84785949997604,433.59421020001173,435.34739869995974,433.59421020001173,435.34739869995974,433.59421020001173,435.34739869995974,433.59421020001173,435.34739869995974,433.59421020001173,435.34739869995974,435.31306489999406,435.81472899997607,435.31306489999406,435.81472899997607,435.31306489999406,435.81472899997607,435.31306489999406,435.81472899997607,435.31306489999406,435.81472899997607,435.31306489999406,435.81472899997607,435.31306489999406,435.81472899997607,435.31306489999406,435.81472899997607,433.59421020001173,None,435.81472899997607,436.58169989997987,1.7400000000000013,436.5982554999646,None,437.3502002999885,None,,,,,,,[[0.76]],1.7800000000000011,0.6666666666666666,11014,001,2024_Jan_04_1001,MFTM_A_new1021,2021.2.3,59.54436651778971,
,,,,,,,,stim/Instruction_adaptive.png,conditions/adaptive.xlsx,test,0.6,0.6,0.6,-0.6,-0.6,right,R,,,,,0,1,1,1,0,60,60,24,,,,,,,,,,,,,,,,,,,,,,,,,,,,,,,,,,,,,,,,,,,,437.85089849994984,None,right,1,1.5766782000428066,438.350899699959,440.77206709992606,438.350899699959,440.2702489999356,438.350899699959,440.2702489999356,438.350899699959,440.2702489999356,438.350899699959,440.2702489999356,438.350899699959,440.2702489999356,440.25364219991025,440.75447189994156,440.25364219991025,440.75447189994156,440.25364219991025,440.75447189994156,440.25364219991025,440.75447189994156,440.25364219991025,440.75447189994156,440.25364219991025,440.75447189994156,440.25364219991025,440.75447189994156,440.25364219991025,440.75447189994156,438.350899699959,None,440.75447189994156,441.33923769998364,1.9200000000000015,441.3553599999286,None,442.10655659995973,None,,,,,,,[[0.58]],1.8300000000000012,0.6721311475409836,11014,001,2024_Jan_04_1001,MFTM_A_new1021,2021.2.3,59.54436651778971,
,,,,,,,,stim/Instruction_adaptive.png,conditions/adaptive.xlsx,test,-0.6,-0.6,-0.6,0.6,0.6,left,L,,,,,0,1,1,1,0,61,61,75,,,,,,,,,,,,,,,,,,,,,,,,,,,,,,,,,,,,,,,,,,,,442.6075824999716,None,left,1,2.043914300040342,443.1082253999775,445.46160179993603,443.1082253999775,444.9608228999423,443.1082253999775,444.9608228999423,443.1082253999775,444.9608228999423,443.1082253999775,444.9608228999423,443.1082253999775,444.9608228999423,444.9446719000116,445.4455180999357,444.9446719000116,445.4455180999357,444.9446719000116,445.4455180999357,444.9446719000116,445.4455180999357,444.9446719000116,445.4455180999357,444.9446719000116,445.4455180999357,444.9446719000116,445.4455180999357,444.9446719000116,445.4455180999357,443.1082253999775,None,445.4455180999357,446.09589519992005,1.8500000000000014,446.113271899987,None,446.8643996999599,None,,,,,,,[[0.65]],1.8800000000000012,0.6774193548387096,11014,001,2024_Jan_04_1001,MFTM_A_new1021,2021.2.3,59.54436651778971,
,,,,,,,,stim/Instruction_adaptive.png,conditions/adaptive.xlsx,test,-0.6,-0.6,-0.6,0.6,0.6,left,L,,,,,0,1,1,1,0,62,62,73,,,,,,,,,,,,,,,,,,,,,,,,,,,,,,,,,,,,,,,,,,,,447.36426820000634,None,right,0,2.7256840000627562,447.8656883999938,450.168359400006,447.8656883999938,449.6688092999393,447.8656883999938,449.6688092999393,447.8656883999938,449.6688092999393,447.8656883999938,449.6688092999393,447.8656883999938,449.6688092999393,449.63409439998213,450.13612739997916,449.63409439998213,450.13612739997916,449.63409439998213,450.13612739997916,449.63409439998213,450.13612739997916,449.63409439998213,450.13612739997916,449.63409439998213,450.13612739997916,449.63409439998213,450.13612739997916,449.63409439998213,450.13612739997916,447.8656883999938,None,450.13612739997916,450.85288339992985,1.7900000000000014,450.86996089993045,None,451.6212937999517,None,,,,,,,[[0.71]],1.750000000000001,0.6666666666666666,11014,001,2024_Jan_04_1001,MFTM_A_new1021,2021.2.3,59.54436651778971,
,,,,,,,,stim/Instruction_adaptive.png,conditions/adaptive.xlsx,test,0.6,0.6,0.6,-0.6,-0.6,right,R,,,,,0,1,1,1,0,63,63,98,,,,,,,,,,,,,,,,,,,,,,,,,,,,,,,,,,,,,,,,,,,,452.12196759996004,None,right,1,1.8164473000215366,452.62279519997537,455.09235509997234,452.62279519997537,454.5918371999869,452.62279519997537,454.5918371999869,452.62279519997537,454.5918371999869,452.62279519997537,454.5918371999869,452.62279519997537,454.5918371999869,454.5583372999681,455.0593665000051,454.5583372999681,455.0593665000051,454.5583372999681,455.0593665000051,454.5583372999681,455.0593665000051,454.5583372999681,455.0593665000051,454.5583372999681,455.0593665000051,454.5583372999681,455.0593665000051,454.5583372999681,455.0593665000051,452.62279519997537,None,455.0593665000051,455.6108251999831,1.9600000000000015,455.62651420000475,None,456.3778849999653,None,,,,,,,[[0.54]],1.7900000000000011,0.671875,11014,001,2024_Jan_04_1001,MFTM_A_new1021,2021.2.3,59.54436651778971,
,,,,,,,,stim/Instruction_adaptive.png,conditions/adaptive.xlsx,test,0.6,0.6,0.6,-0.6,-0.6,right,R,,,,,0,1,1,1,0,64,64,22,,,,,,,,,,,,,,,,,,,,,,,,,,,,,,,,,,,,,,,,,,,,456.8791067999555,None,right,1,1.6998040999751538,457.37947039993014,459.7834962999914,457.37947039993014,459.28257319994736,457.37947039993014,459.28257319994736,457.37947039993014,459.28257319994736,457.37947039993014,459.28257319994736,457.37947039993014,459.28257319994736,459.2660387000069,459.76602119999006,459.2660387000069,459.76602119999006,459.2660387000069,459.76602119999006,459.2660387000069,459.76602119999006,459.2660387000069,459.76602119999006,459.2660387000069,459.76602119999006,459.2660387000069,459.76602119999006,459.2660387000069,459.76602119999006,457.37947039993014,None,459.76602119999006,460.3676189999096,1.9000000000000015,460.3843886000104,None,461.13478099997155,None,,,,,,,[[0.6]],1.8400000000000012,0.676923076923077,11014,001,2024_Jan_04_1001,MFTM_A_new1021,2021.2.3,59.54436651778971,
,,,,,,,,stim/Instruction_adaptive.png,conditions/adaptive.xlsx,test,0.6,0.6,0.6,-0.6,-0.6,right,R,,,,,0,1,1,1,0,65,65,72,,,,,,,,,,,,,,,,,,,,,,,,,,,,,,,,,,,,,,,,,,,,461.635965299909,None,right,1,2.34296020003967,462.13615149992984,464.49022569996305,462.13615149992984,463.98940759990364,462.13615149992984,463.98940759990364,462.13615149992984,463.98940759990364,462.13615149992984,463.98940759990364,462.13615149992984,463.98940759990364,463.9564519999549,464.4563910999568,463.9564519999549,464.4563910999568,463.9564519999549,464.4563910999568,463.9564519999549,464.4563910999568,463.9564519999549,464.4563910999568,463.9564519999549,464.4563910999568,463.9564519999549,464.4563910999568,463.9564519999549,464.4563910999568,462.13615149992984,None,464.4563910999568,465.1244010999799,1.8400000000000014,465.14059460000135,None,465.89183159999084,None,,,,,,,[[0.66]],1.8800000000000012,0.6818181818181818,11014,001,2024_Jan_04_1001,MFTM_A_new1021,2021.2.3,59.54436651778971,
,,,,,,,,stim/Instruction_adaptive.png,conditions/adaptive.xlsx,test,-0.6,-0.6,-0.6,0.6,0.6,left,L,,,,,0,1,1,1,0,66,66,7,,,,,,,,,,,,,,,,,,,,,,,,,,,,,,,,,,,,,,,,,,,,466.39244939992204,None,left,1,1.1209577999543399,466.89426879992243,469.19699199998286,466.89426879992243,468.6958423999604,466.89426879992243,468.6958423999604,466.89426879992243,468.6958423999604,466.89426879992243,468.6958423999604,466.89426879992243,468.6958423999604,468.6633312999038,469.1633061999455,468.6633312999038,469.1633061999455,468.6633312999038,469.1633061999455,468.6633312999038,469.1633061999455,468.6633312999038,469.1633061999455,468.6633312999038,469.1633061999455,468.6633312999038,469.1633061999455,468.6633312999038,469.1633061999455,466.89426879992243,None,469.1633061999455,469.88163389998954,1.7900000000000014,469.89832899998873,None,470.64932480000425,None,,,,,,,[[0.71]],1.9200000000000013,0.6865671641791045,11014,001,2024_Jan_04_1001,MFTM_A_new1021,2021.2.3,59.54436651778971,
,,,,,,,,stim/Instruction_adaptive.png,conditions/adaptive.xlsx,test,-0.6,-0.6,-0.6,0.6,0.6,left,L,,,,,0,1,1,1,0,67,67,45,,,,,,,,,,,,,,,,,,,,,,,,,,,,,,,,,,,,,,,,,,,,471.14944720000494,None,left,1,1.18160460004583,471.6503066999139,473.9038390999194,471.6503066999139,473.4036569999298,471.6503066999139,473.4036569999298,471.6503066999139,473.4036569999298,471.6503066999139,473.4036569999298,471.6503066999139,473.4036569999298,473.369584399974,473.8706448000157,473.369584399974,473.8706448000157,473.369584399974,473.8706448000157,473.369584399974,473.8706448000157,473.369584399974,473.8706448000157,473.369584399974,473.8706448000157,473.369584399974,473.8706448000157,473.369584399974,473.8706448000157,471.6503066999139,None,473.8706448000157,474.63862799992785,1.7400000000000013,474.65535589994397,None,475.4066261999542,None,,,,,,,[[0.76]],1.9600000000000013,0.6911764705882353,11014,001,2024_Jan_04_1001,MFTM_A_new1021,2021.2.3,59.54436651778971,
,,,,,,,,stim/Instruction_adaptive.png,conditions/adaptive.xlsx,test,0.6,0.6,0.6,-0.6,-0.6,right,R,,,,,0,1,1,1,0,68,68,94,,,,,,,,,,,,,,,,,,,,,,,,,,,,,,,,,,,,,,,,,,,,475.9071546999039,None,right,1,2.0001266000326723,476.40714509994723,478.61052929994185,476.40714509994723,478.11044239997864,476.40714509994723,478.11044239997864,476.40714509994723,478.11044239997864,476.40714509994723,478.11044239997864,476.40714509994723,478.11044239997864,478.07661879993975,478.57715799997095,478.07661879993975,478.57715799997095,478.07661879993975,478.57715799997095,478.07661879993975,478.57715799997095,478.07661879993975,478.57715799997095,478.07661879993975,478.57715799997095,478.07661879993975,478.57715799997095,478.07661879993975,478.57715799997095,476.40714509994723,None,478.57715799997095,479.3952770999167,1.6900000000000013,479.4123400999233,None,480.1628018999472,None,,,,,,,[[0.81]],1.9900000000000013,0.6956521739130435,11014,001,2024_Jan_04_1001,MFTM_A_new1021,2021.2.3,59.54436651778971,
,,,,,,,,stim/Instruction_adaptive.png,conditions/adaptive.xlsx,test,0.6,0.6,0.6,-0.6,-0.6,right,R,,,,,0,1,1,1,0,69,69,4,,,,,,,,,,,,,,,,,,,,,,,,,,,,,,,,,,,,,,,,,,,,480.66385929996613,None,right,1,2.1943853000411764,481.16479199996684,483.33429859997705,481.16479199996684,482.8333407000173,481.16479199996684,482.8333407000173,481.16479199996684,482.8333407000173,481.16479199996684,482.8333407000173,481.16479199996684,482.8333407000173,482.80015759996604,483.30088689993136,482.80015759996604,483.30088689993136,482.80015759996604,483.30088689993136,482.80015759996604,483.30088689993136,482.80015759996604,483.30088689993136,482.80015759996604,483.30088689993136,482.80015759996604,483.30088689993136,482.80015759996604,483.30088689993136,481.16479199996684,None,483.30088689993136,484.15204429998994,1.6600000000000013,484.16894759994466,None,484.92017579998355,None,,,,,,,[[0.84]],2.030000000000001,0.7,11014,001,2024_Jan_04_1001,MFTM_A_new1021,2021.2.3,59.54436651778971,
,,,,,,,,stim/Instruction_adaptive.png,conditions/adaptive.xlsx,test,-0.6,-0.6,-0.6,0.6,0.6,left,L,,,,,0,1,1,1,0,70,70,59,,,,,,,,,,,,,,,,,,,,,,,,,,,,,,,,,,,,,,,,,,,,485.4207804999314,None,right,0,1.8931011999957263,485.9220950999297,488.04118469997775,485.9220950999297,487.5405855999561,485.9220950999297,487.5405855999561,485.9220950999297,487.5405855999561,485.9220950999297,487.5405855999561,485.9220950999297,487.5405855999561,487.5070721999509,488.00784829992335,487.5070721999509,488.00784829992335,487.5070721999509,488.00784829992335,487.5070721999509,488.00784829992335,487.5070721999509,488.00784829992335,487.5070721999509,488.00784829992335,487.5070721999509,488.00784829992335,487.5070721999509,488.00784829992335,485.9220950999297,None,488.00784829992335,488.91040479997173,1.6100000000000012,488.925192900002,None,489.6772404999938,None,,,,,,,[[0.89]],1.9300000000000013,0.6901408450704225,11014,001,2024_Jan_04_1001,MFTM_A_new1021,2021.2.3,59.54436651778971,
,,,,,,,,stim/Instruction_adaptive.png,conditions/adaptive.xlsx,test,0.6,0.6,0.6,-0.6,-0.6,right,R,,,,,0,1,1,1,0,71,71,90,,,,,,,,,,,,,,,,,,,,,,,,,,,,,,,,,,,,,,,,,,,,490.1788943000138,None,right,1,2.6890366999432445,490.6784960000077,492.91631509992294,490.6784960000077,492.41431019990705,490.6784960000077,492.41431019990705,490.6784960000077,492.41431019990705,490.6784960000077,492.41431019990705,490.6784960000077,492.41431019990705,492.39773879991844,492.8991401999956,492.39773879991844,492.8991401999956,492.39773879991844,492.8991401999956,492.39773879991844,492.8991401999956,492.39773879991844,492.8991401999956,492.39773879991844,492.8991401999956,492.39773879991844,492.8991401999956,492.39773879991844,492.8991401999956,490.6784960000077,None,492.8991401999956,None,1.7300000000000013,493.682988799992,None,494.43464220000897,None,,,,,,,[[0.77]],1.9600000000000013,0.6944444444444444,11014,001,2024_Jan_04_1001,MFTM_A_new1021,2021.2.3,59.54436651778971,
,,,,,,,,stim/Instruction_adaptive.png,conditions/adaptive.xlsx,test,0.6,0.6,0.6,-0.6,-0.6,right,R,,,,,0,1,1,1,0,72,72,88,,,,,,,,,,,,,,,,,,,,,,,,,,,,,,,,,,,,,,,,,,,,494.93600849993527,None,right,1,1.6686601000837982,495.4355007999111,497.63957389991265,495.4355007999111,497.13793949992396,495.4355007999111,497.13793949992396,495.4355007999111,497.13793949992396,495.4355007999111,497.13793949992396,495.4355007999111,497.13793949992396,497.10493799997494,497.606065299944,497.10493799997494,497.606065299944,497.10493799997494,497.606065299944,497.10493799997494,497.606065299944,497.10493799997494,497.606065299944,497.10493799997494,497.606065299944,497.10493799997494,497.606065299944,497.10493799997494,497.606065299944,495.4355007999111,None,497.606065299944,498.42362329992466,1.6900000000000013,498.4398652999662,None,499.1920698999893,None,,,,,,,[[0.81]],1.9900000000000013,0.6986301369863014,11014,001,2024_Jan_04_1001,MFTM_A_new1021,2021.2.3,59.54436651778971,
,,,,,,,,stim/Instruction_adaptive.png,conditions/adaptive.xlsx,test,-0.6,-0.6,-0.6,0.6,0.6,left,L,,,,,0,1,1,1,0,73,73,33,,,,,,,,,,,,,,,,,,,,,,,,,,,,,,,,,,,,,,,,,,,,499.69175509992056,None,left,1,1.622038499917835,500.1931655999506,502.36238329997286,500.1931655999506,501.8617332999129,500.1931655999506,501.8617332999129,500.1931655999506,501.8617332999129,500.1931655999506,501.8617332999129,500.1931655999506,501.8617332999129,501.8451385999797,502.3457925999537,501.8451385999797,502.3457925999537,501.8451385999797,502.3457925999537,501.8451385999797,502.3457925999537,501.8451385999797,502.3457925999537,501.8451385999797,502.3457925999537,501.8451385999797,502.3457925999537,501.8451385999797,502.3457925999537,500.1931655999506,None,502.32914189994335,503.1808813000098,1.6600000000000013,503.19801679998636,None,503.948136299965,None,,,,,,,[[0.84]],2.030000000000001,0.7027027027027027,11014,001,2024_Jan_04_1001,MFTM_A_new1021,2021.2.3,59.54436651778971,
,,,,,,,,stim/Instruction_adaptive.png,conditions/adaptive.xlsx,test,-0.6,-0.6,-0.6,0.6,0.6,left,L,,,,,0,1,1,1,0,74,74,55,,,,,,,,,,,,,,,,,,,,,,,,,,,,,,,,,,,,,,,,,,,,504.44883459992707,None,left,1,1.2730930000543594,504.9501120999921,507.0695600999752,504.9501120999921,506.56877549993806,504.9501120999921,506.56877549993806,504.9501120999921,506.56877549993806,504.9501120999921,506.56877549993806,504.9501120999921,506.56877549993806,506.53520209994167,507.0359357999405,506.53520209994167,507.0359357999405,506.53520209994167,507.0359357999405,506.53520209994167,507.0359357999405,506.53520209994167,507.0359357999405,506.53520209994167,507.0359357999405,506.53520209994167,507.0359357999405,506.53520209994167,507.0359357999405,504.9501120999921,None,507.0359357999405,507.9378442999441,1.6100000000000012,507.9540154999122,None,508.7053483999334,None,,,,,,,[[0.89]],2.0600000000000014,0.7066666666666667,11014,001,2024_Jan_04_1001,MFTM_A_new1021,2021.2.3,59.54436651778971,
,,,,,,,,stim/Instruction_adaptive.png,conditions/adaptive.xlsx,test,-0.6,-0.6,-0.6,0.6,0.6,left,L,,,,,0,1,1,1,0,75,75,5,,,,,,,,,,,,,,,,,,,,,,,,,,,,,,,,,,,,,,,,,,,,509.206136599998,None,left,1,1.6604703000048175,509.70673789992,511.79284929996356,509.70673789992,511.2922682999633,509.70673789992,511.2922682999633,509.70673789992,511.2922682999633,509.70673789992,511.2922682999633,509.70673789992,511.2922682999633,511.2758445999352,511.77633299992885,511.2758445999352,511.77633299992885,511.2758445999352,511.77633299992885,511.2758445999352,511.77633299992885,511.2758445999352,511.77633299992885,511.2758445999352,511.77633299992885,511.2758445999352,511.77633299992885,511.2758445999352,511.77633299992885,509.70673789992,None,511.77633299992885,None,1.5800000000000012,512.7109132999321,None,513.4631509999745,None,,,,,,,[[0.92]],2.0900000000000016,0.7105263157894737,11014,001,2024_Jan_04_1001,MFTM_A_new1021,2021.2.3,59.54436651778971,
,,,,,,,,stim/Instruction_adaptive.png,conditions/adaptive.xlsx,test,0.6,0.6,0.6,-0.6,-0.6,right,R,,,,,0,1,1,1,0,76,76,44,,,,,,,,,,,,,,,,,,,,,,,,,,,,,,,,,,,,,,,,,,,,513.9637144999579,None,right,1,1.9194623000221327,514.463961499976,516.5173151999479,514.463961499976,516.0166918999748,514.463961499976,516.0166918999748,514.463961499976,516.0166918999748,514.463961499976,516.0166918999748,514.463961499976,516.0166918999748,515.9992994999047,516.5012562999036,515.9992994999047,516.5012562999036,515.9992994999047,516.5012562999036,515.9992994999047,516.5012562999036,515.9992994999047,516.5012562999036,515.9992994999047,516.5012562999036,515.9992994999047,516.5012562999036,515.9992994999047,516.5012562999036,514.463961499976,None,516.5012562999036,517.4519341000123,1.5500000000000012,517.4683856999036,None,518.2196743999375,None,,,,,,,[[0.95]],2.1200000000000014,0.7142857142857143,11014,001,2024_Jan_04_1001,MFTM_A_new1021,2021.2.3,59.54436651778971,
,,,,,,,,stim/Instruction_adaptive.png,conditions/adaptive.xlsx,test,-0.6,-0.6,-0.6,0.6,0.6,left,L,,,,,0,1,1,1,0,77,77,31,,,,,,,,,,,,,,,,,,,,,,,,,,,,,,,,,,,,,,,,,,,,518.7212525999639,None,left,1,1.6418926999904215,519.2213567999424,521.2404844999546,519.2213567999424,520.7396249999292,519.2213567999424,520.7396249999292,519.2213567999424,520.7396249999292,519.2213567999424,520.7396249999292,519.2213567999424,520.7396249999292,520.7062816999387,521.2084156000055,520.7062816999387,521.2084156000055,520.7062816999387,521.2084156000055,520.7062816999387,521.2084156000055,520.7062816999387,521.2084156000055,520.7062816999387,521.2084156000055,520.7062816999387,521.2084156000055,520.7062816999387,521.2084156000055,519.2213567999424,None,521.2084156000055,522.2092756999191,1.5100000000000011,522.2253529999871,None,522.9765890999697,None,,,,,,,[[0.99]],2.1500000000000012,0.717948717948718,11014,001,2024_Jan_04_1001,MFTM_A_new1021,2021.2.3,59.54436651778971,
,,,,,,,,stim/Instruction_adaptive.png,conditions/adaptive.xlsx,test,-0.6,-0.6,-0.6,0.6,0.6,left,L,,,,,0,1,1,1,0,78,78,11,,,,,,,,,,,,,,,,,,,,,,,,,,,,,,,,,,,,,,,,,,,,523.4770894999383,None,left,1,1.509064899990335,523.9783852999099,525.9641091999365,523.9783852999099,525.4634733999847,523.9783852999099,525.4634733999847,523.9783852999099,525.4634733999847,523.9783852999099,525.4634733999847,523.9783852999099,525.4634733999847,525.4473563999636,525.9482852999354,525.4473563999636,525.9482852999354,525.4473563999636,525.9482852999354,525.4473563999636,525.9482852999354,525.4473563999636,525.9482852999354,525.4473563999636,525.9482852999354,525.4473563999636,525.9482852999354,525.4473563999636,525.9482852999354,523.9783852999099,None,525.9482852999354,None,1.480000000000001,526.9823469999246,None,527.7344742999412,None,,,,,,,[[1.02]],2.1700000000000017,0.7215189873417721,11014,001,2024_Jan_04_1001,MFTM_A_new1021,2021.2.3,59.54436651778971,
,,,,,,,,stim/Instruction_adaptive.png,conditions/adaptive.xlsx,test,0.6,0.6,0.6,-0.6,-0.6,right,R,,,,,0,1,1,1,0,79,79,0,,,,,,,,,,,,,,,,,,,,,,,,,,,,,,,,,,,,,,,,,,,,528.2344610999571,None,right,1,1.1443945999490097,528.7349742999068,530.705480500008,528.7349742999068,530.2038347999332,528.7349742999068,530.2038347999332,528.7349742999068,530.2038347999332,528.7349742999068,530.2038347999332,528.7349742999068,530.2038347999332,530.1702061999822,530.6711657999549,530.1702061999822,530.6711657999549,530.1702061999822,530.6711657999549,530.1702061999822,530.6711657999549,530.1702061999822,530.6711657999549,530.1702061999822,530.6711657999549,530.1702061999822,530.6711657999549,530.1702061999822,530.6711657999549,528.7349742999068,None,530.6711657999549,531.7065499000018,1.460000000000001,531.7398577999556,None,532.490464799921,None,,,,,,,[1.03075],2.2000000000000015,0.725,11014,001,2024_Jan_04_1001,MFTM_A_new1021,2021.2.3,59.54436651778971,
,,,,,,,,stim/Instruction_adaptive.png,conditions/adaptive.xlsx,test,-0.6,-0.6,-0.6,0.6,0.6,left,L,,,,,0,1,1,1,0,80,80,85,,,,,,,,,,,,,,,,,,,,,,,,,,,,,,,,,,,,,,,,,,,,532.991277199937,None,left,1,1.0914977999636903,533.4918138999492,535.4280894999392,533.4918138999492,534.9286570999539,533.4918138999492,534.9286570999539,533.4918138999492,534.9286570999539,533.4918138999492,534.9286570999539,533.4918138999492,534.9286570999539,534.9114145999774,535.4123526999028,534.9114145999774,535.4123526999028,534.9114145999774,535.4123526999028,534.9114145999774,535.4123526999028,534.9114145999774,535.4123526999028,534.9114145999774,535.4123526999028,534.9114145999774,535.4123526999028,534.9114145999774,535.4123526999028,533.4918138999492,None,535.4123526999028,536.4470203999663,1.430000000000001,536.4629124999046,None,537.2141877999529,None,,,,,,,[1.03123457],2.2200000000000015,0.7283950617283951,11014,001,2024_Jan_04_1001,MFTM_A_new1021,2021.2.3,59.54436651778971,
,,,,,,,,stim/Instruction_adaptive.png,conditions/adaptive.xlsx,test,-0.6,-0.6,-0.6,0.6,0.6,left,L,,,,,0,1,1,1,0,81,81,61,,,,,,,,,,,,,,,,,,,,,,,,,,,,,,,,,,,,,,,,,,,,537.7154976999154,None,left,1,1.05555019993335,538.2157933999551,540.1358193999622,538.2157933999551,539.6349254999077,538.2157933999551,539.6349254999077,538.2157933999551,539.6349254999077,538.2157933999551,539.6349254999077,538.2157933999551,539.6349254999077,539.6013508000178,540.1023014999228,539.6013508000178,540.1023014999228,539.6013508000178,540.1023014999228,539.6013508000178,540.1023014999228,539.6013508000178,540.1023014999228,539.6013508000178,540.1023014999228,539.6013508000178,540.1023014999228,539.6013508000178,540.1023014999228,538.2157933999551,None,540.1023014999228,541.1371911999304,1.410000000000001,541.1701961999061,None,541.9221014999785,None,,,,,,,[1.03195122],2.2500000000000018,0.7317073170731707,11014,001,2024_Jan_04_1001,MFTM_A_new1021,2021.2.3,59.54436651778971,
,,,,,,,,stim/Instruction_adaptive.png,conditions/adaptive.xlsx,test,0.6,0.6,0.6,-0.6,-0.6,right,R,,,,,0,1,1,1,0,82,82,78,,,,,,,,,,,,,,,,,,,,,,,,,,,,,,,,,,,,,,,,,,,,542.4223767999792,None,left,0,2.0369892000453547,542.9231901000021,544.809563399991,542.9231901000021,544.3088945999043,542.9231901000021,544.3088945999043,542.9231901000021,544.3088945999043,542.9231901000021,544.3088945999043,542.9231901000021,544.3088945999043,544.2912397999316,544.7919351999881,544.2912397999316,544.7919351999881,544.2912397999316,544.7919351999881,544.2912397999316,544.7919351999881,544.2912397999316,544.7919351999881,544.2912397999316,544.7919351999881,544.2912397999316,544.7919351999881,544.2912397999316,544.7919351999881,542.9231901000021,None,544.7919351999881,545.8274979999987,1.380000000000001,545.8435542999068,None,546.5946868999163,None,,,,,,,[1.03301205],2.1800000000000015,0.7228915662650602,11014,001,2024_Jan_04_1001,MFTM_A_new1021,2021.2.3,59.54436651778971,
,,,,,,,,stim/Instruction_adaptive.png,conditions/adaptive.xlsx,test,-0.6,-0.6,-0.6,0.6,0.6,left,L,,,,,0,1,1,1,0,83,83,25,,,,,,,,,,,,,,,,,,,,,,,,,,,,,,,,,,,,,,,,,,,,547.0960640999256,None,left,1,1.178178200032562,547.5972241999116,549.5498100999976,547.5972241999116,549.0490037999116,547.5972241999116,549.0490037999116,547.5972241999116,549.0490037999116,547.5972241999116,549.0490037999116,547.5972241999116,549.0490037999116,549.0314275999554,549.5324547999771,549.0314275999554,549.5324547999771,549.0314275999554,549.5324547999771,549.0314275999554,549.5324547999771,549.0314275999554,549.5324547999771,549.0314275999554,549.5324547999771,549.0314275999554,549.5324547999771,549.0314275999554,549.5324547999771,547.5972241999116,None,549.5324547999771,550.5672762999311,1.450000000000001,550.5838262999896,None,551.3353653999511,None,,,,,,,[1.03321429],2.2000000000000015,0.7261904761904762,11014,001,2024_Jan_04_1001,MFTM_A_new1021,2021.2.3,59.54436651778971,
,,,,,,,,stim/Instruction_adaptive.png,conditions/adaptive.xlsx,test,0.6,0.6,0.6,-0.6,-0.6,right,R,,,,,0,1,1,1,0,84,84,56,,,,,,,,,,,,,,,,,,,,,,,,,,,,,,,,,,,,,,,,,,,,551.837107899948,None,right,1,1.9902291999896988,552.3371470000129,554.2734244000167,552.3371470000129,553.7734322999604,552.3371470000129,553.7734322999604,552.3371470000129,553.7734322999604,552.3371470000129,553.7734322999604,552.3371470000129,553.7734322999604,553.7555889999494,554.2561201999197,553.7555889999494,554.2561201999197,553.7555889999494,554.2561201999197,553.7555889999494,554.2561201999197,553.7555889999494,554.2561201999197,553.7555889999494,554.2561201999197,553.7555889999494,554.2561201999197,553.7555889999494,554.2561201999197,552.3371470000129,None,554.2561201999197,555.2911072999705,1.430000000000001,555.30781509995,None,556.0587842999958,None,,,,,,,[1.03364706],2.2300000000000013,0.7294117647058823,11014,001,2024_Jan_04_1001,MFTM_A_new1021,2021.2.3,59.54436651778971,
,,,,,,,,stim/Instruction_adaptive.png,conditions/adaptive.xlsx,test,0.6,0.6,0.6,-0.6,-0.6,right,R,,,,,0,1,1,1,0,85,85,86,,,,,,,,,,,,,,,,,,,,,,,,,,,,,,,,,,,,,,,,,,,,556.5603590999963,None,left,0,1.7943402000237256,557.0609277999029,558.9628160999855,557.0609277999029,558.4626981999027,557.0609277999029,558.4626981999027,557.0609277999029,558.4626981999027,557.0609277999029,558.4626981999027,557.0609277999029,558.4626981999027,558.4469357999042,558.9462542999536,558.4469357999042,558.9462542999536,558.4469357999042,558.9462542999536,558.4469357999042,558.9462542999536,558.4469357999042,558.9462542999536,558.4469357999042,558.9462542999536,558.4469357999042,558.9462542999536,558.4469357999042,558.9462542999536,557.0609277999029,None,558.9462542999536,559.9822625999805,1.400000000000001,559.9973104000092,None,560.7494499000022,None,,,,,,,[1.0344186],2.1500000000000012,0.7209302325581395,11014,001,2024_Jan_04_1001,MFTM_A_new1021,2021.2.3,59.54436651778971,
,,,,,,,,stim/Instruction_adaptive.png,conditions/adaptive.xlsx,test,-0.6,-0.6,-0.6,0.6,0.6,left,L,,,,,0,1,1,1,0,86,86,27,,,,,,,,,,,,,,,,,,,,,,,,,,,,,,,,,,,,,,,,,,,,561.2503426999319,None,left,1,0.9203666000394151,561.7510458999313,563.7373799999477,561.7510458999313,563.2364940999541,561.7510458999313,563.2364940999541,561.7510458999313,563.2364940999541,561.7510458999313,563.2364940999541,561.7510458999313,563.2364940999541,563.2204944000114,563.7208168999059,563.2204944000114,563.7208168999059,563.2204944000114,563.7208168999059,563.2204944000114,563.7208168999059,563.2204944000114,563.7208168999059,563.2204944000114,563.7208168999059,563.2204944000114,563.7208168999059,563.2204944000114,563.7208168999059,561.7510458999313,None,563.7208168999059,None,1.480000000000001,564.7549496999709,None,565.506522599957,None,,,,,,,[[1.02]],2.1800000000000015,0.7241379310344828,11014,001,2024_Jan_04_1001,MFTM_A_new1021,2021.2.3,59.54436651778971,
,,,,,,,,stim/Instruction_adaptive.png,conditions/adaptive.xlsx,test,-0.6,-0.6,-0.6,0.6,0.6,left,L,,,,,0,1,1,1,0,87,87,29,,,,,,,,,,,,,,,,,,,,,,,,,,,,,,,,,,,,,,,,,,,,566.0067211999558,None,right,0,2.2278409000718966,566.5074367999332,568.4603165999288,566.5074367999332,567.9595861999551,566.5074367999332,567.9595861999551,566.5074367999332,567.9595861999551,566.5074367999332,567.9595861999551,566.5074367999332,567.9595861999551,567.9428545999108,568.4444495999487,567.9428545999108,568.4444495999487,567.9428545999108,568.4444495999487,567.9428545999108,568.4444495999487,567.9428545999108,568.4444495999487,567.9428545999108,568.4444495999487,567.9428545999108,568.4444495999487,567.9428545999108,568.4444495999487,566.5074367999332,None,568.4444495999487,569.479090699926,1.450000000000001,569.4952268999768,None,570.2464616999496,None,,,,,,,[1.03443182],2.110000000000001,0.7159090909090909,11014,001,2024_Jan_04_1001,MFTM_A_new1021,2021.2.3,59.54436651778971,
,,,,,,,,stim/Instruction_adaptive.png,conditions/adaptive.xlsx,test,-0.6,-0.6,-0.6,0.6,0.6,left,L,,,,,0,1,1,1,0,88,88,63,,,,,,,,,,,,,,,,,,,,,,,,,,,,,,,,,,,,,,,,,,,,570.7479284999426,None,left,1,1.8795500999549404,571.2477228000062,573.2684985999949,571.2477228000062,572.7672227999428,571.2477228000062,572.7672227999428,571.2477228000062,572.7672227999428,571.2477228000062,572.7672227999428,571.2477228000062,572.7672227999428,572.7501356999855,573.2512293999316,572.7501356999855,573.2512293999316,572.7501356999855,573.2512293999316,572.7501356999855,573.2512293999316,572.7501356999855,573.2512293999316,572.7501356999855,573.2512293999316,572.7501356999855,573.2512293999316,572.7501356999855,573.2512293999316,571.2477228000062,None,573.2512293999316,574.2355260999175,1.5200000000000011,574.2523067999864,None,575.0034970999695,None,,,,,,,[[0.98]],2.1300000000000017,0.7191011235955056,11014,001,2024_Jan_04_1001,MFTM_A_new1021,2021.2.3,59.54436651778971,
,,,,,,,,stim/Instruction_adaptive.png,conditions/adaptive.xlsx,test,0.6,0.6,0.6,-0.6,-0.6,right,R,,,,,0,1,1,1,0,89,89,70,,,,,,,,,,,,,,,,,,,,,,,,,,,,,,,,,,,,,,,,,,,,575.5049751999322,None,right,1,1.0188192001078278,576.0047125999117,578.0088582999306,576.0047125999117,577.5070457999827,576.0047125999117,577.5070457999827,576.0047125999117,577.5070457999827,576.0047125999117,577.5070457999827,576.0047125999117,577.5070457999827,577.4905308999587,577.9918535000179,577.4905308999587,577.9918535000179,577.4905308999587,577.9918535000179,577.4905308999587,577.9918535000179,577.4905308999587,577.9918535000179,577.4905308999587,577.9918535000179,577.4905308999587,577.9918535000179,577.4905308999587,577.9918535000179,576.0047125999117,None,577.9918535000179,578.9937824999215,1.500000000000001,579.0099619999528,None,579.7610919999424,None,,,,,,,[[1.]],2.1600000000000015,0.7222222222222222,11014,001,2024_Jan_04_1001,MFTM_A_new1021,2021.2.3,59.54436651778971,
,,,,,,,,stim/Instruction_adaptive.png,conditions/adaptive.xlsx,test,-0.6,-0.6,-0.6,0.6,0.6,left,L,,,,,0,1,1,1,0,90,90,89,,,,,,,,,,,,,,,,,,,,,,,,,,,,,,,,,,,,,,,,,,,,580.2616069999058,None,left,1,1.5415269000222906,580.7619962999597,582.732406099909,580.7619962999597,582.2316266999114,580.7619962999597,582.2316266999114,580.7619962999597,582.2316266999114,580.7619962999597,582.2316266999114,580.7619962999597,582.2316266999114,582.2144931999501,582.7156241999473,582.2144931999501,582.7156241999473,582.2144931999501,582.7156241999473,582.2144931999501,582.7156241999473,582.2144931999501,582.7156241999473,582.2144931999501,582.7156241999473,582.2144931999501,582.7156241999473,582.2144931999501,582.7156241999473,580.7619962999597,None,582.7156241999473,583.7498154999921,1.470000000000001,583.7669181999518,None,584.5182708000066,None,,,,,,,[[1.03]],2.1800000000000015,0.7252747252747253,11014,001,2024_Jan_04_1001,MFTM_A_new1021,2021.2.3,59.54436651778971,
,,,,,,,,stim/Instruction_adaptive.png,conditions/adaptive.xlsx,test,-0.6,-0.6,-0.6,0.6,0.6,left,L,,,,,0,1,1,1,0,91,91,37,,,,,,,,,,,,,,,,,,,,,,,,,,,,,,,,,,,,,,,,,,,,585.0183707999531,None,left,1,1.5046029000077397,585.5189422999974,587.4719852999551,585.5189422999974,586.9713773999829,585.5189422999974,586.9713773999829,585.5189422999974,586.9713773999829,585.5189422999974,586.9713773999829,585.5189422999974,586.9713773999829,586.9551169999177,587.4558322000084,586.9551169999177,587.4558322000084,586.9551169999177,587.4558322000084,586.9551169999177,587.4558322000084,586.9551169999177,587.4558322000084,586.9551169999177,587.4558322000084,586.9551169999177,587.4558322000084,586.9551169999177,587.4558322000084,585.5189422999974,None,587.4558322000084,588.4922182000009,1.450000000000001,588.506739799981,None,589.2585690999404,None,,,,,,,[1.03358696],2.2000000000000015,0.7282608695652174,11014,001,2024_Jan_04_1001,MFTM_A_new1021,2021.2.3,59.54436651778971,
,,,,,,,,stim/Instruction_adaptive.png,conditions/adaptive.xlsx,test,0.6,0.6,0.6,-0.6,-0.6,right,R,,,,,0,1,1,1,0,92,92,60,,,,,,,,,,,,,,,,,,,,,,,,,,,,,,,,,,,,,,,,,,,,589.7596237999387,None,right,1,1.844116699998267,590.2593519999646,592.1955611999147,590.2593519999646,591.695539599983,590.2593519999646,591.695539599983,590.2593519999646,591.695539599983,590.2593519999646,591.695539599983,590.2593519999646,591.695539599983,591.6788247999502,592.1795318999793,591.6788247999502,592.1795318999793,591.6788247999502,592.1795318999793,591.6788247999502,592.1795318999793,591.6788247999502,592.1795318999793,591.6788247999502,592.1795318999793,591.6788247999502,592.1795318999793,591.6788247999502,592.1795318999793,590.2593519999646,None,592.1795318999793,593.2143988999305,1.430000000000001,593.2302900999784,None,593.9824797000038,None,,,,,,,[1.03397849],2.2200000000000015,0.7311827956989247,11014,001,2024_Jan_04_1001,MFTM_A_new1021,2021.2.3,59.54436651778971,
,,,,,,,,stim/Instruction_adaptive.png,conditions/adaptive.xlsx,test,-0.6,-0.6,-0.6,0.6,0.6,left,L,,,,,0,1,1,1,0,93,93,49,,,,,,,,,,,,,,,,,,,,,,,,,,,,,,,,,,,,,,,,,,,,594.4829830999952,None,right,0,2.240216700010933,594.983070599963,596.9029240999371,594.983070599963,596.4019651999697,594.983070599963,596.4019651999697,594.983070599963,596.4019651999697,594.983070599963,596.4019651999697,594.983070599963,596.4019651999697,596.3850649999222,596.8865775999147,596.3850649999222,596.8865775999147,596.3850649999222,596.8865775999147,596.3850649999222,596.8865775999147,596.3850649999222,596.8865775999147,596.3850649999222,596.8865775999147,596.3850649999222,596.8865775999147,596.3850649999222,596.8865775999147,594.983070599963,None,596.8692468999652,597.9044026999036,1.410000000000001,597.9368551999796,None,598.6886207999196,None,,,,,,,[1.03457447],2.1600000000000015,0.723404255319149,11014,001,2024_Jan_04_1001,MFTM_A_new1021,2021.2.3,59.54436651778971,
