arrwidth1,arrwidth2,arrwidth3,arrwidth4,arrwidth5,keyb,type,orientation,instruction_image,block_filename,block_type,arrow11,arrow22,arrow33,arrow44,arrow55,keyb_3,orientation3,trials.thisRepN,trials.thisTrialN,trials.thisN,trials.thisIndex,trials_3.thisRepN,trials_3.thisTrialN,trials_3.thisN,trials_3.thisIndex,trials_2.thisRepN,trials_2.thisTrialN,trials_2.thisN,trials_2.thisIndex,welcome.started,welcome.stopped,key_resp.keys,key_resp.rt,key_resp.started,key_resp.stopped,instruction_example.started,instruction_example.stopped,key_resp_3.keys,key_resp_3.rt,key_resp_3.started,key_resp_3.stopped,instruction_task.started,instruction_task.stopped,key_resp_2.keys,key_resp_2.rt,key_resp_2.started,key_resp_2.stopped,text_2.started,text_2.stopped,A1.started,A1.stopped,A2.started,A2.stopped,A3.started,A3.stopped,A4.started,A4.stopped,A5.started,A5.stopped,key_resp_4.keys,key_resp_4.corr,key_resp_4.rt,key_resp_4.started,key_resp_4.stopped,fb.started,fb.stopped,instruction_block.started,instruction_block.stopped,key_resp_8.keys,key_resp_8.rt,key_resp_8.started,key_resp_8.stopped,text_8.started,text_8.stopped,key_resp_9.keys,key_resp_9.corr,key_resp_9.rt,text_5.started,text_5.stopped,A11_3.started,A11_3.stopped,A22_2.started,A22_2.stopped,A33_2.started,A33_2.stopped,A44_2.started,A44_2.stopped,A55_2.started,A55_2.stopped,M1_3.started,M1_3.stopped,M2_2.started,M2_2.stopped,M3_2.started,M3_2.stopped,M4_2.started,M4_2.stopped,M5_2.started,M5_2.stopped,M6_2.started,M6_2.stopped,M7_2.started,M7_2.stopped,M8_2.started,M8_2.stopped,key_resp_9.started,key_resp_9.stopped,fixation.started,fixation.stopped,ET,fb_3.started,fb_3.stopped,text_9.started,text_9.stopped,fb_4.started,fb_4.stopped,text_7.started,text_7.stopped,endtext.started,endtext.stopped,fixation_ITI,CCC,Acc,participant,session,date,expName,psychopyVersion,frameRate,
,,,,,,,,,,,,,,,,,,,,,,,,,,,,,,16.053926500026137,None,space,7.193796800100245,16.053926500026137,None,,,,,,,,,,,,,,,,,,,,,,,,,,,,,,,,,,,,,,,,,,,,,,,,,,,,,,,,,,,,,,,,,,,,,,,,,,,,,,,,,,,,,,,,,11019,002,2024_Jan_05_1308,MFTM_A_new1021,2021.2.3,59.911594433705154,
,,,,,,,,,,,,,,,,,,,,,,,,,,,,,,,,,,,,23.265351800015196,None,space,4.269865299924277,23.265351800015196,None,,,,,,,,,,,,,,,,,,,,,,,,,,,,,,,,,,,,,,,,,,,,,,,,,,,,,,,,,,,,,,,,,,,,,,,,,,,,,,,,,,,11019,002,2024_Jan_05_1308,MFTM_A_new1021,2021.2.3,59.911594433705154,
,,,,,,,,,,,,,,,,,,,,,,,,,,,,,,,,,,,,,,,,,,27.55410229996778,None,space,2.9091961999656633,27.55410229996778,None,,,,,,,,,,,,,,,,,,,,,,,,,,,,,,,,,,,,,,,,,,,,,,,,,,,,,,,,,,,,,,,,,,,,,,,,,,,,,11019,002,2024_Jan_05_1308,MFTM_A_new1021,2021.2.3,59.911594433705154,
0.6,0.6,0.6,-0.6,-0.6,right,3:2,R,,,,,,,,,,,0,0,0,0,,,,,,,,,,,,,,,,,,,,,,,,,,,30.50938160007354,None,30.50938160007354,None,30.50938160007354,None,30.50938160007354,None,30.50938160007354,None,30.50938160007354,None,right,1,2.1539582000114024,30.50938160007354,None,32.696757700061426,None,,,,,,,,,,,,,,,,,,,,,,,,,,,,,,,,,,,,,,,,,,,,,,,,,,,,,,,,,,11019,002,2024_Jan_05_1308,MFTM_A_new1021,2021.2.3,59.911594433705154,
-0.6,-0.6,-0.6,0.6,0.6,left,3:2,L,,,,,,,,,,,0,1,1,1,,,,,,,,,,,,,,,,,,,,,,,,,,,33.44621580000967,None,33.44621580000967,None,33.44621580000967,None,33.44621580000967,None,33.44621580000967,None,33.44621580000967,None,left,1,1.5377188000129536,33.44621580000967,None,34.99939550005365,None,,,,,,,,,,,,,,,,,,,,,,,,,,,,,,,,,,,,,,,,,,,,,,,,,,,,,,,,,,11019,002,2024_Jan_05_1308,MFTM_A_new1021,2021.2.3,59.911594433705154,
-0.6,-0.6,-0.6,0.6,0.6,left,3:2,L,,,,,,,,,,,1,0,2,1,,,,,,,,,,,,,,,,,,,,,,,,,,,35.74992229999043,None,35.74992229999043,None,35.74992229999043,None,35.74992229999043,None,35.74992229999043,None,35.74992229999043,None,left,1,1.6893247000407428,35.74992229999043,None,37.46912720007822,None,,,,,,,,,,,,,,,,,,,,,,,,,,,,,,,,,,,,,,,,,,,,,,,,,,,,,,,,,,11019,002,2024_Jan_05_1308,MFTM_A_new1021,2021.2.3,59.911594433705154,
0.6,0.6,0.6,-0.6,-0.6,right,3:2,R,,,,,,,,,,,1,1,3,0,,,,,,,,,,,,,,,,,,,,,,,,,,,38.22115640004631,None,38.22115640004631,None,38.22115640004631,None,38.22115640004631,None,38.22115640004631,None,38.22115640004631,None,left,0,1.2739619999192655,38.22115640004631,None,39.52192890003789,None,,,,,,,,,,,,,,,,,,,,,,,,,,,,,,,,,,,,,,,,,,,,,,,,,,,,,,,,,,11019,002,2024_Jan_05_1308,MFTM_A_new1021,2021.2.3,59.911594433705154,
,,,,,,,,stim/Instruction_mask.png,conditions/adaptive.xlsx,practice,-0.6,-0.6,-0.6,0.6,0.6,left,L,,,,,0,0,0,0,0,0,0,95,,,,,,,,,,,,,,,,,,,,,,,,,,,,,,,,,,,,,,40.48975890001748,None,space,2.9414394999621436,40.48975890001748,None,43.544678100035526,None,left,1,1.9006712000118569,43.97867069998756,None,43.97867069998756,46.98362199997064,43.97867069998756,46.98362199997064,43.97867069998756,46.98362199997064,43.97867069998756,46.98362199997064,43.97867069998756,46.98362199997064,46.9672811999917,47.46789720002562,46.9672811999917,47.46789720002562,46.9672811999917,47.46789720002562,46.9672811999917,47.46789720002562,46.9672811999917,47.46789720002562,46.9672811999917,47.46789720002562,46.9672811999917,47.46789720002562,46.9672811999917,47.46789720002562,43.97867069998756,None,47.46789720002562,47.46789720002562,3,47.48386759997811,None,48.236377499997616,None,,,,,,,,,,11019,002,2024_Jan_05_1308,MFTM_A_new1021,2021.2.3,59.911594433705154,
,,,,,,,,stim/Instruction_mask.png,conditions/adaptive.xlsx,practice,-0.6,-0.6,-0.6,0.6,0.6,left,L,,,,,0,0,0,0,0,1,1,85,,,,,,,,,,,,,,,,,,,,,,,,,,,,,,,,,,,,,,,,,,,,48.73568669997621,None,left,1,1.938665800029412,49.23639520001598,51.23974400002044,49.23639520001598,50.738560599973425,49.23639520001598,50.738560599973425,49.23639520001598,50.738560599973425,49.23639520001598,50.738560599973425,49.23639520001598,50.738560599973425,50.72207810007967,51.22278070007451,50.72207810007967,51.22278070007451,50.72207810007967,51.22278070007451,50.72207810007967,51.22278070007451,50.72207810007967,51.22278070007451,50.72207810007967,51.22278070007451,50.72207810007967,51.22278070007451,50.72207810007967,51.22278070007451,49.23639520001598,None,51.22278070007451,52.72475609998219,1.5,52.741464799968526,None,53.492719499976374,None,,,,,,,,,,11019,002,2024_Jan_05_1308,MFTM_A_new1021,2021.2.3,59.911594433705154,
,,,,,,,,stim/Instruction_mask.png,conditions/adaptive.xlsx,practice,0.6,0.6,0.6,-0.6,-0.6,right,R,,,,,0,0,0,0,0,2,2,98,,,,,,,,,,,,,,,,,,,,,,,,,,,,,,,,,,,,,,,,,,,,53.99344760004897,None,right,1,1.2730826999759302,54.49403970001731,55.79668849997688,54.49403970001731,55.29537409998011,54.49403970001731,55.29537409998011,54.49403970001731,55.29537409998011,54.49403970001731,55.29537409998011,54.49403970001731,55.29537409998011,55.27866840001661,55.77924950001761,55.27866840001661,55.77924950001761,55.27866840001661,55.77924950001761,55.27866840001661,55.77924950001761,55.27866840001661,55.77924950001761,55.27866840001661,55.77924950001761,55.27866840001661,55.77924950001761,55.27866840001661,55.77924950001761,54.49403970001731,None,55.77924950001761,57.98329670005478,0.8,57.99942080001347,None,58.750314000062644,None,,,,,,,,,,11019,002,2024_Jan_05_1308,MFTM_A_new1021,2021.2.3,59.911594433705154,
,,,,,,,,stim/Instruction_mask.png,conditions/adaptive.xlsx,practice,-0.6,-0.6,-0.6,0.6,0.6,left,L,,,,,0,0,0,0,0,3,3,83,,,,,,,,,,,,,,,,,,,,,,,,,,,,,,,,,,,,,,,,,,,,59.25123060005717,None,left,1,1.2784145999467,59.75259539997205,60.50317450007424,59.75259539997205,60.003088400000706,59.75259539997205,60.003088400000706,59.75259539997205,60.003088400000706,59.75259539997205,60.003088400000706,59.75259539997205,60.003088400000706,59.98546160000842,60.4873294000281,59.98546160000842,60.4873294000281,59.98546160000842,60.4873294000281,59.98546160000842,60.4873294000281,59.98546160000842,60.4873294000281,59.98546160000842,60.4873294000281,59.98546160000842,60.4873294000281,59.98546160000842,60.4873294000281,59.75259539997205,None,60.4873294000281,63.24060430005193,3,63.257302800077014,None,64.00830510002561,None,,,,,,,,,,11019,002,2024_Jan_05_1308,MFTM_A_new1021,2021.2.3,59.911594433705154,
,,,,,,,,stim/Instruction_mask.png,conditions/adaptive.xlsx,practice,,,,,,,,,,,,0,0,0,0,,,,,,,,,,,,,,,,,,,,,,,,,,,,,,,,,,,,,,,,,,,,,,,,,,,,,,,,,,,,,,,,,,,,,,,,,,,,,,,,,,,,,,,,,,64.52569599996787,65.52916120004375,65.5109801000217,65.5109801000217,65.5109801000217,None,,,,11019,002,2024_Jan_05_1308,MFTM_A_new1021,2021.2.3,59.911594433705154,
,,,,,,,,stim/Instruction_adaptive.png,conditions/adaptive.xlsx,test,-0.6,-0.6,-0.6,0.6,0.6,left,L,,,,,0,1,1,1,0,0,0,75,,,,,,,,,,,,,,,,,,,,,,,,,,,,,,,,,,,,,,68.6650506000733,None,space,2.4779924999456853,68.6650506000733,None,71.1853813000489,None,left,1,2.6334661999717355,71.68631999997888,None,71.68631999997888,74.69070490007289,71.68631999997888,74.69070490007289,71.68631999997888,74.69070490007289,71.68631999997888,74.69070490007289,71.68631999997888,74.69070490007289,74.67389690002892,75.17553980008233,74.67389690002892,75.17553980008233,74.67389690002892,75.17553980008233,74.67389690002892,75.17553980008233,74.67389690002892,75.17553980008233,74.67389690002892,75.17553980008233,74.67389690002892,75.17553980008233,74.67389690002892,75.17553980008233,71.68631999997888,None,75.15890999999829,75.15890999999829,3,75.19263900001533,None,75.94330260006245,None,,,,,,,0,6.000000000000005,1.0,11019,002,2024_Jan_05_1308,MFTM_A_new1021,2021.2.3,59.911594433705154,
,,,,,,,,stim/Instruction_adaptive.png,conditions/adaptive.xlsx,test,-0.6,-0.6,-0.6,0.6,0.6,left,L,,,,,0,1,1,1,0,1,1,95,,,,,,,,,,,,,,,,,,,,,,,,,,,,,,,,,,,,,,,,,,,,76.44348140002694,None,left,1,2.007191100041382,76.94416750001255,77.69595389999449,76.94416750001255,77.19467920006718,76.94416750001255,77.19467920006718,76.94416750001255,77.19467920006718,76.94416750001255,77.19467920006718,76.94416750001255,77.19467920006718,77.17898890003562,77.67982209997717,77.17898890003562,77.67982209997717,77.17898890003562,77.67982209997717,77.17898890003562,77.67982209997717,77.17898890003562,77.67982209997717,77.17898890003562,77.67982209997717,77.17898890003562,77.67982209997717,77.17898890003562,77.67982209997717,76.94416750001255,None,77.67982209997717,78.98053509998135,0.25,78.99737100000493,None,79.74882029998116,None,,,,,,,[0.875],6.000000000000005,1.0,11019,002,2024_Jan_05_1308,MFTM_A_new1021,2021.2.3,59.911594433705154,
,,,,,,,,stim/Instruction_adaptive.png,conditions/adaptive.xlsx,test,0.6,0.6,0.6,-0.6,-0.6,right,R,,,,,0,1,1,1,0,2,2,74,,,,,,,,,,,,,,,,,,,,,,,,,,,,,,,,,,,,,,,,,,,,80.24897329998203,None,left,0,1.202425100025721,80.74964020005427,81.50101820006967,80.74964020005427,81.0010048999684,80.74964020005427,81.0010048999684,80.74964020005427,81.0010048999684,80.74964020005427,81.0010048999684,80.74964020005427,81.0010048999684,80.98334260005504,81.48410390003119,80.98334260005504,81.48410390003119,80.98334260005504,81.48410390003119,80.98334260005504,81.48410390003119,80.98334260005504,81.48410390003119,80.98334260005504,81.48410390003119,80.98334260005504,81.48410390003119,80.98334260005504,81.48410390003119,80.74964020005427,None,81.48410390003119,82.81950350000989,0.25,82.83615280000959,None,83.588676400017,None,,,,,,,[1.33333333],3.1800000000000024,0.6666666666666666,11019,002,2024_Jan_05_1308,MFTM_A_new1021,2021.2.3,59.911594433705154,
,,,,,,,,stim/Instruction_adaptive.png,conditions/adaptive.xlsx,test,0.6,0.6,0.6,-0.6,-0.6,right,R,,,,,0,1,1,1,0,3,3,26,,,,,,,,,,,,,,,,,,,,,,,,,,,,,,,,,,,,,,,,,,,,84.08863560005557,None,right,1,1.1308597000315785,84.58866570005193,85.82410520000849,84.58866570005193,85.32403370004613,84.58866570005193,85.32403370004613,84.58866570005193,85.32403370004613,84.58866570005193,85.32403370004613,84.58866570005193,85.32403370004613,85.30699920002371,85.80719550000504,85.30699920002371,85.80719550000504,85.30699920002371,85.80719550000504,85.30699920002371,85.80719550000504,85.30699920002371,85.80719550000504,85.30699920002371,85.80719550000504,85.30699920002371,85.80719550000504,85.30699920002371,85.80719550000504,84.58866570005193,None,85.80719550000504,87.26003950007726,0.7300000000000004,87.27614279999398,None,88.02762319997419,None,,,,,,,[1.4425],4.030000000000003,0.75,11019,002,2024_Jan_05_1308,MFTM_A_new1021,2021.2.3,59.911594433705154,
,,,,,,,,stim/Instruction_adaptive.png,conditions/adaptive.xlsx,test,-0.6,-0.6,-0.6,0.6,0.6,left,L,,,,,0,1,1,1,0,4,4,43,,,,,,,,,,,,,,,,,,,,,,,,,,,,,,,,,,,,,,,,,,,,88.52937090001069,None,right,0,0.8337864999193698,89.02975740004331,89.93098780000582,89.02975740004331,89.42961110000033,89.02975740004331,89.42961110000033,89.02975740004331,89.42961110000033,89.02975740004331,89.42961110000033,89.02975740004331,89.42961110000033,89.41228849999607,89.91330740007106,89.41228849999607,89.91330740007106,89.41228849999607,89.91330740007106,89.41228849999607,89.91330740007106,89.41228849999607,89.91330740007106,89.41228849999607,89.91330740007106,89.41228849999607,89.91330740007106,89.41228849999607,89.91330740007106,89.02975740004331,None,89.91330740007106,91.49985400005244,0.40000000000000013,91.51641819998622,None,92.2668669000268,None,,,,,,,[1.574],2.8100000000000023,0.6,11019,002,2024_Jan_05_1308,MFTM_A_new1021,2021.2.3,59.911594433705154,
,,,,,,,,stim/Instruction_adaptive.png,conditions/adaptive.xlsx,test,-0.6,-0.6,-0.6,0.6,0.6,left,L,,,,,0,1,1,1,0,5,5,51,,,,,,,,,,,,,,,,,,,,,,,,,,,,,,,,,,,,,,,,,,,,92.7675396000268,None,left,1,1.1868258999893442,93.2684036999708,94.72074240003712,93.2684036999708,94.22020400001202,93.2684036999708,94.22020400001202,93.2684036999708,94.22020400001202,93.2684036999708,94.22020400001202,93.2684036999708,94.22020400001202,94.18635239999276,94.68754730001092,94.18635239999276,94.68754730001092,94.18635239999276,94.68754730001092,94.18635239999276,94.68754730001092,94.18635239999276,94.68754730001092,94.18635239999276,94.68754730001092,94.18635239999276,94.68754730001092,94.18635239999276,94.68754730001092,93.2684036999708,None,94.68754730001092,96.25677690003067,0.9400000000000006,96.27231330005452,None,97.02429249999113,None,,,,,,,[[1.56]],3.3300000000000027,0.6666666666666666,11019,002,2024_Jan_05_1308,MFTM_A_new1021,2021.2.3,59.911594433705154,
,,,,,,,,stim/Instruction_adaptive.png,conditions/adaptive.xlsx,test,0.6,0.6,0.6,-0.6,-0.6,right,R,,,,,0,1,1,1,0,6,6,30,,,,,,,,,,,,,,,,,,,,,,,,,,,,,,,,,,,,,,,,,,,,97.52479330007918,None,right,1,1.166344300028868,98.02542389999144,99.17711629997939,98.02542389999144,98.67636230005883,98.02542389999144,98.67636230005883,98.02542389999144,98.67636230005883,98.02542389999144,98.67636230005883,98.02542389999144,98.67636230005883,98.65970700001344,99.16078640008345,98.65970700001344,99.16078640008345,98.65970700001344,99.16078640008345,98.65970700001344,99.16078640008345,98.65970700001344,99.16078640008345,98.65970700001344,99.16078640008345,98.65970700001344,99.16078640008345,98.65970700001344,99.16078640008345,98.02542389999144,None,99.16078640008345,100.77951600006782,0.6500000000000004,100.79691510007251,None,101.54771159996744,None,,,,,,,[1.61142857],3.690000000000003,0.7142857142857143,11019,002,2024_Jan_05_1308,MFTM_A_new1021,2021.2.3,59.911594433705154,
,,,,,,,,stim/Instruction_adaptive.png,conditions/adaptive.xlsx,test,-0.6,-0.6,-0.6,0.6,0.6,left,L,,,,,0,1,1,1,0,7,7,17,,,,,,,,,,,,,,,,,,,,,,,,,,,,,,,,,,,,,,,,,,,,102.04882450005971,None,left,1,1.0026156000094488,102.54849349998403,103.56689040001947,102.54849349998403,103.06614790007006,102.54849349998403,103.06614790007006,102.54849349998403,103.06614790007006,102.54849349998403,103.06614790007006,102.54849349998403,103.06614790007006,103.03274850000162,103.53386319999117,103.03274850000162,103.53386319999117,103.03274850000162,103.53386319999117,103.03274850000162,103.53386319999117,103.03274850000162,103.53386319999117,103.03274850000162,103.53386319999117,103.03274850000162,103.53386319999117,103.03274850000162,103.53386319999117,102.54849349998403,None,103.53386319999117,105.20267320005223,0.5100000000000002,105.21982620004565,None,105.97100420005154,None,,,,,,,[1.65875],3.9700000000000033,0.75,11019,002,2024_Jan_05_1308,MFTM_A_new1021,2021.2.3,59.911594433705154,
,,,,,,,,stim/Instruction_adaptive.png,conditions/adaptive.xlsx,test,-0.6,-0.6,-0.6,0.6,0.6,left,L,,,,,0,1,1,1,0,8,8,21,,,,,,,,,,,,,,,,,,,,,,,,,,,,,,,,,,,,,,,,,,,,106.47176630003378,None,left,1,0.8351156000280753,106.97189769998658,107.90666740003508,106.97189769998658,107.40583950001746,106.97189769998658,107.40583950001746,106.97189769998658,107.40583950001746,106.97189769998658,107.40583950001746,106.97189769998658,107.40583950001746,107.37262739997823,107.87314400007017,107.37262739997823,107.87314400007017,107.37262739997823,107.87314400007017,107.37262739997823,107.87314400007017,107.37262739997823,107.87314400007017,107.37262739997823,107.87314400007017,107.37262739997823,107.87314400007017,107.37262739997823,107.87314400007017,106.97189769998658,None,107.87314400007017,109.59245400002692,0.42000000000000015,109.60923080006614,None,110.36097330006305,None,,,,,,,[1.70555556],4.190000000000003,0.7777777777777778,11019,002,2024_Jan_05_1308,MFTM_A_new1021,2021.2.3,59.911594433705154,
,,,,,,,,stim/Instruction_adaptive.png,conditions/adaptive.xlsx,test,0.6,0.6,0.6,-0.6,-0.6,right,R,,,,,0,1,1,1,0,9,9,42,,,,,,,,,,,,,,,,,,,,,,,,,,,,,,,,,,,,,,,,,,,,110.8617125999881,None,left,0,0.7897684000199661,111.36162400001194,112.23045150004327,111.36162400001194,111.72880679997616,111.36162400001194,111.72880679997616,111.36162400001194,111.72880679997616,111.36162400001194,111.72880679997616,111.36162400001194,111.72880679997616,111.69572630000766,112.19705349998549,111.69572630000766,112.19705349998549,111.69572630000766,112.19705349998549,111.69572630000766,112.19705349998549,111.69572630000766,112.19705349998549,111.69572630000766,112.19705349998549,111.69572630000766,112.19705349998549,111.69572630000766,112.19705349998549,111.36162400001194,None,112.19705349998549,113.94898600003216,0.3600000000000001,113.98304970003664,None,114.73392620007508,None,,,,,,,[1.749],3.660000000000003,0.7,11019,002,2024_Jan_05_1308,MFTM_A_new1021,2021.2.3,59.911594433705154,
,,,,,,,,stim/Instruction_adaptive.png,conditions/adaptive.xlsx,test,0.6,0.6,0.6,-0.6,-0.6,right,R,,,,,0,1,1,1,0,10,10,98,,,,,,,,,,,,,,,,,,,,,,,,,,,,,,,,,,,,,,,,,,,,115.23421160003636,None,right,1,0.6963416000362486,115.73497780004982,116.77041850006208,115.73497780004982,116.2696632000152,115.73497780004982,116.2696632000152,115.73497780004982,116.2696632000152,115.73497780004982,116.2696632000152,115.73497780004982,116.2696632000152,116.23630560003221,116.73640429996885,116.23630560003221,116.73640429996885,116.23630560003221,116.73640429996885,116.23630560003221,116.73640429996885,116.23630560003221,116.73640429996885,116.23630560003221,116.73640429996885,116.23630560003221,116.73640429996885,116.23630560003221,116.73640429996885,115.73497780004982,None,116.73640429996885,118.50720220000949,0.5200000000000002,118.52224500000011,None,119.27443560003303,None,,,,,,,[1.77],3.8700000000000028,0.7272727272727273,11019,002,2024_Jan_05_1308,MFTM_A_new1021,2021.2.3,59.911594433705154,
,,,,,,,,stim/Instruction_adaptive.png,conditions/adaptive.xlsx,test,-0.6,-0.6,-0.6,0.6,0.6,left,L,,,,,0,1,1,1,0,11,11,39,,,,,,,,,,,,,,,,,,,,,,,,,,,,,,,,,,,,,,,,,,,,119.77415080007631,None,left,1,0.9804278999799863,120.27509360003751,121.22657679999247,120.27509360003751,120.72561069997028,120.27509360003751,120.72561069997028,120.27509360003751,120.72561069997028,120.27509360003751,120.72561069997028,120.27509360003751,120.72561069997028,120.70898520003539,121.21034550003242,120.70898520003539,121.21034550003242,120.70898520003539,121.21034550003242,120.70898520003539,121.21034550003242,120.70898520003539,121.21034550003242,120.70898520003539,121.21034550003242,120.70898520003539,121.21034550003242,120.70898520003539,121.21034550003242,120.27509360003751,None,121.21034550003242,123.01246070000343,0.4500000000000002,123.02909149997868,None,123.78168620006181,None,,,,,,,[1.79333333],4.040000000000003,0.75,11019,002,2024_Jan_05_1308,MFTM_A_new1021,2021.2.3,59.911594433705154,
,,,,,,,,stim/Instruction_adaptive.png,conditions/adaptive.xlsx,test,0.6,0.6,0.6,-0.6,-0.6,right,R,,,,,0,1,1,1,0,12,12,80,,,,,,,,,,,,,,,,,,,,,,,,,,,,,,,,,,,,,,,,,,,,124.28146149998065,None,left,0,0.714057800010778,124.78151820006315,125.68300550000276,124.78151820006315,125.18231810000725,124.78151820006315,125.18231810000725,124.78151820006315,125.18231810000725,124.78151820006315,125.18231810000725,124.78151820006315,125.18231810000725,125.16588820004836,125.66720540006645,125.16588820004836,125.66720540006645,125.16588820004836,125.66720540006645,125.16588820004836,125.66720540006645,125.16588820004836,125.66720540006645,125.16588820004836,125.66720540006645,125.16588820004836,125.66720540006645,125.16588820004836,125.66720540006645,124.78151820006315,None,125.66720540006645,127.48654000007082,0.40000000000000013,127.50194480002392,None,128.2534336000681,None,,,,,,,[1.81692308],3.6000000000000028,0.6923076923076923,11019,002,2024_Jan_05_1308,MFTM_A_new1021,2021.2.3,59.911594433705154,
,,,,,,,,stim/Instruction_adaptive.png,conditions/adaptive.xlsx,test,0.6,0.6,0.6,-0.6,-0.6,right,R,,,,,0,1,1,1,0,13,13,34,,,,,,,,,,,,,,,,,,,,,,,,,,,,,,,,,,,,,,,,,,,,128.754749200074,None,right,1,0.2559806000208482,129.25555160001386,130.30768129997887,129.25555160001386,129.80577089998405,129.25555160001386,129.80577089998405,129.25555160001386,129.80577089998405,129.25555160001386,129.80577089998405,129.25555160001386,129.80577089998405,129.77275080000982,130.2734789000824,129.77275080000982,130.2734789000824,129.77275080000982,130.2734789000824,129.77275080000982,130.2734789000824,129.77275080000982,130.2734789000824,129.77275080000982,130.2734789000824,129.77275080000982,130.2734789000824,129.77275080000982,130.2734789000824,129.25555160001386,None,130.2734789000824,132.10972419998143,0.5400000000000003,132.12583709997125,None,132.87787660001777,None,,,,,,,[1.82714286],3.770000000000003,0.7142857142857143,11019,002,2024_Jan_05_1308,MFTM_A_new1021,2021.2.3,59.911594433705154,
,,,,,,,,stim/Instruction_adaptive.png,conditions/adaptive.xlsx,test,0.6,0.6,0.6,-0.6,-0.6,right,R,,,,,0,1,1,1,0,14,14,86,,,,,,,,,,,,,,,,,,,,,,,,,,,,,,,,,,,,,,,,,,,,133.37820909998845,None,right,1,0.43982840003445745,133.87918579997495,134.8644261000445,133.87918579997495,134.3625501000788,133.87918579997495,134.3625501000788,133.87918579997495,134.3625501000788,133.87918579997495,134.3625501000788,133.87918579997495,134.3625501000788,134.3459656999912,134.84698220004793,134.3459656999912,134.84698220004793,134.3459656999912,134.84698220004793,134.3459656999912,134.84698220004793,134.3459656999912,134.84698220004793,134.3459656999912,134.84698220004793,134.3459656999912,134.84698220004793,134.3459656999912,134.84698220004793,133.87918579997495,None,134.84698220004793,None,0.4800000000000002,136.7002459000796,None,137.45067839999683,None,,,,,,,[1.84],3.910000000000003,0.7333333333333333,11019,002,2024_Jan_05_1308,MFTM_A_new1021,2021.2.3,59.911594433705154,
,,,,,,,,stim/Instruction_adaptive.png,conditions/adaptive.xlsx,test,0.6,0.6,0.6,-0.6,-0.6,right,R,,,,,0,1,1,1,0,15,15,52,,,,,,,,,,,,,,,,,,,,,,,,,,,,,,,,,,,,,,,,,,,,137.95191010006238,None,right,1,0.4426703999051824,138.4525783000281,139.40425530006178,138.4525783000281,138.9028091999935,138.4525783000281,138.9028091999935,138.4525783000281,138.9028091999935,138.4525783000281,138.9028091999935,138.4525783000281,138.9028091999935,138.868997600046,139.37101680005435,138.868997600046,139.37101680005435,138.868997600046,139.37101680005435,138.868997600046,139.37101680005435,138.868997600046,139.37101680005435,138.868997600046,139.37101680005435,138.868997600046,139.37101680005435,138.868997600046,139.37101680005435,138.4525783000281,None,139.37101680005435,141.24014120001812,0.44000000000000017,141.25596550002228,None,142.007221100037,None,,,,,,,[1.85375],4.040000000000003,0.75,11019,002,2024_Jan_05_1308,MFTM_A_new1021,2021.2.3,59.911594433705154,
,,,,,,,,stim/Instruction_adaptive.png,conditions/adaptive.xlsx,test,0.6,0.6,0.6,-0.6,-0.6,right,R,,,,,0,1,1,1,0,16,16,40,,,,,,,,,,,,,,,,,,,,,,,,,,,,,,,,,,,,,,,,,,,,142.50804740004241,None,right,1,0.5586861999472603,143.0086099000182,143.91211849998217,143.0086099000182,143.4093225999968,143.0086099000182,143.4093225999968,143.0086099000182,143.4093225999968,143.0086099000182,143.4093225999968,143.0086099000182,143.4093225999968,143.39279980002902,143.89326320006512,143.39279980002902,143.89326320006512,143.39279980002902,143.89326320006512,143.39279980002902,143.89326320006512,143.39279980002902,143.89326320006512,143.39279980002902,143.89326320006512,143.39279980002902,143.89326320006512,143.39279980002902,143.89326320006512,143.0086099000182,None,143.89326320006512,145.7633829000406,0.40000000000000013,145.77960900007747,None,146.5313094999874,None,,,,,,,[1.86823529],4.150000000000003,0.7647058823529411,11019,002,2024_Jan_05_1308,MFTM_A_new1021,2021.2.3,59.911594433705154,
,,,,,,,,stim/Instruction_adaptive.png,conditions/adaptive.xlsx,test,-0.6,-0.6,-0.6,0.6,0.6,left,L,,,,,0,1,1,1,0,17,17,3,,,,,,,,,,,,,,,,,,,,,,,,,,,,,,,,,,,,,,,,,,,,147.03191690007225,None,right,0,0.5220409999601543,147.5330694000004,148.4166308999993,147.5330694000004,147.9159755000146,147.5330694000004,147.9159755000146,147.5330694000004,147.9159755000146,147.5330694000004,147.9159755000146,147.5330694000004,147.9159755000146,147.8824700000696,148.3834172000643,147.8824700000696,148.3834172000643,147.8824700000696,148.3834172000643,147.8824700000696,148.3834172000643,147.8824700000696,148.3834172000643,147.8824700000696,148.3834172000643,147.8824700000696,148.3834172000643,147.8824700000696,148.3834172000643,147.5330694000004,None,148.3834172000643,150.2695139000425,0.3700000000000001,150.28611810004804,None,151.03842930006795,None,,,,,,,[1.88277778],3.850000000000003,0.7222222222222222,11019,002,2024_Jan_05_1308,MFTM_A_new1021,2021.2.3,59.911594433705154,
,,,,,,,,stim/Instruction_adaptive.png,conditions/adaptive.xlsx,test,0.6,0.6,0.6,-0.6,-0.6,right,R,,,,,0,1,1,1,0,18,18,36,,,,,,,,,,,,,,,,,,,,,,,,,,,,,,,,,,,,,,,,,,,,151.53878060006537,None,right,1,0.6724413000047207,152.03877189999912,153.00671490002424,152.03877189999912,152.50603450008202,152.03877189999912,152.50603450008202,152.03877189999912,152.50603450008202,152.03877189999912,152.50603450008202,152.03877189999912,152.50603450008202,152.48958900000434,152.99034550006036,152.48958900000434,152.99034550006036,152.48958900000434,152.99034550006036,152.48958900000434,152.99034550006036,152.48958900000434,152.99034550006036,152.48958900000434,152.99034550006036,152.48958900000434,152.99034550006036,152.48958900000434,152.99034550006036,152.03877189999912,None,152.99034550006036,None,0.4600000000000002,154.89239270007238,None,155.64411930006463,None,,,,,,,[1.89105263],3.960000000000003,0.7368421052631579,11019,002,2024_Jan_05_1308,MFTM_A_new1021,2021.2.3,59.911594433705154,
,,,,,,,,stim/Instruction_adaptive.png,conditions/adaptive.xlsx,test,-0.6,-0.6,-0.6,0.6,0.6,left,L,,,,,0,1,1,1,0,19,19,91,,,,,,,,,,,,,,,,,,,,,,,,,,,,,,,,,,,,,,,,,,,,156.1454275000142,None,right,0,0.5457338000414893,156.64558320003562,157.5815273000626,156.64558320003562,157.08024050004315,156.64558320003562,157.08024050004315,156.64558320003562,157.08024050004315,156.64558320003562,157.08024050004315,156.64558320003562,157.08024050004315,157.04613180004526,157.5477434999775,157.04613180004526,157.5477434999775,157.04613180004526,157.5477434999775,157.04613180004526,157.5477434999775,157.04613180004526,157.5477434999775,157.04613180004526,157.5477434999775,157.04613180004526,157.5477434999775,157.04613180004526,157.5477434999775,156.64558320003562,None,157.5477434999775,159.45036840008106,0.42000000000000015,159.46644230000675,None,160.21765620005317,None,,,,,,,[1.9005],3.660000000000003,0.7,11019,002,2024_Jan_05_1308,MFTM_A_new1021,2021.2.3,59.911594433705154,
,,,,,,,,stim/Instruction_adaptive.png,conditions/adaptive.xlsx,test,0.6,0.6,0.6,-0.6,-0.6,right,R,,,,,0,1,1,1,0,20,20,50,,,,,,,,,,,,,,,,,,,,,,,,,,,,,,,,,,,,,,,,,,,,160.71891439997125,None,left,0,0.7714270999422297,161.21976410003845,162.25433170003816,161.21976410003845,161.75318790005986,161.21976410003845,161.75318790005986,161.21976410003845,161.75318790005986,161.21976410003845,161.75318790005986,161.21976410003845,161.75318790005986,161.72058399999514,162.22102379996795,161.72058399999514,162.22102379996795,161.72058399999514,162.22102379996795,161.72058399999514,162.22102379996795,161.72058399999514,162.22102379996795,161.72058399999514,162.22102379996795,161.72058399999514,162.22102379996795,161.72058399999514,162.22102379996795,161.21976410003845,None,162.22102379996795,164.14175650000107,0.5200000000000002,164.1574740000069,None,164.90856130002066,None,,,,,,,[1.90428571],3.3200000000000025,0.6666666666666666,11019,002,2024_Jan_05_1308,MFTM_A_new1021,2021.2.3,59.911594433705154,
,,,,,,,,stim/Instruction_adaptive.png,conditions/adaptive.xlsx,test,0.6,0.6,0.6,-0.6,-0.6,right,R,,,,,0,1,1,1,0,21,21,84,,,,,,,,,,,,,,,,,,,,,,,,,,,,,,,,,,,,,,,,,,,,165.40823739999905,None,right,1,0.8347359000472352,165.90909880003892,167.07779260003008,165.90909880003892,166.5768728000112,165.90909880003892,166.5768728000112,165.90909880003892,166.5768728000112,165.90909880003892,166.5768728000112,165.90909880003892,166.5768728000112,166.56040860002395,167.0609779000515,166.56040860002395,167.0609779000515,166.56040860002395,167.0609779000515,166.56040860002395,167.0609779000515,166.56040860002395,167.0609779000515,166.56040860002395,167.0609779000515,166.56040860002395,167.0609779000515,166.56040860002395,167.0609779000515,165.90909880003892,None,167.0609779000515,None,0.6600000000000004,168.91426370001864,None,169.66595449997112,None,,,,,,,[[1.84]],3.450000000000003,0.6818181818181818,11019,002,2024_Jan_05_1308,MFTM_A_new1021,2021.2.3,59.911594433705154,
,,,,,,,,stim/Instruction_adaptive.png,conditions/adaptive.xlsx,test,0.6,0.6,0.6,-0.6,-0.6,right,R,,,,,0,1,1,1,0,22,22,0,,,,,,,,,,,,,,,,,,,,,,,,,,,,,,,,,,,,,,,,,,,,170.16566080006305,None,right,1,1.1009519000072032,170.66626990004443,171.7679274000693,170.66626990004443,171.2677162999753,170.66626990004443,171.2677162999753,170.66626990004443,171.2677162999753,170.66626990004443,171.2677162999753,170.66626990004443,171.2677162999753,171.2510455000447,171.7511627000058,171.2510455000447,171.7511627000058,171.2510455000447,171.7511627000058,171.2510455000447,171.7511627000058,171.2510455000447,171.7511627000058,171.2510455000447,171.7511627000058,171.2510455000447,171.7511627000058,171.2510455000447,171.7511627000058,170.66626990004443,None,171.7511627000058,173.6541206999682,0.6000000000000003,173.67079890007153,None,174.42266400007065,None,,,,,,,[[1.9]],3.5600000000000027,0.6956521739130435,11019,002,2024_Jan_05_1308,MFTM_A_new1021,2021.2.3,59.911594433705154,
,,,,,,,,stim/Instruction_adaptive.png,conditions/adaptive.xlsx,test,0.6,0.6,0.6,-0.6,-0.6,right,R,,,,,0,1,1,1,0,23,23,48,,,,,,,,,,,,,,,,,,,,,,,,,,,,,,,,,,,,,,,,,,,,174.92288630001713,None,left,0,1.0880643000127748,175.42336929996964,176.49232010007836,175.42336929996964,175.99123809998855,175.42336929996964,175.99123809998855,175.42336929996964,175.99123809998855,175.42336929996964,175.99123809998855,175.42336929996964,175.99123809998855,175.97533350007143,176.47511380002834,175.97533350007143,176.47511380002834,175.97533350007143,176.47511380002834,175.97533350007143,176.47511380002834,175.97533350007143,176.47511380002834,175.97533350007143,176.47511380002834,175.97533350007143,176.47511380002834,175.97533350007143,176.47511380002834,175.42336929996964,None,176.47511380002834,178.37783940008376,0.5600000000000003,178.39440830005333,None,179.14553810004145,None,,,,,,,[1.90291667],3.2600000000000025,0.6666666666666666,11019,002,2024_Jan_05_1308,MFTM_A_new1021,2021.2.3,59.911594433705154,
,,,,,,,,stim/Instruction_adaptive.png,conditions/adaptive.xlsx,test,-0.6,-0.6,-0.6,0.6,0.6,left,L,,,,,0,1,1,1,0,24,24,67,,,,,,,,,,,,,,,,,,,,,,,,,,,,,,,,,,,,,,,,,,,,179.64636620006058,None,left,1,1.1946624000556767,180.14853230002336,181.34885720000602,180.14853230002336,180.84988039999735,180.14853230002336,180.84988039999735,180.14853230002336,180.84988039999735,180.14853230002336,180.84988039999735,180.14853230002336,180.84988039999735,180.81478020001668,181.31589870003518,180.81478020001668,181.31589870003518,180.81478020001668,181.31589870003518,180.81478020001668,181.31589870003518,180.81478020001668,181.31589870003518,180.81478020001668,181.31589870003518,180.81478020001668,181.31589870003518,180.81478020001668,181.31589870003518,180.14853230002336,None,181.31589870003518,183.13484960002825,0.6900000000000004,183.15160260000266,None,183.9035445000045,None,,,,,,,[[1.81]],3.3700000000000028,0.68,11019,002,2024_Jan_05_1308,MFTM_A_new1021,2021.2.3,59.911594433705154,
,,,,,,,,stim/Instruction_adaptive.png,conditions/adaptive.xlsx,test,-0.6,-0.6,-0.6,0.6,0.6,left,L,,,,,0,1,1,1,0,25,25,15,,,,,,,,,,,,,,,,,,,,,,,,,,,,,,,,,,,,,,,,,,,,184.403496599989,None,left,1,0.703248200006783,184.90408850007225,186.0557936000405,184.90408850007225,185.55663720006123,184.90408850007225,185.55663720006123,184.90408850007225,185.55663720006123,184.90408850007225,185.55663720006123,184.90408850007225,185.55663720006123,185.52186249999795,186.02228869998362,185.52186249999795,186.02228869998362,185.52186249999795,186.02228869998362,185.52186249999795,186.02228869998362,185.52186249999795,186.02228869998362,185.52186249999795,186.02228869998362,185.52186249999795,186.02228869998362,185.52186249999795,186.02228869998362,184.90408850007225,None,186.02228869998362,187.8918123000767,0.6400000000000003,187.9089793000603,None,188.65981310000643,None,,,,,,,[[1.86]],3.4700000000000024,0.6923076923076923,11019,002,2024_Jan_05_1308,MFTM_A_new1021,2021.2.3,59.911594433705154,
,,,,,,,,stim/Instruction_adaptive.png,conditions/adaptive.xlsx,test,-0.6,-0.6,-0.6,0.6,0.6,left,L,,,,,0,1,1,1,0,26,26,89,,,,,,,,,,,,,,,,,,,,,,,,,,,,,,,,,,,,,,,,,,,,189.16068450000603,None,right,0,0.9863433999707922,189.6618564000819,190.76354449999053,189.6618564000819,190.26264199998695,189.6618564000819,190.26264199998695,189.6618564000819,190.26264199998695,189.6618564000819,190.26264199998695,189.6618564000819,190.26264199998695,190.22860120004043,190.72974229999818,190.22860120004043,190.72974229999818,190.22860120004043,190.72974229999818,190.22860120004043,190.72974229999818,190.22860120004043,190.72974229999818,190.22860120004043,190.72974229999818,190.22860120004043,190.72974229999818,190.22860120004043,190.72974229999818,189.6618564000819,None,190.72974229999818,192.6335741999792,0.5900000000000003,192.64832819998264,None,193.40024620003533,None,,,,,,,[1.89814815],3.190000000000002,0.6666666666666666,11019,002,2024_Jan_05_1308,MFTM_A_new1021,2021.2.3,59.911594433705154,
,,,,,,,,stim/Instruction_adaptive.png,conditions/adaptive.xlsx,test,0.6,0.6,0.6,-0.6,-0.6,right,R,,,,,0,1,1,1,0,27,27,44,,,,,,,,,,,,,,,,,,,,,,,,,,,,,,,,,,,,,,,,,,,,193.90146309998818,None,right,1,0.7572696000570431,194.40197010000702,195.61999020003714,194.40197010000702,195.13606440008152,194.40197010000702,195.13606440008152,194.40197010000702,195.13606440008152,194.40197010000702,195.13606440008152,194.40197010000702,195.13606440008152,195.10261659999378,195.60454940004274,195.10261659999378,195.60454940004274,195.10261659999378,195.60454940004274,195.10261659999378,195.60454940004274,195.10261659999378,195.60454940004274,195.10261659999378,195.60454940004274,195.10261659999378,195.60454940004274,195.10261659999378,195.60454940004274,194.40197010000702,None,195.60454940004274,197.39009420003276,0.7200000000000004,197.40572899999097,None,198.15706660004798,None,,,,,,,[[1.78]],3.3000000000000025,0.6785714285714286,11019,002,2024_Jan_05_1308,MFTM_A_new1021,2021.2.3,59.911594433705154,
,,,,,,,,stim/Instruction_adaptive.png,conditions/adaptive.xlsx,test,0.6,0.6,0.6,-0.6,-0.6,right,R,,,,,0,1,1,1,0,28,28,96,,,,,,,,,,,,,,,,,,,,,,,,,,,,,,,,,,,,,,,,,,,,198.6578629000578,None,right,1,1.120614100014791,199.15861000004224,200.34452679997776,199.15861000004224,199.8428596999729,199.15861000004224,199.8428596999729,199.15861000004224,199.8428596999729,199.15861000004224,199.8428596999729,199.15861000004224,199.8428596999729,199.8094520000741,200.3105787000386,199.8094520000741,200.3105787000386,199.8094520000741,200.3105787000386,199.8094520000741,200.3105787000386,199.8094520000741,200.3105787000386,199.8094520000741,200.3105787000386,199.8094520000741,200.3105787000386,199.8094520000741,200.3105787000386,199.15861000004224,None,200.3105787000386,202.1470905999886,0.6700000000000004,202.16337389999535,None,202.91419040004257,None,,,,,,,[[1.83]],3.3900000000000023,0.6896551724137931,11019,002,2024_Jan_05_1308,MFTM_A_new1021,2021.2.3,59.911594433705154,
,,,,,,,,stim/Instruction_adaptive.png,conditions/adaptive.xlsx,test,0.6,0.6,0.6,-0.6,-0.6,right,R,,,,,0,1,1,1,0,29,29,94,,,,,,,,,,,,,,,,,,,,,,,,,,,,,,,,,,,,,,,,,,,,203.41531559999567,None,left,0,0.9876875999616459,203.91564040002413,205.0507405999815,203.91564040002413,204.54969370004255,203.91564040002413,204.54969370004255,203.91564040002413,204.54969370004255,203.91564040002413,204.54969370004255,203.91564040002413,204.54969370004255,204.5341510999715,205.03405300003942,204.5341510999715,205.03405300003942,204.5341510999715,205.03405300003942,204.5341510999715,205.03405300003942,204.5341510999715,205.03405300003942,204.5341510999715,205.03405300003942,204.5341510999715,205.03405300003942,204.5341510999715,205.03405300003942,203.91564040002413,None,205.03405300003942,206.90597700001672,0.6300000000000003,206.91971779998858,None,207.6726592000341,None,,,,,,,[[1.87]],3.1300000000000026,0.6666666666666666,11019,002,2024_Jan_05_1308,MFTM_A_new1021,2021.2.3,59.911594433705154,
,,,,,,,,stim/Instruction_adaptive.png,conditions/adaptive.xlsx,test,0.6,0.6,0.6,-0.6,-0.6,right,R,,,,,0,1,1,1,0,30,30,28,,,,,,,,,,,,,,,,,,,,,,,,,,,,,,,,,,,,,,,,,,,,208.17200820008293,None,right,1,1.2068753000348806,208.6726556000067,209.92511670000385,208.6726556000067,209.4242720999755,208.6726556000067,209.4242720999755,208.6726556000067,209.4242720999755,208.6726556000067,209.4242720999755,208.6726556000067,209.4242720999755,209.407098100055,209.9080264000222,209.407098100055,209.9080264000222,209.407098100055,209.9080264000222,209.407098100055,209.9080264000222,209.407098100055,209.9080264000222,209.407098100055,209.9080264000222,209.407098100055,209.9080264000222,209.407098100055,209.9080264000222,208.6726556000067,None,209.9080264000222,211.66050130000804,0.7500000000000004,211.67708669998683,None,212.4287221999839,None,,,,,,,[[1.75]],3.230000000000002,0.6774193548387096,11019,002,2024_Jan_05_1308,MFTM_A_new1021,2021.2.3,59.911594433705154,
,,,,,,,,stim/Instruction_adaptive.png,conditions/adaptive.xlsx,test,-0.6,-0.6,-0.6,0.6,0.6,left,L,,,,,0,1,1,1,0,31,31,1,,,,,,,,,,,,,,,,,,,,,,,,,,,,,,,,,,,,,,,,,,,,212.92982810002286,None,left,1,1.1936262999661267,213.4297530000331,214.63133240002207,213.4297530000331,214.1312797999708,213.4297530000331,214.1312797999708,213.4297530000331,214.1312797999708,213.4297530000331,214.1312797999708,213.4297530000331,214.1312797999708,214.11417209997308,214.61457770003472,214.11417209997308,214.61457770003472,214.11417209997308,214.61457770003472,214.11417209997308,214.61457770003472,214.11417209997308,214.61457770003472,214.11417209997308,214.61457770003472,214.11417209997308,214.61457770003472,214.11417209997308,214.61457770003472,213.4297530000331,None,214.61457770003472,216.4179067000514,0.7000000000000004,216.43504170002416,None,217.1851171000162,None,,,,,,,[[1.8]],3.3100000000000023,0.6875,11019,002,2024_Jan_05_1308,MFTM_A_new1021,2021.2.3,59.911594433705154,
,,,,,,,,stim/Instruction_adaptive.png,conditions/adaptive.xlsx,test,-0.6,-0.6,-0.6,0.6,0.6,left,L,,,,,0,1,1,1,0,32,32,35,,,,,,,,,,,,,,,,,,,,,,,,,,,,,,,,,,,,,,,,,,,,217.6866704999702,None,left,1,0.7246862000320107,218.1869748000754,219.35581159999128,218.1869748000754,218.85440309997648,218.1869748000754,218.85440309997648,218.1869748000754,218.85440309997648,218.1869748000754,218.85440309997648,218.1869748000754,218.85440309997648,218.83758960000705,219.33904650004115,218.83758960000705,219.33904650004115,218.83758960000705,219.33904650004115,218.83758960000705,219.33904650004115,218.83758960000705,219.33904650004115,218.83758960000705,219.33904650004115,218.83758960000705,219.33904650004115,218.83758960000705,219.33904650004115,218.1869748000754,None,219.32191290007904,221.1745523000136,0.6600000000000004,221.19127489998937,None,221.94273470004555,None,,,,,,,[[1.84]],3.3900000000000023,0.696969696969697,11019,002,2024_Jan_05_1308,MFTM_A_new1021,2021.2.3,59.911594433705154,
,,,,,,,,stim/Instruction_adaptive.png,conditions/adaptive.xlsx,test,-0.6,-0.6,-0.6,0.6,0.6,left,L,,,,,0,1,1,1,0,33,33,59,,,,,,,,,,,,,,,,,,,,,,,,,,,,,,,,,,,,,,,,,,,,222.44339470006526,None,right,0,0.6317701999796554,222.9437312000664,224.07924099999946,222.9437312000664,223.57814200001303,222.9437312000664,223.57814200001303,222.9437312000664,223.57814200001303,222.9437312000664,223.57814200001303,222.9437312000664,223.57814200001303,223.56262350000907,224.06213690002915,223.56262350000907,224.06213690002915,223.56262350000907,224.06213690002915,223.56262350000907,224.06213690002915,223.56262350000907,224.06213690002915,223.56262350000907,224.06213690002915,223.56262350000907,224.06213690002915,223.56262350000907,224.06213690002915,222.9437312000664,None,224.06213690002915,225.9342499000486,0.6300000000000003,225.94777930004057,None,226.70002660003956,None,,,,,,,[[1.87]],3.1700000000000026,0.6764705882352942,11019,002,2024_Jan_05_1308,MFTM_A_new1021,2021.2.3,59.911594433705154,
,,,,,,,,stim/Instruction_adaptive.png,conditions/adaptive.xlsx,test,-0.6,-0.6,-0.6,0.6,0.6,left,L,,,,,0,1,1,1,0,34,34,61,,,,,,,,,,,,,,,,,,,,,,,,,,,,,,,,,,,,,,,,,,,,227.20021000003908,None,left,1,0.7617231999756768,227.70148090005387,228.9362237000605,227.70148090005387,228.43544580007438,227.70148090005387,228.43544580007438,227.70148090005387,228.43544580007438,227.70148090005387,228.43544580007438,227.70148090005387,228.43544580007438,228.4186893000733,228.9204947000835,228.4186893000733,228.9204947000835,228.4186893000733,228.9204947000835,228.4186893000733,228.9204947000835,228.4186893000733,228.9204947000835,228.4186893000733,228.9204947000835,228.4186893000733,228.9204947000835,228.4186893000733,228.9204947000835,227.70148090005387,None,228.9204947000835,None,0.7300000000000004,230.70529660000466,None,231.45661350002047,None,,,,,,,[[1.77]],3.2500000000000027,0.6857142857142857,11019,002,2024_Jan_05_1308,MFTM_A_new1021,2021.2.3,59.911594433705154,
,,,,,,,,stim/Instruction_adaptive.png,conditions/adaptive.xlsx,test,-0.6,-0.6,-0.6,0.6,0.6,left,L,,,,,0,1,1,1,0,35,35,77,,,,,,,,,,,,,,,,,,,,,,,,,,,,,,,,,,,,,,,,,,,,231.95738560007885,None,left,1,0.9095320999622345,232.4577461000299,233.65972280001733,232.4577461000299,233.15965000004508,232.4577461000299,233.15965000004508,232.4577461000299,233.15965000004508,232.4577461000299,233.15965000004508,232.4577461000299,233.15965000004508,233.12555230001453,233.62627670005895,233.12555230001453,233.62627670005895,233.12555230001453,233.62627670005895,233.12555230001453,233.62627670005895,233.12555230001453,233.62627670005895,233.12555230001453,233.62627670005895,233.12555230001453,233.62627670005895,233.12555230001453,233.62627670005895,232.4577461000299,None,233.62627670005895,235.44688060006592,0.6900000000000004,235.4624234000221,None,236.213626199984,None,,,,,,,[[1.81]],3.3200000000000025,0.6944444444444444,11019,002,2024_Jan_05_1308,MFTM_A_new1021,2021.2.3,59.911594433705154,
,,,,,,,,stim/Instruction_adaptive.png,conditions/adaptive.xlsx,test,-0.6,-0.6,-0.6,0.6,0.6,left,L,,,,,0,1,1,1,0,36,36,31,,,,,,,,,,,,,,,,,,,,,,,,,,,,,,,,,,,,,,,,,,,,236.71474239998497,None,right,0,1.1849005999974906,237.21515750000253,238.38333350000903,237.21515750000253,237.88378909998573,237.21515750000253,237.88378909998573,237.21515750000253,237.88378909998573,237.21515750000253,237.88378909998573,237.21515750000253,237.88378909998573,237.8660571000073,238.36679680005182,237.8660571000073,238.36679680005182,237.8660571000073,238.36679680005182,237.8660571000073,238.36679680005182,237.8660571000073,238.36679680005182,237.8660571000073,238.36679680005182,237.8660571000073,238.36679680005182,237.8660571000073,238.36679680005182,237.21515750000253,None,238.36679680005182,None,0.6600000000000004,240.21941800008062,None,240.9705654999707,None,,,,,,,[[1.84]],3.1200000000000023,0.6756756756756757,11019,002,2024_Jan_05_1308,MFTM_A_new1021,2021.2.3,59.911594433705154,
,,,,,,,,stim/Instruction_adaptive.png,conditions/adaptive.xlsx,test,-0.6,-0.6,-0.6,0.6,0.6,left,L,,,,,0,1,1,1,0,37,37,49,,,,,,,,,,,,,,,,,,,,,,,,,,,,,,,,,,,,,,,,,,,,241.4714638000587,None,left,1,0.8996702999575064,241.9721889999928,243.24167390004732,241.9721889999928,242.74043120001443,241.9721889999928,242.74043120001443,241.9721889999928,242.74043120001443,241.9721889999928,242.74043120001443,241.9721889999928,242.74043120001443,242.70727180002723,243.20758559997194,242.70727180002723,243.20758559997194,242.70727180002723,243.20758559997194,242.70727180002723,243.20758559997194,242.70727180002723,243.20758559997194,242.70727180002723,243.20758559997194,242.70727180002723,243.20758559997194,242.70727180002723,243.20758559997194,241.9721889999928,None,243.20758559997194,244.95996870007366,0.7600000000000005,244.976483299979,None,245.72771240002476,None,,,,,,,[[1.74]],3.190000000000002,0.6842105263157895,11019,002,2024_Jan_05_1308,MFTM_A_new1021,2021.2.3,59.911594433705154,
,,,,,,,,stim/Instruction_adaptive.png,conditions/adaptive.xlsx,test,-0.6,-0.6,-0.6,0.6,0.6,left,L,,,,,0,1,1,1,0,38,38,7,,,,,,,,,,,,,,,,,,,,,,,,,,,,,,,,,,,,,,,,,,,,246.22957750002388,None,left,1,1.2697023999644443,246.72978689998854,247.9643253000686,246.72978689998854,247.4633087000111,246.72978689998854,247.4633087000111,246.72978689998854,247.4633087000111,246.72978689998854,247.4633087000111,246.72978689998854,247.4633087000111,247.43078000005335,247.93150279996917,247.43078000005335,247.93150279996917,247.43078000005335,247.93150279996917,247.43078000005335,247.93150279996917,247.43078000005335,247.93150279996917,247.43078000005335,247.93150279996917,247.43078000005335,247.93150279996917,247.43078000005335,247.93150279996917,246.72978689998854,None,247.93150279996917,249.71821050008293,0.7200000000000004,249.73409100004937,None,250.48533970001154,None,,,,,,,[[1.78]],3.2600000000000025,0.6923076923076923,11019,002,2024_Jan_05_1308,MFTM_A_new1021,2021.2.3,59.911594433705154,
,,,,,,,,stim/Instruction_adaptive.png,conditions/adaptive.xlsx,test,-0.6,-0.6,-0.6,0.6,0.6,left,L,,,,,0,1,1,1,0,39,39,13,,,,,,,,,,,,,,,,,,,,,,,,,,,,,,,,,,,,,,,,,,,,250.98599780001678,None,left,1,0.7456167000345886,251.48607390001416,252.68786850001197,251.48607390001416,252.1871202000184,251.48607390001416,252.1871202000184,251.48607390001416,252.1871202000184,251.48607390001416,252.1871202000184,251.48607390001416,252.1871202000184,252.15437960007694,252.65500650007743,252.15437960007694,252.65500650007743,252.15437960007694,252.65500650007743,252.15437960007694,252.65500650007743,252.15437960007694,252.65500650007743,252.15437960007694,252.65500650007743,252.15437960007694,252.65500650007743,252.15437960007694,252.65500650007743,251.48607390001416,None,252.65500650007743,254.4739085000474,0.6900000000000004,254.49119049997535,None,255.2417355000507,None,,,,,,,[[1.81]],3.3200000000000025,0.7,11019,002,2024_Jan_05_1308,MFTM_A_new1021,2021.2.3,59.911594433705154,
,,,,,,,,stim/Instruction_adaptive.png,conditions/adaptive.xlsx,test,-0.6,-0.6,-0.6,0.6,0.6,left,L,,,,,0,1,1,1,0,40,40,73,,,,,,,,,,,,,,,,,,,,,,,,,,,,,,,,,,,,,,,,,,,,255.74244719999842,None,right,0,1.211923799943179,256.2432467000326,257.41176360007375,256.2432467000326,256.91088500001933,256.2432467000326,256.91088500001933,256.2432467000326,256.91088500001933,256.2432467000326,256.91088500001933,256.2432467000326,256.91088500001933,256.89417870005127,257.3948197000427,256.89417870005127,257.3948197000427,256.89417870005127,257.3948197000427,256.89417870005127,257.3948197000427,256.89417870005127,257.3948197000427,256.89417870005127,257.3948197000427,256.89417870005127,257.3948197000427,256.89417870005127,257.3948197000427,256.2432467000326,None,257.37807870004326,259.23132839996833,0.6600000000000004,259.2474868000718,None,259.99919840006623,None,,,,,,,[[1.84]],3.1400000000000023,0.6829268292682927,11019,002,2024_Jan_05_1308,MFTM_A_new1021,2021.2.3,59.911594433705154,
,,,,,,,,stim/Instruction_adaptive.png,conditions/adaptive.xlsx,test,0.6,0.6,0.6,-0.6,-0.6,right,R,,,,,0,1,1,1,0,41,41,78,,,,,,,,,,,,,,,,,,,,,,,,,,,,,,,,,,,,,,,,,,,,260.4994391000364,None,left,0,1.030999599955976,261.0003141000634,262.2530228999676,261.0003141000634,261.75142860005144,261.0003141000634,261.75142860005144,261.0003141000634,261.75142860005144,261.0003141000634,261.75142860005144,261.0003141000634,261.75142860005144,261.73498940002173,262.23546830005944,261.73498940002173,262.23546830005944,261.73498940002173,262.23546830005944,261.73498940002173,262.23546830005944,261.73498940002173,262.23546830005944,261.73498940002173,262.23546830005944,261.73498940002173,262.23546830005944,261.73498940002173,262.23546830005944,261.0003141000634,None,262.23546830005944,263.9882400999777,0.7500000000000004,264.0047192000784,None,264.7566201000009,None,,,,,,,[[1.75]],2.940000000000002,0.6666666666666666,11019,002,2024_Jan_05_1308,MFTM_A_new1021,2021.2.3,59.911594433705154,
,,,,,,,,stim/Instruction_adaptive.png,conditions/adaptive.xlsx,test,0.6,0.6,0.6,-0.6,-0.6,right,R,,,,,0,1,1,1,0,42,42,16,,,,,,,,,,,,,,,,,,,,,,,,,,,,,,,,,,,,,,,,,,,,265.25761910004076,None,right,1,0.8019855000311509,265.75735810003243,267.12712630000897,265.75735810003243,266.62602309999056,265.75735810003243,266.62602309999056,265.75735810003243,266.62602309999056,265.75735810003243,266.62602309999056,265.75735810003243,266.62602309999056,266.5917182000121,267.09297160001006,266.5917182000121,267.09297160001006,266.5917182000121,267.09297160001006,266.5917182000121,267.09297160001006,266.5917182000121,267.09297160001006,266.5917182000121,267.09297160001006,266.5917182000121,267.09297160001006,266.5917182000121,267.09297160001006,265.75735810003243,None,267.09297160001006,268.74528689996805,0.8600000000000005,268.7615896000061,None,269.51284360000864,None,,,,,,,[[1.64]],3.0100000000000025,0.6744186046511628,11019,002,2024_Jan_05_1308,MFTM_A_new1021,2021.2.3,59.911594433705154,
,,,,,,,,stim/Instruction_adaptive.png,conditions/adaptive.xlsx,test,-0.6,-0.6,-0.6,0.6,0.6,left,L,,,,,0,1,1,1,0,43,43,5,,,,,,,,,,,,,,,,,,,,,,,,,,,,,,,,,,,,,,,,,,,,270.014242400066,None,left,1,0.9239989999914542,270.51524350000545,271.8502697000513,270.51524350000545,271.3489351000171,270.51524350000545,271.3489351000171,270.51524350000545,271.3489351000171,270.51524350000545,271.3489351000171,270.51524350000545,271.3489351000171,271.31568250001874,271.81639890000224,271.31568250001874,271.81639890000224,271.31568250001874,271.81639890000224,271.31568250001874,271.81639890000224,271.31568250001874,271.81639890000224,271.31568250001874,271.81639890000224,271.31568250001874,271.81639890000224,271.31568250001874,271.81639890000224,270.51524350000545,None,271.81639890000224,273.5040607000701,0.8200000000000005,273.5184962999774,None,274.2698016000213,None,,,,,,,[[1.68]],3.0800000000000023,0.6818181818181818,11019,002,2024_Jan_05_1308,MFTM_A_new1021,2021.2.3,59.911594433705154,
,,,,,,,,stim/Instruction_adaptive.png,conditions/adaptive.xlsx,test,-0.6,-0.6,-0.6,0.6,0.6,left,L,,,,,0,1,1,1,0,44,44,33,,,,,,,,,,,,,,,,,,,,,,,,,,,,,,,,,,,,,,,,,,,,274.77149359998293,None,right,0,1.3688042999710888,275.2713146000169,276.55676110007335,275.2713146000169,276.0558433000697,275.2713146000169,276.0558433000697,275.2713146000169,276.0558433000697,275.2713146000169,276.0558433000697,275.2713146000169,276.0558433000697,276.03934929997195,276.5401322999969,276.03934929997195,276.5401322999969,276.03934929997195,276.5401322999969,276.03934929997195,276.5401322999969,276.03934929997195,276.5401322999969,276.03934929997195,276.5401322999969,276.03934929997195,276.5401322999969,276.03934929997195,276.5401322999969,275.2713146000169,None,276.5401322999969,278.2594096000539,0.7800000000000005,278.2751682000235,None,279.0286760000745,None,,,,,,,[[1.72]],2.8900000000000023,0.6666666666666666,11019,002,2024_Jan_05_1308,MFTM_A_new1021,2021.2.3,59.911594433705154,
,,,,,,,,stim/Instruction_adaptive.png,conditions/adaptive.xlsx,test,-0.6,-0.6,-0.6,0.6,0.6,left,L,,,,,0,1,1,1,0,45,45,97,,,,,,,,,,,,,,,,,,,,,,,,,,,,,,,,,,,,,,,,,,,,279.52782379998825,None,left,1,0.6112931999377906,280.0284460000694,281.4310518000275,280.0284460000694,280.9302943000803,280.0284460000694,280.9302943000803,280.0284460000694,280.9302943000803,280.0284460000694,280.9302943000803,280.0284460000694,280.9302943000803,280.8963203000603,281.39724000007845,280.8963203000603,281.39724000007845,280.8963203000603,281.39724000007845,280.8963203000603,281.39724000007845,280.8963203000603,281.39724000007845,280.8963203000603,281.39724000007845,280.8963203000603,281.39724000007845,280.8963203000603,281.39724000007845,280.0284460000694,None,281.39724000007845,283.01659999997355,0.8900000000000006,283.03286250005476,None,283.7854971999768,None,,,,,,,[[1.61]],2.960000000000002,0.6739130434782609,11019,002,2024_Jan_05_1308,MFTM_A_new1021,2021.2.3,59.911594433705154,
,,,,,,,,stim/Instruction_adaptive.png,conditions/adaptive.xlsx,test,-0.6,-0.6,-0.6,0.6,0.6,left,L,,,,,0,1,1,1,0,46,46,85,,,,,,,,,,,,,,,,,,,,,,,,,,,,,,,,,,,,,,,,,,,,284.2852516999701,None,left,1,1.3824281999841332,284.78581180004403,286.13757710007485,284.78581180004403,285.63775090000127,284.78581180004403,285.63775090000127,284.78581180004403,285.63775090000127,284.78581180004403,285.63775090000127,284.78581180004403,285.63775090000127,285.6201844000025,286.12093940004706,285.6201844000025,286.12093940004706,285.6201844000025,286.12093940004706,285.6201844000025,286.12093940004706,285.6201844000025,286.12093940004706,285.6201844000025,286.12093940004706,285.6201844000025,286.12093940004706,285.6201844000025,286.12093940004706,284.78581180004403,None,286.12093940004706,287.77372870000545,0.8500000000000005,287.7900346000679,None,288.54351430002134,None,,,,,,,[[1.65]],3.0200000000000022,0.6808510638297872,11019,002,2024_Jan_05_1308,MFTM_A_new1021,2021.2.3,59.911594433705154,
,,,,,,,,stim/Instruction_adaptive.png,conditions/adaptive.xlsx,test,-0.6,-0.6,-0.6,0.6,0.6,left,L,,,,,0,1,1,1,0,47,47,11,,,,,,,,,,,,,,,,,,,,,,,,,,,,,,,,,,,,,,,,,,,,289.0425281000789,None,left,1,1.0247728000395,289.5429767000023,290.86188119999133,289.5429767000023,290.36038209998515,289.5429767000023,290.36038209998515,289.5429767000023,290.36038209998515,289.5429767000023,290.36038209998515,289.5429767000023,290.36038209998515,290.3445439999923,290.8451652000658,290.3445439999923,290.8451652000658,290.3445439999923,290.8451652000658,290.3445439999923,290.8451652000658,290.3445439999923,290.8451652000658,290.3445439999923,290.8451652000658,290.3445439999923,290.8451652000658,290.3445439999923,290.8451652000658,289.5429767000023,None,290.8451652000658,None,0.8100000000000005,292.5469765000744,None,293.29880730004515,None,,,,,,,[[1.69]],3.0800000000000023,0.6875,11019,002,2024_Jan_05_1308,MFTM_A_new1021,2021.2.3,59.911594433705154,
,,,,,,,,stim/Instruction_adaptive.png,conditions/adaptive.xlsx,test,0.6,0.6,0.6,-0.6,-0.6,right,R,,,,,0,1,1,1,0,48,48,22,,,,,,,,,,,,,,,,,,,,,,,,,,,,,,,,,,,,,,,,,,,,293.7989906000439,None,right,1,1.1479575000703335,294.29995560005773,295.5847362000495,294.29995560005773,295.0840899000177,294.29995560005773,295.0840899000177,294.29995560005773,295.0840899000177,294.29995560005773,295.0840899000177,294.29995560005773,295.0840899000177,295.0673361000372,295.56805580004584,295.0673361000372,295.56805580004584,295.0673361000372,295.56805580004584,295.0673361000372,295.56805580004584,295.0673361000372,295.56805580004584,295.0673361000372,295.56805580004584,295.0673361000372,295.56805580004584,295.0673361000372,295.56805580004584,294.29995560005773,None,295.56805580004584,297.2880405000178,0.7800000000000005,297.3046466000378,None,298.05535619996954,None,,,,,,,[[1.72]],3.1400000000000023,0.6938775510204082,11019,002,2024_Jan_05_1308,MFTM_A_new1021,2021.2.3,59.911594433705154,
,,,,,,,,stim/Instruction_adaptive.png,conditions/adaptive.xlsx,test,0.6,0.6,0.6,-0.6,-0.6,right,R,,,,,0,1,1,1,0,49,49,68,,,,,,,,,,,,,,,,,,,,,,,,,,,,,,,,,,,,,,,,,,,,298.5562637000112,None,right,1,1.382812299998477,299.0566681000637,300.3097770999884,299.0566681000637,299.80824949999806,299.0566681000637,299.80824949999806,299.0566681000637,299.80824949999806,299.0566681000637,299.80824949999806,299.0566681000637,299.80824949999806,299.7916600999888,300.2928314000601,299.7916600999888,300.2928314000601,299.7916600999888,300.2928314000601,299.7916600999888,300.2928314000601,299.7916600999888,300.2928314000601,299.7916600999888,300.2928314000601,299.7916600999888,300.2928314000601,299.7916600999888,300.2928314000601,299.0566681000637,None,300.2928314000601,302.0452967999736,0.7500000000000004,302.0610745999729,None,302.81260050006676,None,,,,,,,[[1.75]],3.190000000000002,0.7,11019,002,2024_Jan_05_1308,MFTM_A_new1021,2021.2.3,59.911594433705154,
,,,,,,,,stim/Instruction_adaptive.png,conditions/adaptive.xlsx,test,-0.6,-0.6,-0.6,0.6,0.6,left,L,,,,,0,1,1,1,0,50,50,99,,,,,,,,,,,,,,,,,,,,,,,,,,,,,,,,,,,,,,,,,,,,303.31294049997814,None,left,1,1.0246460000053048,303.8147056000307,305.0487917000428,303.8147056000307,304.5479114999762,303.8147056000307,304.5479114999762,303.8147056000307,304.5479114999762,303.8147056000307,304.5479114999762,303.8147056000307,304.5479114999762,304.5146001999965,305.0161321000196,304.5146001999965,305.0161321000196,304.5146001999965,305.0161321000196,304.5146001999965,305.0161321000196,304.5146001999965,305.0161321000196,304.5146001999965,305.0161321000196,304.5146001999965,305.0161321000196,304.5146001999965,305.0161321000196,303.8147056000307,None,305.0161321000196,306.80133839999326,0.7200000000000004,306.81822210003156,None,307.5698036000831,None,,,,,,,[[1.78]],3.230000000000002,0.7058823529411765,11019,002,2024_Jan_05_1308,MFTM_A_new1021,2021.2.3,59.911594433705154,
,,,,,,,,stim/Instruction_adaptive.png,conditions/adaptive.xlsx,test,0.6,0.6,0.6,-0.6,-0.6,right,R,,,,,0,1,1,1,0,51,51,20,,,,,,,,,,,,,,,,,,,,,,,,,,,,,,,,,,,,,,,,,,,,308.0699831000529,None,left,0,0.9887446999782696,308.5708109000698,309.77329200005624,308.5708109000698,309.2718727000756,308.5708109000698,309.2718727000756,308.5708109000698,309.2718727000756,308.5708109000698,309.2718727000756,308.5708109000698,309.2718727000756,309.25523030001204,309.75697820005007,309.25523030001204,309.75697820005007,309.25523030001204,309.75697820005007,309.25523030001204,309.75697820005007,309.25523030001204,309.75697820005007,309.25523030001204,309.75697820005007,309.25523030001204,309.75697820005007,309.25523030001204,309.75697820005007,308.5708109000698,None,309.75697820005007,311.55899960000534,0.7000000000000004,311.57518759998493,None,312.3268040000694,None,,,,,,,[[1.8]],3.1000000000000023,0.6923076923076923,11019,002,2024_Jan_05_1308,MFTM_A_new1021,2021.2.3,59.911594433705154,
,,,,,,,,stim/Instruction_adaptive.png,conditions/adaptive.xlsx,test,-0.6,-0.6,-0.6,0.6,0.6,left,L,,,,,0,1,1,1,0,52,52,25,,,,,,,,,,,,,,,,,,,,,,,,,,,,,,,,,,,,,,,,,,,,312.827008399996,None,right,0,0.4478475999785587,313.3275688000722,314.59638550004456,313.3275688000722,314.1122393000405,313.3275688000722,314.1122393000405,313.3275688000722,314.1122393000405,313.3275688000722,314.1122393000405,313.3275688000722,314.1122393000405,314.0787592000561,314.5803201000672,314.0787592000561,314.5803201000672,314.0787592000561,314.5803201000672,314.0787592000561,314.5803201000672,314.0787592000561,314.5803201000672,314.0787592000561,314.5803201000672,314.0787592000561,314.5803201000672,314.0787592000561,314.5803201000672,313.3275688000722,None,314.5803201000672,316.31549000006635,0.7700000000000005,316.33214060007595,None,317.0832964000292,None,,,,,,,[[1.73]],2.950000000000002,0.6792452830188679,11019,002,2024_Jan_05_1308,MFTM_A_new1021,2021.2.3,59.911594433705154,
,,,,,,,,stim/Instruction_adaptive.png,conditions/adaptive.xlsx,test,0.6,0.6,0.6,-0.6,-0.6,right,R,,,,,0,1,1,1,0,53,53,6,,,,,,,,,,,,,,,,,,,,,,,,,,,,,,,,,,,,,,,,,,,,317.5846337999683,None,right,1,1.0250587000045925,318.08632390003186,319.4371059000259,318.08632390003186,318.9364819000475,318.08632390003186,318.9364819000475,318.08632390003186,318.9364819000475,318.08632390003186,318.9364819000475,318.08632390003186,318.9364819000475,318.9195669000037,319.4202699000016,318.9195669000037,319.4202699000016,318.9195669000037,319.4202699000016,318.9195669000037,319.4202699000016,318.9195669000037,319.4202699000016,318.9195669000037,319.4202699000016,318.9195669000037,319.4202699000016,318.9195669000037,319.4202699000016,318.08632390003186,None,319.4202699000016,321.0738843000727,0.8500000000000005,321.08864520001225,None,321.8414703999879,None,,,,,,,[[1.65]],3.000000000000002,0.6851851851851852,11019,002,2024_Jan_05_1308,MFTM_A_new1021,2021.2.3,59.911594433705154,
,,,,,,,,stim/Instruction_adaptive.png,conditions/adaptive.xlsx,test,0.6,0.6,0.6,-0.6,-0.6,right,R,,,,,0,1,1,1,0,54,54,58,,,,,,,,,,,,,,,,,,,,,,,,,,,,,,,,,,,,,,,,,,,,322.3415120000718,None,right,1,1.0615109999198467,322.841940500075,324.16073590004817,322.841940500075,323.6767993000103,322.841940500075,323.6767993000103,322.841940500075,323.6767993000103,322.841940500075,323.6767993000103,322.841940500075,323.6767993000103,323.6431844000472,324.1445276000304,323.6431844000472,324.1445276000304,323.6431844000472,324.1445276000304,323.6431844000472,324.1445276000304,323.6431844000472,324.1445276000304,323.6431844000472,324.1445276000304,323.6431844000472,324.1445276000304,323.6431844000472,324.1445276000304,322.841940500075,None,324.1445276000304,325.82945139997173,0.8200000000000005,325.84649680007715,None,326.59802590007894,None,,,,,,,[[1.68]],3.0500000000000025,0.6909090909090909,11019,002,2024_Jan_05_1308,MFTM_A_new1021,2021.2.3,59.911594433705154,
,,,,,,,,stim/Instruction_adaptive.png,conditions/adaptive.xlsx,test,0.6,0.6,0.6,-0.6,-0.6,right,R,,,,,0,1,1,1,0,55,55,10,,,,,,,,,,,,,,,,,,,,,,,,,,,,,,,,,,,,,,,,,,,,327.0986696999753,None,right,1,0.9277808000333607,327.5995851000771,328.9007974000415,327.5995851000771,328.4001150999684,327.5995851000771,328.4001150999684,327.5995851000771,328.4001150999684,327.5995851000771,328.4001150999684,327.5995851000771,328.4001150999684,328.3665531000588,328.86763940006495,328.3665531000588,328.86763940006495,328.3665531000588,328.86763940006495,328.3665531000588,328.86763940006495,328.3665531000588,328.86763940006495,328.3665531000588,328.86763940006495,328.3665531000588,328.86763940006495,328.3665531000588,328.86763940006495,327.5995851000771,None,328.86763940006495,330.5876712000463,0.7900000000000005,330.60331729997415,None,331.354969899985,None,,,,,,,[[1.71]],3.1000000000000023,0.6964285714285714,11019,002,2024_Jan_05_1308,MFTM_A_new1021,2021.2.3,59.911594433705154,
,,,,,,,,stim/Instruction_adaptive.png,conditions/adaptive.xlsx,test,-0.6,-0.6,-0.6,0.6,0.6,left,L,,,,,0,1,1,1,0,56,56,87,,,,,,,,,,,,,,,,,,,,,,,,,,,,,,,,,,,,,,,,,,,,331.85523600003216,None,right,0,1.2274408000521362,332.35593299998436,333.62515980005264,332.35593299998436,333.1404542999808,332.35593299998436,333.1404542999808,332.35593299998436,333.1404542999808,332.35593299998436,333.1404542999808,332.35593299998436,333.1404542999808,333.107909000013,333.60844270000234,333.107909000013,333.60844270000234,333.107909000013,333.60844270000234,333.107909000013,333.60844270000234,333.107909000013,333.60844270000234,333.107909000013,333.60844270000234,333.107909000013,333.60844270000234,333.107909000013,333.60844270000234,332.35593299998436,None,333.60844270000234,335.34400939999614,0.7700000000000005,335.36047469999176,None,336.1114420000231,None,,,,,,,[[1.73]],2.960000000000002,0.6842105263157895,11019,002,2024_Jan_05_1308,MFTM_A_new1021,2021.2.3,59.911594433705154,
,,,,,,,,stim/Instruction_adaptive.png,conditions/adaptive.xlsx,test,-0.6,-0.6,-0.6,0.6,0.6,left,L,,,,,0,1,1,1,0,57,57,53,,,,,,,,,,,,,,,,,,,,,,,,,,,,,,,,,,,,,,,,,,,,336.61209279997274,None,left,1,1.1505121000809595,337.11315250000916,338.4652044000104,337.11315250000916,337.96432799997274,337.11315250000916,337.96432799997274,337.11315250000916,337.96432799997274,337.11315250000916,337.96432799997274,337.11315250000916,337.96432799997274,337.94767150003463,338.4482774999924,337.94767150003463,338.4482774999924,337.94767150003463,338.4482774999924,337.94767150003463,338.4482774999924,337.94767150003463,338.4482774999924,337.94767150003463,338.4482774999924,337.94767150003463,338.4482774999924,337.94767150003463,338.4482774999924,337.11315250000916,None,338.4482774999924,340.1006879999768,0.8500000000000005,340.1174301999854,None,340.8686304000439,None,,,,,,,[[1.65]],3.0100000000000025,0.6896551724137931,11019,002,2024_Jan_05_1308,MFTM_A_new1021,2021.2.3,59.911594433705154,
,,,,,,,,stim/Instruction_adaptive.png,conditions/adaptive.xlsx,test,0.6,0.6,0.6,-0.6,-0.6,right,R,,,,,0,1,1,1,0,58,58,8,,,,,,,,,,,,,,,,,,,,,,,,,,,,,,,,,,,,,,,,,,,,341.3700084000593,None,right,1,0.8727950999746099,341.87077899998985,343.2052025999874,341.87077899998985,342.7046977999853,341.87077899998985,342.7046977999853,341.87077899998985,342.7046977999853,341.87077899998985,342.7046977999853,341.87077899998985,342.7046977999853,342.67112299997825,343.17285610002,342.67112299997825,343.17285610002,342.67112299997825,343.17285610002,342.67112299997825,343.17285610002,342.67112299997825,343.17285610002,342.67112299997825,343.17285610002,342.67112299997825,343.17285610002,342.67112299997825,343.17285610002,341.87077899998985,None,343.17285610002,344.8585577000631,0.8200000000000005,344.87447240005713,None,345.62622209999245,None,,,,,,,[[1.68]],3.0500000000000025,0.6949152542372882,11019,002,2024_Jan_05_1308,MFTM_A_new1021,2021.2.3,59.911594433705154,
,,,,,,,,stim/Instruction_adaptive.png,conditions/adaptive.xlsx,test,-0.6,-0.6,-0.6,0.6,0.6,left,L,,,,,0,1,1,1,0,59,59,57,,,,,,,,,,,,,,,,,,,,,,,,,,,,,,,,,,,,,,,,,,,,346.12649629998486,None,right,0,0.8686130000278354,346.6271951000672,347.9292427999899,346.6271951000672,347.42805900005624,346.6271951000672,347.42805900005624,346.6271951000672,347.42805900005624,346.6271951000672,347.42805900005624,346.6271951000672,347.42805900005624,347.3949727000436,347.8957542000571,347.3949727000436,347.8957542000571,347.3949727000436,347.8957542000571,347.3949727000436,347.8957542000571,347.3949727000436,347.8957542000571,347.3949727000436,347.8957542000571,347.3949727000436,347.8957542000571,347.3949727000436,347.8957542000571,346.6271951000672,None,347.8957542000571,349.6151439000387,0.7900000000000005,349.6313871999737,None,350.38337230007164,None,,,,,,,[[1.71]],2.920000000000002,0.6833333333333333,11019,002,2024_Jan_05_1308,MFTM_A_new1021,2021.2.3,59.911594433705154,
,,,,,,,,stim/Instruction_adaptive.png,conditions/adaptive.xlsx,test,0.6,0.6,0.6,-0.6,-0.6,right,R,,,,,0,1,1,1,0,60,60,4,,,,,,,,,,,,,,,,,,,,,,,,,,,,,,,,,,,,,,,,,,,,350.8835387000581,None,right,1,1.0873288000002503,351.384201799985,352.7696442999877,351.384201799985,352.26882330002263,351.384201799985,352.26882330002263,351.384201799985,352.26882330002263,351.384201799985,352.26882330002263,351.384201799985,352.26882330002263,352.2357185999863,352.73622369999066,352.2357185999863,352.73622369999066,352.2357185999863,352.73622369999066,352.2357185999863,352.73622369999066,352.2357185999863,352.73622369999066,352.2357185999863,352.73622369999066,352.2357185999863,352.73622369999066,352.2357185999863,352.73622369999066,351.384201799985,None,352.73622369999066,354.3731201000046,0.8700000000000006,354.3885471000103,None,355.13955580000766,None,,,,,,,[[1.63]],2.9700000000000024,0.6885245901639344,11019,002,2024_Jan_05_1308,MFTM_A_new1021,2021.2.3,59.911594433705154,
,,,,,,,,stim/Instruction_adaptive.png,conditions/adaptive.xlsx,test,-0.6,-0.6,-0.6,0.6,0.6,left,L,,,,,0,1,1,1,0,61,61,9,,,,,,,,,,,,,,,,,,,,,,,,,,,,,,,,,,,,,,,,,,,,355.6414428000571,None,left,1,0.5302666999632493,356.14154720003717,357.4938075999962,356.14154720003717,356.9928706000792,356.14154720003717,356.9928706000792,356.14154720003717,356.9928706000792,356.14154720003717,356.9928706000792,356.14154720003717,356.9928706000792,356.95986240007915,357.4599768000189,356.95986240007915,357.4599768000189,356.95986240007915,357.4599768000189,356.95986240007915,357.4599768000189,356.95986240007915,357.4599768000189,356.95986240007915,357.4599768000189,356.95986240007915,357.4599768000189,356.95986240007915,357.4599768000189,356.14154720003717,None,357.4599768000189,359.12908600002993,0.8400000000000005,359.1460564000299,None,359.8973023999715,None,,,,,,,[[1.66]],3.0100000000000025,0.6935483870967742,11019,002,2024_Jan_05_1308,MFTM_A_new1021,2021.2.3,59.911594433705154,
,,,,,,,,stim/Instruction_adaptive.png,conditions/adaptive.xlsx,test,0.6,0.6,0.6,-0.6,-0.6,right,R,,,,,0,1,1,1,0,62,62,66,,,,,,,,,,,,,,,,,,,,,,,,,,,,,,,,,,,,,,,,,,,,360.3976479000412,None,None,0,0,360.8981506000273,362.2172269000439,360.8981506000273,361.7328332000179,360.8981506000273,361.7328332000179,360.8981506000273,361.7328332000179,360.8981506000273,361.7328332000179,360.8981506000273,361.7328332000179,361.7002091000322,362.2019199000206,361.7002091000322,362.2019199000206,361.7002091000322,362.2019199000206,361.7002091000322,362.2019199000206,361.7002091000322,362.2019199000206,361.7002091000322,362.2019199000206,361.7002091000322,362.2019199000206,361.7002091000322,362.2019199000206,360.8981506000273,None,362.2019199000206,364.3868354000151,0.8200000000000005,364.40321240003686,None,365.15461830003187,None,,,,,,,[[2.18]],2.880000000000002,0.6825396825396826,11019,002,2024_Jan_05_1308,MFTM_A_new1021,2021.2.3,59.911594433705154,
,,,,,,,,stim/Instruction_adaptive.png,conditions/adaptive.xlsx,test,0.6,0.6,0.6,-0.6,-0.6,right,R,,,,,0,1,1,1,0,63,63,62,,,,,,,,,,,,,,,,,,,,,,,,,,,,,,,,,,,,,,,,,,,,365.6552630000515,None,right,1,0.9383929000468925,366.1572039000457,367.55910279997624,366.1572039000457,367.05720040004235,366.1572039000457,367.05720040004235,366.1572039000457,367.05720040004235,366.1572039000457,367.05720040004235,366.1572039000457,367.05720040004235,367.0240677000256,367.52573700004723,367.0240677000256,367.52573700004723,367.0240677000256,367.52573700004723,367.0240677000256,367.52573700004723,367.0240677000256,367.52573700004723,367.0240677000256,367.52573700004723,367.0240677000256,367.52573700004723,367.0240677000256,367.52573700004723,366.1572039000457,None,367.52573700004723,369.1445732000284,0.8900000000000006,369.16023250005674,None,369.9124193000607,None,,,,,,,[[1.61]],2.9300000000000024,0.6875,11019,002,2024_Jan_05_1308,MFTM_A_new1021,2021.2.3,59.911594433705154,
,,,,,,,,stim/Instruction_adaptive.png,conditions/adaptive.xlsx,test,-0.6,-0.6,-0.6,0.6,0.6,left,L,,,,,0,1,1,1,0,64,64,93,,,,,,,,,,,,,,,,,,,,,,,,,,,,,,,,,,,,,,,,,,,,370.41227740002796,None,right,0,1.030717899906449,370.9130960999755,372.28173400007654,370.9130960999755,371.7811320000328,370.9130960999755,371.7811320000328,370.9130960999755,371.7811320000328,370.9130960999755,371.7811320000328,370.9130960999755,371.7811320000328,371.76441609999165,372.26508879999164,371.76441609999165,372.26508879999164,371.76441609999165,372.26508879999164,371.76441609999165,372.26508879999164,371.76441609999165,372.26508879999164,371.76441609999165,372.26508879999164,371.76441609999165,372.26508879999164,371.76441609999165,372.26508879999164,370.9130960999755,None,372.2483326999936,373.9021471000742,0.8600000000000005,373.91694410005584,None,374.66874710004777,None,,,,,,,[[1.64]],2.800000000000002,0.676923076923077,11019,002,2024_Jan_05_1308,MFTM_A_new1021,2021.2.3,59.911594433705154,
,,,,,,,,stim/Instruction_adaptive.png,conditions/adaptive.xlsx,test,-0.6,-0.6,-0.6,0.6,0.6,left,L,,,,,0,1,1,1,0,65,65,23,,,,,,,,,,,,,,,,,,,,,,,,,,,,,,,,,,,,,,,,,,,,375.17018360004295,None,right,0,0.6896550999954343,375.67000020004343,377.122669900069,375.67000020004343,376.62218180007767,375.67000020004343,376.62218180007767,375.67000020004343,376.62218180007767,375.67000020004343,376.62218180007767,375.67000020004343,376.62218180007767,376.58891400007997,377.0889519000193,376.58891400007997,377.0889519000193,376.58891400007997,377.0889519000193,376.58891400007997,377.0889519000193,376.58891400007997,377.0889519000193,376.58891400007997,377.0889519000193,376.58891400007997,377.0889519000193,376.58891400007997,377.0889519000193,375.67000020004343,None,377.0889519000193,378.65802600001916,0.9400000000000006,378.6746827000752,None,379.4256042999914,None,,,,,,,[[1.56]],2.660000000000002,0.6666666666666666,11019,002,2024_Jan_05_1308,MFTM_A_new1021,2021.2.3,59.911594433705154,
,,,,,,,,stim/Instruction_adaptive.png,conditions/adaptive.xlsx,test,-0.6,-0.6,-0.6,0.6,0.6,left,L,,,,,0,1,1,1,0,66,66,71,,,,,,,,,,,,,,,,,,,,,,,,,,,,,,,,,,,,,,,,,,,,379.92675940005574,None,left,1,0.8045576999429613,380.42706230003387,381.97956490004435,380.42706230003387,381.47879409999587,380.42706230003387,381.47879409999587,380.42706230003387,381.47879409999587,380.42706230003387,381.47879409999587,380.42706230003387,381.47879409999587,381.4460372000467,381.94664980005473,381.4460372000467,381.94664980005473,381.4460372000467,381.94664980005473,381.4460372000467,381.94664980005473,381.4460372000467,381.94664980005473,381.4460372000467,381.94664980005473,381.4460372000467,381.94664980005473,381.4460372000467,381.94664980005473,380.42706230003387,None,381.94664980005473,383.4150017000502,1.0400000000000007,383.4314174000174,None,384.1835966000799,None,,,,,,,[[1.46]],2.7100000000000017,0.6716417910447762,11019,002,2024_Jan_05_1308,MFTM_A_new1021,2021.2.3,59.911594433705154,
,,,,,,,,stim/Instruction_adaptive.png,conditions/adaptive.xlsx,test,0.6,0.6,0.6,-0.6,-0.6,right,R,,,,,0,1,1,1,0,67,67,32,,,,,,,,,,,,,,,,,,,,,,,,,,,,,,,,,,,,,,,,,,,,384.684331699973,None,left,0,0.7912317999871448,385.18456620001234,386.70457300008275,385.18456620001234,386.20242610003334,385.18456620001234,386.20242610003334,385.18456620001234,386.20242610003334,385.18456620001234,386.20242610003334,385.18456620001234,386.20242610003334,386.1689597000368,386.66978410002775,386.1689597000368,386.66978410002775,386.1689597000368,386.66978410002775,386.1689597000368,386.66978410002775,386.1689597000368,386.66978410002775,386.1689597000368,386.66978410002775,386.1689597000368,386.66978410002775,386.1689597000368,386.66978410002775,385.18456620001234,None,386.66978410002775,388.1719927000813,1.0100000000000007,388.1887611000566,None,388.9401193000376,None,,,,,,,[[1.49]],2.560000000000002,0.6617647058823529,11019,002,2024_Jan_05_1308,MFTM_A_new1021,2021.2.3,59.911594433705154,
,,,,,,,,stim/Instruction_adaptive.png,conditions/adaptive.xlsx,test,-0.6,-0.6,-0.6,0.6,0.6,left,L,,,,,0,1,1,1,0,68,68,79,,,,,,,,,,,,,,,,,,,,,,,,,,,,,,,,,,,,,,,,,,,,389.44045660004485,None,right,0,0.993936900049448,389.9416164000286,391.5605118999956,389.9416164000286,391.0762948000338,389.9416164000286,391.0762948000338,389.9416164000286,391.0762948000338,389.9416164000286,391.0762948000338,389.9416164000286,391.0762948000338,391.04332409997005,391.5444116999861,391.04332409997005,391.5444116999861,391.04332409997005,391.5444116999861,391.04332409997005,391.5444116999861,391.04332409997005,391.5444116999861,391.04332409997005,391.5444116999861,391.04332409997005,391.5444116999861,391.04332409997005,391.5444116999861,389.9416164000286,None,391.5444116999861,392.9303863000823,1.1200000000000008,392.9457619000459,None,393.6968620000407,None,,,,,,,[[1.38]],2.4000000000000017,0.6521739130434783,11019,002,2024_Jan_05_1308,MFTM_A_new1021,2021.2.3,59.911594433705154,
,,,,,,,,stim/Instruction_adaptive.png,conditions/adaptive.xlsx,test,0.6,0.6,0.6,-0.6,-0.6,right,R,,,,,0,1,1,1,0,69,69,92,,,,,,,,,,,,,,,,,,,,,,,,,,,,,,,,,,,,,,,,,,,,394.19762049999554,None,right,1,0.7501700000138953,394.6984177000122,396.4511998000089,394.6984177000122,395.95047530008014,394.6984177000122,395.95047530008014,394.6984177000122,395.95047530008014,394.6984177000122,395.95047530008014,394.6984177000122,395.95047530008014,395.9335097000003,396.43446480005514,395.9335097000003,396.43446480005514,395.9335097000003,396.43446480005514,395.9335097000003,396.43446480005514,395.9335097000003,396.43446480005514,395.9335097000003,396.43446480005514,395.9335097000003,396.43446480005514,395.9335097000003,396.43446480005514,394.6984177000122,None,396.43446480005514,397.6867402000353,1.2500000000000009,397.7027392999735,None,398.45393359998707,None,,,,,,,[[1.25]],2.4600000000000017,0.6571428571428571,11019,002,2024_Jan_05_1308,MFTM_A_new1021,2021.2.3,59.911594433705154,
,,,,,,,,stim/Instruction_adaptive.png,conditions/adaptive.xlsx,test,0.6,0.6,0.6,-0.6,-0.6,right,R,,,,,0,1,1,1,0,70,70,88,,,,,,,,,,,,,,,,,,,,,,,,,,,,,,,,,,,,,,,,,,,,398.9546634000726,None,left,0,1.5205116999568418,399.45543530001305,401.1579695000546,399.45543530001305,400.6571323000826,399.45543530001305,400.6571323000826,399.45543530001305,400.6571323000826,399.45543530001305,400.6571323000826,399.45543530001305,400.6571323000826,400.6415142000187,401.1419305000454,400.6415142000187,401.1419305000454,400.6415142000187,401.1419305000454,400.6415142000187,401.1419305000454,400.6415142000187,401.1419305000454,400.6415142000187,401.1419305000454,400.6415142000187,401.1419305000454,400.6415142000187,401.1419305000454,399.45543530001305,None,401.1419305000454,402.4435273000272,1.2000000000000008,402.459632000071,None,403.2118065999821,None,,,,,,,[[1.3]],2.2800000000000016,0.647887323943662,11019,002,2024_Jan_05_1308,MFTM_A_new1021,2021.2.3,59.911594433705154,
,,,,,,,,stim/Instruction_adaptive.png,conditions/adaptive.xlsx,test,-0.6,-0.6,-0.6,0.6,0.6,left,L,,,,,0,1,1,1,0,71,71,29,,,,,,,,,,,,,,,,,,,,,,,,,,,,,,,,,,,,,,,,,,,,403.7130339000141,None,right,0,0.8909259000793099,404.2127550999867,406.065551500069,404.2127550999867,405.5645024999976,404.2127550999867,405.5645024999976,404.2127550999867,405.5645024999976,404.2127550999867,405.5645024999976,404.2127550999867,405.5645024999976,405.54780389997177,406.04861659999005,405.54780389997177,406.04861659999005,405.54780389997177,406.04861659999005,405.54780389997177,406.04861659999005,405.54780389997177,406.04861659999005,405.54780389997177,406.04861659999005,405.54780389997177,406.04861659999005,405.54780389997177,406.04861659999005,404.2127550999867,None,406.04861659999005,407.2002496999921,1.350000000000001,407.21698740008287,None,407.9678706000559,None,,,,,,,[[1.15]],2.0900000000000016,0.6388888888888888,11019,002,2024_Jan_05_1308,MFTM_A_new1021,2021.2.3,59.911594433705154,
,,,,,,,,stim/Instruction_adaptive.png,conditions/adaptive.xlsx,test,0.6,0.6,0.6,-0.6,-0.6,right,R,,,,,0,1,1,1,0,72,72,2,,,,,,,,,,,,,,,,,,,,,,,,,,,,,,,,,,,,,,,,,,,,408.4693184000207,None,left,0,1.3342026000609621,408.9696502999868,411.02338999998756,408.9696502999868,410.52234270004556,408.9696502999868,410.52234270004556,408.9696502999868,410.52234270004556,408.9696502999868,410.52234270004556,408.9696502999868,410.52234270004556,410.5054938000394,411.0066992000211,410.5054938000394,411.0066992000211,410.5054938000394,411.0066992000211,410.5054938000394,411.0066992000211,410.5054938000394,411.0066992000211,410.5054938000394,411.0066992000211,410.5054938000394,411.0066992000211,410.5054938000394,411.0066992000211,408.9696502999868,None,411.0066992000211,411.9575643000426,1.5500000000000012,411.9738523999695,None,412.7250583000714,None,,,,,,,[[0.95]],1.8600000000000012,0.6301369863013698,11019,002,2024_Jan_05_1308,MFTM_A_new1021,2021.2.3,59.911594433705154,
,,,,,,,,stim/Instruction_adaptive.png,conditions/adaptive.xlsx,test,-0.6,-0.6,-0.6,0.6,0.6,left,L,,,,,0,1,1,1,0,73,73,65,,,,,,,,,,,,,,,,,,,,,,,,,,,,,,,,,,,,,,,,,,,,413.22622970002703,None,right,0,1.4007544999476522,413.7268546000123,416.04668290005066,413.7268546000123,415.54596730007324,413.7268546000123,415.54596730007324,413.7268546000123,415.54596730007324,413.7268546000123,415.54596730007324,413.7268546000123,415.54596730007324,415.51257480005734,416.01335410005413,415.51257480005734,416.01335410005413,415.51257480005734,416.01335410005413,415.51257480005734,416.01335410005413,415.51257480005734,416.01335410005413,415.51257480005734,416.01335410005413,415.51257480005734,416.01335410005413,415.51257480005734,416.01335410005413,413.7268546000123,None,416.01335410005413,416.7143555000657,1.8100000000000014,416.73097879998386,None,417.48288130003493,None,,,,,,,[[0.69]],1.570000000000001,0.6216216216216216,11019,002,2024_Jan_05_1308,MFTM_A_new1021,2021.2.3,59.911594433705154,
,,,,,,,,stim/Instruction_adaptive.png,conditions/adaptive.xlsx,test,0.6,0.6,0.6,-0.6,-0.6,right,R,,,,,0,1,1,1,0,74,74,70,,,,,,,,,,,,,,,,,,,,,,,,,,,,,,,,,,,,,,,,,,,,417.9829529999988,None,left,0,2.027365399990231,418.48420800000895,421.20543480000924,418.48420800000895,420.7034324000124,418.48420800000895,420.7034324000124,418.48420800000895,420.7034324000124,418.48420800000895,420.7034324000124,418.48420800000895,420.7034324000124,420.68678610003553,421.18843360000756,420.68678610003553,421.18843360000756,420.68678610003553,421.18843360000756,420.68678610003553,421.18843360000756,420.68678610003553,421.18843360000756,420.68678610003553,421.18843360000756,420.68678610003553,421.18843360000756,420.68678610003553,421.18843360000756,418.48420800000895,None,421.18843360000756,421.4721768000163,2.2200000000000015,421.48935920000076,None,422.24069610005245,None,,,,,,,[[0.28]],1.1900000000000006,0.6133333333333333,11019,002,2024_Jan_05_1308,MFTM_A_new1021,2021.2.3,59.911594433705154,
,,,,,,,,stim/Instruction_adaptive.png,conditions/adaptive.xlsx,test,-0.6,-0.6,-0.6,0.6,0.6,left,L,,,,,0,1,1,1,0,75,75,27,,,,,,,,,,,,,,,,,,,,,,,,,,,,,,,,,,,,,,,,,,,,422.74002240004484,None,right,0,0.6713147000409663,423.24062080006115,None,423.24062080006115,426.12821660004556,423.24062080006115,426.12821660004556,423.24062080006115,426.12821660004556,423.24062080006115,426.12821660004556,423.24062080006115,426.12821660004556,426.11206690000836,426.61327099998016,426.11206690000836,426.61327099998016,426.11206690000836,426.61327099998016,426.11206690000836,426.61327099998016,426.11206690000836,426.61327099998016,426.11206690000836,426.61327099998016,426.11206690000836,426.61327099998016,426.11206690000836,426.61327099998016,423.24062080006115,None,426.59570070006885,426.59570070006885,2.8800000000000026,426.6290458000731,None,427.3801977999974,None,,,,,,,0,0.6100000000000001,0.6052631578947368,11019,002,2024_Jan_05_1308,MFTM_A_new1021,2021.2.3,59.911594433705154,
,,,,,,,,stim/Instruction_adaptive.png,conditions/adaptive.xlsx,test,-0.6,-0.6,-0.6,0.6,0.6,left,L,,,,,0,1,1,1,0,76,76,41,,,,,,,,,,,,,,,,,,,,,,,,,,,,,,,,,,,,,,,,,,,,427.88082199997734,None,left,1,1.4666931999381632,428.3815290000057,None,428.3815290000057,431.38618440006394,428.3815290000057,431.38618440006394,428.3815290000057,431.38618440006394,428.3815290000057,431.38618440006394,428.3815290000057,431.38618440006394,431.3703251000261,431.8700472000055,431.3703251000261,431.8700472000055,431.3703251000261,431.8700472000055,431.3703251000261,431.8700472000055,431.3703251000261,431.8700472000055,431.3703251000261,431.8700472000055,431.3703251000261,431.8700472000055,431.3703251000261,431.8700472000055,428.3815290000057,None,431.8700472000055,431.8700472000055,3.0000000000000027,431.8868177999975,None,432.63897029997315,None,,,,,,,0,0.8600000000000003,0.6103896103896104,11019,002,2024_Jan_05_1308,MFTM_A_new1021,2021.2.3,59.911594433705154,
,,,,,,,,stim/Instruction_adaptive.png,conditions/adaptive.xlsx,test,0.6,0.6,0.6,-0.6,-0.6,right,R,,,,,0,1,1,1,0,77,77,56,,,,,,,,,,,,,,,,,,,,,,,,,,,,,,,,,,,,,,,,,,,,433.1386610000627,None,right,1,0.7042072999756783,433.63937650003936,None,433.63937650003936,436.6446715000784,433.63937650003936,436.6446715000784,433.63937650003936,436.6446715000784,433.63937650003936,436.6446715000784,433.63937650003936,436.6446715000784,436.62865079997573,437.1290172999725,436.62865079997573,437.1290172999725,436.62865079997573,437.1290172999725,436.62865079997573,437.1290172999725,436.62865079997573,437.1290172999725,436.62865079997573,437.1290172999725,436.62865079997573,437.1290172999725,436.62865079997573,437.1290172999725,433.63937650003936,None,437.1290172999725,437.1290172999725,3.0000000000000027,437.14451770007145,None,437.89568159997,None,,,,,,,0,1.0500000000000005,0.6153846153846154,11019,002,2024_Jan_05_1308,MFTM_A_new1021,2021.2.3,59.911594433705154,
,,,,,,,,stim/Instruction_adaptive.png,conditions/adaptive.xlsx,test,-0.6,-0.6,-0.6,0.6,0.6,left,L,,,,,0,1,1,1,0,78,78,45,,,,,,,,,,,,,,,,,,,,,,,,,,,,,,,,,,,,,,,,,,,,438.3967699999921,None,left,1,0.79948239994701,438.89710389997344,None,438.89710389997344,441.9015443000244,438.89710389997344,441.9015443000244,438.89710389997344,441.9015443000244,438.89710389997344,441.9015443000244,438.89710389997344,441.9015443000244,441.88569640007336,442.3864464000799,441.88569640007336,442.3864464000799,441.88569640007336,442.3864464000799,441.88569640007336,442.3864464000799,441.88569640007336,442.3864464000799,441.88569640007336,442.3864464000799,441.88569640007336,442.3864464000799,441.88569640007336,442.3864464000799,438.89710389997344,None,442.3864464000799,442.3864464000799,3.0000000000000027,442.402409399976,None,443.1535329000326,None,,,,,,,0,1.1900000000000006,0.620253164556962,11019,002,2024_Jan_05_1308,MFTM_A_new1021,2021.2.3,59.911594433705154,
,,,,,,,,stim/Instruction_adaptive.png,conditions/adaptive.xlsx,test,-0.6,-0.6,-0.6,0.6,0.6,left,L,,,,,0,1,1,1,0,79,79,83,,,,,,,,,,,,,,,,,,,,,,,,,,,,,,,,,,,,,,,,,,,,443.65439150005113,None,None,0,0,444.15503620007075,447.54334710002877,444.15503620007075,447.043378100032,444.15503620007075,447.043378100032,444.15503620007075,447.043378100032,444.15503620007075,447.043378100032,444.15503620007075,447.043378100032,447.02582800004166,447.52676999999676,447.02582800004166,447.52676999999676,447.02582800004166,447.52676999999676,447.02582800004166,447.52676999999676,447.02582800004166,447.52676999999676,447.02582800004166,447.52676999999676,447.02582800004166,447.52676999999676,447.02582800004166,447.52676999999676,444.15503620007075,None,447.52676999999676,None,2.8800000000000026,447.6601125000743,None,448.4114140999736,None,,,,,,,[[0.12]],0.7900000000000003,0.6125,11019,002,2024_Jan_05_1308,MFTM_A_new1021,2021.2.3,59.911594433705154,
,,,,,,,,stim/Instruction_adaptive.png,conditions/adaptive.xlsx,test,-0.6,-0.6,-0.6,0.6,0.6,left,L,,,,,0,1,1,1,0,80,80,81,,,,,,,,,,,,,,,,,,,,,,,,,,,,,,,,,,,,,,,,,,,,448.9118921000045,None,left,1,1.4994625999825075,449.4126617000438,None,449.4126617000438,452.4172782000387,449.4126617000438,452.4172782000387,449.4126617000438,452.4172782000387,449.4126617000438,452.4172782000387,449.4126617000438,452.4172782000387,452.4006708000088,452.9011110999854,452.4006708000088,452.9011110999854,452.4006708000088,452.9011110999854,452.4006708000088,452.9011110999854,452.4006708000088,452.9011110999854,452.4006708000088,452.9011110999854,452.4006708000088,452.9011110999854,452.4006708000088,452.9011110999854,449.4126617000438,None,452.9011110999854,452.9011110999854,3.0000000000000027,452.91796500002965,None,453.6696868999861,None,,,,,,,0,0.9500000000000004,0.6172839506172839,11019,002,2024_Jan_05_1308,MFTM_A_new1021,2021.2.3,59.911594433705154,
,,,,,,,,stim/Instruction_adaptive.png,conditions/adaptive.xlsx,test,-0.6,-0.6,-0.6,0.6,0.6,left,L,,,,,0,1,1,1,0,81,81,69,,,,,,,,,,,,,,,,,,,,,,,,,,,,,,,,,,,,,,,,,,,,454.1701542000519,None,left,1,1.7376363000366837,454.6706629000837,None,454.6706629000837,457.67538939998485,454.6706629000837,457.67538939998485,454.6706629000837,457.67538939998485,454.6706629000837,457.67538939998485,454.6706629000837,457.67538939998485,457.65829539997503,458.15906770003494,457.65829539997503,458.15906770003494,457.65829539997503,458.15906770003494,457.65829539997503,458.15906770003494,457.65829539997503,458.15906770003494,457.65829539997503,458.15906770003494,457.65829539997503,458.15906770003494,457.65829539997503,458.15906770003494,454.6706629000837,None,458.15906770003494,458.15906770003494,3.0000000000000027,458.17590040003415,None,458.92767290002666,None,,,,,,,0,1.0800000000000005,0.6219512195121951,11019,002,2024_Jan_05_1308,MFTM_A_new1021,2021.2.3,59.911594433705154,
,,,,,,,,stim/Instruction_adaptive.png,conditions/adaptive.xlsx,test,0.6,0.6,0.6,-0.6,-0.6,right,R,,,,,0,1,1,1,0,82,82,38,,,,,,,,,,,,,,,,,,,,,,,,,,,,,,,,,,,,,,,,,,,,459.42746570007876,None,right,1,1.8472929999697953,459.92838030005805,None,459.92838030005805,462.9328974999953,459.92838030005805,462.9328974999953,459.92838030005805,462.9328974999953,459.92838030005805,462.9328974999953,459.92838030005805,462.9328974999953,462.9161476000445,463.41696729999967,462.9161476000445,463.41696729999967,462.9161476000445,463.41696729999967,462.9161476000445,463.41696729999967,462.9161476000445,463.41696729999967,462.9161476000445,463.41696729999967,462.9161476000445,463.41696729999967,462.9161476000445,463.41696729999967,459.92838030005805,None,463.41696729999967,463.41696729999967,3.0000000000000027,463.43369450001046,None,464.18464820005465,None,,,,,,,0,1.1900000000000006,0.6265060240963856,11019,002,2024_Jan_05_1308,MFTM_A_new1021,2021.2.3,59.911594433705154,
,,,,,,,,stim/Instruction_adaptive.png,conditions/adaptive.xlsx,test,0.6,0.6,0.6,-0.6,-0.6,right,R,,,,,0,1,1,1,0,83,83,72,,,,,,,,,,,,,,,,,,,,,,,,,,,,,,,,,,,,,,,,,,,,464.6853445000015,None,right,1,1.4131492000306025,465.18658860004507,None,465.18658860004507,468.0737417000346,465.18658860004507,468.0737417000346,465.18658860004507,468.0737417000346,465.18658860004507,468.0737417000346,465.18658860004507,468.0737417000346,468.0403171000071,468.5418211000506,468.0403171000071,468.5418211000506,468.0403171000071,468.5418211000506,468.0403171000071,468.5418211000506,468.0403171000071,468.5418211000506,468.0403171000071,468.5418211000506,468.0403171000071,468.5418211000506,468.0403171000071,468.5418211000506,465.18658860004507,None,468.5418211000506,468.5418211000506,2.8800000000000026,468.57450370001607,None,469.32617590005975,None,,,,,,,0,1.2900000000000007,0.6309523809523809,11019,002,2024_Jan_05_1308,MFTM_A_new1021,2021.2.3,59.911594433705154,
,,,,,,,,stim/Instruction_adaptive.png,conditions/adaptive.xlsx,test,0.6,0.6,0.6,-0.6,-0.6,right,R,,,,,0,1,1,1,0,84,84,18,,,,,,,,,,,,,,,,,,,,,,,,,,,,,,,,,,,,,,,,,,,,469.82693760003895,None,right,1,1.9445034000091255,470.3270956000779,None,470.3270956000779,473.0311925000278,470.3270956000779,473.0311925000278,470.3270956000779,473.0311925000278,470.3270956000779,473.0311925000278,470.3270956000779,473.0311925000278,472.99776399997063,473.50042270007543,472.99776399997063,473.50042270007543,472.99776399997063,473.50042270007543,472.99776399997063,473.50042270007543,472.99776399997063,473.50042270007543,472.99776399997063,473.50042270007543,472.99776399997063,473.50042270007543,472.99776399997063,473.50042270007543,470.3270956000779,None,473.50042270007543,473.50042270007543,2.690000000000002,473.5145917000482,None,474.26704479998443,None,,,,,,,0,1.3700000000000008,0.6352941176470588,11019,002,2024_Jan_05_1308,MFTM_A_new1021,2021.2.3,59.911594433705154,
,,,,,,,,stim/Instruction_adaptive.png,conditions/adaptive.xlsx,test,0.6,0.6,0.6,-0.6,-0.6,right,R,,,,,0,1,1,1,0,85,85,14,,,,,,,,,,,,,,,,,,,,,,,,,,,,,,,,,,,,,,,,,,,,474.76716170005966,None,right,1,1.3873002999462187,475.26823899999727,None,475.26823899999727,477.82147349999286,475.26823899999727,477.82147349999286,475.26823899999727,477.82147349999286,475.26823899999727,477.82147349999286,475.26823899999727,477.82147349999286,477.8049426000798,478.3065342999762,477.8049426000798,478.3065342999762,477.8049426000798,478.3065342999762,477.8049426000798,478.3065342999762,477.8049426000798,478.3065342999762,477.8049426000798,478.3065342999762,477.8049426000798,478.3065342999762,477.8049426000798,478.3065342999762,475.26823899999727,None,478.3065342999762,478.3065342999762,2.550000000000002,478.3223579999758,None,479.0735011000652,None,,,,,,,0,1.4500000000000008,0.6395348837209303,11019,002,2024_Jan_05_1308,MFTM_A_new1021,2021.2.3,59.911594433705154,
,,,,,,,,stim/Instruction_adaptive.png,conditions/adaptive.xlsx,test,0.6,0.6,0.6,-0.6,-0.6,right,R,,,,,0,1,1,1,0,86,86,90,,,,,,,,,,,,,,,,,,,,,,,,,,,,,,,,,,,,,,,,,,,,479.574168000021,None,left,0,2.221385300043039,480.0748857000144,482.9958826000802,480.0748857000144,482.49543130001985,480.0748857000144,482.49543130001985,480.0748857000144,482.49543130001985,480.0748857000144,482.49543130001985,480.0748857000144,482.49543130001985,482.4628718000604,482.9631842999952,482.4628718000604,482.9631842999952,482.4628718000604,482.9631842999952,482.4628718000604,482.9631842999952,482.4628718000604,482.9631842999952,482.4628718000604,482.9631842999952,482.4628718000604,482.9631842999952,482.4628718000604,482.9631842999952,480.0748857000144,None,482.9631842999952,483.0626012000721,2.410000000000002,483.07931940001436,None,483.8310201000422,None,,,,,,,[[0.09]],1.2300000000000006,0.632183908045977,11019,002,2024_Jan_05_1308,MFTM_A_new1021,2021.2.3,59.911594433705154,
,,,,,,,,stim/Instruction_adaptive.png,conditions/adaptive.xlsx,test,0.6,0.6,0.6,-0.6,-0.6,right,R,,,,,0,1,1,1,0,87,87,54,,,,,,,,,,,,,,,,,,,,,,,,,,,,,,,,,,,,,,,,,,,,484.33161090000067,None,right,1,1.4963737999787554,484.8318989999825,None,484.8318989999825,487.6367948000552,484.8318989999825,487.6367948000552,484.8318989999825,487.6367948000552,484.8318989999825,487.6367948000552,484.8318989999825,487.6367948000552,487.61962280003354,488.12131249997765,487.61962280003354,488.12131249997765,487.61962280003354,488.12131249997765,487.61962280003354,488.12131249997765,487.61962280003354,488.12131249997765,487.61962280003354,488.12131249997765,487.61962280003354,488.12131249997765,487.61962280003354,488.12131249997765,484.8318989999825,None,488.12131249997765,488.12131249997765,2.8000000000000025,488.13627800007816,None,488.8882559000049,None,,,,,,,0,1.3100000000000007,0.6363636363636364,11019,002,2024_Jan_05_1308,MFTM_A_new1021,2021.2.3,59.911594433705154,
,,,,,,,,stim/Instruction_adaptive.png,conditions/adaptive.xlsx,test,0.6,0.6,0.6,-0.6,-0.6,right,R,,,,,0,1,1,1,0,88,88,64,,,,,,,,,,,,,,,,,,,,,,,,,,,,,,,,,,,,,,,,,,,,489.38864919997286,None,right,1,1.8936704999068752,489.8900346000446,None,489.8900346000446,492.54316030000336,489.8900346000446,492.54316030000336,489.8900346000446,492.54316030000336,489.8900346000446,492.54316030000336,489.8900346000446,492.54316030000336,492.5265242999885,493.02739459997974,492.5265242999885,493.02739459997974,492.5265242999885,493.02739459997974,492.5265242999885,493.02739459997974,492.5265242999885,493.02739459997974,492.5265242999885,493.02739459997974,492.5265242999885,493.02739459997974,492.5265242999885,493.02739459997974,489.8900346000446,None,493.02739459997974,493.02739459997974,2.650000000000002,493.04406169999857,None,493.79501800006256,None,,,,,,,0,1.3800000000000008,0.6404494382022472,11019,002,2024_Jan_05_1308,MFTM_A_new1021,2021.2.3,59.911594433705154,
,,,,,,,,stim/Instruction_adaptive.png,conditions/adaptive.xlsx,test,0.6,0.6,0.6,-0.6,-0.6,right,R,,,,,0,1,1,1,0,89,89,76,,,,,,,,,,,,,,,,,,,,,,,,,,,,,,,,,,,,,,,,,,,,494.29610310005955,None,left,0,2.0030808000592515,494.7967328000814,None,494.7967328000814,497.3337262000423,494.7967328000814,497.3337262000423,494.7967328000814,497.3337262000423,494.7967328000814,497.3337262000423,494.7967328000814,497.3337262000423,497.3180807000026,497.81875229999423,497.3180807000026,497.81875229999423,497.3180807000026,497.81875229999423,497.3180807000026,497.81875229999423,497.3180807000026,497.81875229999423,497.3180807000026,497.81875229999423,497.3180807000026,497.81875229999423,497.3180807000026,497.81875229999423,494.7967328000814,None,497.80145330005325,497.80145330005325,2.530000000000002,497.83427430002484,None,498.5858832000522,None,,,,,,,0,1.1800000000000006,0.6333333333333333,11019,002,2024_Jan_05_1308,MFTM_A_new1021,2021.2.3,59.911594433705154,
,,,,,,,,stim/Instruction_adaptive.png,conditions/adaptive.xlsx,test,0.6,0.6,0.6,-0.6,-0.6,right,R,,,,,0,1,1,1,0,90,90,24,,,,,,,,,,,,,,,,,,,,,,,,,,,,,,,,,,,,,,,,,,,,499.086489600013,None,None,0,0,499.5874309000792,502.99266890005674,499.5874309000792,502.4914434000384,499.5874309000792,502.4914434000384,499.5874309000792,502.4914434000384,499.5874309000792,502.4914434000384,499.5874309000792,502.4914434000384,502.47489980002865,502.975498600048,502.47489980002865,502.975498600048,502.47489980002865,502.975498600048,502.47489980002865,502.975498600048,502.47489980002865,502.975498600048,502.47489980002865,502.975498600048,502.47489980002865,502.975498600048,502.47489980002865,502.975498600048,499.5874309000792,None,502.975498600048,503.07615910004824,2.900000000000002,503.0920292000519,None,503.84408519999124,None,,,,,,,[[0.1]],0.9400000000000004,0.6263736263736264,11019,002,2024_Jan_05_1308,MFTM_A_new1021,2021.2.3,59.911594433705154,
,,,,,,,,stim/Instruction_adaptive.png,conditions/adaptive.xlsx,test,-0.6,-0.6,-0.6,0.6,0.6,left,L,,,,,0,1,1,1,0,91,91,63,,,,,,,,,,,,,,,,,,,,,,,,,,,,,,,,,,,,,,,,,,,,504.34501450008247,None,left,1,1.2748426999896765,504.8448204000015,None,504.8448204000015,507.85069069999736,504.8448204000015,507.85069069999736,504.8448204000015,507.85069069999736,504.8448204000015,507.85069069999736,504.8448204000015,507.85069069999736,507.8326377000194,508.3333891000366,507.8326377000194,508.3333891000366,507.8326377000194,508.3333891000366,507.8326377000194,508.3333891000366,507.8326377000194,508.3333891000366,507.8326377000194,508.3333891000366,507.8326377000194,508.3333891000366,507.8326377000194,508.3333891000366,504.8448204000015,None,508.3333891000366,508.3333891000366,3.0000000000000027,508.35007879999466,None,509.10242760006804,None,,,,,,,0,1.0300000000000005,0.6304347826086957,11019,002,2024_Jan_05_1308,MFTM_A_new1021,2021.2.3,59.911594433705154,
,,,,,,,,stim/Instruction_adaptive.png,conditions/adaptive.xlsx,test,0.6,0.6,0.6,-0.6,-0.6,right,R,,,,,0,1,1,1,0,92,92,12,,,,,,,,,,,,,,,,,,,,,,,,,,,,,,,,,,,,,,,,,,,,509.60311829997227,None,left,0,1.81746499997098,510.10264820000157,None,510.10264820000157,513.1079126000404,510.10264820000157,513.1079126000404,510.10264820000157,513.1079126000404,510.10264820000157,513.1079126000404,510.10264820000157,513.1079126000404,513.0905482000671,513.5919165000087,513.0905482000671,513.5919165000087,513.0905482000671,513.5919165000087,513.0905482000671,513.5919165000087,513.0905482000671,513.5919165000087,513.0905482000671,513.5919165000087,513.0905482000671,513.5919165000087,513.0905482000671,513.5919165000087,510.10264820000157,None,513.5919165000087,513.5919165000087,3.0000000000000027,513.6077128000325,None,514.3598313999828,None,,,,,,,0,0.7900000000000003,0.6236559139784946,11019,002,2024_Jan_05_1308,MFTM_A_new1021,2021.2.3,59.911594433705154,
,,,,,,,,stim/Instruction_adaptive.png,conditions/adaptive.xlsx,test,-0.6,-0.6,-0.6,0.6,0.6,left,L,,,,,0,1,1,1,0,93,93,19,,,,,,,,,,,,,,,,,,,,,,,,,,,,,,,,,,,,,,,,,,,,514.8606138000032,None,right,0,2.7749439999461174,515.3609533000272,None,515.3609533000272,518.3649455000414,515.3609533000272,518.3649455000414,515.3609533000272,518.3649455000414,515.3609533000272,518.3649455000414,515.3609533000272,518.3649455000414,518.3483308000723,518.849527399987,518.3483308000723,518.849527399987,518.3483308000723,518.849527399987,518.3483308000723,518.849527399987,518.3483308000723,518.849527399987,518.3483308000723,518.849527399987,518.3483308000723,518.849527399987,518.3483308000723,518.849527399987,515.3609533000272,None,518.849527399987,518.849527399987,3.0000000000000027,518.8656400999753,None,519.6175343000796,None,,,,,,,0,0.54,0.6170212765957447,11019,002,2024_Jan_05_1308,MFTM_A_new1021,2021.2.3,59.911594433705154,
