arrwidth1,arrwidth2,arrwidth3,arrwidth4,arrwidth5,keyb,type,orientation,instruction_image,block_filename,block_type,arrow11,arrow22,arrow33,arrow44,arrow55,keyb_3,orientation3,trials.thisRepN,trials.thisTrialN,trials.thisN,trials.thisIndex,trials_3.thisRepN,trials_3.thisTrialN,trials_3.thisN,trials_3.thisIndex,trials_2.thisRepN,trials_2.thisTrialN,trials_2.thisN,trials_2.thisIndex,welcome.started,welcome.stopped,key_resp.keys,key_resp.rt,key_resp.started,key_resp.stopped,instruction_example.started,instruction_example.stopped,key_resp_3.keys,key_resp_3.rt,key_resp_3.started,key_resp_3.stopped,instruction_task.started,instruction_task.stopped,key_resp_2.keys,key_resp_2.rt,key_resp_2.started,key_resp_2.stopped,text_2.started,text_2.stopped,A1.started,A1.stopped,A2.started,A2.stopped,A3.started,A3.stopped,A4.started,A4.stopped,A5.started,A5.stopped,key_resp_4.keys,key_resp_4.corr,key_resp_4.rt,key_resp_4.started,key_resp_4.stopped,fb.started,fb.stopped,instruction_block.started,instruction_block.stopped,key_resp_8.keys,key_resp_8.rt,key_resp_8.started,key_resp_8.stopped,text_8.started,text_8.stopped,key_resp_9.keys,key_resp_9.corr,key_resp_9.rt,text_5.started,text_5.stopped,A11_3.started,A11_3.stopped,A22_2.started,A22_2.stopped,A33_2.started,A33_2.stopped,A44_2.started,A44_2.stopped,A55_2.started,A55_2.stopped,M1_3.started,M1_3.stopped,M2_2.started,M2_2.stopped,M3_2.started,M3_2.stopped,M4_2.started,M4_2.stopped,M5_2.started,M5_2.stopped,M6_2.started,M6_2.stopped,M7_2.started,M7_2.stopped,M8_2.started,M8_2.stopped,key_resp_9.started,key_resp_9.stopped,fixation.started,fixation.stopped,ET,fb_3.started,fb_3.stopped,text_9.started,text_9.stopped,fb_4.started,fb_4.stopped,text_7.started,text_7.stopped,endtext.started,endtext.stopped,fixation_ITI,CCC,Acc,participant,session,date,expName,psychopyVersion,frameRate,
,,,,,,,,,,,,,,,,,,,,,,,,,,,,,,17.31204779993277,None,m,4.802971399971284,17.31204779993277,None,,,,,,,,,,,,,,,,,,,,,,,,,,,,,,,,,,,,,,,,,,,,,,,,,,,,,,,,,,,,,,,,,,,,,,,,,,,,,,,,,,,,,,,,,11016,001,2024_Jan_04_1324,MFTM_A_new1021,2021.2.3,59.892684252114016,
,,,,,,,,,,,,,,,,,,,,,,,,,,,,,,,,,,,,22.203279099892825,None,right,39.72734850004781,22.203279099892825,None,,,,,,,,,,,,,,,,,,,,,,,,,,,,,,,,,,,,,,,,,,,,,,,,,,,,,,,,,,,,,,,,,,,,,,,,,,,,,,,,,,,11016,001,2024_Jan_04_1324,MFTM_A_new1021,2021.2.3,59.892684252114016,
,,,,,,,,,,,,,,,,,,,,,,,,,,,,,,,,,,,,,,,,,,61.96088319993578,None,right,10.27369970001746,61.96088319993578,None,,,,,,,,,,,,,,,,,,,,,,,,,,,,,,,,,,,,,,,,,,,,,,,,,,,,,,,,,,,,,,,,,,,,,,,,,,,,,11016,001,2024_Jan_04_1324,MFTM_A_new1021,2021.2.3,59.892684252114016,
-0.6,-0.6,-0.6,0.6,0.6,left,3:2,L,,,,,,,,,,,0,0,0,1,,,,,,,,,,,,,,,,,,,,,,,,,,,72.27674159989692,None,72.27674159989692,None,72.27674159989692,None,72.27674159989692,None,72.27674159989692,None,72.27674159989692,None,left,1,1.7259960999945179,72.27674159989692,None,74.04603079997469,None,,,,,,,,,,,,,,,,,,,,,,,,,,,,,,,,,,,,,,,,,,,,,,,,,,,,,,,,,,11016,001,2024_Jan_04_1324,MFTM_A_new1021,2021.2.3,59.892684252114016,
0.6,0.6,0.6,-0.6,-0.6,right,3:2,R,,,,,,,,,,,0,1,1,0,,,,,,,,,,,,,,,,,,,,,,,,,,,74.79711419995874,None,74.79711419995874,None,74.79711419995874,None,74.79711419995874,None,74.79711419995874,None,74.79711419995874,None,right,1,1.8615495000267401,74.79711419995874,None,76.68325010000262,None,,,,,,,,,,,,,,,,,,,,,,,,,,,,,,,,,,,,,,,,,,,,,,,,,,,,,,,,,,11016,001,2024_Jan_04_1324,MFTM_A_new1021,2021.2.3,59.892684252114016,
-0.6,-0.6,-0.6,0.6,0.6,left,3:2,L,,,,,,,,,,,1,0,2,1,,,,,,,,,,,,,,,,,,,,,,,,,,,77.4344081999734,None,77.4344081999734,None,77.4344081999734,None,77.4344081999734,None,77.4344081999734,None,77.4344081999734,None,left,1,1.5122142999898642,77.4344081999734,None,78.96959160000551,None,,,,,,,,,,,,,,,,,,,,,,,,,,,,,,,,,,,,,,,,,,,,,,,,,,,,,,,,,,11016,001,2024_Jan_04_1324,MFTM_A_new1021,2021.2.3,59.892684252114016,
0.6,0.6,0.6,-0.6,-0.6,right,3:2,R,,,,,,,,,,,1,1,3,0,,,,,,,,,,,,,,,,,,,,,,,,,,,79.72077589994296,None,79.72077589994296,None,79.72077589994296,None,79.72077589994296,None,79.72077589994296,None,79.72077589994296,None,right,1,0.9459619999397546,79.72077589994296,None,80.68901809991803,None,,,,,,,,,,,,,,,,,,,,,,,,,,,,,,,,,,,,,,,,,,,,,,,,,,,,,,,,,,11016,001,2024_Jan_04_1324,MFTM_A_new1021,2021.2.3,59.892684252114016,
,,,,,,,,stim/Instruction_mask.png,conditions/adaptive.xlsx,practice,0.6,0.6,0.6,-0.6,-0.6,right,R,,,,,0,0,0,0,0,0,0,12,,,,,,,,,,,,,,,,,,,,,,,,,,,,,,,,,,,,,,81.65681650000624,None,left,45.825904899975285,81.65681650000624,None,127.57446929998696,None,right,1,2.705907900002785,128.0256963999709,None,128.0256963999709,131.03006299992558,128.0256963999709,131.03006299992558,128.0256963999709,131.03006299992558,128.0256963999709,131.03006299992558,128.0256963999709,131.03006299992558,131.013806700008,131.51545419998,131.013806700008,131.51545419998,131.013806700008,131.51545419998,131.013806700008,131.51545419998,131.013806700008,131.51545419998,131.013806700008,131.51545419998,131.013806700008,131.51545419998,131.013806700008,131.51545419998,128.0256963999709,None,131.51545419998,131.51545419998,3,131.53086969989818,None,132.28194539994,None,,,,,,,,,,11016,001,2024_Jan_04_1324,MFTM_A_new1021,2021.2.3,59.892684252114016,
,,,,,,,,stim/Instruction_mask.png,conditions/adaptive.xlsx,practice,-0.6,-0.6,-0.6,0.6,0.6,left,L,,,,,0,0,0,0,0,1,1,57,,,,,,,,,,,,,,,,,,,,,,,,,,,,,,,,,,,,,,,,,,,,132.78343670000322,None,left,1,1.0003459000727162,133.2833463998977,135.2864601999754,133.2833463998977,134.78543379995972,133.2833463998977,134.78543379995972,133.2833463998977,134.78543379995972,133.2833463998977,134.78543379995972,133.2833463998977,134.78543379995972,134.76893789996393,135.27043319994118,134.76893789996393,135.27043319994118,134.76893789996393,135.27043319994118,134.76893789996393,135.27043319994118,134.76893789996393,135.27043319994118,134.76893789996393,135.27043319994118,134.76893789996393,135.27043319994118,134.76893789996393,135.27043319994118,133.2833463998977,None,135.27043319994118,136.77258799993433,1.5,136.78857330000028,None,137.53991329995915,None,,,,,,,,,,11016,001,2024_Jan_04_1324,MFTM_A_new1021,2021.2.3,59.892684252114016,
,,,,,,,,stim/Instruction_mask.png,conditions/adaptive.xlsx,practice,0.6,0.6,0.6,-0.6,-0.6,right,R,,,,,0,0,0,0,0,2,2,16,,,,,,,,,,,,,,,,,,,,,,,,,,,,,,,,,,,,,,,,,,,,138.0405340999132,None,right,1,1.3092629999155179,138.5412023999961,139.8439645000035,138.5412023999961,139.3424107999308,138.5412023999961,139.3424107999308,138.5412023999961,139.3424107999308,138.5412023999961,139.3424107999308,138.5412023999961,139.3424107999308,139.3265904999571,139.82700900000054,139.3265904999571,139.82700900000054,139.3265904999571,139.82700900000054,139.3265904999571,139.82700900000054,139.3265904999571,139.82700900000054,139.3265904999571,139.82700900000054,139.3265904999571,139.82700900000054,139.3265904999571,139.82700900000054,138.5412023999961,None,139.82700900000054,142.02943309990223,0.8,142.04710199998226,None,142.7976795999566,None,,,,,,,,,,11016,001,2024_Jan_04_1324,MFTM_A_new1021,2021.2.3,59.892684252114016,
,,,,,,,,stim/Instruction_mask.png,conditions/adaptive.xlsx,practice,0.6,0.6,0.6,-0.6,-0.6,right,R,,,,,0,0,0,0,0,3,3,58,,,,,,,,,,,,,,,,,,,,,,,,,,,,,,,,,,,,,,,,,,,,143.29894239990972,None,left,0,0.7954855000134557,143.79908819997218,144.5503734999802,143.79908819997218,144.05013220000546,143.79908819997218,144.05013220000546,143.79908819997218,144.05013220000546,143.79908819997218,144.05013220000546,143.79908819997218,144.05013220000546,144.03286179993302,144.53342839994002,144.03286179993302,144.53342839994002,144.03286179993302,144.53342839994002,144.03286179993302,144.53342839994002,144.03286179993302,144.53342839994002,144.03286179993302,144.53342839994002,144.03286179993302,144.53342839994002,144.03286179993302,144.53342839994002,143.79908819997218,None,144.53342839994002,147.28814669989515,3,147.30415729992092,None,148.05533679993823,None,,,,,,,,,,11016,001,2024_Jan_04_1324,MFTM_A_new1021,2021.2.3,59.892684252114016,
,,,,,,,,stim/Instruction_mask.png,conditions/adaptive.xlsx,practice,,,,,,,,,,,,0,0,0,0,,,,,,,,,,,,,,,,,,,,,,,,,,,,,,,,,,,,,,,,,,,,,,,,,,,,,,,,,,,,,,,,,,,,,,,,,,,,,,,,,,,,,,,,,,148.57278079993557,149.57591069990303,149.54169019998517,149.54169019998517,149.54169019998517,None,,,,11016,001,2024_Jan_04_1324,MFTM_A_new1021,2021.2.3,59.892684252114016,
,,,,,,,,stim/Instruction_adaptive.png,conditions/adaptive.xlsx,test,-0.6,-0.6,-0.6,0.6,0.6,left,L,,,,,0,1,1,1,0,0,0,49,,,,,,,,,,,,,,,,,,,,,,,,,,,,,,,,,,,,,,152.69556129991543,None,right,19.139068799908273,152.69556129991543,None,171.873563000001,None,left,1,2.772819200064987,172.37459189991932,None,172.37459189991932,175.380512899952,172.37459189991932,175.380512899952,172.37459189991932,175.380512899952,172.37459189991932,175.380512899952,172.37459189991932,175.380512899952,175.36245059990324,175.86314419994596,175.36245059990324,175.86314419994596,175.36245059990324,175.86314419994596,175.36245059990324,175.86314419994596,175.36245059990324,175.86314419994596,175.36245059990324,175.86314419994596,175.36245059990324,175.86314419994596,175.36245059990324,175.86314419994596,172.37459189991932,None,175.86314419994596,175.86314419994596,3,175.8798357999185,None,176.63205069990363,None,,,,,,,0,6.000000000000005,1.0,11016,001,2024_Jan_04_1324,MFTM_A_new1021,2021.2.3,59.892684252114016,
,,,,,,,,stim/Instruction_adaptive.png,conditions/adaptive.xlsx,test,0.6,0.6,0.6,-0.6,-0.6,right,R,,,,,0,1,1,1,0,1,1,40,,,,,,,,,,,,,,,,,,,,,,,,,,,,,,,,,,,,,,,,,,,,177.13178489997517,None,left,0,1.0503576000919566,177.63312259991653,178.38561779994052,177.63312259991653,177.88305499998387,177.63312259991653,177.88305499998387,177.63312259991653,177.88305499998387,177.63312259991653,177.88305499998387,177.63312259991653,177.88305499998387,177.86680449999403,178.36705199989956,177.86680449999403,178.36705199989956,177.86680449999403,178.36705199989956,177.86680449999403,178.36705199989956,177.86680449999403,178.36705199989956,177.86680449999403,178.36705199989956,177.86680449999403,178.36705199989956,177.86680449999403,178.36705199989956,177.63312259991653,None,178.36705199989956,179.25258809991647,0.25,179.26802659989335,None,180.01999840000644,None,,,,,,,[0.875],2.570000000000002,0.5,11016,001,2024_Jan_04_1324,MFTM_A_new1021,2021.2.3,59.892684252114016,
,,,,,,,,stim/Instruction_adaptive.png,conditions/adaptive.xlsx,test,-0.6,-0.6,-0.6,0.6,0.6,left,L,,,,,0,1,1,1,0,2,2,81,,,,,,,,,,,,,,,,,,,,,,,,,,,,,,,,,,,,,,,,,,,,180.5200822999468,None,left,1,1.0689354999922216,181.0217285999097,182.63969969993923,181.0217285999097,182.13928020000458,181.0217285999097,182.13928020000458,181.0217285999097,182.13928020000458,181.0217285999097,182.13928020000458,181.0217285999097,182.13928020000458,182.12340799998492,182.6233033000026,182.12340799998492,182.6233033000026,182.12340799998492,182.6233033000026,182.12340799998492,182.6233033000026,182.12340799998492,182.6233033000026,182.12340799998492,182.6233033000026,182.12340799998492,182.6233033000026,182.12340799998492,182.6233033000026,181.0217285999097,None,182.60778449999634,183.65866630000528,1.1100000000000008,183.6912434999831,None,184.44357219990343,None,,,,,,,[1.04666667],3.3800000000000026,0.6666666666666666,11016,001,2024_Jan_04_1324,MFTM_A_new1021,2021.2.3,59.892684252114016,
,,,,,,,,stim/Instruction_adaptive.png,conditions/adaptive.xlsx,test,0.6,0.6,0.6,-0.6,-0.6,right,R,,,,,0,1,1,1,0,3,3,86,,,,,,,,,,,,,,,,,,,,,,,,,,,,,,,,,,,,,,,,,,,,184.94334839994553,None,right,1,1.8151431999867782,185.44400389993098,186.57970879995264,185.44400389993098,186.0790483999299,185.44400389993098,186.0790483999299,185.44400389993098,186.0790483999299,185.44400389993098,186.0790483999299,185.44400389993098,186.0790483999299,186.06170149997342,186.5624132999219,186.06170149997342,186.5624132999219,186.06170149997342,186.5624132999219,186.06170149997342,186.5624132999219,186.06170149997342,186.5624132999219,186.06170149997342,186.5624132999219,186.06170149997342,186.5624132999219,186.06170149997342,186.5624132999219,185.44400389993098,None,186.5624132999219,187.81448899989482,0.6300000000000003,187.83218319993466,None,188.5826498999959,None,,,,,,,[1.2525],3.940000000000003,0.75,11016,001,2024_Jan_04_1324,MFTM_A_new1021,2021.2.3,59.892684252114016,
,,,,,,,,stim/Instruction_adaptive.png,conditions/adaptive.xlsx,test,-0.6,-0.6,-0.6,0.6,0.6,left,L,,,,,0,1,1,1,0,4,4,3,,,,,,,,,,,,,,,,,,,,,,,,,,,,,,,,,,,,,,,,,,,,189.08387349999975,None,left,1,0.6510390000184998,189.58410989993718,190.51892669999506,189.58410989993718,190.01750269997865,189.58410989993718,190.01750269997865,189.58410989993718,190.01750269997865,189.58410989993718,190.01750269997865,189.58410989993718,190.01750269997865,190.00083889998496,190.50228779995814,190.00083889998496,190.50228779995814,190.00083889998496,190.50228779995814,190.00083889998496,190.50228779995814,190.00083889998496,190.50228779995814,190.00083889998496,190.50228779995814,190.00083889998496,190.50228779995814,190.00083889998496,190.50228779995814,189.58410989993718,None,190.50228779995814,191.92038039991166,0.43000000000000016,191.93713819992263,None,192.68812239996623,None,,,,,,,[1.416],4.370000000000004,0.8,11016,001,2024_Jan_04_1324,MFTM_A_new1021,2021.2.3,59.892684252114016,
,,,,,,,,stim/Instruction_adaptive.png,conditions/adaptive.xlsx,test,0.6,0.6,0.6,-0.6,-0.6,right,R,,,,,0,1,1,1,0,5,5,36,,,,,,,,,,,,,,,,,,,,,,,,,,,,,,,,,,,,,,,,,,,,193.18947929993737,None,right,1,1.3130401000380516,193.68949249992147,194.52419809997082,193.68949249992147,194.02317679999396,193.68949249992147,194.02317679999396,193.68949249992147,194.02317679999396,193.68949249992147,194.02317679999396,193.68949249992147,194.02317679999396,193.99059209995903,194.49157499999274,193.99059209995903,194.49157499999274,193.99059209995903,194.49157499999274,193.99059209995903,194.49157499999274,193.99059209995903,194.49157499999274,193.99059209995903,194.49157499999274,193.99059209995903,194.49157499999274,193.99059209995903,194.49157499999274,193.68949249992147,None,194.49157499999274,196.04356369993184,0.32000000000000006,196.0598420999013,None,196.81142689997796,None,,,,,,,[1.54333333],4.7100000000000035,0.8333333333333334,11016,001,2024_Jan_04_1324,MFTM_A_new1021,2021.2.3,59.892684252114016,
,,,,,,,,stim/Instruction_adaptive.png,conditions/adaptive.xlsx,test,-0.6,-0.6,-0.6,0.6,0.6,left,L,,,,,0,1,1,1,0,6,6,47,,,,,,,,,,,,,,,,,,,,,,,,,,,,,,,,,,,,,,,,,,,,197.31159179995302,None,left,1,1.2142666999716312,197.81241709995084,198.56432099989615,197.81241709995084,198.06272679998074,197.81241709995084,198.06272679998074,197.81241709995084,198.06272679998074,197.81241709995084,198.06272679998074,197.81241709995084,198.06272679998074,198.04679329995997,198.54768329998478,198.04679329995997,198.54768329998478,198.04679329995997,198.54768329998478,198.04679329995997,198.54768329998478,198.04679329995997,198.54768329998478,198.04679329995997,198.54768329998478,198.04679329995997,198.54768329998478,198.04679329995997,198.54768329998478,197.81241709995084,None,198.54768329998478,200.19996499991976,0.25,200.2160397999687,None,200.96706940000877,None,,,,,,,[1.64428571],4.980000000000004,0.8571428571428571,11016,001,2024_Jan_04_1324,MFTM_A_new1021,2021.2.3,59.892684252114016,
,,,,,,,,stim/Instruction_adaptive.png,conditions/adaptive.xlsx,test,-0.6,-0.6,-0.6,0.6,0.6,left,L,,,,,0,1,1,1,0,7,7,75,,,,,,,,,,,,,,,,,,,,,,,,,,,,,,,,,,,,,,,,,,,,201.4684469999047,None,left,1,1.3221845999360085,201.96863909997046,202.72006799990777,201.96863909997046,202.21902839990798,201.96863909997046,202.21902839990798,201.96863909997046,202.21902839990798,201.96863909997046,202.21902839990798,201.96863909997046,202.21902839990798,202.20215819997247,202.70442589989398,202.20215819997247,202.70442589989398,202.20215819997247,202.70442589989398,202.20215819997247,202.70442589989398,202.20215819997247,202.70442589989398,202.20215819997247,202.70442589989398,202.20215819997247,202.70442589989398,202.20215819997247,202.70442589989398,201.96863909997046,None,202.70442589989398,None,0.25,204.43896139995195,None,205.18984719994478,None,,,,,,,[1.72],5.210000000000004,0.875,11016,001,2024_Jan_04_1324,MFTM_A_new1021,2021.2.3,59.892684252114016,
,,,,,,,,stim/Instruction_adaptive.png,conditions/adaptive.xlsx,test,-0.6,-0.6,-0.6,0.6,0.6,left,L,,,,,0,1,1,1,0,8,8,93,,,,,,,,,,,,,,,,,,,,,,,,,,,,,,,,,,,,,,,,,,,,205.69132149999496,None,right,0,1.3466817999724299,206.1920051999623,206.94287049991544,206.1920051999623,206.44234399998095,206.1920051999623,206.44234399998095,206.1920051999623,206.44234399998095,206.1920051999623,206.44234399998095,206.1920051999623,206.44234399998095,206.42597099998966,206.9259656999493,206.42597099998966,206.9259656999493,206.42597099998966,206.9259656999493,206.42597099998966,206.9259656999493,206.42597099998966,206.9259656999493,206.42597099998966,206.9259656999493,206.42597099998966,206.9259656999493,206.42597099998966,206.9259656999493,206.1920051999623,None,206.9259656999493,208.71238939999603,0.25,208.72787689999677,None,209.48074939998332,None,,,,,,,[1.77888889],4.510000000000003,0.7777777777777778,11016,001,2024_Jan_04_1324,MFTM_A_new1021,2021.2.3,59.892684252114016,
,,,,,,,,stim/Instruction_adaptive.png,conditions/adaptive.xlsx,test,-0.6,-0.6,-0.6,0.6,0.6,left,L,,,,,0,1,1,1,0,9,9,37,,,,,,,,,,,,,,,,,,,,,,,,,,,,,,,,,,,,,,,,,,,,209.98101479990873,None,left,1,0.7868461000034586,210.48121030000038,211.28216840000823,210.48121030000038,210.78177549992688,210.48121030000038,210.78177549992688,210.48121030000038,210.78177549992688,210.48121030000038,210.78177549992688,210.48121030000038,210.78177549992688,210.74810899992008,211.24881819996517,210.74810899992008,211.24881819996517,210.74810899992008,211.24881819996517,210.74810899992008,211.24881819996517,210.74810899992008,211.24881819996517,210.74810899992008,211.24881819996517,210.74810899992008,211.24881819996517,210.74810899992008,211.24881819996517,210.48121030000038,None,211.24881819996517,213.0850339999888,0.29000000000000004,213.10144359990954,None,213.85271579993423,None,,,,,,,[1.822],4.7100000000000035,0.8,11016,001,2024_Jan_04_1324,MFTM_A_new1021,2021.2.3,59.892684252114016,
,,,,,,,,stim/Instruction_adaptive.png,conditions/adaptive.xlsx,test,0.6,0.6,0.6,-0.6,-0.6,right,R,,,,,0,1,1,1,0,10,10,92,,,,,,,,,,,,,,,,,,,,,,,,,,,,,,,,,,,,,,,,,,,,214.35362489998806,None,right,1,1.196567100007087,214.85429869999643,215.60608729999512,214.85429869999643,215.10478189995047,214.85429869999643,215.10478189995047,214.85429869999643,215.10478189995047,214.85429869999643,215.10478189995047,214.85429869999643,215.10478189995047,215.0886755998945,215.588843000005,215.0886755998945,215.588843000005,215.0886755998945,215.588843000005,215.0886755998945,215.588843000005,215.0886755998945,215.588843000005,215.0886755998945,215.588843000005,215.0886755998945,215.588843000005,215.0886755998945,215.588843000005,214.85429869999643,None,215.588843000005,217.4591800000053,0.25,217.4754302999936,None,218.22648700000718,None,,,,,,,[1.86090909],4.890000000000004,0.8181818181818182,11016,001,2024_Jan_04_1324,MFTM_A_new1021,2021.2.3,59.892684252114016,
,,,,,,,,stim/Instruction_adaptive.png,conditions/adaptive.xlsx,test,0.6,0.6,0.6,-0.6,-0.6,right,R,,,,,0,1,1,1,0,11,11,10,,,,,,,,,,,,,,,,,,,,,,,,,,,,,,,,,,,,,,,,,,,,218.7272591999499,None,left,0,1.8553852000040933,219.22741589997895,219.97939029999543,219.22741589997895,219.4779005999444,219.22741589997895,219.4779005999444,219.22741589997895,219.4779005999444,219.22741589997895,219.4779005999444,219.22741589997895,219.4779005999444,219.46153569989838,219.9622204999905,219.46153569989838,219.9622204999905,219.46153569989838,219.9622204999905,219.46153569989838,219.9622204999905,219.46153569989838,219.9622204999905,219.46153569989838,219.9622204999905,219.46153569989838,219.9622204999905,219.46153569989838,219.9622204999905,219.22741589997895,None,219.9622204999905,221.8673320999369,0.25,221.88104599993676,None,222.63240509992465,None,,,,,,,[1.89333333],4.400000000000004,0.75,11016,001,2024_Jan_04_1324,MFTM_A_new1021,2021.2.3,59.892684252114016,
,,,,,,,,stim/Instruction_adaptive.png,conditions/adaptive.xlsx,test,0.6,0.6,0.6,-0.6,-0.6,right,R,,,,,0,1,1,1,0,12,12,54,,,,,,,,,,,,,,,,,,,,,,,,,,,,,,,,,,,,,,,,,,,,223.13337709999178,None,left,0,3.2491515000583604,223.63412199995946,224.45270539994817,223.63412199995946,223.95228599989787,223.63412199995946,223.95228599989787,223.63412199995946,223.95228599989787,223.63412199995946,223.95228599989787,223.63412199995946,223.95228599989787,223.91765109996777,224.41898550000042,223.91765109996777,224.41898550000042,223.91765109996777,224.41898550000042,223.91765109996777,224.41898550000042,223.91765109996777,224.41898550000042,223.91765109996777,224.41898550000042,223.91765109996777,224.41898550000042,223.91765109996777,224.41898550000042,223.63412199995946,None,224.41898550000042,226.90557089995127,0.31000000000000005,226.92209139990155,None,227.67394549993332,None,,,,,,,[1.91615385],3.910000000000003,0.6923076923076923,11016,001,2024_Jan_04_1324,MFTM_A_new1021,2021.2.3,59.892684252114016,
,,,,,,,,stim/Instruction_adaptive.png,conditions/adaptive.xlsx,test,-0.6,-0.6,-0.6,0.6,0.6,left,L,,,,,0,1,1,1,0,13,13,87,,,,,,,,,,,,,,,,,,,,,,,,,,,,,,,,,,,,,,,,,,,,228.17489879997447,None,left,1,1.4322419000091031,228.67469919996802,229.62612349994015,228.67469919996802,229.1255179999862,228.67469919996802,229.1255179999862,228.67469919996802,229.1255179999862,228.67469919996802,229.1255179999862,228.67469919996802,229.1255179999862,229.09215489996132,229.59336850000545,229.09215489996132,229.59336850000545,229.09215489996132,229.59336850000545,229.09215489996132,229.59336850000545,229.09215489996132,229.59336850000545,229.09215489996132,229.59336850000545,229.09215489996132,229.59336850000545,229.09215489996132,229.59336850000545,228.67469919996802,None,229.59336850000545,231.52918809989933,0.44000000000000017,231.54574380000122,None,232.2974288999103,None,,,,,,,[1.92642857],4.100000000000003,0.7142857142857143,11016,001,2024_Jan_04_1324,MFTM_A_new1021,2021.2.3,59.892684252114016,
,,,,,,,,stim/Instruction_adaptive.png,conditions/adaptive.xlsx,test,-0.6,-0.6,-0.6,0.6,0.6,left,L,,,,,0,1,1,1,0,14,14,29,,,,,,,,,,,,,,,,,,,,,,,,,,,,,,,,,,,,,,,,,,,,232.7976001999341,None,None,0,0,233.29842299991287,234.18384839990176,233.29842299991287,233.68330649996642,233.29842299991287,233.68330649996642,233.29842299991287,233.68330649996642,233.29842299991287,233.68330649996642,233.29842299991287,233.68330649996642,233.6664388999343,234.16712219989859,233.6664388999343,234.16712219989859,233.6664388999343,234.16712219989859,233.6664388999343,234.16712219989859,233.6664388999343,234.16712219989859,233.6664388999343,234.16712219989859,233.6664388999343,234.16712219989859,233.6664388999343,234.16712219989859,233.29842299991287,None,234.16712219989859,236.78686110000126,0.3800000000000001,236.80333829997107,None,237.55501129990444,None,,,,,,,[[2.62]],3.6200000000000028,0.6666666666666666,11016,001,2024_Jan_04_1324,MFTM_A_new1021,2021.2.3,59.892684252114016,
,,,,,,,,stim/Instruction_adaptive.png,conditions/adaptive.xlsx,test,-0.6,-0.6,-0.6,0.6,0.6,left,L,,,,,0,1,1,1,0,15,15,51,,,,,,,,,,,,,,,,,,,,,,,,,,,,,,,,,,,,,,,,,,,,238.05525119998492,None,left,1,1.3587499000132084,238.55612999992445,239.60829959996045,238.55612999992445,239.10746759991162,238.55612999992445,239.10746759991162,238.55612999992445,239.10746759991162,238.55612999992445,239.10746759991162,238.55612999992445,239.10746759991162,239.07361659989692,239.5746247000061,239.07361659989692,239.5746247000061,239.07361659989692,239.5746247000061,239.07361659989692,239.5746247000061,239.07361659989692,239.5746247000061,239.07361659989692,239.5746247000061,239.07361659989692,239.5746247000061,239.07361659989692,239.5746247000061,238.55612999992445,None,239.5746247000061,241.52703879994806,0.5400000000000003,241.54388139990624,None,242.29501149989665,None,,,,,,,[1.940625],3.810000000000003,0.6875,11016,001,2024_Jan_04_1324,MFTM_A_new1021,2021.2.3,59.892684252114016,
,,,,,,,,stim/Instruction_adaptive.png,conditions/adaptive.xlsx,test,-0.6,-0.6,-0.6,0.6,0.6,left,L,,,,,0,1,1,1,0,16,16,27,,,,,,,,,,,,,,,,,,,,,,,,,,,,,,,,,,,,,,,,,,,,242.79605040000752,None,left,1,1.921833699918352,243.29715090000536,244.28275019989815,243.29715090000536,243.7805754999863,243.29715090000536,243.7805754999863,243.29715090000536,243.7805754999863,243.29715090000536,243.7805754999863,243.29715090000536,243.7805754999863,243.7473553000018,244.24777949997224,243.7473553000018,244.24777949997224,243.7473553000018,244.24777949997224,243.7473553000018,244.24777949997224,243.7473553000018,244.24777949997224,243.7473553000018,244.24777949997224,243.7473553000018,244.24777949997224,243.7473553000018,244.24777949997224,243.29715090000536,None,244.24777949997224,246.20078409998678,0.4700000000000002,246.2178379999241,None,246.96912079991307,None,,,,,,,[1.94588235],3.9700000000000033,0.7058823529411765,11016,001,2024_Jan_04_1324,MFTM_A_new1021,2021.2.3,59.892684252114016,
,,,,,,,,stim/Instruction_adaptive.png,conditions/adaptive.xlsx,test,0.6,0.6,0.6,-0.6,-0.6,right,R,,,,,0,1,1,1,0,17,17,38,,,,,,,,,,,,,,,,,,,,,,,,,,,,,,,,,,,,,,,,,,,,247.4694319999544,None,right,1,1.3045235000317916,247.97015239996836,248.90487470000517,247.97015239996836,248.40396729996428,247.97015239996836,248.40396729996428,247.97015239996836,248.40396729996428,247.97015239996836,248.40396729996428,247.97015239996836,248.40396729996428,248.37059319997206,248.87139300000854,248.37059319997206,248.87139300000854,248.37059319997206,248.87139300000854,248.37059319997206,248.87139300000854,248.37059319997206,248.87139300000854,248.37059319997206,248.87139300000854,248.37059319997206,248.87139300000854,248.37059319997206,248.87139300000854,247.97015239996836,None,248.87139300000854,250.82435149990488,0.42000000000000015,250.85767789999954,None,251.6086424998939,None,,,,,,,[1.95333333],4.100000000000003,0.7222222222222222,11016,001,2024_Jan_04_1324,MFTM_A_new1021,2021.2.3,59.892684252114016,
,,,,,,,,stim/Instruction_adaptive.png,conditions/adaptive.xlsx,test,-0.6,-0.6,-0.6,0.6,0.6,left,L,,,,,0,1,1,1,0,18,18,15,,,,,,,,,,,,,,,,,,,,,,,,,,,,,,,,,,,,,,,,,,,,252.1102957999101,None,left,1,0.6647428999422118,252.61035319999792,253.49560849997215,252.61035319999792,252.99464599997737,252.61035319999792,252.99464599997737,252.61035319999792,252.99464599997737,252.61035319999792,252.99464599997737,252.61035319999792,252.99464599997737,252.97769349999726,253.47823389992118,252.97769349999726,253.47823389992118,252.97769349999726,253.47823389992118,252.97769349999726,253.47823389992118,252.97769349999726,253.47823389992118,252.97769349999726,253.47823389992118,252.97769349999726,253.47823389992118,252.97769349999726,253.47823389992118,252.61035319999792,None,253.47823389992118,255.44846779992804,0.3800000000000001,255.46434289996978,None,256.21745589992497,None,,,,,,,[1.96210526],4.220000000000003,0.7368421052631579,11016,001,2024_Jan_04_1324,MFTM_A_new1021,2021.2.3,59.892684252114016,
,,,,,,,,stim/Instruction_adaptive.png,conditions/adaptive.xlsx,test,0.6,0.6,0.6,-0.6,-0.6,right,R,,,,,0,1,1,1,0,19,19,72,,,,,,,,,,,,,,,,,,,,,,,,,,,,,,,,,,,,,,,,,,,,256.71709139994346,None,left,0,1.4018249000655487,257.2173809999367,258.068273199955,257.2173809999367,257.5678636999801,257.2173809999367,257.5678636999801,257.2173809999367,257.5678636999801,257.2173809999367,257.5678636999801,257.2173809999367,257.5678636999801,257.5512347999029,258.052475299919,257.5512347999029,258.052475299919,257.5512347999029,258.052475299919,257.5512347999029,258.052475299919,257.5512347999029,258.052475299919,257.5512347999029,258.052475299919,257.5512347999029,258.052475299919,257.5512347999029,258.052475299919,257.2173809999367,None,258.052475299919,None,0.3500000000000001,260.0379819999216,None,260.7888177999994,None,,,,,,,[1.9715],3.910000000000003,0.7,11016,001,2024_Jan_04_1324,MFTM_A_new1021,2021.2.3,59.892684252114016,
,,,,,,,,stim/Instruction_adaptive.png,conditions/adaptive.xlsx,test,-0.6,-0.6,-0.6,0.6,0.6,left,L,,,,,0,1,1,1,0,20,20,31,,,,,,,,,,,,,,,,,,,,,,,,,,,,,,,,,,,,,,,,,,,,261.289943199954,None,left,1,1.6688124999636784,261.7905540999491,262.7429476999678,261.7905540999491,262.24164579994977,261.7905540999491,262.24164579994977,261.7905540999491,262.24164579994977,261.7905540999491,262.24164579994977,261.7905540999491,262.24164579994977,262.2089297999628,262.7085054999916,262.2089297999628,262.7085054999916,262.2089297999628,262.7085054999916,262.2089297999628,262.7085054999916,262.2089297999628,262.7085054999916,262.2089297999628,262.7085054999916,262.2089297999628,262.7085054999916,262.2089297999628,262.7085054999916,261.7905540999491,None,262.7085054999916,264.695404099999,0.44000000000000017,264.71214689989574,None,265.46459959994536,None,,,,,,,[1.97571429],4.020000000000003,0.7142857142857143,11016,001,2024_Jan_04_1324,MFTM_A_new1021,2021.2.3,59.892684252114016,
,,,,,,,,stim/Instruction_adaptive.png,conditions/adaptive.xlsx,test,-0.6,-0.6,-0.6,0.6,0.6,left,L,,,,,0,1,1,1,0,21,21,53,,,,,,,,,,,,,,,,,,,,,,,,,,,,,,,,,,,,,,,,,,,,265.96386069990695,None,right,0,1.2738796999910846,266.46486409998033,267.38291709998157,266.46486409998033,266.88209619990084,266.46486409998033,266.88209619990084,266.46486409998033,266.88209619990084,266.46486409998033,266.88209619990084,266.46486409998033,266.88209619990084,266.86479589994997,267.3665154000046,266.86479589994997,267.3665154000046,266.86479589994997,267.3665154000046,266.86479589994997,267.3665154000046,266.86479589994997,267.3665154000046,266.86479589994997,267.3665154000046,266.86479589994997,267.3665154000046,266.86479589994997,267.3665154000046,266.46486409998033,None,267.3490005999338,269.3358067999361,0.41000000000000014,269.3691576999845,None,270.12042329995893,None,,,,,,,[1.98090909],3.700000000000003,0.6818181818181818,11016,001,2024_Jan_04_1324,MFTM_A_new1021,2021.2.3,59.892684252114016,
,,,,,,,,stim/Instruction_adaptive.png,conditions/adaptive.xlsx,test,-0.6,-0.6,-0.6,0.6,0.6,left,L,,,,,0,1,1,1,0,22,22,85,,,,,,,,,,,,,,,,,,,,,,,,,,,,,,,,,,,,,,,,,,,,270.6204259999795,None,left,1,0.9619628998916596,271.1210867000045,272.13971409993246,271.1210867000045,271.6382920999313,271.1210867000045,271.6382920999313,271.1210867000045,271.6382920999313,271.1210867000045,271.6382920999313,271.1210867000045,271.6382920999313,271.6050911999773,272.10584450000897,271.6050911999773,272.10584450000897,271.6050911999773,272.10584450000897,271.6050911999773,272.10584450000897,271.6050911999773,272.10584450000897,271.6050911999773,272.10584450000897,271.6050911999773,272.10584450000897,271.6050911999773,272.10584450000897,271.1210867000045,None,272.10584450000897,274.0926208999008,0.5100000000000002,274.12562599999364,None,274.87717160000466,None,,,,,,,[1.98130435],3.820000000000003,0.6956521739130435,11016,001,2024_Jan_04_1324,MFTM_A_new1021,2021.2.3,59.892684252114016,
,,,,,,,,stim/Instruction_adaptive.png,conditions/adaptive.xlsx,test,0.6,0.6,0.6,-0.6,-0.6,right,R,,,,,0,1,1,1,0,23,23,42,,,,,,,,,,,,,,,,,,,,,,,,,,,,,,,,,,,,,,,,,,,,275.37803239992354,None,left,0,1.1733258999884129,275.8780348999426,276.8635326999938,275.8780348999426,276.3621383999707,275.8780348999426,276.3621383999707,275.8780348999426,276.3621383999707,275.8780348999426,276.3621383999707,275.8780348999426,276.3621383999707,276.32967229990754,276.83010819996707,276.32967229990754,276.83010819996707,276.32967229990754,276.83010819996707,276.32967229990754,276.83010819996707,276.32967229990754,276.83010819996707,276.32967229990754,276.83010819996707,276.32967229990754,276.83010819996707,276.32967229990754,276.83010819996707,275.8780348999426,None,276.83010819996707,278.8171885999618,0.4700000000000002,278.832871099934,None,279.5843343999004,None,,,,,,,[1.98333333],3.490000000000003,0.6666666666666666,11016,001,2024_Jan_04_1324,MFTM_A_new1021,2021.2.3,59.892684252114016,
,,,,,,,,stim/Instruction_adaptive.png,conditions/adaptive.xlsx,test,0.6,0.6,0.6,-0.6,-0.6,right,R,,,,,0,1,1,1,0,24,24,98,,,,,,,,,,,,,,,,,,,,,,,,,,,,,,,,,,,,,,,,,,,,280.0845115999691,None,left,0,1.1129500000970438,280.5857226999942,281.6865831000032,280.5857226999942,281.18640409992076,280.5857226999942,281.18640409992076,280.5857226999942,281.18640409992076,280.5857226999942,281.18640409992076,280.5857226999942,281.18640409992076,281.1524019999197,281.6533677999396,281.1524019999197,281.6533677999396,281.1524019999197,281.6533677999396,281.1524019999197,281.6533677999396,281.1524019999197,281.6533677999396,281.1524019999197,281.6533677999396,281.1524019999197,281.6533677999396,281.1524019999197,281.6533677999396,280.5857226999942,None,281.6533677999396,283.57316969998647,0.5900000000000003,283.58961049991194,None,284.3406646999065,None,,,,,,,[[1.91]],3.1000000000000023,0.64,11016,001,2024_Jan_04_1324,MFTM_A_new1021,2021.2.3,59.892684252114016,
,,,,,,,,stim/Instruction_adaptive.png,conditions/adaptive.xlsx,test,-0.6,-0.6,-0.6,0.6,0.6,left,L,,,,,0,1,1,1,0,25,25,33,,,,,,,,,,,,,,,,,,,,,,,,,,,,,,,,,,,,,,,,,,,,284.8420418999158,None,left,1,1.1412353999912739,285.34210869995877,286.6113541999366,285.34210869995877,286.12754679995123,285.34210869995877,286.12754679995123,285.34210869995877,286.12754679995123,285.34210869995877,286.12754679995123,285.34210869995877,286.12754679995123,286.093212399981,286.59503109997604,286.093212399981,286.59503109997604,286.093212399981,286.59503109997604,286.093212399981,286.59503109997604,286.093212399981,286.59503109997604,286.093212399981,286.59503109997604,286.093212399981,286.59503109997604,286.093212399981,286.59503109997604,285.34210869995877,None,286.59503109997604,288.3311205999926,0.7700000000000005,288.34644659992773,None,289.09818209998775,None,,,,,,,[[1.73]],3.2500000000000027,0.6538461538461539,11016,001,2024_Jan_04_1324,MFTM_A_new1021,2021.2.3,59.892684252114016,
,,,,,,,,stim/Instruction_adaptive.png,conditions/adaptive.xlsx,test,0.6,0.6,0.6,-0.6,-0.6,right,R,,,,,0,1,1,1,0,26,26,16,,,,,,,,,,,,,,,,,,,,,,,,,,,,,,,,,,,,,,,,,,,,289.59902379999403,None,right,1,1.3436239999718964,290.0991795998998,291.301008899929,290.0991795998998,290.800811199937,290.0991795998998,290.800811199937,290.0991795998998,290.800811199937,290.0991795998998,290.800811199937,290.0991795998998,290.800811199937,290.7667465999257,291.26804110000376,290.7667465999257,291.26804110000376,290.7667465999257,291.26804110000376,290.7667465999257,291.26804110000376,290.7667465999257,291.26804110000376,290.7667465999257,291.26804110000376,290.7667465999257,291.26804110000376,290.7667465999257,291.26804110000376,290.0991795998998,None,291.26804110000376,293.0869021998951,0.6900000000000004,293.1034658999415,None,293.85478789999615,None,,,,,,,[[1.81]],3.3800000000000026,0.6666666666666666,11016,001,2024_Jan_04_1324,MFTM_A_new1021,2021.2.3,59.892684252114016,
,,,,,,,,stim/Instruction_adaptive.png,conditions/adaptive.xlsx,test,-0.6,-0.6,-0.6,0.6,0.6,left,L,,,,,0,1,1,1,0,27,27,71,,,,,,,,,,,,,,,,,,,,,,,,,,,,,,,,,,,,,,,,,,,,294.355246799998,None,left,1,1.1466141000855714,294.8562034999486,295.9911140999757,294.8562034999486,295.4903205999872,294.8562034999486,295.4903205999872,294.8562034999486,295.4903205999872,294.8562034999486,295.4903205999872,294.8562034999486,295.4903205999872,295.4735291999532,295.97461029991973,295.4735291999532,295.97461029991973,295.4735291999532,295.97461029991973,295.4735291999532,295.97461029991973,295.4735291999532,295.97461029991973,295.4735291999532,295.97461029991973,295.4735291999532,295.97461029991973,295.4735291999532,295.97461029991973,294.8562034999486,None,295.97461029991973,297.84416280000005,0.6300000000000003,297.86152439995203,None,298.6117702999618,None,,,,,,,[[1.87]],3.490000000000003,0.6785714285714286,11016,001,2024_Jan_04_1324,MFTM_A_new1021,2021.2.3,59.892684252114016,
,,,,,,,,stim/Instruction_adaptive.png,conditions/adaptive.xlsx,test,0.6,0.6,0.6,-0.6,-0.6,right,R,,,,,0,1,1,1,0,28,28,22,,,,,,,,,,,,,,,,,,,,,,,,,,,,,,,,,,,,,,,,,,,,299.11337659996934,None,right,1,1.1091018000151962,299.61381899996195,300.71486889990047,299.61381899996195,300.2151153999148,299.61381899996195,300.2151153999148,299.61381899996195,300.2151153999148,299.61381899996195,300.2151153999148,299.61381899996195,300.2151153999148,300.18120889994316,300.68202929990366,300.18120889994316,300.68202929990366,300.18120889994316,300.68202929990366,300.18120889994316,300.68202929990366,300.18120889994316,300.68202929990366,300.18120889994316,300.68202929990366,300.18120889994316,300.68202929990366,300.18120889994316,300.68202929990366,299.61381899996195,None,300.68202929990366,302.6009415999288,0.5900000000000003,302.61843489995226,None,303.3687177998945,None,,,,,,,[[1.91]],3.5900000000000025,0.6896551724137931,11016,001,2024_Jan_04_1324,MFTM_A_new1021,2021.2.3,59.892684252114016,
,,,,,,,,stim/Instruction_adaptive.png,conditions/adaptive.xlsx,test,0.6,0.6,0.6,-0.6,-0.6,right,R,,,,,0,1,1,1,0,29,29,26,,,,,,,,,,,,,,,,,,,,,,,,,,,,,,,,,,,,,,,,,,,,303.8703581999289,None,right,1,0.776591399917379,304.3703878999222,305.4223337000003,304.3703878999222,304.92119729996193,304.3703878999222,304.92119729996193,304.3703878999222,304.92119729996193,304.3703878999222,304.92119729996193,304.3703878999222,304.92119729996193,304.90510009997524,305.40580459998455,304.90510009997524,305.40580459998455,304.90510009997524,305.40580459998455,304.90510009997524,305.40580459998455,304.90510009997524,305.40580459998455,304.90510009997524,305.40580459998455,304.90510009997524,305.40580459998455,304.90510009997524,305.40580459998455,304.3703878999222,None,305.40580459998455,307.3579765999457,0.5500000000000003,307.37499939999543,None,308.12628450000193,None,,,,,,,[[1.95]],3.6700000000000026,0.7,11016,001,2024_Jan_04_1324,MFTM_A_new1021,2021.2.3,59.892684252114016,
,,,,,,,,stim/Instruction_adaptive.png,conditions/adaptive.xlsx,test,-0.6,-0.6,-0.6,0.6,0.6,left,L,,,,,0,1,1,1,0,30,30,7,,,,,,,,,,,,,,,,,,,,,,,,,,,,,,,,,,,,,,,,,,,,308.6265091999667,None,left,1,0.7714078000281006,309.1273900999222,310.1461913998937,309.1273900999222,309.661535799969,309.1273900999222,309.661535799969,309.1273900999222,309.661535799969,309.1273900999222,309.661535799969,309.1273900999222,309.661535799969,309.628106799908,310.12983909994364,309.628106799908,310.12983909994364,309.628106799908,310.12983909994364,309.628106799908,310.12983909994364,309.628106799908,310.12983909994364,309.628106799908,310.12983909994364,309.628106799908,310.12983909994364,309.628106799908,310.12983909994364,309.1273900999222,None,310.12983909994364,312.09936649992596,0.5200000000000002,312.1151381999953,None,312.8661174000008,None,,,,,,,[1.96],3.7500000000000027,0.7096774193548387,11016,001,2024_Jan_04_1324,MFTM_A_new1021,2021.2.3,59.892684252114016,
,,,,,,,,stim/Instruction_adaptive.png,conditions/adaptive.xlsx,test,0.6,0.6,0.6,-0.6,-0.6,right,R,,,,,0,1,1,1,0,31,31,24,,,,,,,,,,,,,,,,,,,,,,,,,,,,,,,,,,,,,,,,,,,,313.3675838999916,None,right,1,0.7185564000392333,313.8683180999942,314.87032049999107,313.8683180999942,314.3683154999744,313.8683180999942,314.3683154999744,313.8683180999942,314.3683154999744,313.8683180999942,314.3683154999744,313.8683180999942,314.3683154999744,314.33530269993935,314.8360717999749,314.33530269993935,314.8360717999749,314.33530269993935,314.8360717999749,314.33530269993935,314.8360717999749,314.33530269993935,314.8360717999749,314.33530269993935,314.8360717999749,314.33530269993935,314.8360717999749,314.33530269993935,314.8360717999749,313.8683180999942,None,314.8360717999749,316.8055549999699,0.4900000000000002,316.82210429990664,None,317.57397589995526,None,,,,,,,[1.9615625],3.8300000000000027,0.71875,11016,001,2024_Jan_04_1324,MFTM_A_new1021,2021.2.3,59.892684252114016,
,,,,,,,,stim/Instruction_adaptive.png,conditions/adaptive.xlsx,test,-0.6,-0.6,-0.6,0.6,0.6,left,L,,,,,0,1,1,1,0,32,32,25,,,,,,,,,,,,,,,,,,,,,,,,,,,,,,,,,,,,,,,,,,,,318.0746858000057,None,left,1,1.219980699941516,318.57481779996306,319.543444299954,318.57481779996306,319.04266979999375,318.57481779996306,319.04266979999375,318.57481779996306,319.04266979999375,318.57481779996306,319.04266979999375,318.57481779996306,319.04266979999375,319.0260683998931,319.52665119990706,319.0260683998931,319.52665119990706,319.0260683998931,319.52665119990706,319.0260683998931,319.52665119990706,319.0260683998931,319.52665119990706,319.0260683998931,319.52665119990706,319.0260683998931,319.52665119990706,319.0260683998931,319.52665119990706,318.57481779996306,None,319.52665119990706,321.4964664999861,0.4600000000000002,321.5121510999743,None,322.26468749996275,None,,,,,,,[1.96393939],3.8900000000000032,0.7272727272727273,11016,001,2024_Jan_04_1324,MFTM_A_new1021,2021.2.3,59.892684252114016,
,,,,,,,,stim/Instruction_adaptive.png,conditions/adaptive.xlsx,test,-0.6,-0.6,-0.6,0.6,0.6,left,L,,,,,0,1,1,1,0,33,33,35,,,,,,,,,,,,,,,,,,,,,,,,,,,,,,,,,,,,,,,,,,,,322.76488539995626,None,left,1,0.7377968999790028,323.265068699955,324.21641200000886,323.265068699955,323.71571259992197,323.265068699955,323.71571259992197,323.265068699955,323.71571259992197,323.265068699955,323.71571259992197,323.265068699955,323.71571259992197,323.68208759999834,324.18303889990784,323.68208759999834,324.18303889990784,323.68208759999834,324.18303889990784,323.68208759999834,324.18303889990784,323.68208759999834,324.18303889990784,323.68208759999834,324.18303889990784,323.68208759999834,324.18303889990784,323.68208759999834,324.18303889990784,323.265068699955,None,324.18303889990784,326.1533128999872,0.44000000000000017,326.18596899998374,None,326.9372065999778,None,,,,,,,[1.96676471],3.960000000000003,0.7352941176470589,11016,001,2024_Jan_04_1324,MFTM_A_new1021,2021.2.3,59.892684252114016,
,,,,,,,,stim/Instruction_adaptive.png,conditions/adaptive.xlsx,test,-0.6,-0.6,-0.6,0.6,0.6,left,L,,,,,0,1,1,1,0,34,34,13,,,,,,,,,,,,,,,,,,,,,,,,,,,,,,,,,,,,,,,,,,,,327.437980699935,None,right,0,0.8330844999291003,327.9385345999617,328.87324699992314,327.9385345999617,328.3725551998941,327.9385345999617,328.3725551998941,327.9385345999617,328.3725551998941,327.9385345999617,328.3725551998941,327.9385345999617,328.3725551998941,328.3389948999975,328.84071319992654,328.3389948999975,328.84071319992654,328.3389948999975,328.84071319992654,328.3389948999975,328.84071319992654,328.3389948999975,328.84071319992654,328.3389948999975,328.84071319992654,328.3389948999975,328.84071319992654,328.3389948999975,328.84071319992654,327.9385345999617,None,328.84071319992654,330.80960989999585,0.42000000000000015,330.842660299968,None,331.5939792999998,None,,,,,,,[1.97],3.780000000000003,0.7142857142857143,11016,001,2024_Jan_04_1324,MFTM_A_new1021,2021.2.3,59.892684252114016,
,,,,,,,,stim/Instruction_adaptive.png,conditions/adaptive.xlsx,test,-0.6,-0.6,-0.6,0.6,0.6,left,L,,,,,0,1,1,1,0,35,35,11,,,,,,,,,,,,,,,,,,,,,,,,,,,,,,,,,,,,,,,,,,,,332.0949657999445,None,left,1,0.7997848999220878,332.5953388999915,333.58022359991446,332.5953388999915,333.079597099917,332.5953388999915,333.079597099917,332.5953388999915,333.079597099917,332.5953388999915,333.079597099917,332.5953388999915,333.079597099917,333.0633532999782,333.5637385000009,333.0633532999782,333.5637385000009,333.0633532999782,333.5637385000009,333.0633532999782,333.5637385000009,333.0633532999782,333.5637385000009,333.0633532999782,333.5637385000009,333.0633532999782,333.5637385000009,333.0633532999782,333.5637385000009,332.5953388999915,None,333.5637385000009,None,0.4800000000000002,335.5498277998995,None,336.3017464999575,None,,,,,,,[1.97138889],3.840000000000003,0.7222222222222222,11016,001,2024_Jan_04_1324,MFTM_A_new1021,2021.2.3,59.892684252114016,
,,,,,,,,stim/Instruction_adaptive.png,conditions/adaptive.xlsx,test,-0.6,-0.6,-0.6,0.6,0.6,left,L,,,,,0,1,1,1,0,36,36,97,,,,,,,,,,,,,,,,,,,,,,,,,,,,,,,,,,,,,,,,,,,,336.80164029996376,None,left,1,1.2369552999734879,337.30260949989315,338.27046539995354,337.30260949989315,337.7698630999075,337.30260949989315,337.7698630999075,337.30260949989315,337.7698630999075,337.30260949989315,337.7698630999075,337.30260949989315,337.7698630999075,337.73709969990887,338.23706640000455,337.73709969990887,338.23706640000455,337.73709969990887,338.23706640000455,337.73709969990887,338.23706640000455,337.73709969990887,338.23706640000455,337.73709969990887,338.23706640000455,337.73709969990887,338.23706640000455,337.73709969990887,338.23706640000455,337.30260949989315,None,338.23706640000455,340.22342509997543,0.4600000000000002,340.24020449991804,None,340.991260199924,None,,,,,,,[1.97324324],3.900000000000003,0.7297297297297297,11016,001,2024_Jan_04_1324,MFTM_A_new1021,2021.2.3,59.892684252114016,
,,,,,,,,stim/Instruction_adaptive.png,conditions/adaptive.xlsx,test,0.6,0.6,0.6,-0.6,-0.6,right,R,,,,,0,1,1,1,0,37,37,12,,,,,,,,,,,,,,,,,,,,,,,,,,,,,,,,,,,,,,,,,,,,341.49171229999047,None,right,1,1.2986292999703437,341.9928564999718,342.9441571999341,341.9928564999718,342.4443805000046,341.9928564999718,342.4443805000046,341.9928564999718,342.4443805000046,341.9928564999718,342.4443805000046,341.9928564999718,342.4443805000046,342.40979730000254,342.911422999925,342.40979730000254,342.911422999925,342.40979730000254,342.911422999925,342.40979730000254,342.911422999925,342.40979730000254,342.911422999925,342.40979730000254,342.911422999925,342.40979730000254,342.911422999925,342.40979730000254,342.911422999925,341.9928564999718,None,342.911422999925,344.8975352999987,0.44000000000000017,344.9137509999564,None,345.6648667999543,None,,,,,,,[1.97552632],3.960000000000003,0.7368421052631579,11016,001,2024_Jan_04_1324,MFTM_A_new1021,2021.2.3,59.892684252114016,
,,,,,,,,stim/Instruction_adaptive.png,conditions/adaptive.xlsx,test,0.6,0.6,0.6,-0.6,-0.6,right,R,,,,,0,1,1,1,0,38,38,34,,,,,,,,,,,,,,,,,,,,,,,,,,,,,,,,,,,,,,,,,,,,346.1662675999105,None,right,1,0.9764481000602245,346.66644059994724,347.6009621999692,346.66644059994724,347.1003808999667,346.66644059994724,347.1003808999667,346.66644059994724,347.1003808999667,346.66644059994724,347.1003808999667,346.66644059994724,347.1003808999667,347.06710290000774,347.56861769990064,347.06710290000774,347.56861769990064,347.06710290000774,347.56861769990064,347.06710290000774,347.56861769990064,347.06710290000774,347.56861769990064,347.06710290000774,347.56861769990064,347.06710290000774,347.56861769990064,347.06710290000774,347.56861769990064,346.66644059994724,None,347.56861769990064,349.5560558999423,0.42000000000000015,349.5704606999643,None,350.3226521000033,None,,,,,,,[1.97820513],4.010000000000003,0.7435897435897436,11016,001,2024_Jan_04_1324,MFTM_A_new1021,2021.2.3,59.892684252114016,
,,,,,,,,stim/Instruction_adaptive.png,conditions/adaptive.xlsx,test,-0.6,-0.6,-0.6,0.6,0.6,left,L,,,,,0,1,1,1,0,39,39,61,,,,,,,,,,,,,,,,,,,,,,,,,,,,,,,,,,,,,,,,,,,,350.82256819994655,None,left,1,0.7520267999498174,351.32325999997556,352.24191049998626,351.32325999997556,351.74056149995886,351.32325999997556,351.74056149995886,351.32325999997556,351.74056149995886,351.32325999997556,351.74056149995886,351.32325999997556,351.74056149995886,351.72414169996046,352.2250623999862,351.72414169996046,352.2250623999862,351.72414169996046,352.2250623999862,351.72414169996046,352.2250623999862,351.72414169996046,352.2250623999862,351.72414169996046,352.2250623999862,351.72414169996046,352.2250623999862,351.72414169996046,352.2250623999862,351.32325999997556,None,352.2250623999862,354.21141190000344,0.41000000000000014,354.2278309999965,None,354.9795106999809,None,,,,,,,[1.981],4.060000000000003,0.75,11016,001,2024_Jan_04_1324,MFTM_A_new1021,2021.2.3,59.892684252114016,
,,,,,,,,stim/Instruction_adaptive.png,conditions/adaptive.xlsx,test,0.6,0.6,0.6,-0.6,-0.6,right,R,,,,,0,1,1,1,0,40,40,46,,,,,,,,,,,,,,,,,,,,,,,,,,,,,,,,,,,,,,,,,,,,355.47942649992183,None,left,0,1.0293228999944404,355.9818200999871,356.88142379990313,355.9818200999871,356.38077279995196,355.9818200999871,356.38077279995196,355.9818200999871,356.38077279995196,355.9818200999871,356.38077279995196,355.9818200999871,356.38077279995196,356.34714179998264,356.8482001000084,356.34714179998264,356.8482001000084,356.34714179998264,356.8482001000084,356.34714179998264,356.8482001000084,356.34714179998264,356.8482001000084,356.34714179998264,356.8482001000084,356.34714179998264,356.8482001000084,356.34714179998264,356.8482001000084,355.9818200999871,None,356.8482001000084,358.8346976999892,0.3900000000000001,358.8671357999556,None,359.6189361999277,None,,,,,,,[1.98414634],3.920000000000003,0.7317073170731707,11016,001,2024_Jan_04_1324,MFTM_A_new1021,2021.2.3,59.892684252114016,
,,,,,,,,stim/Instruction_adaptive.png,conditions/adaptive.xlsx,test,-0.6,-0.6,-0.6,0.6,0.6,left,L,,,,,0,1,1,1,0,41,41,19,,,,,,,,,,,,,,,,,,,,,,,,,,,,,,,,,,,,,,,,,,,,360.1200600999873,None,left,1,1.0066532000200823,360.62025899998844,361.5550237999996,360.62025899998844,361.054398200009,360.62025899998844,361.054398200009,360.62025899998844,361.054398200009,360.62025899998844,361.054398200009,360.62025899998844,361.054398200009,361.0381516999332,361.53823829989415,361.0381516999332,361.53823829989415,361.0381516999332,361.53823829989415,361.0381516999332,361.53823829989415,361.0381516999332,361.53823829989415,361.0381516999332,361.53823829989415,361.0381516999332,361.53823829989415,361.0381516999332,361.53823829989415,360.62025899998844,None,361.53823829989415,363.52537179994397,0.43000000000000016,363.5413108000066,None,364.29255879996344,None,,,,,,,[1.98619048],3.9700000000000033,0.7380952380952381,11016,001,2024_Jan_04_1324,MFTM_A_new1021,2021.2.3,59.892684252114016,
,,,,,,,,stim/Instruction_adaptive.png,conditions/adaptive.xlsx,test,0.6,0.6,0.6,-0.6,-0.6,right,R,,,,,0,1,1,1,0,42,42,94,,,,,,,,,,,,,,,,,,,,,,,,,,,,,,,,,,,,,,,,,,,,364.7932778999675,None,right,1,1.3486046000616625,365.2944643999217,366.22892829997,365.2944643999217,365.7287241999293,365.2944643999217,365.7287241999293,365.2944643999217,365.7287241999293,365.2944643999217,365.7287241999293,365.2944643999217,365.7287241999293,365.69448109995574,366.19597259990405,365.69448109995574,366.19597259990405,365.69448109995574,366.19597259990405,365.69448109995574,366.19597259990405,365.69448109995574,366.19597259990405,365.69448109995574,366.19597259990405,365.69448109995574,366.19597259990405,365.69448109995574,366.19597259990405,365.2944643999217,None,366.19597259990405,368.1982725999551,0.42000000000000015,368.2148403999163,None,368.96641929994803,None,,,,,,,[1.98837209],4.020000000000003,0.7441860465116279,11016,001,2024_Jan_04_1324,MFTM_A_new1021,2021.2.3,59.892684252114016,
,,,,,,,,stim/Instruction_adaptive.png,conditions/adaptive.xlsx,test,0.6,0.6,0.6,-0.6,-0.6,right,R,,,,,0,1,1,1,0,43,43,60,,,,,,,,,,,,,,,,,,,,,,,,,,,,,,,,,,,,,,,,,,,,369.46675429993775,None,left,0,1.1478822999633849,369.9675452999072,370.88813749991823,369.9675452999072,370.3854635999305,369.9675452999072,370.3854635999305,369.9675452999072,370.3854635999305,369.9675452999072,370.3854635999305,369.9675452999072,370.3854635999305,370.36872289993335,370.86873069999274,370.36872289993335,370.86873069999274,370.36872289993335,370.86873069999274,370.36872289993335,370.86873069999274,370.36872289993335,370.86873069999274,370.36872289993335,370.86873069999274,370.36872289993335,370.86873069999274,370.36872289993335,370.86873069999274,369.9675452999072,None,370.85213519993704,372.85616099997424,0.41000000000000014,372.87284099997487,None,373.6228931999067,None,,,,,,,[1.99068182],3.880000000000003,0.7272727272727273,11016,001,2024_Jan_04_1324,MFTM_A_new1021,2021.2.3,59.892684252114016,
,,,,,,,,stim/Instruction_adaptive.png,conditions/adaptive.xlsx,test,0.6,0.6,0.6,-0.6,-0.6,right,R,,,,,0,1,1,1,0,44,44,88,,,,,,,,,,,,,,,,,,,,,,,,,,,,,,,,,,,,,,,,,,,,374.12437729991507,None,left,0,1.3310178000247106,374.6244039000012,375.5766866999911,374.6244039000012,375.0753245999804,374.6244039000012,375.0753245999804,374.6244039000012,375.0753245999804,374.6244039000012,375.0753245999804,374.6244039000012,375.0753245999804,375.05873429996427,375.5599910999881,375.05873429996427,375.5599910999881,375.05873429996427,375.5599910999881,375.05873429996427,375.5599910999881,375.05873429996427,375.5599910999881,375.05873429996427,375.5599910999881,375.05873429996427,375.5599910999881,375.05873429996427,375.5599910999881,374.6244039000012,None,375.5599910999881,377.5621234999271,0.4500000000000002,377.5788545999676,None,378.330770200002,None,,,,,,,[1.992],3.730000000000003,0.7111111111111111,11016,001,2024_Jan_04_1324,MFTM_A_new1021,2021.2.3,59.892684252114016,
,,,,,,,,stim/Instruction_adaptive.png,conditions/adaptive.xlsx,test,-0.6,-0.6,-0.6,0.6,0.6,left,L,,,,,0,1,1,1,0,45,45,67,,,,,,,,,,,,,,,,,,,,,,,,,,,,,,,,,,,,,,,,,,,,378.83117449993733,None,left,1,1.9184371000155807,379.3326718999306,380.3338759999024,379.3326718999306,379.8319700999418,379.3326718999306,379.8319700999418,379.3326718999306,379.8319700999418,379.3326718999306,379.8319700999418,379.3326718999306,379.8319700999418,379.8154346999945,380.3162804999156,379.8154346999945,380.3162804999156,379.8154346999945,380.3162804999156,379.8154346999945,380.3162804999156,379.8154346999945,380.3162804999156,379.8154346999945,380.3162804999156,379.8154346999945,380.3162804999156,379.8154346999945,380.3162804999156,379.3326718999306,None,380.3162804999156,382.3197393999435,0.5000000000000002,382.3365036000032,None,383.0876007999759,None,,,,,,,[1.99217391],3.780000000000003,0.717391304347826,11016,001,2024_Jan_04_1324,MFTM_A_new1021,2021.2.3,59.892684252114016,
,,,,,,,,stim/Instruction_adaptive.png,conditions/adaptive.xlsx,test,-0.6,-0.6,-0.6,0.6,0.6,left,L,,,,,0,1,1,1,0,46,46,43,,,,,,,,,,,,,,,,,,,,,,,,,,,,,,,,,,,,,,,,,,,,383.58782479993533,None,right,0,1.3069336001062766,384.08838420000393,385.07336089992896,384.08838420000393,384.5731845999835,384.08838420000393,384.5731845999835,384.08838420000393,384.5731845999835,384.08838420000393,384.5731845999835,384.08838420000393,384.5731845999835,384.5564105999656,385.0572561000008,384.5564105999656,385.0572561000008,384.5564105999656,385.0572561000008,384.5564105999656,385.0572561000008,384.5564105999656,385.0572561000008,384.5564105999656,385.0572561000008,384.5564105999656,385.0572561000008,384.5564105999656,385.0572561000008,384.08838420000393,None,385.0572561000008,387.0597105999477,0.4800000000000002,387.0762372999452,None,387.8278963000048,None,,,,,,,[1.99276596],3.640000000000003,0.7021276595744681,11016,001,2024_Jan_04_1324,MFTM_A_new1021,2021.2.3,59.892684252114016,
,,,,,,,,stim/Instruction_adaptive.png,conditions/adaptive.xlsx,test,-0.6,-0.6,-0.6,0.6,0.6,left,L,,,,,0,1,1,1,0,47,47,41,,,,,,,,,,,,,,,,,,,,,,,,,,,,,,,,,,,,,,,,,,,,388.32844670000486,None,left,1,1.5970977999968454,388.82989789999556,389.86455529998057,388.82989789999556,389.36373779992573,388.82989789999556,389.36373779992573,388.82989789999556,389.36373779992573,388.82989789999556,389.36373779992573,388.82989789999556,389.36373779992573,389.34685149998404,389.84770919999573,389.34685149998404,389.84770919999573,389.34685149998404,389.84770919999573,389.34685149998404,389.84770919999573,389.34685149998404,389.84770919999573,389.34685149998404,389.84770919999573,389.34685149998404,389.84770919999573,389.34685149998404,389.84770919999573,388.82989789999556,None,389.84770919999573,None,0.5300000000000002,391.8331980999792,None,392.58466309995856,None,,,,,,,[[1.97]],3.690000000000003,0.7083333333333334,11016,001,2024_Jan_04_1324,MFTM_A_new1021,2021.2.3,59.892684252114016,
,,,,,,,,stim/Instruction_adaptive.png,conditions/adaptive.xlsx,test,0.6,0.6,0.6,-0.6,-0.6,right,R,,,,,0,1,1,1,0,48,48,50,,,,,,,,,,,,,,,,,,,,,,,,,,,,,,,,,,,,,,,,,,,,393.0858181999065,None,right,1,1.1764070000499487,393.58656809991226,394.6063033998944,393.58656809991226,394.1043369999388,393.58656809991226,394.1043369999388,393.58656809991226,394.1043369999388,393.58656809991226,394.1043369999388,393.58656809991226,394.1043369999388,394.06997680000495,394.5706373999128,394.06997680000495,394.5706373999128,394.06997680000495,394.5706373999128,394.06997680000495,394.5706373999128,394.06997680000495,394.5706373999128,394.06997680000495,394.5706373999128,394.06997680000495,394.5706373999128,394.06997680000495,394.5706373999128,393.58656809991226,None,394.5706373999128,396.57402659999207,0.5100000000000002,396.5902631999925,None,397.34216179989744,None,,,,,,,[[1.99]],3.740000000000003,0.7142857142857143,11016,001,2024_Jan_04_1324,MFTM_A_new1021,2021.2.3,59.892684252114016,
,,,,,,,,stim/Instruction_adaptive.png,conditions/adaptive.xlsx,test,-0.6,-0.6,-0.6,0.6,0.6,left,L,,,,,0,1,1,1,0,49,49,63,,,,,,,,,,,,,,,,,,,,,,,,,,,,,,,,,,,,,,,,,,,,397.8422053999966,None,left,1,0.8684156999224797,398.3426521999063,399.34430689993314,398.3426521999063,398.84379409998655,398.3426521999063,398.84379409998655,398.3426521999063,398.84379409998655,398.3426521999063,398.84379409998655,398.3426521999063,398.84379409998655,398.8109136999119,399.31294719991274,398.8109136999119,399.31294719991274,398.8109136999119,399.31294719991274,398.8109136999119,399.31294719991274,398.8109136999119,399.31294719991274,398.8109136999119,399.31294719991274,398.8109136999119,399.31294719991274,398.8109136999119,399.31294719991274,398.3426521999063,None,399.31294719991274,401.3149335999042,0.4900000000000002,401.3314596998971,None,402.08247849997133,None,,,,,,,[1.9926],3.780000000000003,0.72,11016,001,2024_Jan_04_1324,MFTM_A_new1021,2021.2.3,59.892684252114016,
,,,,,,,,stim/Instruction_adaptive.png,conditions/adaptive.xlsx,test,-0.6,-0.6,-0.6,0.6,0.6,left,L,,,,,0,1,1,1,0,50,50,99,,,,,,,,,,,,,,,,,,,,,,,,,,,,,,,,,,,,,,,,,,,,402.5832631000085,None,left,1,1.0876832000212744,403.0833921999438,404.06891519995406,403.0833921999438,403.5679199999431,403.0833921999438,403.5679199999431,403.0833921999438,403.5679199999431,403.0833921999438,403.5679199999431,403.0833921999438,403.5679199999431,403.55072129995096,404.0513110999018,403.55072129995096,404.0513110999018,403.55072129995096,404.0513110999018,403.55072129995096,404.0513110999018,403.55072129995096,404.0513110999018,403.55072129995096,404.0513110999018,403.55072129995096,404.0513110999018,403.55072129995096,404.0513110999018,403.0833921999438,None,404.0513110999018,406.05456269998103,0.4800000000000002,406.07079539995175,None,406.82259379990865,None,,,,,,,[1.99313725],3.8300000000000027,0.7254901960784313,11016,001,2024_Jan_04_1324,MFTM_A_new1021,2021.2.3,59.892684252114016,
,,,,,,,,stim/Instruction_adaptive.png,conditions/adaptive.xlsx,test,-0.6,-0.6,-0.6,0.6,0.6,left,L,,,,,0,1,1,1,0,51,51,9,,,,,,,,,,,,,,,,,,,,,,,,,,,,,,,,,,,,,,,,,,,,407.3242034999421,None,left,1,1.530806899885647,407.82428609998897,408.79227370000444,407.82428609998897,408.2908606999554,407.82428609998897,408.2908606999554,407.82428609998897,408.2908606999554,407.82428609998897,408.2908606999554,407.82428609998897,408.2908606999554,408.27427099994384,408.7751124999486,408.27427099994384,408.7751124999486,408.27427099994384,408.7751124999486,408.27427099994384,408.7751124999486,408.27427099994384,408.7751124999486,408.27427099994384,408.7751124999486,408.27427099994384,408.7751124999486,408.27427099994384,408.7751124999486,407.82428609998897,None,408.7751124999486,None,0.4600000000000002,410.7783371999394,None,411.529145999928,None,,,,,,,[1.99403846],3.8700000000000028,0.7307692307692307,11016,001,2024_Jan_04_1324,MFTM_A_new1021,2021.2.3,59.892684252114016,
,,,,,,,,stim/Instruction_adaptive.png,conditions/adaptive.xlsx,test,0.6,0.6,0.6,-0.6,-0.6,right,R,,,,,0,1,1,1,0,52,52,82,,,,,,,,,,,,,,,,,,,,,,,,,,,,,,,,,,,,,,,,,,,,412.03052079991903,None,right,1,1.7271137000061572,412.5318517999258,413.4820301999571,412.5318517999258,412.9814034999581,412.5318517999258,412.9814034999581,412.5318517999258,412.9814034999581,412.5318517999258,412.9814034999581,412.5318517999258,412.9814034999581,412.9646146999439,413.4659112999216,412.9646146999439,413.4659112999216,412.9646146999439,413.4659112999216,412.9646146999439,413.4659112999216,412.9646146999439,413.4659112999216,412.9646146999439,413.4659112999216,412.9646146999439,413.4659112999216,412.9646146999439,413.4659112999216,412.5318517999258,None,413.4659112999216,415.4681739999214,0.4500000000000002,415.48552959994413,None,416.2368137999438,None,,,,,,,[1.99509434],3.910000000000003,0.7358490566037735,11016,001,2024_Jan_04_1324,MFTM_A_new1021,2021.2.3,59.892684252114016,
,,,,,,,,stim/Instruction_adaptive.png,conditions/adaptive.xlsx,test,0.6,0.6,0.6,-0.6,-0.6,right,R,,,,,0,1,1,1,0,53,53,68,,,,,,,,,,,,,,,,,,,,,,,,,,,,,,,,,,,,,,,,,,,,416.7380183999194,None,right,1,1.3493521000491455,417.2384783999296,418.1892147999024,417.2384783999296,417.6881961999461,417.2384783999296,417.6881961999461,417.2384783999296,417.6881961999461,417.2384783999296,417.6881961999461,417.2384783999296,417.6881961999461,417.65480769996066,418.15550889994483,417.65480769996066,418.15550889994483,417.65480769996066,418.15550889994483,417.65480769996066,418.15550889994483,417.65480769996066,418.15550889994483,417.65480769996066,418.15550889994483,417.65480769996066,418.15550889994483,417.65480769996066,418.15550889994483,417.2384783999296,None,418.15550889994483,420.15917809994426,0.44000000000000017,420.1753030999098,None,420.9265444999328,None,,,,,,,[1.9962963],3.950000000000003,0.7407407407407407,11016,001,2024_Jan_04_1324,MFTM_A_new1021,2021.2.3,59.892684252114016,
,,,,,,,,stim/Instruction_adaptive.png,conditions/adaptive.xlsx,test,-0.6,-0.6,-0.6,0.6,0.6,left,L,,,,,0,1,1,1,0,54,54,77,,,,,,,,,,,,,,,,,,,,,,,,,,,,,,,,,,,,,,,,,,,,421.42771819990594,None,left,1,1.746532200020738,421.9286044999026,422.86319780000485,421.9286044999026,422.36266609991435,421.9286044999026,422.36266609991435,421.9286044999026,422.36266609991435,421.9286044999026,422.36266609991435,421.9286044999026,422.36266609991435,422.34515209996607,422.8464911999181,422.34515209996607,422.8464911999181,422.34515209996607,422.8464911999181,422.34515209996607,422.8464911999181,422.34515209996607,422.8464911999181,422.34515209996607,422.8464911999181,422.34515209996607,422.8464911999181,422.34515209996607,422.8464911999181,421.9286044999026,None,422.8464911999181,424.8496497999877,0.43000000000000016,424.8655866999179,None,425.6174037999008,None,,,,,,,[1.99763636],3.990000000000003,0.7454545454545455,11016,001,2024_Jan_04_1324,MFTM_A_new1021,2021.2.3,59.892684252114016,
,,,,,,,,stim/Instruction_adaptive.png,conditions/adaptive.xlsx,test,0.6,0.6,0.6,-0.6,-0.6,right,R,,,,,0,1,1,1,0,55,55,28,,,,,,,,,,,,,,,,,,,,,,,,,,,,,,,,,,,,,,,,,,,,426.1183754999656,None,right,1,1.4181716999737546,426.6179828000022,427.53657829994336,426.6179828000022,427.03570039989427,426.6179828000022,427.03570039989427,426.6179828000022,427.03570039989427,426.6179828000022,427.03570039989427,426.6179828000022,427.03570039989427,427.0199888999341,427.5200975999469,427.0199888999341,427.5200975999469,427.0199888999341,427.5200975999469,427.0199888999341,427.5200975999469,427.0199888999341,427.5200975999469,427.0199888999341,427.5200975999469,427.0199888999341,427.5200975999469,427.0199888999341,427.5200975999469,426.6179828000022,None,427.5200975999469,429.5231385999359,0.41000000000000014,429.539005599916,None,430.29023199994117,None,,,,,,,[1.99928571],4.020000000000003,0.75,11016,001,2024_Jan_04_1324,MFTM_A_new1021,2021.2.3,59.892684252114016,
,,,,,,,,stim/Instruction_adaptive.png,conditions/adaptive.xlsx,test,0.6,0.6,0.6,-0.6,-0.6,right,R,,,,,0,1,1,1,0,56,56,32,,,,,,,,,,,,,,,,,,,,,,,,,,,,,,,,,,,,,,,,,,,,430.7911123998929,None,left,0,1.5986896000104025,431.29246589995455,432.2107472999487,431.29246589995455,431.709056599997,431.29246589995455,431.709056599997,431.29246589995455,431.709056599997,431.29246589995455,431.709056599997,431.29246589995455,431.709056599997,431.69239669991657,432.193306799978,431.69239669991657,432.193306799978,431.69239669991657,432.193306799978,431.69239669991657,432.193306799978,431.69239669991657,432.193306799978,431.69239669991657,432.193306799978,431.69239669991657,432.193306799978,431.69239669991657,432.193306799978,431.29246589995455,None,432.193306799978,434.19619119993877,0.41000000000000014,434.21270159992855,None,434.9645944999065,None,,,,,,,[2.00087719],3.920000000000003,0.7368421052631579,11016,001,2024_Jan_04_1324,MFTM_A_new1021,2021.2.3,59.892684252114016,
,,,,,,,,stim/Instruction_adaptive.png,conditions/adaptive.xlsx,test,0.6,0.6,0.6,-0.6,-0.6,right,R,,,,,0,1,1,1,0,57,57,4,,,,,,,,,,,,,,,,,,,,,,,,,,,,,,,,,,,,,,,,,,,,435.46468219999224,None,right,1,1.501414299942553,435.96584259998053,436.9009222999448,435.96584259998053,436.3999973000027,435.96584259998053,436.3999973000027,435.96584259998053,436.3999973000027,435.96584259998053,436.3999973000027,435.96584259998053,436.3999973000027,436.3833420999581,436.88418049993925,436.3833420999581,436.88418049993925,436.3833420999581,436.88418049993925,436.3833420999581,436.88418049993925,436.3833420999581,436.88418049993925,436.3833420999581,436.88418049993925,436.3833420999581,436.88418049993925,436.3833420999581,436.88418049993925,435.96584259998053,None,436.88418049993925,438.8872708999552,0.43000000000000016,438.9038809000049,None,439.65419919998385,None,,,,,,,[2.00206897],3.950000000000003,0.7413793103448276,11016,001,2024_Jan_04_1324,MFTM_A_new1021,2021.2.3,59.892684252114016,
,,,,,,,,stim/Instruction_adaptive.png,conditions/adaptive.xlsx,test,-0.6,-0.6,-0.6,0.6,0.6,left,L,,,,,0,1,1,1,0,58,58,21,,,,,,,,,,,,,,,,,,,,,,,,,,,,,,,,,,,,,,,,,,,,440.1556403998984,None,left,1,1.0032976000802591,440.6556315999478,441.590502899955,440.6556315999478,441.0911556999199,440.6556315999478,441.0911556999199,440.6556315999478,441.0911556999199,440.6556315999478,441.0911556999199,440.6556315999478,441.0911556999199,441.07394149992615,441.574284399976,441.07394149992615,441.574284399976,441.07394149992615,441.574284399976,441.07394149992615,441.574284399976,441.07394149992615,441.574284399976,441.07394149992615,441.574284399976,441.07394149992615,441.574284399976,441.07394149992615,441.574284399976,440.6556315999478,None,441.574284399976,443.5772439999273,0.43000000000000016,443.5939719999442,None,444.3445656999247,None,,,,,,,[2.00322034],3.990000000000003,0.7457627118644068,11016,001,2024_Jan_04_1324,MFTM_A_new1021,2021.2.3,59.892684252114016,
,,,,,,,,stim/Instruction_adaptive.png,conditions/adaptive.xlsx,test,0.6,0.6,0.6,-0.6,-0.6,right,R,,,,,0,1,1,1,0,59,59,6,,,,,,,,,,,,,,,,,,,,,,,,,,,,,,,,,,,,,,,,,,,,444.84609309991356,None,right,1,1.1055215999949723,445.3461586999474,446.26382799993735,445.3461586999474,445.7639048999408,445.3461586999474,445.7639048999408,445.3461586999474,445.7639048999408,445.3461586999474,445.7639048999408,445.3461586999474,445.7639048999408,445.74644389993045,446.2484675999731,445.74644389993045,446.2484675999731,445.74644389993045,446.2484675999731,445.74644389993045,446.2484675999731,445.74644389993045,446.2484675999731,445.74644389993045,446.2484675999731,445.74644389993045,446.2484675999731,445.74644389993045,446.2484675999731,445.3461586999474,None,446.2484675999731,None,0.41000000000000014,448.2668531999225,None,449.0188765999628,None,,,,,,,[2.00466667],4.020000000000003,0.75,11016,001,2024_Jan_04_1324,MFTM_A_new1021,2021.2.3,59.892684252114016,
,,,,,,,,stim/Instruction_adaptive.png,conditions/adaptive.xlsx,test,0.6,0.6,0.6,-0.6,-0.6,right,R,,,,,0,1,1,1,0,60,60,78,,,,,,,,,,,,,,,,,,,,,,,,,,,,,,,,,,,,,,,,,,,,449.51946199999657,None,right,1,1.503972899983637,450.01956549996976,450.9381685999688,450.01956549996976,450.4376103999093,450.01956549996976,450.4376103999093,450.01956549996976,450.4376103999093,450.01956549996976,450.4376103999093,450.01956549996976,450.4376103999093,450.4201420999598,450.9207994999597,450.4201420999598,450.9207994999597,450.4201420999598,450.9207994999597,450.4201420999598,450.9207994999597,450.4201420999598,450.9207994999597,450.4201420999598,450.9207994999597,450.4201420999598,450.9207994999597,450.4201420999598,450.9207994999597,450.01956549996976,None,450.9048140000086,452.9240609999979,0.41000000000000014,452.9405463999137,None,453.69169999996666,None,,,,,,,[2.00606557],4.050000000000003,0.7540983606557377,11016,001,2024_Jan_04_1324,MFTM_A_new1021,2021.2.3,59.892684252114016,
,,,,,,,,stim/Instruction_adaptive.png,conditions/adaptive.xlsx,test,-0.6,-0.6,-0.6,0.6,0.6,left,L,,,,,0,1,1,1,0,61,61,5,,,,,,,,,,,,,,,,,,,,,,,,,,,,,,,,,,,,,,,,,,,,454.19220970000606,None,left,1,0.9985739999683574,454.693092099973,455.595142899896,454.693092099973,455.0940001999261,454.693092099973,455.0940001999261,454.693092099973,455.0940001999261,454.693092099973,455.0940001999261,454.693092099973,455.0940001999261,455.0783275999129,455.5784011000069,455.0783275999129,455.5784011000069,455.0783275999129,455.5784011000069,455.0783275999129,455.5784011000069,455.0783275999129,455.5784011000069,455.0783275999129,455.5784011000069,455.0783275999129,455.5784011000069,455.0783275999129,455.5784011000069,454.693092099973,None,455.5784011000069,457.59820539993234,0.40000000000000013,457.6148615999846,None,458.3656801999314,None,,,,,,,[2.00758065],4.080000000000004,0.7580645161290323,11016,001,2024_Jan_04_1324,MFTM_A_new1021,2021.2.3,59.892684252114016,
,,,,,,,,stim/Instruction_adaptive.png,conditions/adaptive.xlsx,test,-0.6,-0.6,-0.6,0.6,0.6,left,L,,,,,0,1,1,1,0,62,62,89,,,,,,,,,,,,,,,,,,,,,,,,,,,,,,,,,,,,,,,,,,,,458.86577859998215,None,right,0,1.9169811999890953,459.3666894999333,460.2686807999853,459.3666894999333,459.76735959993675,459.3666894999333,459.76735959993675,459.3666894999333,459.76735959993675,459.3666894999333,459.76735959993675,459.3666894999333,459.76735959993675,459.7346517998958,460.23464569996577,459.7346517998958,460.23464569996577,459.7346517998958,460.23464569996577,459.7346517998958,460.23464569996577,459.7346517998958,460.23464569996577,459.7346517998958,460.23464569996577,459.7346517998958,460.23464569996577,459.7346517998958,460.23464569996577,459.3666894999333,None,460.23464569996577,462.2550459000049,0.3900000000000001,462.2704573000083,None,463.02292839996517,None,,,,,,,[2.00920635],3.990000000000003,0.746031746031746,11016,001,2024_Jan_04_1324,MFTM_A_new1021,2021.2.3,59.892684252114016,
,,,,,,,,stim/Instruction_adaptive.png,conditions/adaptive.xlsx,test,0.6,0.6,0.6,-0.6,-0.6,right,R,,,,,0,1,1,1,0,63,63,62,,,,,,,,,,,,,,,,,,,,,,,,,,,,,,,,,,,,,,,,,,,,463.5231469999999,None,right,1,0.9558540000580251,464.02339260000736,464.9423984999303,464.02339260000736,464.4406812998932,464.02339260000736,464.4406812998932,464.02339260000736,464.4406812998932,464.02339260000736,464.4406812998932,464.02339260000736,464.4406812998932,464.4240987999365,464.92561349994503,464.4240987999365,464.92561349994503,464.4240987999365,464.92561349994503,464.4240987999365,464.92561349994503,464.4240987999365,464.92561349994503,464.4240987999365,464.92561349994503,464.4240987999365,464.92561349994503,464.4240987999365,464.92561349994503,464.02339260000736,None,464.92561349994503,None,0.41000000000000014,466.9444449999137,None,467.6965775999706,None,,,,,,,[2.01046875],4.020000000000003,0.75,11016,001,2024_Jan_04_1324,MFTM_A_new1021,2021.2.3,59.892684252114016,
,,,,,,,,stim/Instruction_adaptive.png,conditions/adaptive.xlsx,test,0.6,0.6,0.6,-0.6,-0.6,right,R,,,,,0,1,1,1,0,64,64,20,,,,,,,,,,,,,,,,,,,,,,,,,,,,,,,,,,,,,,,,,,,,468.19720749999397,None,left,0,2.073970100027509,468.69739869993646,469.61608549999073,468.69739869993646,469.1156391999684,468.69739869993646,469.1156391999684,468.69739869993646,469.1156391999684,468.69739869993646,469.1156391999684,468.69739869993646,469.1156391999684,469.09841259999666,469.5992261999054,469.09841259999666,469.5992261999054,469.09841259999666,469.5992261999054,469.09841259999666,469.5992261999054,469.09841259999666,469.5992261999054,469.09841259999666,469.5992261999054,469.09841259999666,469.5992261999054,469.09841259999666,469.5992261999054,468.69739869993646,None,469.5992261999054,None,0.41000000000000014,471.61826619994827,None,472.3696637999965,None,,,,,,,[2.01169231],3.9300000000000033,0.7384615384615385,11016,001,2024_Jan_04_1324,MFTM_A_new1021,2021.2.3,59.892684252114016,
,,,,,,,,stim/Instruction_adaptive.png,conditions/adaptive.xlsx,test,-0.6,-0.6,-0.6,0.6,0.6,left,L,,,,,0,1,1,1,0,65,65,45,,,,,,,,,,,,,,,,,,,,,,,,,,,,,,,,,,,,,,,,,,,,472.87064370000735,None,left,1,0.8651228001108393,473.3706378999632,474.30531759990845,473.3706378999632,473.8047427999554,473.3706378999632,473.8047427999554,473.3706378999632,473.8047427999554,473.3706378999632,473.8047427999554,473.3706378999632,473.8047427999554,473.7880210999865,474.2886621999787,473.7880210999865,474.2886621999787,473.7880210999865,474.2886621999787,473.7880210999865,474.2886621999787,473.7880210999865,474.2886621999787,473.7880210999865,474.2886621999787,473.7880210999865,474.2886621999787,473.7880210999865,474.2886621999787,473.3706378999632,None,474.2886621999787,476.30825519992504,0.43000000000000016,476.32499609992374,None,477.07742939994205,None,,,,,,,[2.01257576],3.960000000000003,0.7424242424242424,11016,001,2024_Jan_04_1324,MFTM_A_new1021,2021.2.3,59.892684252114016,
,,,,,,,,stim/Instruction_adaptive.png,conditions/adaptive.xlsx,test,0.6,0.6,0.6,-0.6,-0.6,right,R,,,,,0,1,1,1,0,66,66,84,,,,,,,,,,,,,,,,,,,,,,,,,,,,,,,,,,,,,,,,,,,,477.5769379999256,None,right,1,0.9811562000541016,478.0783745999215,479.01338819996454,478.0783745999215,478.5116721999366,478.0783745999215,478.5116721999366,478.0783745999215,478.5116721999366,478.0783745999215,478.5116721999366,478.0783745999215,478.5116721999366,478.47850849991664,478.9798092999263,478.47850849991664,478.9798092999263,478.47850849991664,478.9798092999263,478.47850849991664,478.9798092999263,478.47850849991664,478.9798092999263,478.47850849991664,478.9798092999263,478.47850849991664,478.9798092999263,478.47850849991664,478.9798092999263,478.0783745999215,None,478.9798092999263,480.9995391999837,0.42000000000000015,481.0154855999863,None,481.76662919996306,None,,,,,,,[2.01358209],3.990000000000003,0.746268656716418,11016,001,2024_Jan_04_1324,MFTM_A_new1021,2021.2.3,59.892684252114016,
,,,,,,,,stim/Instruction_adaptive.png,conditions/adaptive.xlsx,test,-0.6,-0.6,-0.6,0.6,0.6,left,L,,,,,0,1,1,1,0,67,67,1,,,,,,,,,,,,,,,,,,,,,,,,,,,,,,,,,,,,,,,,,,,,482.26728539995383,None,left,1,0.810896800016053,482.7681353999069,483.68595499999356,482.7681353999069,483.1852074000053,482.7681353999069,483.1852074000053,482.7681353999069,483.1852074000053,482.7681353999069,483.1852074000053,482.7681353999069,483.1852074000053,483.1687810999574,483.66927339998074,483.1687810999574,483.66927339998074,483.1687810999574,483.66927339998074,483.1687810999574,483.66927339998074,483.1687810999574,483.66927339998074,483.1687810999574,483.66927339998074,483.1687810999574,483.66927339998074,483.1687810999574,483.66927339998074,482.7681353999069,None,483.66927339998074,485.68898209999315,0.41000000000000014,485.70693230000325,None,486.4567041998962,None,,,,,,,[2.01470588],4.020000000000003,0.75,11016,001,2024_Jan_04_1324,MFTM_A_new1021,2021.2.3,59.892684252114016,
,,,,,,,,stim/Instruction_adaptive.png,conditions/adaptive.xlsx,test,-0.6,-0.6,-0.6,0.6,0.6,left,L,,,,,0,1,1,1,0,68,68,83,,,,,,,,,,,,,,,,,,,,,,,,,,,,,,,,,,,,,,,,,,,,486.95746009994764,None,left,1,0.8562476999359205,487.4589123999467,488.3772633000044,487.4589123999467,487.87648729991633,487.4589123999467,487.87648729991633,487.4589123999467,487.87648729991633,487.4589123999467,487.87648729991633,487.4589123999467,487.87648729991633,487.85883459995966,488.3605009999592,487.85883459995966,488.3605009999592,487.85883459995966,488.3605009999592,487.85883459995966,488.3605009999592,487.85883459995966,488.3605009999592,487.85883459995966,488.3605009999592,487.85883459995966,488.3605009999592,487.85883459995966,488.3605009999592,487.4589123999467,None,488.34349969995674,490.36270339996554,0.41000000000000014,490.39649739989545,None,491.1478074999759,None,,,,,,,[2.0157971],4.050000000000003,0.7536231884057971,11016,001,2024_Jan_04_1324,MFTM_A_new1021,2021.2.3,59.892684252114016,
,,,,,,,,stim/Instruction_adaptive.png,conditions/adaptive.xlsx,test,0.6,0.6,0.6,-0.6,-0.6,right,R,,,,,0,1,1,1,0,69,69,14,,,,,,,,,,,,,,,,,,,,,,,,,,,,,,,,,,,,,,,,,,,,491.6484080000082,None,left,0,1.79872439999599,492.14855949999765,493.0499234999297,492.14855949999765,492.54973639990203,492.14855949999765,492.54973639990203,492.14855949999765,492.54973639990203,492.14855949999765,492.54973639990203,492.14855949999765,492.54973639990203,492.5325712999329,493.0338985999115,492.5325712999329,493.0338985999115,492.5325712999329,493.0338985999115,492.5325712999329,493.0338985999115,492.5325712999329,493.0338985999115,492.5325712999329,493.0338985999115,492.5325712999329,493.0338985999115,492.5325712999329,493.0338985999115,492.14855949999765,None,493.0338985999115,495.0539203999797,0.40000000000000013,495.0697017000057,None,495.8207925999304,None,,,,,,,[2.017],3.9700000000000033,0.7428571428571429,11016,001,2024_Jan_04_1324,MFTM_A_new1021,2021.2.3,59.892684252114016,
,,,,,,,,stim/Instruction_adaptive.png,conditions/adaptive.xlsx,test,-0.6,-0.6,-0.6,0.6,0.6,left,L,,,,,0,1,1,1,0,70,70,23,,,,,,,,,,,,,,,,,,,,,,,,,,,,,,,,,,,,,,,,,,,,496.32211569999345,None,left,1,0.6850660999771208,496.82285509991925,497.75792699994054,496.82285509991925,497.25662819994614,496.82285509991925,497.25662819994614,496.82285509991925,497.25662819994614,496.82285509991925,497.25662819994614,496.82285509991925,497.25662819994614,497.2227873998927,497.7242239000043,497.2227873998927,497.7242239000043,497.2227873998927,497.7242239000043,497.2227873998927,497.7242239000043,497.2227873998927,497.7242239000043,497.2227873998927,497.7242239000043,497.2227873998927,497.7242239000043,497.2227873998927,497.7242239000043,496.82285509991925,None,497.7242239000043,499.7439706999576,0.42000000000000015,499.7597567999037,None,500.5110273999162,None,,,,,,,[2.01788732],4.0000000000000036,0.7464788732394366,11016,001,2024_Jan_04_1324,MFTM_A_new1021,2021.2.3,59.892684252114016,
,,,,,,,,stim/Instruction_adaptive.png,conditions/adaptive.xlsx,test,0.6,0.6,0.6,-0.6,-0.6,right,R,,,,,0,1,1,1,0,71,71,58,,,,,,,,,,,,,,,,,,,,,,,,,,,,,,,,,,,,,,,,,,,,501.0120659999084,None,right,1,2.0268729999661446,501.512369700009,502.4306341999909,501.512369700009,501.929837499978,501.512369700009,501.929837499978,501.512369700009,501.929837499978,501.512369700009,501.929837499978,501.512369700009,501.929837499978,501.9137087999843,502.4139697999926,501.9137087999843,502.4139697999926,501.9137087999843,502.4139697999926,501.9137087999843,502.4139697999926,501.9137087999843,502.4139697999926,501.9137087999843,502.4139697999926,501.9137087999843,502.4139697999926,501.9137087999843,502.4139697999926,501.512369700009,None,502.4139697999926,504.43380629993044,0.41000000000000014,504.4501976999454,None,505.20188529998995,None,,,,,,,[2.01888889],4.020000000000003,0.75,11016,001,2024_Jan_04_1324,MFTM_A_new1021,2021.2.3,59.892684252114016,
,,,,,,,,stim/Instruction_adaptive.png,conditions/adaptive.xlsx,test,0.6,0.6,0.6,-0.6,-0.6,right,R,,,,,0,1,1,1,0,72,72,8,,,,,,,,,,,,,,,,,,,,,,,,,,,,,,,,,,,,,,,,,,,,505.703337199986,None,right,1,0.9607539999997243,506.2025837999536,507.1212367999833,506.2025837999536,506.6206732999999,506.2025837999536,506.6206732999999,506.2025837999536,506.6206732999999,506.2025837999536,506.6206732999999,506.2025837999536,506.6206732999999,506.6031932999613,507.1048236999195,506.6031932999613,507.1048236999195,506.6031932999613,507.1048236999195,506.6031932999613,507.1048236999195,506.6031932999613,507.1048236999195,506.6031932999613,507.1048236999195,506.6031932999613,507.1048236999195,506.6031932999613,507.1048236999195,506.2025837999536,None,507.1048236999195,509.12475039996207,0.41000000000000014,509.14113119989634,None,509.8921291999286,None,,,,,,,[2.01986301],4.050000000000003,0.7534246575342466,11016,001,2024_Jan_04_1324,MFTM_A_new1021,2021.2.3,59.892684252114016,
,,,,,,,,stim/Instruction_adaptive.png,conditions/adaptive.xlsx,test,-0.6,-0.6,-0.6,0.6,0.6,left,L,,,,,0,1,1,1,0,73,73,17,,,,,,,,,,,,,,,,,,,,,,,,,,,,,,,,,,,,,,,,,,,,510.3925351999933,None,left,1,1.2301457000430673,510.8934331999626,511.7943153999513,510.8934331999626,511.29366589989513,510.8934331999626,511.29366589989513,510.8934331999626,511.29366589989513,510.8934331999626,511.29366589989513,510.8934331999626,511.29366589989513,511.2769450999331,511.7776460999157,511.2769450999331,511.7776460999157,511.2769450999331,511.7776460999157,511.2769450999331,511.7776460999157,511.2769450999331,511.7776460999157,511.2769450999331,511.7776460999157,511.2769450999331,511.7776460999157,511.2769450999331,511.7776460999157,510.8934331999626,None,511.7776460999157,None,0.40000000000000013,513.8145845999243,None,514.5658661999041,None,,,,,,,[2.02094595],4.080000000000004,0.7567567567567568,11016,001,2024_Jan_04_1324,MFTM_A_new1021,2021.2.3,59.892684252114016,
,,,,,,,,stim/Instruction_adaptive.png,conditions/adaptive.xlsx,test,0.6,0.6,0.6,-0.6,-0.6,right,R,,,,,0,1,1,1,0,74,74,48,,,,,,,,,,,,,,,,,,,,,,,,,,,,,,,,,,,,,,,,,,,,515.0664161999011,None,left,0,1.5010321999434382,515.5664126999909,516.4677681999747,515.5664126999909,515.9673175999196,515.5664126999909,515.9673175999196,515.5664126999909,515.9673175999196,515.5664126999909,515.9673175999196,515.5664126999909,515.9673175999196,515.9349113999633,516.434636299964,515.9349113999633,516.434636299964,515.9349113999633,516.434636299964,515.9349113999633,516.434636299964,515.9349113999633,516.434636299964,515.9349113999633,516.434636299964,515.9349113999633,516.434636299964,515.9349113999633,516.434636299964,515.5664126999909,None,516.434636299964,518.4716298999265,0.3900000000000001,518.4873807999538,None,519.2393737999955,None,,,,,,,[2.02213333],4.0000000000000036,0.7466666666666667,11016,001,2024_Jan_04_1324,MFTM_A_new1021,2021.2.3,59.892684252114016,
,,,,,,,,stim/Instruction_adaptive.png,conditions/adaptive.xlsx,test,0.6,0.6,0.6,-0.6,-0.6,right,R,,,,,0,1,1,1,0,75,75,70,,,,,,,,,,,,,,,,,,,,,,,,,,,,,,,,,,,,,,,,,,,,519.7400935000041,None,right,1,1.0425475999945775,520.2405289999442,521.1588778999867,520.2405289999442,520.6576376999728,520.2405289999442,520.6576376999728,520.2405289999442,520.6576376999728,520.2405289999442,520.6576376999728,520.2405289999442,520.6576376999728,520.6414991999045,521.1424911000067,520.6414991999045,521.1424911000067,520.6414991999045,521.1424911000067,520.6414991999045,521.1424911000067,520.6414991999045,521.1424911000067,520.6414991999045,521.1424911000067,520.6414991999045,521.1424911000067,520.6414991999045,521.1424911000067,520.2405289999442,None,521.1424911000067,None,0.41000000000000014,523.177891899948,None,523.9296663999557,None,,,,,,,[2.02302632],4.030000000000003,0.75,11016,001,2024_Jan_04_1324,MFTM_A_new1021,2021.2.3,59.892684252114016,
,,,,,,,,stim/Instruction_adaptive.png,conditions/adaptive.xlsx,test,0.6,0.6,0.6,-0.6,-0.6,right,R,,,,,0,1,1,1,0,76,76,76,,,,,,,,,,,,,,,,,,,,,,,,,,,,,,,,,,,,,,,,,,,,524.4300344999647,None,left,0,0.9445744999684393,524.930772199994,525.8318100000033,524.930772199994,525.3312005999032,524.930772199994,525.3312005999032,524.930772199994,525.3312005999032,524.930772199994,525.3312005999032,524.930772199994,525.3312005999032,525.3149674999295,525.8150784999598,525.3149674999295,525.8150784999598,525.3149674999295,525.8150784999598,525.3149674999295,525.8150784999598,525.3149674999295,525.8150784999598,525.3149674999295,525.8150784999598,525.3149674999295,525.8150784999598,525.3149674999295,525.8150784999598,524.930772199994,None,525.8150784999598,527.8519689999521,0.40000000000000013,527.8675987999886,None,528.6201008999487,None,,,,,,,[2.02402597],3.950000000000003,0.7402597402597403,11016,001,2024_Jan_04_1324,MFTM_A_new1021,2021.2.3,59.892684252114016,
,,,,,,,,stim/Instruction_adaptive.png,conditions/adaptive.xlsx,test,0.6,0.6,0.6,-0.6,-0.6,right,R,,,,,0,1,1,1,0,77,77,74,,,,,,,,,,,,,,,,,,,,,,,,,,,,,,,,,,,,,,,,,,,,529.1207468999783,None,right,1,1.4302280999254435,529.620830199914,530.5557869999902,529.620830199914,530.0557358999504,529.620830199914,530.0557358999504,529.620830199914,530.0557358999504,529.620830199914,530.0557358999504,529.620830199914,530.0557358999504,530.0387753999094,530.5389639999485,530.0387753999094,530.5389639999485,530.0387753999094,530.5389639999485,530.0387753999094,530.5389639999485,530.0387753999094,530.5389639999485,530.0387753999094,530.5389639999485,530.0387753999094,530.5389639999485,530.0387753999094,530.5389639999485,529.620830199914,None,530.5389639999485,None,0.43000000000000016,532.5751896000002,None,533.3265119999414,None,,,,,,,[2.02461538],3.980000000000003,0.7435897435897436,11016,001,2024_Jan_04_1324,MFTM_A_new1021,2021.2.3,59.892684252114016,
,,,,,,,,stim/Instruction_adaptive.png,conditions/adaptive.xlsx,test,-0.6,-0.6,-0.6,0.6,0.6,left,L,,,,,0,1,1,1,0,78,78,59,,,,,,,,,,,,,,,,,,,,,,,,,,,,,,,,,,,,,,,,,,,,533.8269775999943,None,left,1,0.7952316999435425,534.3279290999053,535.2461887999671,534.3279290999053,534.7627196999965,534.3279290999053,534.7627196999965,534.3279290999053,534.7627196999965,534.3279290999053,534.7627196999965,534.3279290999053,534.7627196999965,534.7284757999005,535.2302901999792,534.7284757999005,535.2302901999792,534.7284757999005,535.2302901999792,534.7284757999005,535.2302901999792,534.7284757999005,535.2302901999792,534.7284757999005,535.2302901999792,534.7284757999005,535.2302901999792,534.7284757999005,535.2302901999792,534.3279290999053,None,535.2302901999792,537.2654083999805,0.42000000000000015,537.2827438999666,None,538.0340424999595,None,,,,,,,[2.02531646],4.0000000000000036,0.7468354430379747,11016,001,2024_Jan_04_1324,MFTM_A_new1021,2021.2.3,59.892684252114016,
,,,,,,,,stim/Instruction_adaptive.png,conditions/adaptive.xlsx,test,-0.6,-0.6,-0.6,0.6,0.6,left,L,,,,,0,1,1,1,0,79,79,69,,,,,,,,,,,,,,,,,,,,,,,,,,,,,,,,,,,,,,,,,,,,538.5339377999771,None,left,1,1.3128896000562236,539.0345268999226,539.9534918999998,539.0345268999226,539.4532203999115,539.0345268999226,539.4532203999115,539.0345268999226,539.4532203999115,539.0345268999226,539.4532203999115,539.0345268999226,539.4532203999115,539.4189181999536,539.9195422999328,539.4189181999536,539.9195422999328,539.4189181999536,539.9195422999328,539.4189181999536,539.9195422999328,539.4189181999536,539.9195422999328,539.4189181999536,539.9195422999328,539.4189181999536,539.9195422999328,539.4189181999536,539.9195422999328,539.0345268999226,None,539.9195422999328,541.9559875999112,0.41000000000000014,541.9722745999461,None,542.7236365999561,None,,,,,,,[2.026125],4.030000000000003,0.75,11016,001,2024_Jan_04_1324,MFTM_A_new1021,2021.2.3,59.892684252114016,
,,,,,,,,stim/Instruction_adaptive.png,conditions/adaptive.xlsx,test,0.6,0.6,0.6,-0.6,-0.6,right,R,,,,,0,1,1,1,0,80,80,96,,,,,,,,,,,,,,,,,,,,,,,,,,,,,,,,,,,,,,,,,,,,543.2252164999954,None,left,0,1.4218117999844253,543.7252632000018,544.6270694999257,543.7252632000018,544.1262715999037,543.7252632000018,544.1262715999037,543.7252632000018,544.1262715999037,543.7252632000018,544.1262715999037,543.7252632000018,544.1262715999037,544.1092797999736,544.6103568999097,544.1092797999736,544.6103568999097,544.1092797999736,544.6103568999097,544.1092797999736,544.6103568999097,544.1092797999736,544.6103568999097,544.1092797999736,544.6103568999097,544.1092797999736,544.6103568999097,544.1092797999736,544.6103568999097,543.7252632000018,None,544.6103568999097,546.6469072999898,0.40000000000000013,546.6627709999448,None,547.4144684999483,None,,,,,,,[2.02703704],3.950000000000003,0.7407407407407407,11016,001,2024_Jan_04_1324,MFTM_A_new1021,2021.2.3,59.892684252114016,
,,,,,,,,stim/Instruction_adaptive.png,conditions/adaptive.xlsx,test,-0.6,-0.6,-0.6,0.6,0.6,left,L,,,,,0,1,1,1,0,81,81,39,,,,,,,,,,,,,,,,,,,,,,,,,,,,,,,,,,,,,,,,,,,,547.9149317999836,None,right,0,1.7640646999934688,548.4151425999589,549.3512062999653,548.4151425999589,548.8499683999689,548.4151425999589,548.8499683999689,548.4151425999589,548.8499683999689,548.4151425999589,548.8499683999689,548.4151425999589,548.8499683999689,548.8324960999889,549.3343446999788,548.8324960999889,549.3343446999788,548.8324960999889,549.3343446999788,548.8324960999889,549.3343446999788,548.8324960999889,549.3343446999788,548.8324960999889,549.3343446999788,548.8324960999889,549.3343446999788,548.8324960999889,549.3343446999788,548.4151425999589,None,549.3343446999788,551.3699262998998,0.43000000000000016,551.3869102000026,None,552.1380094999913,None,,,,,,,[2.02756098],3.880000000000003,0.7317073170731707,11016,001,2024_Jan_04_1324,MFTM_A_new1021,2021.2.3,59.892684252114016,
,,,,,,,,stim/Instruction_adaptive.png,conditions/adaptive.xlsx,test,0.6,0.6,0.6,-0.6,-0.6,right,R,,,,,0,1,1,1,0,82,82,0,,,,,,,,,,,,,,,,,,,,,,,,,,,,,,,,,,,,,,,,,,,,552.638537599938,None,left,0,1.4568519000895321,553.1384935999522,554.0902509998996,553.1384935999522,553.5897158998996,553.1384935999522,553.5897158998996,553.1384935999522,553.5897158998996,553.1384935999522,553.5897158998996,553.1384935999522,553.5897158998996,553.5728422999382,554.0736174999038,553.5728422999382,554.0736174999038,553.5728422999382,554.0736174999038,553.5728422999382,554.0736174999038,553.5728422999382,554.0736174999038,553.5728422999382,554.0736174999038,553.5728422999382,554.0736174999038,553.5728422999382,554.0736174999038,553.1384935999522,None,554.0736174999038,556.1100525999209,0.4500000000000002,556.127701099962,None,556.8791848999681,None,,,,,,,[2.02783133],3.800000000000003,0.7228915662650602,11016,001,2024_Jan_04_1324,MFTM_A_new1021,2021.2.3,59.892684252114016,
,,,,,,,,stim/Instruction_adaptive.png,conditions/adaptive.xlsx,test,0.6,0.6,0.6,-0.6,-0.6,right,R,,,,,0,1,1,1,0,83,83,18,,,,,,,,,,,,,,,,,,,,,,,,,,,,,,,,,,,,,,,,,,,,557.3792932999786,None,left,0,3.043926899903454,557.8794332999969,558.8640956999734,557.8794332999969,558.3633013999788,557.8794332999969,558.3633013999788,557.8794332999969,558.3633013999788,557.8794332999969,558.3633013999788,557.8794332999969,558.3633013999788,558.3305319999345,558.8314252999844,558.3305319999345,558.8314252999844,558.3305319999345,558.8314252999844,558.3305319999345,558.8314252999844,558.3305319999345,558.8314252999844,558.3305319999345,558.8314252999844,558.3305319999345,558.8314252999844,558.3305319999345,558.8314252999844,557.8794332999969,None,558.8314252999844,560.9505363999633,0.4700000000000002,560.9673765999032,None,561.7193904999876,None,,,,,,,[2.02785714],3.720000000000003,0.7142857142857143,11016,001,2024_Jan_04_1324,MFTM_A_new1021,2021.2.3,59.892684252114016,
,,,,,,,,stim/Instruction_adaptive.png,conditions/adaptive.xlsx,test,-0.6,-0.6,-0.6,0.6,0.6,left,L,,,,,0,1,1,1,0,84,84,95,,,,,,,,,,,,,,,,,,,,,,,,,,,,,,,,,,,,,,,,,,,,562.219482799992,None,left,1,0.8274112000362948,562.7197140000062,563.7221559999743,562.7197140000062,563.220496499911,562.7197140000062,563.220496499911,562.7197140000062,563.220496499911,562.7197140000062,563.220496499911,562.7197140000062,563.220496499911,563.2042353999568,563.7053793999366,563.2042353999568,563.7053793999366,563.2042353999568,563.7053793999366,563.2042353999568,563.7053793999366,563.2042353999568,563.7053793999366,563.2042353999568,563.7053793999366,563.2042353999568,563.7053793999366,563.2042353999568,563.7053793999366,562.7197140000062,None,563.7053793999366,565.7077105999924,0.5000000000000002,565.7243377999403,None,566.4757074000081,None,,,,,,,[[2.]],3.7500000000000027,0.7176470588235294,11016,001,2024_Jan_04_1324,MFTM_A_new1021,2021.2.3,59.892684252114016,
,,,,,,,,stim/Instruction_adaptive.png,conditions/adaptive.xlsx,test,-0.6,-0.6,-0.6,0.6,0.6,left,L,,,,,0,1,1,1,0,85,85,79,,,,,,,,,,,,,,,,,,,,,,,,,,,,,,,,,,,,,,,,,,,,566.976126399939,None,left,1,0.7024215999990702,567.4767160000047,568.4784053999465,567.4767160000047,567.978380799992,567.4767160000047,567.978380799992,567.4767160000047,567.978380799992,567.4767160000047,567.978380799992,567.4767160000047,567.978380799992,567.9442814999493,568.4452111999271,567.9442814999493,568.4452111999271,567.9442814999493,568.4452111999271,567.9442814999493,568.4452111999271,567.9442814999493,568.4452111999271,567.9442814999493,568.4452111999271,567.9442814999493,568.4452111999271,567.9442814999493,568.4452111999271,567.4767160000047,None,568.4452111999271,570.4647978999419,0.4900000000000002,570.4812539999839,None,571.2332910998957,None,,,,,,,[[2.01]],3.770000000000003,0.7209302325581395,11016,001,2024_Jan_04_1324,MFTM_A_new1021,2021.2.3,59.892684252114016,
,,,,,,,,stim/Instruction_adaptive.png,conditions/adaptive.xlsx,test,-0.6,-0.6,-0.6,0.6,0.6,left,L,,,,,0,1,1,1,0,86,86,65,,,,,,,,,,,,,,,,,,,,,,,,,,,,,,,,,,,,,,,,,,,,571.734259699937,None,left,1,0.92081020004116,572.2343217999442,573.2192963999696,572.2343217999442,572.718583199894,572.2343217999442,572.718583199894,572.2343217999442,572.718583199894,572.2343217999442,572.718583199894,572.2343217999442,572.718583199894,572.7014380999608,573.2019727999577,572.7014380999608,573.2019727999577,572.7014380999608,573.2019727999577,572.7014380999608,573.2019727999577,572.7014380999608,573.2019727999577,572.7014380999608,573.2019727999577,572.7014380999608,573.2019727999577,572.7014380999608,573.2019727999577,572.2343217999442,None,573.2019727999577,575.2216038999613,0.4800000000000002,575.2383476999821,None,575.9895461999113,None,,,,,,,[[2.02]],3.800000000000003,0.7241379310344828,11016,001,2024_Jan_04_1324,MFTM_A_new1021,2021.2.3,59.892684252114016,
,,,,,,,,stim/Instruction_adaptive.png,conditions/adaptive.xlsx,test,0.6,0.6,0.6,-0.6,-0.6,right,R,,,,,0,1,1,1,0,87,87,80,,,,,,,,,,,,,,,,,,,,,,,,,,,,,,,,,,,,,,,,,,,,576.4912250000052,None,right,1,0.7084005000069737,576.9909653000068,577.959529899992,576.9909653000068,577.4750103999395,576.9909653000068,577.4750103999395,576.9909653000068,577.4750103999395,576.9909653000068,577.4750103999395,576.9909653000068,577.4750103999395,577.4423902999843,577.9433289999142,577.4423902999843,577.9433289999142,577.4423902999843,577.9433289999142,577.4423902999843,577.9433289999142,577.4423902999843,577.9433289999142,577.4423902999843,577.9433289999142,577.4423902999843,577.9433289999142,577.4423902999843,577.9433289999142,576.9909653000068,None,577.9433289999142,579.9798396999249,0.4700000000000002,579.9955274999375,None,580.7465047999285,None,,,,,,,[2.02727273],3.820000000000003,0.7272727272727273,11016,001,2024_Jan_04_1324,MFTM_A_new1021,2021.2.3,59.892684252114016,
,,,,,,,,stim/Instruction_adaptive.png,conditions/adaptive.xlsx,test,0.6,0.6,0.6,-0.6,-0.6,right,R,,,,,0,1,1,1,0,88,88,44,,,,,,,,,,,,,,,,,,,,,,,,,,,,,,,,,,,,,,,,,,,,581.248154599918,None,left,0,1.1034661000594497,581.7480397999752,582.7338685999857,581.7480397999752,582.2320440999465,581.7480397999752,582.2320440999465,581.7480397999752,582.2320440999465,581.7480397999752,582.2320440999465,581.7480397999752,582.2320440999465,582.1997281999793,582.699269499979,582.1997281999793,582.699269499979,582.1997281999793,582.699269499979,582.1997281999793,582.699269499979,582.1997281999793,582.699269499979,582.1997281999793,582.699269499979,582.1997281999793,582.699269499979,582.1997281999793,582.699269499979,581.7480397999752,None,582.699269499979,584.7359041000018,0.4700000000000002,584.7525297999382,None,585.5035578999668,None,,,,,,,[2.02730337],3.7500000000000027,0.7191011235955056,11016,001,2024_Jan_04_1324,MFTM_A_new1021,2021.2.3,59.892684252114016,
,,,,,,,,stim/Instruction_adaptive.png,conditions/adaptive.xlsx,test,0.6,0.6,0.6,-0.6,-0.6,right,R,,,,,0,1,1,1,0,89,89,52,,,,,,,,,,,,,,,,,,,,,,,,,,,,,,,,,,,,,,,,,,,,586.0053740999429,None,right,1,0.7779275999637321,586.505212899996,587.5065947999246,586.505212899996,587.0058831999777,586.505212899996,587.0058831999777,586.505212899996,587.0058831999777,586.505212899996,587.0058831999777,586.505212899996,587.0058831999777,586.9725776999258,587.4744074000046,586.9725776999258,587.4744074000046,586.9725776999258,587.4744074000046,586.9725776999258,587.4744074000046,586.9725776999258,587.4744074000046,586.9725776999258,587.4744074000046,586.9725776999258,587.4744074000046,586.9725776999258,587.4744074000046,586.505212899996,None,587.4744074000046,589.4928734999849,0.4900000000000002,589.5094121999573,None,590.2608802999603,None,,,,,,,[[2.01]],3.770000000000003,0.7222222222222222,11016,001,2024_Jan_04_1324,MFTM_A_new1021,2021.2.3,59.892684252114016,
,,,,,,,,stim/Instruction_adaptive.png,conditions/adaptive.xlsx,test,-0.6,-0.6,-0.6,0.6,0.6,left,L,,,,,0,1,1,1,0,90,90,55,,,,,,,,,,,,,,,,,,,,,,,,,,,,,,,,,,,,,,,,,,,,590.7610974999843,None,left,1,1.876923599978909,591.2622467000037,592.248022899963,591.2622467000037,591.7465239999583,591.2622467000037,591.7465239999583,591.2622467000037,591.7465239999583,591.2622467000037,591.7465239999583,591.2622467000037,591.7465239999583,591.7294443999417,592.2313314999919,591.7294443999417,592.2313314999919,591.7294443999417,592.2313314999919,591.7294443999417,592.2313314999919,591.7294443999417,592.2313314999919,591.7294443999417,592.2313314999919,591.7294443999417,592.2313314999919,591.7294443999417,592.2313314999919,591.2622467000037,None,592.2313314999919,594.249798099976,0.4800000000000002,594.2665391999763,None,595.0183466000017,None,,,,,,,[[2.02]],3.800000000000003,0.7252747252747253,11016,001,2024_Jan_04_1324,MFTM_A_new1021,2021.2.3,59.892684252114016,
,,,,,,,,stim/Instruction_adaptive.png,conditions/adaptive.xlsx,test,0.6,0.6,0.6,-0.6,-0.6,right,R,,,,,0,1,1,1,0,91,91,56,,,,,,,,,,,,,,,,,,,,,,,,,,,,,,,,,,,,,,,,,,,,595.518485999899,None,right,1,1.4474133999319747,596.0199885999318,597.0048034999054,596.0199885999318,596.5045012999326,596.0199885999318,596.5045012999326,596.0199885999318,596.5045012999326,596.0199885999318,596.5045012999326,596.0199885999318,596.5045012999326,596.4698588999454,596.9713203998981,596.4698588999454,596.9713203998981,596.4698588999454,596.9713203998981,596.4698588999454,596.9713203998981,596.4698588999454,596.9713203998981,596.4698588999454,596.9713203998981,596.4698588999454,596.9713203998981,596.4698588999454,596.9713203998981,596.0199885999318,None,596.9713203998981,599.0077575999312,0.4700000000000002,599.0243129999144,None,599.775871999911,None,,,,,,,[2.02706522],3.820000000000003,0.7282608695652174,11016,001,2024_Jan_04_1324,MFTM_A_new1021,2021.2.3,59.892684252114016,
,,,,,,,,stim/Instruction_adaptive.png,conditions/adaptive.xlsx,test,0.6,0.6,0.6,-0.6,-0.6,right,R,,,,,0,1,1,1,0,92,92,66,,,,,,,,,,,,,,,,,,,,,,,,,,,,,,,,,,,,,,,,,,,,600.2758302999428,None,left,0,1.0109828999266028,600.7762877999339,601.7450529999333,600.7762877999339,601.2609824999236,600.7762877999339,601.2609824999236,600.7762877999339,601.2609824999236,600.7762877999339,601.2609824999236,600.7762877999339,601.2609824999236,601.2276130999671,601.7287496000063,601.2276130999671,601.7287496000063,601.2276130999671,601.7287496000063,601.2276130999671,601.7287496000063,601.2276130999671,601.7287496000063,601.2276130999671,601.7287496000063,601.2276130999671,601.7287496000063,601.2276130999671,601.7287496000063,600.7762877999339,None,601.7287496000063,603.7645398000022,0.4700000000000002,603.7804744999157,None,604.531568299979,None,,,,,,,[2.02709677],3.7500000000000027,0.7204301075268817,11016,001,2024_Jan_04_1324,MFTM_A_new1021,2021.2.3,59.892684252114016,
,,,,,,,,stim/Instruction_adaptive.png,conditions/adaptive.xlsx,test,-0.6,-0.6,-0.6,0.6,0.6,left,L,,,,,0,1,1,1,0,93,93,73,,,,,,,,,,,,,,,,,,,,,,,,,,,,,,,,,,,,,,,,,,,,605.033780699945,None,left,1,0.8064279000973329,605.5333478999091,606.5345384998946,605.5333478999091,606.0349131999537,605.5333478999091,606.0349131999537,605.5333478999091,606.0349131999537,605.5333478999091,606.0349131999537,605.5333478999091,606.0349131999537,606.0015030999202,606.5014247999061,606.0015030999202,606.5014247999061,606.0015030999202,606.5014247999061,606.0015030999202,606.5014247999061,606.0015030999202,606.5014247999061,606.0015030999202,606.5014247999061,606.0015030999202,606.5014247999061,606.0015030999202,606.5014247999061,605.5333478999091,None,606.5014247999061,608.5217941999435,0.4900000000000002,608.5375648000045,None,609.2894979999401,None,,,,,,,[[2.01]],3.780000000000003,0.723404255319149,11016,001,2024_Jan_04_1324,MFTM_A_new1021,2021.2.3,59.892684252114016,
