arrwidth1,arrwidth2,arrwidth3,arrwidth4,arrwidth5,keyb,type,orientation,instruction_image,block_filename,block_type,arrow11,arrow22,arrow33,arrow44,arrow55,keyb_3,orientation3,trials.thisRepN,trials.thisTrialN,trials.thisN,trials.thisIndex,trials_3.thisRepN,trials_3.thisTrialN,trials_3.thisN,trials_3.thisIndex,trials_2.thisRepN,trials_2.thisTrialN,trials_2.thisN,trials_2.thisIndex,welcome.started,welcome.stopped,key_resp.keys,key_resp.rt,key_resp.started,key_resp.stopped,instruction_example.started,instruction_example.stopped,key_resp_3.keys,key_resp_3.rt,key_resp_3.started,key_resp_3.stopped,instruction_task.started,instruction_task.stopped,key_resp_2.keys,key_resp_2.rt,key_resp_2.started,key_resp_2.stopped,text_2.started,text_2.stopped,A1.started,A1.stopped,A2.started,A2.stopped,A3.started,A3.stopped,A4.started,A4.stopped,A5.started,A5.stopped,key_resp_4.keys,key_resp_4.corr,key_resp_4.rt,key_resp_4.started,key_resp_4.stopped,fb.started,fb.stopped,instruction_block.started,instruction_block.stopped,key_resp_8.keys,key_resp_8.rt,key_resp_8.started,key_resp_8.stopped,text_8.started,text_8.stopped,key_resp_9.keys,key_resp_9.corr,key_resp_9.rt,text_5.started,text_5.stopped,A11_3.started,A11_3.stopped,A22_2.started,A22_2.stopped,A33_2.started,A33_2.stopped,A44_2.started,A44_2.stopped,A55_2.started,A55_2.stopped,M1_3.started,M1_3.stopped,M2_2.started,M2_2.stopped,M3_2.started,M3_2.stopped,M4_2.started,M4_2.stopped,M5_2.started,M5_2.stopped,M6_2.started,M6_2.stopped,M7_2.started,M7_2.stopped,M8_2.started,M8_2.stopped,key_resp_9.started,key_resp_9.stopped,fixation.started,fixation.stopped,ET,fb_3.started,fb_3.stopped,text_9.started,text_9.stopped,fb_4.started,fb_4.stopped,text_7.started,text_7.stopped,endtext.started,endtext.stopped,fixation_ITI,CCC,Acc,participant,session,date,expName,psychopyVersion,frameRate,
,,,,,,,,,,,,,,,,,,,,,,,,,,,,,,13.38041380001232,None,space,2.5014751000562683,13.38041380001232,None,,,,,,,,,,,,,,,,,,,,,,,,,,,,,,,,,,,,,,,,,,,,,,,,,,,,,,,,,,,,,,,,,,,,,,,,,,,,,,,,,,,,,,,,,11017,002,2024_Jan_04_1958,MFTM_A_new1021,2021.2.3,59.86543448317001,
,,,,,,,,,,,,,,,,,,,,,,,,,,,,,,,,,,,,15.900796200032346,None,space,1.749145400011912,15.900796200032346,None,,,,,,,,,,,,,,,,,,,,,,,,,,,,,,,,,,,,,,,,,,,,,,,,,,,,,,,,,,,,,,,,,,,,,,,,,,,,,,,,,,,11017,002,2024_Jan_04_1958,MFTM_A_new1021,2021.2.3,59.86543448317001,
,,,,,,,,,,,,,,,,,,,,,,,,,,,,,,,,,,,,,,,,,,17.67015700007323,None,space,1.1564784001093358,17.67015700007323,None,,,,,,,,,,,,,,,,,,,,,,,,,,,,,,,,,,,,,,,,,,,,,,,,,,,,,,,,,,,,,,,,,,,,,,,,,,,,,11017,002,2024_Jan_04_1958,MFTM_A_new1021,2021.2.3,59.86543448317001,
0.6,0.6,0.6,-0.6,-0.6,right,3:2,R,,,,,,,,,,,0,0,0,0,,,,,,,,,,,,,,,,,,,,,,,,,,,18.872299700044096,None,18.872299700044096,None,18.872299700044096,None,18.872299700044096,None,18.872299700044096,None,18.872299700044096,None,right,1,1.977614299976267,18.872299700044096,None,20.89199760009069,None,,,,,,,,,,,,,,,,,,,,,,,,,,,,,,,,,,,,,,,,,,,,,,,,,,,,,,,,,,11017,002,2024_Jan_04_1958,MFTM_A_new1021,2021.2.3,59.86543448317001,
-0.6,-0.6,-0.6,0.6,0.6,left,3:2,L,,,,,,,,,,,0,1,1,1,,,,,,,,,,,,,,,,,,,,,,,,,,,21.642760800081305,None,21.642760800081305,None,21.642760800081305,None,21.642760800081305,None,21.642760800081305,None,21.642760800081305,None,left,1,1.3191807999974117,21.642760800081305,None,22.97806600003969,None,,,,,,,,,,,,,,,,,,,,,,,,,,,,,,,,,,,,,,,,,,,,,,,,,,,,,,,,,,11017,002,2024_Jan_04_1958,MFTM_A_new1021,2021.2.3,59.86543448317001,
0.6,0.6,0.6,-0.6,-0.6,right,3:2,R,,,,,,,,,,,1,0,2,0,,,,,,,,,,,,,,,,,,,,,,,,,,,23.729069199995138,None,23.729069199995138,None,23.729069199995138,None,23.729069199995138,None,23.729069199995138,None,23.729069199995138,None,right,1,1.4408350000157952,23.729069199995138,None,25.19826810003724,None,,,,,,,,,,,,,,,,,,,,,,,,,,,,,,,,,,,,,,,,,,,,,,,,,,,,,,,,,,11017,002,2024_Jan_04_1958,MFTM_A_new1021,2021.2.3,59.86543448317001,
-0.6,-0.6,-0.6,0.6,0.6,left,3:2,L,,,,,,,,,,,1,1,3,1,,,,,,,,,,,,,,,,,,,,,,,,,,,25.948949600104243,None,25.948949600104243,None,25.948949600104243,None,25.948949600104243,None,25.948949600104243,None,25.948949600104243,None,left,1,0.9972608000971377,25.948949600104243,None,26.967314500012435,None,,,,,,,,,,,,,,,,,,,,,,,,,,,,,,,,,,,,,,,,,,,,,,,,,,,,,,,,,,11017,002,2024_Jan_04_1958,MFTM_A_new1021,2021.2.3,59.86543448317001,
,,,,,,,,stim/Instruction_mask.png,conditions/adaptive.xlsx,practice,-0.6,-0.6,-0.6,0.6,0.6,left,L,,,,,0,0,0,0,0,0,0,77,,,,,,,,,,,,,,,,,,,,,,,,,,,,,,,,,,,,,,27.935800000093877,None,space,1.6503015999915078,27.935800000093877,None,29.670936800073832,None,left,1,2.0319708000170067,30.121968000079505,None,30.121968000079505,33.126237100106664,30.121968000079505,33.126237100106664,30.121968000079505,33.126237100106664,30.121968000079505,33.126237100106664,30.121968000079505,33.126237100106664,33.10956620005891,33.61043620004784,33.10956620005891,33.61043620004784,33.10956620005891,33.61043620004784,33.10956620005891,33.61043620004784,33.10956620005891,33.61043620004784,33.10956620005891,33.61043620004784,33.10956620005891,33.61043620004784,33.10956620005891,33.61043620004784,30.121968000079505,None,33.61043620004784,33.61043620004784,3,33.62719510006718,None,34.37810440000612,None,,,,,,,,,,11017,002,2024_Jan_04_1958,MFTM_A_new1021,2021.2.3,59.86543448317001,
,,,,,,,,stim/Instruction_mask.png,conditions/adaptive.xlsx,practice,0.6,0.6,0.6,-0.6,-0.6,right,R,,,,,0,0,0,0,0,1,1,80,,,,,,,,,,,,,,,,,,,,,,,,,,,,,,,,,,,,,,,,,,,,34.87907070002984,None,right,1,1.7739565999945626,35.37996380007826,37.38264990004245,35.37996380007826,36.88188080000691,35.37996380007826,36.88188080000691,35.37996380007826,36.88188080000691,35.37996380007826,36.88188080000691,35.37996380007826,36.88188080000691,36.865460000000894,37.36586330004502,36.865460000000894,37.36586330004502,36.865460000000894,37.36586330004502,36.865460000000894,37.36586330004502,36.865460000000894,37.36586330004502,36.865460000000894,37.36586330004502,36.865460000000894,37.36586330004502,36.865460000000894,37.36586330004502,35.37996380007826,None,37.36586330004502,38.86837830010336,1.5,38.88513740000781,None,39.63609060004819,None,,,,,,,,,,11017,002,2024_Jan_04_1958,MFTM_A_new1021,2021.2.3,59.86543448317001,
,,,,,,,,stim/Instruction_mask.png,conditions/adaptive.xlsx,practice,0.6,0.6,0.6,-0.6,-0.6,right,R,,,,,0,0,0,0,0,2,2,18,,,,,,,,,,,,,,,,,,,,,,,,,,,,,,,,,,,,,,,,,,,,40.13678200007416,None,left,0,1.7883986999513581,40.637503100093454,41.939301300095394,40.637503100093454,41.438691599993035,40.637503100093454,41.438691599993035,40.637503100093454,41.438691599993035,40.637503100093454,41.438691599993035,40.637503100093454,41.438691599993035,41.42202310007997,41.922598500037566,41.42202310007997,41.922598500037566,41.42202310007997,41.922598500037566,41.42202310007997,41.922598500037566,41.42202310007997,41.922598500037566,41.42202310007997,41.922598500037566,41.42202310007997,41.922598500037566,41.42202310007997,41.922598500037566,40.637503100093454,None,41.922598500037566,44.125914900097996,0.8,44.142566700000316,None,44.89398270007223,None,,,,,,,,,,11017,002,2024_Jan_04_1958,MFTM_A_new1021,2021.2.3,59.86543448317001,
,,,,,,,,stim/Instruction_mask.png,conditions/adaptive.xlsx,practice,0.6,0.6,0.6,-0.6,-0.6,right,R,,,,,0,0,0,0,0,3,3,20,,,,,,,,,,,,,,,,,,,,,,,,,,,,,,,,,,,,,,,,,,,,45.3947768000653,None,right,1,1.1226366000482813,45.895377900102176,46.64681450009812,45.895377900102176,46.145471399999224,45.895377900102176,46.145471399999224,45.895377900102176,46.145471399999224,45.895377900102176,46.145471399999224,45.895377900102176,46.145471399999224,46.12880910001695,46.6298475000076,46.12880910001695,46.6298475000076,46.12880910001695,46.6298475000076,46.12880910001695,46.6298475000076,46.12880910001695,46.6298475000076,46.12880910001695,46.6298475000076,46.12880910001695,46.6298475000076,46.12880910001695,46.6298475000076,45.895377900102176,None,46.6298475000076,49.38386480009649,3,49.40058030001819,None,50.15206250001211,None,,,,,,,,,,11017,002,2024_Jan_04_1958,MFTM_A_new1021,2021.2.3,59.86543448317001,
,,,,,,,,stim/Instruction_mask.png,conditions/adaptive.xlsx,practice,,,,,,,,,,,,0,0,0,0,,,,,,,,,,,,,,,,,,,,,,,,,,,,,,,,,,,,,,,,,,,,,,,,,,,,,,,,,,,,,,,,,,,,,,,,,,,,,,,,,,,,,,,,,,50.6717591000488,51.67056610004511,51.636963900062256,51.636963900062256,51.636963900062256,None,,,,11017,002,2024_Jan_04_1958,MFTM_A_new1021,2021.2.3,59.86543448317001,
,,,,,,,,stim/Instruction_adaptive.png,conditions/adaptive.xlsx,test,-0.6,-0.6,-0.6,0.6,0.6,left,L,,,,,0,1,1,1,0,0,0,79,,,,,,,,,,,,,,,,,,,,,,,,,,,,,,,,,,,,,,54.79179889999796,None,space,0.9861120000714436,54.79179889999796,None,55.810061900061555,None,left,1,2.587507399963215,56.310674000065774,None,56.310674000065774,59.31526609999128,56.310674000065774,59.31526609999128,56.310674000065774,59.31526609999128,56.310674000065774,59.31526609999128,56.310674000065774,59.31526609999128,59.29861820000224,59.79933920002077,59.29861820000224,59.79933920002077,59.29861820000224,59.79933920002077,59.29861820000224,59.79933920002077,59.29861820000224,59.79933920002077,59.29861820000224,59.79933920002077,59.29861820000224,59.79933920002077,59.29861820000224,59.79933920002077,56.310674000065774,None,59.79933920002077,59.79933920002077,3,59.81598100007977,None,60.567174400086515,None,,,,,,,0,6.000000000000005,1.0,11017,002,2024_Jan_04_1958,MFTM_A_new1021,2021.2.3,59.86543448317001,
,,,,,,,,stim/Instruction_adaptive.png,conditions/adaptive.xlsx,test,0.6,0.6,0.6,-0.6,-0.6,right,R,,,,,0,1,1,1,0,1,1,16,,,,,,,,,,,,,,,,,,,,,,,,,,,,,,,,,,,,,,,,,,,,61.067958100000396,None,right,1,1.4580351000186056,61.568443400086835,62.319822299992666,61.568443400086835,61.818880400038324,61.568443400086835,61.818880400038324,61.568443400086835,61.818880400038324,61.568443400086835,61.818880400038324,61.568443400086835,61.818880400038324,61.80211930000223,62.30293640005402,61.80211930000223,62.30293640005402,61.80211930000223,62.30293640005402,61.80211930000223,62.30293640005402,61.80211930000223,62.30293640005402,61.80211930000223,62.30293640005402,61.80211930000223,62.30293640005402,61.80211930000223,62.30293640005402,61.568443400086835,None,62.30293640005402,63.187349000014365,0.25,63.204120000009425,None,63.95530210004654,None,,,,,,,[0.875],6.000000000000005,1.0,11017,002,2024_Jan_04_1958,MFTM_A_new1021,2021.2.3,59.86543448317001,
,,,,,,,,stim/Instruction_adaptive.png,conditions/adaptive.xlsx,test,-0.6,-0.6,-0.6,0.6,0.6,left,L,,,,,0,1,1,1,0,2,2,7,,,,,,,,,,,,,,,,,,,,,,,,,,,,,,,,,,,,,,,,,,,,64.45611710008234,None,left,1,0.7810198999941349,64.95728780003265,65.7081267000176,64.95728780003265,65.207255300018,64.95728780003265,65.207255300018,64.95728780003265,65.207255300018,64.95728780003265,65.207255300018,64.95728780003265,65.207255300018,65.19052410009317,65.6914231000701,65.19052410009317,65.6914231000701,65.19052410009317,65.6914231000701,65.19052410009317,65.6914231000701,65.19052410009317,65.6914231000701,65.19052410009317,65.6914231000701,65.19052410009317,65.6914231000701,65.19052410009317,65.6914231000701,64.95728780003265,None,65.6914231000701,67.02662350004539,0.25,67.0433253000956,None,67.79428760008886,None,,,,,,,[1.33333333],6.000000000000005,1.0,11017,002,2024_Jan_04_1958,MFTM_A_new1021,2021.2.3,59.86543448317001,
,,,,,,,,stim/Instruction_adaptive.png,conditions/adaptive.xlsx,test,-0.6,-0.6,-0.6,0.6,0.6,left,L,,,,,0,1,1,1,0,3,3,53,,,,,,,,,,,,,,,,,,,,,,,,,,,,,,,,,,,,,,,,,,,,68.29554340010509,None,right,0,1.4060008999658749,68.79603070009034,69.54722579999361,68.79603070009034,69.04620560002513,68.79603070009034,69.04620560002513,68.79603070009034,69.04620560002513,68.79603070009034,69.04620560002513,68.79603070009034,69.04620560002513,69.02971520007122,69.53106510010548,69.02971520007122,69.53106510010548,69.02971520007122,69.53106510010548,69.02971520007122,69.53106510010548,69.02971520007122,69.53106510010548,69.02971520007122,69.53106510010548,69.02971520007122,69.53106510010548,69.02971520007122,69.53106510010548,68.79603070009034,None,69.53106510010548,71.09998630010523,0.25,71.11536200006958,None,71.86719410005026,None,,,,,,,[1.5625],4.030000000000003,0.75,11017,002,2024_Jan_04_1958,MFTM_A_new1021,2021.2.3,59.86543448317001,
,,,,,,,,stim/Instruction_adaptive.png,conditions/adaptive.xlsx,test,0.6,0.6,0.6,-0.6,-0.6,right,R,,,,,0,1,1,1,0,4,4,14,,,,,,,,,,,,,,,,,,,,,,,,,,,,,,,,,,,,,,,,,,,,72.36794460006058,None,left,0,1.2535267999628559,72.86869620007928,73.77114050008822,72.86869620007928,73.27076870005112,72.86869620007928,73.27076870005112,72.86869620007928,73.27076870005112,72.86869620007928,73.27076870005112,72.86869620007928,73.27076870005112,73.25263130001258,73.75429480010644,73.25263130001258,73.75429480010644,73.25263130001258,73.75429480010644,73.25263130001258,73.75429480010644,73.25263130001258,73.75429480010644,73.25263130001258,73.75429480010644,73.25263130001258,73.75429480010644,73.25263130001258,73.75429480010644,72.86869620007928,None,73.75429480010644,None,0.40000000000000013,75.43919770000502,None,76.19035290007014,None,,,,,,,[1.67],2.5100000000000016,0.6,11017,002,2024_Jan_04_1958,MFTM_A_new1021,2021.2.3,59.86543448317001,
,,,,,,,,stim/Instruction_adaptive.png,conditions/adaptive.xlsx,test,0.6,0.6,0.6,-0.6,-0.6,right,R,,,,,0,1,1,1,0,5,5,40,,,,,,,,,,,,,,,,,,,,,,,,,,,,,,,,,,,,,,,,,,,,76.69176710001193,None,right,1,1.490028899977915,77.19192830007523,78.84500670002308,77.19192830007523,78.34335480001755,77.19192830007523,78.34335480001755,77.19192830007523,78.34335480001755,77.19192830007523,78.34335480001755,77.19192830007523,78.34335480001755,78.32668050006032,78.82863380003255,78.32668050006032,78.82863380003255,78.32668050006032,78.82863380003255,78.32668050006032,78.82863380003255,78.32668050006032,78.82863380003255,78.32668050006032,78.82863380003255,78.32668050006032,78.82863380003255,78.32668050006032,78.82863380003255,77.19192830007523,None,78.82863380003255,80.18044900009409,1.1500000000000008,80.19636920001358,None,80.94740770000499,None,,,,,,,[[1.35]],3.1700000000000026,0.6666666666666666,11017,002,2024_Jan_04_1958,MFTM_A_new1021,2021.2.3,59.86543448317001,
,,,,,,,,stim/Instruction_adaptive.png,conditions/adaptive.xlsx,test,-0.6,-0.6,-0.6,0.6,0.6,left,L,,,,,0,1,1,1,0,6,6,3,,,,,,,,,,,,,,,,,,,,,,,,,,,,,,,,,,,,,,,,,,,,81.4485885000322,None,left,1,1.1815110000316054,81.94865230005234,83.18381660000887,81.94865230005234,82.6834890000755,81.94865230005234,82.6834890000755,81.94865230005234,82.6834890000755,81.94865230005234,82.6834890000755,81.94865230005234,82.6834890000755,82.66636010003276,83.1682940000901,82.66636010003276,83.1682940000901,82.66636010003276,83.1682940000901,82.66636010003276,83.1682940000901,82.66636010003276,83.1682940000901,82.66636010003276,83.1682940000901,82.66636010003276,83.1682940000901,82.66636010003276,83.1682940000901,81.94865230005234,None,83.1682940000901,None,0.7300000000000004,84.82080400001723,None,85.57078220008407,None,,,,,,,[1.63857143],3.5900000000000025,0.7142857142857143,11017,002,2024_Jan_04_1958,MFTM_A_new1021,2021.2.3,59.86543448317001,
,,,,,,,,stim/Instruction_adaptive.png,conditions/adaptive.xlsx,test,0.6,0.6,0.6,-0.6,-0.6,right,R,,,,,0,1,1,1,0,7,7,2,,,,,,,,,,,,,,,,,,,,,,,,,,,,,,,,,,,,,,,,,,,,86.07248370000161,None,left,0,1.2867164999479428,86.57222820003517,87.62409010005649,86.57222820003517,87.12299160007387,86.57222820003517,87.12299160007387,86.57222820003517,87.12299160007387,86.57222820003517,87.12299160007387,86.57222820003517,87.12299160007387,87.10649640008342,87.60768690006807,87.10649640008342,87.60768690006807,87.10649640008342,87.60768690006807,87.10649640008342,87.60768690006807,87.10649640008342,87.60768690006807,87.10649640008342,87.60768690006807,87.10649640008342,87.60768690006807,87.10649640008342,87.60768690006807,86.57222820003517,None,87.60768690006807,89.29287440003827,0.5500000000000003,89.30963350005914,None,90.06094260001555,None,,,,,,,[1.6775],2.730000000000002,0.625,11017,002,2024_Jan_04_1958,MFTM_A_new1021,2021.2.3,59.86543448317001,
,,,,,,,,stim/Instruction_adaptive.png,conditions/adaptive.xlsx,test,0.6,0.6,0.6,-0.6,-0.6,right,R,,,,,0,1,1,1,0,8,8,96,,,,,,,,,,,,,,,,,,,,,,,,,,,,,,,,,,,,,,,,,,,,90.56266860000324,None,right,1,1.3556320000207052,91.0629947000416,92.56548480002675,91.0629947000416,92.06449080002494,91.0629947000416,92.06449080002494,91.0629947000416,92.06449080002494,91.0629947000416,92.06449080002494,91.0629947000416,92.06449080002494,92.03024560003541,92.53111890004948,92.03024560003541,92.53111890004948,92.03024560003541,92.53111890004948,92.03024560003541,92.53111890004948,92.03024560003541,92.53111890004948,92.03024560003541,92.53111890004948,92.03024560003541,92.53111890004948,92.03024560003541,92.53111890004948,91.0629947000416,None,92.53111890004948,94.05162100004964,0.9900000000000007,94.06649430003017,None,94.8185488000745,None,,,,,,,[[1.51]],3.0900000000000025,0.6666666666666666,11017,002,2024_Jan_04_1958,MFTM_A_new1021,2021.2.3,59.86543448317001,
,,,,,,,,stim/Instruction_adaptive.png,conditions/adaptive.xlsx,test,0.6,0.6,0.6,-0.6,-0.6,right,R,,,,,0,1,1,1,0,9,9,34,,,,,,,,,,,,,,,,,,,,,,,,,,,,,,,,,,,,,,,,,,,,95.31863200000953,None,right,1,1.1990858000935987,95.81936940003652,97.10494180000387,95.81936940003652,96.6047164000338,95.81936940003652,96.6047164000338,95.81936940003652,96.6047164000338,95.81936940003652,96.6047164000338,95.81936940003652,96.6047164000338,96.57057600002736,97.0713236000156,96.57057600002736,97.0713236000156,96.57057600002736,97.0713236000156,96.57057600002736,97.0713236000156,96.57057600002736,97.0713236000156,96.57057600002736,97.0713236000156,96.57057600002736,97.0713236000156,96.57057600002736,97.0713236000156,95.81936940003652,None,97.0713236000156,98.74070860003121,0.7700000000000005,98.7568653000053,None,99.5081168001052,None,,,,,,,[1.666],3.3500000000000023,0.7,11017,002,2024_Jan_04_1958,MFTM_A_new1021,2021.2.3,59.86543448317001,
,,,,,,,,stim/Instruction_adaptive.png,conditions/adaptive.xlsx,test,0.6,0.6,0.6,-0.6,-0.6,right,R,,,,,0,1,1,1,0,10,10,6,,,,,,,,,,,,,,,,,,,,,,,,,,,,,,,,,,,,,,,,,,,,100.00914630002808,None,right,1,1.1086028999416158,100.50955509999767,101.66248890000861,100.50955509999767,101.16148620005697,100.50955509999767,101.16148620005697,100.50955509999767,101.16148620005697,100.50955509999767,101.16148620005697,100.50955509999767,101.16148620005697,101.1448578001,101.6450213000644,101.1448578001,101.6450213000644,101.1448578001,101.6450213000644,101.1448578001,101.6450213000644,101.1448578001,101.6450213000644,101.1448578001,101.6450213000644,101.1448578001,101.6450213000644,101.1448578001,101.6450213000644,100.50955509999767,None,101.6450213000644,103.33107920002658,0.6500000000000004,103.34770790010225,None,104.09915550006554,None,,,,,,,[1.68272727],3.570000000000003,0.7272727272727273,11017,002,2024_Jan_04_1958,MFTM_A_new1021,2021.2.3,59.86543448317001,
,,,,,,,,stim/Instruction_adaptive.png,conditions/adaptive.xlsx,test,-0.6,-0.6,-0.6,0.6,0.6,left,L,,,,,0,1,1,1,0,11,11,49,,,,,,,,,,,,,,,,,,,,,,,,,,,,,,,,,,,,,,,,,,,,104.59938330005389,None,left,1,1.5976777999894693,105.10021410009358,106.15186440001708,105.10021410009358,105.65059430000838,105.10021410009358,105.65059430000838,105.10021410009358,105.65059430000838,105.10021410009358,105.65059430000838,105.10021410009358,105.65059430000838,105.63475369999651,106.134606000036,105.63475369999651,106.134606000036,105.63475369999651,106.134606000036,105.63475369999651,106.134606000036,105.63475369999651,106.134606000036,105.63475369999651,106.134606000036,105.63475369999651,106.134606000036,105.63475369999651,106.134606000036,105.10021410009358,None,106.134606000036,None,0.5500000000000003,107.85459060000721,None,108.60492150008213,None,,,,,,,[1.705],3.740000000000003,0.75,11017,002,2024_Jan_04_1958,MFTM_A_new1021,2021.2.3,59.86543448317001,
,,,,,,,,stim/Instruction_adaptive.png,conditions/adaptive.xlsx,test,0.6,0.6,0.6,-0.6,-0.6,right,R,,,,,0,1,1,1,0,12,12,88,,,,,,,,,,,,,,,,,,,,,,,,,,,,,,,,,,,,,,,,,,,,109.1058139000088,None,right,1,1.131975100026466,109.6064685001038,110.60793110006489,109.6064685001038,110.10802620009053,109.6064685001038,110.10802620009053,109.6064685001038,110.10802620009053,109.6064685001038,110.10802620009053,109.6064685001038,110.10802620009053,110.07384910003748,110.57534590002615,110.07384910003748,110.57534590002615,110.07384910003748,110.57534590002615,110.07384910003748,110.57534590002615,110.07384910003748,110.57534590002615,110.07384910003748,110.57534590002615,110.07384910003748,110.57534590002615,110.07384910003748,110.57534590002615,109.6064685001038,None,110.57534590002615,112.31117940007243,0.4900000000000002,112.3270085999975,None,113.07907700003125,None,,,,,,,[1.72846154],3.900000000000003,0.7692307692307693,11017,002,2024_Jan_04_1958,MFTM_A_new1021,2021.2.3,59.86543448317001,
,,,,,,,,stim/Instruction_adaptive.png,conditions/adaptive.xlsx,test,0.6,0.6,0.6,-0.6,-0.6,right,R,,,,,0,1,1,1,0,13,13,18,,,,,,,,,,,,,,,,,,,,,,,,,,,,,,,,,,,,,,,,,,,,113.57913940004073,None,left,0,0.9219461000757292,114.0801899000071,115.03134190000128,114.0801899000071,114.53069180005696,114.0801899000071,114.53069180005696,114.0801899000071,114.53069180005696,114.0801899000071,114.53069180005696,114.0801899000071,114.53069180005696,114.49708070000634,114.99763740005437,114.49708070000634,114.99763740005437,114.49708070000634,114.99763740005437,114.49708070000634,114.99763740005437,114.49708070000634,114.99763740005437,114.49708070000634,114.99763740005437,114.49708070000634,114.99763740005437,114.49708070000634,114.99763740005437,114.0801899000071,None,114.99763740005437,116.75064340000972,0.44000000000000017,116.7835677000694,None,117.53614970005583,None,,,,,,,[1.75214286],3.5100000000000025,0.7142857142857143,11017,002,2024_Jan_04_1958,MFTM_A_new1021,2021.2.3,59.86543448317001,
,,,,,,,,stim/Instruction_adaptive.png,conditions/adaptive.xlsx,test,0.6,0.6,0.6,-0.6,-0.6,right,R,,,,,0,1,1,1,0,14,14,80,,,,,,,,,,,,,,,,,,,,,,,,,,,,,,,,,,,,,,,,,,,,118.03568110009655,None,right,1,1.1684587999479845,118.5375293000834,119.62129640008789,118.5375293000834,119.12132530007511,118.5375293000834,119.12132530007511,118.5375293000834,119.12132530007511,118.5375293000834,119.12132530007511,118.5375293000834,119.12132530007511,119.10404740006197,119.60468360001687,119.10404740006197,119.60468360001687,119.10404740006197,119.60468360001687,119.10404740006197,119.60468360001687,119.10404740006197,119.60468360001687,119.10404740006197,119.60468360001687,119.10404740006197,119.60468360001687,119.10404740006197,119.60468360001687,118.5375293000834,None,119.60468360001687,121.37408330000471,0.5800000000000003,121.39054620009847,None,122.14421340008266,None,,,,,,,[1.76333333],3.650000000000003,0.7333333333333333,11017,002,2024_Jan_04_1958,MFTM_A_new1021,2021.2.3,59.86543448317001,
,,,,,,,,stim/Instruction_adaptive.png,conditions/adaptive.xlsx,test,-0.6,-0.6,-0.6,0.6,0.6,left,L,,,,,0,1,1,1,0,15,15,47,,,,,,,,,,,,,,,,,,,,,,,,,,,,,,,,,,,,,,,,,,,,122.64247990003787,None,left,1,0.8354709000559524,123.14313610002864,124.17812660010532,123.14313610002864,123.67799550003838,123.14313610002864,123.67799550003838,123.14313610002864,123.67799550003838,123.14313610002864,123.67799550003838,123.14313610002864,123.67799550003838,123.64395530009642,124.1446428000927,123.64395530009642,124.1446428000927,123.64395530009642,124.1446428000927,123.64395530009642,124.1446428000927,123.64395530009642,124.1446428000927,123.64395530009642,124.1446428000927,123.64395530009642,124.1446428000927,123.64395530009642,124.1446428000927,123.14313610002864,None,124.1446428000927,125.93045610003173,0.5200000000000002,125.94803680002224,None,126.69891979999375,None,,,,,,,[1.776875],3.780000000000003,0.75,11017,002,2024_Jan_04_1958,MFTM_A_new1021,2021.2.3,59.86543448317001,
,,,,,,,,stim/Instruction_adaptive.png,conditions/adaptive.xlsx,test,-0.6,-0.6,-0.6,0.6,0.6,left,L,,,,,0,1,1,1,0,16,16,37,,,,,,,,,,,,,,,,,,,,,,,,,,,,,,,,,,,,,,,,,,,,127.199326400063,None,left,1,1.206666599959135,127.69988610001747,128.68518270005006,127.69988610001747,128.18481320003048,127.69988610001747,128.18481320003048,127.69988610001747,128.18481320003048,127.69988610001747,128.18481320003048,127.69988610001747,128.18481320003048,128.16727360000368,128.6691059001023,128.16727360000368,128.6691059001023,128.16727360000368,128.6691059001023,128.16727360000368,128.6691059001023,128.16727360000368,128.6691059001023,128.16727360000368,128.6691059001023,128.16727360000368,128.6691059001023,128.16727360000368,128.6691059001023,127.69988610001747,None,128.6691059001023,None,0.4800000000000002,130.47073639999144,None,131.22247500007506,None,,,,,,,[1.79117647],3.900000000000003,0.7647058823529411,11017,002,2024_Jan_04_1958,MFTM_A_new1021,2021.2.3,59.86543448317001,
,,,,,,,,stim/Instruction_adaptive.png,conditions/adaptive.xlsx,test,-0.6,-0.6,-0.6,0.6,0.6,left,L,,,,,0,1,1,1,0,17,17,69,,,,,,,,,,,,,,,,,,,,,,,,,,,,,,,,,,,,,,,,,,,,131.7234151000157,None,right,0,1.2836174999829382,132.22333430009894,133.17555990000255,132.22333430009894,132.6742046000436,132.22333430009894,132.6742046000436,132.22333430009894,132.6742046000436,132.22333430009894,132.6742046000436,132.22333430009894,132.6742046000436,132.64108299999498,133.14135600009467,132.64108299999498,133.14135600009467,132.64108299999498,133.14135600009467,132.64108299999498,133.14135600009467,132.64108299999498,133.14135600009467,132.64108299999498,133.14135600009467,132.64108299999498,133.14135600009467,132.64108299999498,133.14135600009467,132.22333430009894,None,133.14135600009467,134.96072540001478,0.44000000000000017,134.9772683000192,None,135.72925110009965,None,,,,,,,[1.80611111],3.5900000000000025,0.7222222222222222,11017,002,2024_Jan_04_1958,MFTM_A_new1021,2021.2.3,59.86543448317001,
,,,,,,,,stim/Instruction_adaptive.png,conditions/adaptive.xlsx,test,0.6,0.6,0.6,-0.6,-0.6,right,R,,,,,0,1,1,1,0,18,18,60,,,,,,,,,,,,,,,,,,,,,,,,,,,,,,,,,,,,,,,,,,,,136.2294050999917,None,right,1,1.1690316000021994,136.72981570009142,137.78180430002976,136.72981570009142,137.2815416000085,136.72981570009142,137.2815416000085,136.72981570009142,137.2815416000085,136.72981570009142,137.2815416000085,136.72981570009142,137.2815416000085,137.2648217000533,137.7656990000978,137.2648217000533,137.7656990000978,137.2648217000533,137.7656990000978,137.2648217000533,137.7656990000978,137.2648217000533,137.7656990000978,137.2648217000533,137.7656990000978,137.2648217000533,137.7656990000978,137.2648217000533,137.7656990000978,136.72981570009142,None,137.7656990000978,139.58531150000636,0.5500000000000003,139.60072700004093,None,140.3521025000373,None,,,,,,,[1.81368421],3.700000000000003,0.7368421052631579,11017,002,2024_Jan_04_1958,MFTM_A_new1021,2021.2.3,59.86543448317001,
,,,,,,,,stim/Instruction_adaptive.png,conditions/adaptive.xlsx,test,-0.6,-0.6,-0.6,0.6,0.6,left,L,,,,,0,1,1,1,0,19,19,43,,,,,,,,,,,,,,,,,,,,,,,,,,,,,,,,,,,,,,,,,,,,140.85269820003305,None,right,0,0.976907700067386,141.35330110008363,142.37222630006727,141.35330110008363,141.8709222000325,141.35330110008363,141.8709222000325,141.35330110008363,141.8709222000325,141.35330110008363,141.8709222000325,141.35330110008363,141.8709222000325,141.8550390000455,142.35546610003803,141.8550390000455,142.35546610003803,141.8550390000455,142.35546610003803,141.8550390000455,142.35546610003803,141.8550390000455,142.35546610003803,141.8550390000455,142.35546610003803,141.8550390000455,142.35546610003803,141.8550390000455,142.35546610003803,141.35330110008363,None,142.35546610003803,None,0.5100000000000002,144.19141190010123,None,144.9430893000681,None,,,,,,,[1.8225],3.4000000000000026,0.7,11017,002,2024_Jan_04_1958,MFTM_A_new1021,2021.2.3,59.86543448317001,
,,,,,,,,stim/Instruction_adaptive.png,conditions/adaptive.xlsx,test,-0.6,-0.6,-0.6,0.6,0.6,left,L,,,,,0,1,1,1,0,20,20,51,,,,,,,,,,,,,,,,,,,,,,,,,,,,,,,,,,,,,,,,,,,,145.4431180000538,None,left,1,0.9869021000340581,145.9434489000123,147.06335680000484,145.9434489000123,146.57854190003127,145.9434489000123,146.57854190003127,145.9434489000123,146.57854190003127,145.9434489000123,146.57854190003127,145.9434489000123,146.57854190003127,146.544538200018,147.0462688000407,146.544538200018,147.0462688000407,146.544538200018,147.0462688000407,146.544538200018,147.0462688000407,146.544538200018,147.0462688000407,146.544538200018,147.0462688000407,146.544538200018,147.0462688000407,146.544538200018,147.0462688000407,145.9434489000123,None,147.0462688000407,148.8819489000598,0.6200000000000003,148.8980132000288,None,149.64988939999603,None,,,,,,,[1.8252381],3.5100000000000025,0.7142857142857143,11017,002,2024_Jan_04_1958,MFTM_A_new1021,2021.2.3,59.86543448317001,
,,,,,,,,stim/Instruction_adaptive.png,conditions/adaptive.xlsx,test,0.6,0.6,0.6,-0.6,-0.6,right,R,,,,,0,1,1,1,0,21,21,90,,,,,,,,,,,,,,,,,,,,,,,,,,,,,,,,,,,,,,,,,,,,150.14977470005397,None,left,0,1.2953394000651315,150.6508054001024,151.73586510005407,150.6508054001024,151.23473530006595,150.6508054001024,151.23473530006595,150.6508054001024,151.23473530006595,150.6508054001024,151.23473530006595,150.6508054001024,151.23473530006595,151.21785570005886,151.71919560001697,151.21785570005886,151.71919560001697,151.21785570005886,151.71919560001697,151.21785570005886,151.71919560001697,151.21785570005886,151.71919560001697,151.21785570005886,151.71919560001697,151.21785570005886,151.71919560001697,151.21785570005886,151.71919560001697,150.6508054001024,None,151.71919560001697,153.55529690010007,0.5800000000000003,153.57158200000413,None,154.32357620005496,None,,,,,,,[1.82954545],3.2000000000000024,0.6818181818181818,11017,002,2024_Jan_04_1958,MFTM_A_new1021,2021.2.3,59.86543448317001,
,,,,,,,,stim/Instruction_adaptive.png,conditions/adaptive.xlsx,test,-0.6,-0.6,-0.6,0.6,0.6,left,L,,,,,0,1,1,1,0,22,22,39,,,,,,,,,,,,,,,,,,,,,,,,,,,,,,,,,,,,,,,,,,,,154.82353759999387,None,left,1,1.1904926999704912,155.32416120008565,156.56012740009464,155.32416120008565,156.0592217000667,155.32416120008565,156.0592217000667,155.32416120008565,156.0592217000667,155.32416120008565,156.0592217000667,155.32416120008565,156.0592217000667,156.0252546000993,156.52586970000993,156.0252546000993,156.52586970000993,156.0252546000993,156.52586970000993,156.0252546000993,156.52586970000993,156.0252546000993,156.52586970000993,156.0252546000993,156.52586970000993,156.0252546000993,156.52586970000993,156.0252546000993,156.52586970000993,155.32416120008565,None,156.52586970000993,158.3125738000963,0.7200000000000004,158.32873990002554,None,159.08055430010427,None,,,,,,,[[1.78]],3.3200000000000025,0.6956521739130435,11017,002,2024_Jan_04_1958,MFTM_A_new1021,2021.2.3,59.86543448317001,
,,,,,,,,stim/Instruction_adaptive.png,conditions/adaptive.xlsx,test,-0.6,-0.6,-0.6,0.6,0.6,left,L,,,,,0,1,1,1,0,23,23,75,,,,,,,,,,,,,,,,,,,,,,,,,,,,,,,,,,,,,,,,,,,,159.58039570006076,None,left,1,0.9860855999868363,160.08133410010487,161.24973240005784,160.08133410010487,160.74961210007314,160.08133410010487,160.74961210007314,160.08133410010487,160.74961210007314,160.08133410010487,160.74961210007314,160.08133410010487,160.74961210007314,160.7329210001044,161.2337512000231,160.7329210001044,161.2337512000231,160.7329210001044,161.2337512000231,160.7329210001044,161.2337512000231,160.7329210001044,161.2337512000231,160.7329210001044,161.2337512000231,160.7329210001044,161.2337512000231,160.7329210001044,161.2337512000231,160.08133410010487,None,161.2337512000231,None,0.6600000000000004,163.06892440002412,None,163.8206385000376,None,,,,,,,[1.82791667],3.4200000000000026,0.7083333333333334,11017,002,2024_Jan_04_1958,MFTM_A_new1021,2021.2.3,59.86543448317001,
,,,,,,,,stim/Instruction_adaptive.png,conditions/adaptive.xlsx,test,-0.6,-0.6,-0.6,0.6,0.6,left,L,,,,,0,1,1,1,0,24,24,17,,,,,,,,,,,,,,,,,,,,,,,,,,,,,,,,,,,,,,,,,,,,164.32157050003298,None,left,1,1.3243984000291675,164.82181810005568,165.93988940003328,164.82181810005568,165.43970530002844,164.82181810005568,165.43970530002844,164.82181810005568,165.43970530002844,164.82181810005568,165.43970530002844,164.82181810005568,165.43970530002844,165.4069826999912,165.90668360004202,165.4069826999912,165.90668360004202,165.4069826999912,165.90668360004202,165.4069826999912,165.90668360004202,165.4069826999912,165.90668360004202,165.4069826999912,165.90668360004202,165.4069826999912,165.90668360004202,165.4069826999912,165.90668360004202,164.82181810005568,None,165.90668360004202,167.74334960000124,0.6100000000000003,167.7770470000105,None,168.52789610007312,None,,,,,,,[1.8304],3.5100000000000025,0.72,11017,002,2024_Jan_04_1958,MFTM_A_new1021,2021.2.3,59.86543448317001,
,,,,,,,,stim/Instruction_adaptive.png,conditions/adaptive.xlsx,test,0.6,0.6,0.6,-0.6,-0.6,right,R,,,,,0,1,1,1,0,25,25,64,,,,,,,,,,,,,,,,,,,,,,,,,,,,,,,,,,,,,,,,,,,,169.0278304000385,None,right,1,1.0187961999326944,169.52857850003056,170.6135379000334,169.52857850003056,170.1132394000888,169.52857850003056,170.1132394000888,169.52857850003056,170.1132394000888,169.52857850003056,170.1132394000888,169.52857850003056,170.1132394000888,170.0967533000512,170.59739840007387,170.0967533000512,170.59739840007387,170.0967533000512,170.59739840007387,170.0967533000512,170.59739840007387,170.0967533000512,170.59739840007387,170.0967533000512,170.59739840007387,170.0967533000512,170.59739840007387,170.0967533000512,170.59739840007387,169.52857850003056,None,170.59739840007387,172.43330979999155,0.5800000000000003,172.44964910007548,None,173.2009476000676,None,,,,,,,[1.83384615],3.5900000000000025,0.7307692307692307,11017,002,2024_Jan_04_1958,MFTM_A_new1021,2021.2.3,59.86543448317001,
,,,,,,,,stim/Instruction_adaptive.png,conditions/adaptive.xlsx,test,0.6,0.6,0.6,-0.6,-0.6,right,R,,,,,0,1,1,1,0,26,26,48,,,,,,,,,,,,,,,,,,,,,,,,,,,,,,,,,,,,,,,,,,,,173.70133250008803,None,right,1,1.0324179000454023,174.20216790004633,175.2542418000521,174.20216790004633,174.75377549999394,174.20216790004633,174.75377549999394,174.20216790004633,174.75377549999394,174.20216790004633,174.75377549999394,174.20216790004633,174.75377549999394,174.73630870005582,175.23704310005996,174.73630870005582,175.23704310005996,174.73630870005582,175.23704310005996,174.73630870005582,175.23704310005996,174.73630870005582,175.23704310005996,174.73630870005582,175.23704310005996,174.73630870005582,175.23704310005996,174.73630870005582,175.23704310005996,174.20216790004633,None,175.23704310005996,None,0.5500000000000003,177.08964770007879,None,177.84200400009286,None,,,,,,,[1.83814815],3.6700000000000026,0.7407407407407407,11017,002,2024_Jan_04_1958,MFTM_A_new1021,2021.2.3,59.86543448317001,
,,,,,,,,stim/Instruction_adaptive.png,conditions/adaptive.xlsx,test,-0.6,-0.6,-0.6,0.6,0.6,left,L,,,,,0,1,1,1,0,27,27,41,,,,,,,,,,,,,,,,,,,,,,,,,,,,,,,,,,,,,,,,,,,,178.34256880008616,None,left,1,0.9513217000057921,178.84280209999997,179.87853250000626,178.84280209999997,179.37673810007982,178.84280209999997,179.37673810007982,178.84280209999997,179.37673810007982,178.84280209999997,179.37673810007982,178.84280209999997,179.37673810007982,179.3431656000903,179.8436820000643,179.3431656000903,179.8436820000643,179.3431656000903,179.8436820000643,179.3431656000903,179.8436820000643,179.3431656000903,179.8436820000643,179.3431656000903,179.8436820000643,179.3431656000903,179.8436820000643,179.3431656000903,179.8436820000643,178.84280209999997,None,179.8436820000643,181.6964204000542,0.5200000000000002,181.71355069999117,None,182.46510810009204,None,,,,,,,[1.84321429],3.740000000000003,0.75,11017,002,2024_Jan_04_1958,MFTM_A_new1021,2021.2.3,59.86543448317001,
,,,,,,,,stim/Instruction_adaptive.png,conditions/adaptive.xlsx,test,-0.6,-0.6,-0.6,0.6,0.6,left,L,,,,,0,1,1,1,0,28,28,55,,,,,,,,,,,,,,,,,,,,,,,,,,,,,,,,,,,,,,,,,,,,182.96586170000955,None,left,1,0.9126195999560878,183.4659465000732,184.46844200009946,183.4659465000732,183.96710830007214,183.4659465000732,183.96710830007214,183.4659465000732,183.96710830007214,183.4659465000732,183.96710830007214,183.4659465000732,183.96710830007214,183.9332080000313,184.43416360008996,183.9332080000313,184.43416360008996,183.9332080000313,184.43416360008996,183.9332080000313,184.43416360008996,183.9332080000313,184.43416360008996,183.9332080000313,184.43416360008996,183.9332080000313,184.43416360008996,183.9332080000313,184.43416360008996,183.4659465000732,None,184.43416360008996,186.28661980002653,0.4900000000000002,186.32020429999102,None,187.0712675000541,None,,,,,,,[1.84896552],3.810000000000003,0.7586206896551724,11017,002,2024_Jan_04_1958,MFTM_A_new1021,2021.2.3,59.86543448317001,
,,,,,,,,stim/Instruction_adaptive.png,conditions/adaptive.xlsx,test,0.6,0.6,0.6,-0.6,-0.6,right,R,,,,,0,1,1,1,0,29,29,30,,,,,,,,,,,,,,,,,,,,,,,,,,,,,,,,,,,,,,,,,,,,187.57197140005883,None,right,1,0.9871734000043944,188.07270640006755,189.04088620003313,188.07270640006755,188.5568331000395,188.07270640006755,188.5568331000395,188.07270640006755,188.5568331000395,188.07270640006755,188.5568331000395,188.07270640006755,188.5568331000395,188.52333410002757,189.02510870003607,188.52333410002757,189.02510870003607,188.52333410002757,189.02510870003607,188.52333410002757,189.02510870003607,188.52333410002757,189.02510870003607,188.52333410002757,189.02510870003607,188.52333410002757,189.02510870003607,188.52333410002757,189.02510870003607,188.07270640006755,None,189.02510870003607,190.89472670003306,0.4700000000000002,190.91039440000895,None,191.66130130004603,None,,,,,,,[1.855],3.8700000000000028,0.7666666666666667,11017,002,2024_Jan_04_1958,MFTM_A_new1021,2021.2.3,59.86543448317001,
,,,,,,,,stim/Instruction_adaptive.png,conditions/adaptive.xlsx,test,-0.6,-0.6,-0.6,0.6,0.6,left,L,,,,,0,1,1,1,0,30,30,31,,,,,,,,,,,,,,,,,,,,,,,,,,,,,,,,,,,,,,,,,,,,192.16275970009156,None,left,1,0.852168699959293,192.66286290006246,193.61425550002605,192.66286290006246,193.11417240009177,192.66286290006246,193.11417240009177,192.66286290006246,193.11417240009177,192.66286290006246,193.11417240009177,192.66286290006246,193.11417240009177,193.09695430006832,193.59829680004623,193.09695430006832,193.59829680004623,193.09695430006832,193.59829680004623,193.09695430006832,193.59829680004623,193.09695430006832,193.59829680004623,193.09695430006832,193.59829680004623,193.09695430006832,193.59829680004623,193.09695430006832,193.59829680004623,192.66286290006246,None,193.59829680004623,195.46816260006744,0.4500000000000002,195.4837636000011,None,196.23481500009075,None,,,,,,,[1.86129032],3.920000000000003,0.7741935483870968,11017,002,2024_Jan_04_1958,MFTM_A_new1021,2021.2.3,59.86543448317001,
,,,,,,,,stim/Instruction_adaptive.png,conditions/adaptive.xlsx,test,0.6,0.6,0.6,-0.6,-0.6,right,R,,,,,0,1,1,1,0,31,31,24,,,,,,,,,,,,,,,,,,,,,,,,,,,,,,,,,,,,,,,,,,,,196.73639570001978,None,left,0,0.8059383000945672,197.23626880010124,198.17100740002934,197.23626880010124,197.67039030010346,197.23626880010124,197.67039030010346,197.23626880010124,197.67039030010346,197.23626880010124,197.67039030010346,197.23626880010124,197.67039030010346,197.65378350007813,198.15524039999582,197.65378350007813,198.15524039999582,197.65378350007813,198.15524039999582,197.65378350007813,198.15524039999582,197.65378350007813,198.15524039999582,197.65378350007813,198.15524039999582,197.65378350007813,198.15524039999582,197.65378350007813,198.15524039999582,197.23626880010124,None,198.15524039999582,200.02398470009211,0.43000000000000016,200.04041530005634,None,200.79264210001566,None,,,,,,,[1.8678125],3.760000000000003,0.75,11017,002,2024_Jan_04_1958,MFTM_A_new1021,2021.2.3,59.86543448317001,
,,,,,,,,stim/Instruction_adaptive.png,conditions/adaptive.xlsx,test,-0.6,-0.6,-0.6,0.6,0.6,left,L,,,,,0,1,1,1,0,32,32,21,,,,,,,,,,,,,,,,,,,,,,,,,,,,,,,,,,,,,,,,,,,,201.2930893000448,None,right,0,1.2663734999950975,201.79309540009126,202.79500320006628,201.79309540009126,202.29401800001506,201.79309540009126,202.29401800001506,201.79309540009126,202.29401800001506,201.79309540009126,202.29401800001506,201.79309540009126,202.29401800001506,202.2605936001055,202.76193040004,202.2605936001055,202.76193040004,202.2605936001055,202.76193040004,202.2605936001055,202.76193040004,202.2605936001055,202.76193040004,202.2605936001055,202.76193040004,202.2605936001055,202.76193040004,202.2605936001055,202.76193040004,201.79309540009126,None,202.76193040004,204.64729800005443,0.4900000000000002,204.66410710010678,None,205.41523000004236,None,,,,,,,[1.87212121],3.5800000000000027,0.7272727272727273,11017,002,2024_Jan_04_1958,MFTM_A_new1021,2021.2.3,59.86543448317001,
,,,,,,,,stim/Instruction_adaptive.png,conditions/adaptive.xlsx,test,-0.6,-0.6,-0.6,0.6,0.6,left,L,,,,,0,1,1,1,0,33,33,5,,,,,,,,,,,,,,,,,,,,,,,,,,,,,,,,,,,,,,,,,,,,205.91592160006985,None,left,1,0.9306065000128001,206.41661750001367,207.46834580006544,206.41661750001367,206.96781850000843,206.41661750001367,206.96781850000843,206.41661750001367,206.96781850000843,206.41661750001367,206.96781850000843,206.41661750001367,206.96781850000843,206.9507714000065,207.45152000000235,206.9507714000065,207.45152000000235,206.9507714000065,207.45152000000235,206.9507714000065,207.45152000000235,206.9507714000065,207.45152000000235,206.9507714000065,207.45152000000235,206.9507714000065,207.45152000000235,206.9507714000065,207.45152000000235,206.41661750001367,None,207.45152000000235,209.338283100049,0.5500000000000003,209.35415640007704,None,210.10533070005476,None,,,,,,,[1.87441176],3.650000000000003,0.7352941176470589,11017,002,2024_Jan_04_1958,MFTM_A_new1021,2021.2.3,59.86543448317001,
,,,,,,,,stim/Instruction_adaptive.png,conditions/adaptive.xlsx,test,0.6,0.6,0.6,-0.6,-0.6,right,R,,,,,0,1,1,1,0,34,34,66,,,,,,,,,,,,,,,,,,,,,,,,,,,,,,,,,,,,,,,,,,,,210.60691299999598,None,right,1,0.9033007000107318,211.1074703000486,212.1415394000942,211.1074703000486,211.6408716000151,211.1074703000486,211.6408716000151,211.1074703000486,211.6408716000151,211.1074703000486,211.6408716000151,211.1074703000486,211.6408716000151,211.60828650009353,212.10832080000546,211.60828650009353,212.10832080000546,211.60828650009353,212.10832080000546,211.60828650009353,212.10832080000546,211.60828650009353,212.10832080000546,211.60828650009353,212.10832080000546,211.60828650009353,212.10832080000546,211.60828650009353,212.10832080000546,211.1074703000486,None,212.10832080000546,213.99447590007912,0.5200000000000002,214.0111131001031,None,214.76224670000374,None,,,,,,,[1.87742857],3.7100000000000026,0.7428571428571429,11017,002,2024_Jan_04_1958,MFTM_A_new1021,2021.2.3,59.86543448317001,
,,,,,,,,stim/Instruction_adaptive.png,conditions/adaptive.xlsx,test,0.6,0.6,0.6,-0.6,-0.6,right,R,,,,,0,1,1,1,0,35,35,54,,,,,,,,,,,,,,,,,,,,,,,,,,,,,,,,,,,,,,,,,,,,215.264115100028,None,right,1,0.9736585000064224,215.76444689999335,216.7652514000656,215.76444689999335,216.2648043000372,215.76444689999335,216.2648043000372,215.76444689999335,216.2648043000372,215.76444689999335,216.2648043000372,215.76444689999335,216.2648043000372,216.24913410004228,216.74849070003256,216.24913410004228,216.74849070003256,216.24913410004228,216.74849070003256,216.24913410004228,216.74849070003256,216.24913410004228,216.74849070003256,216.24913410004228,216.74849070003256,216.24913410004228,216.74849070003256,216.24913410004228,216.74849070003256,215.76444689999335,None,216.74849070003256,218.6347136000404,0.5000000000000002,218.65185930009466,None,219.40248879999854,None,,,,,,,[1.88083333],3.760000000000003,0.75,11017,002,2024_Jan_04_1958,MFTM_A_new1021,2021.2.3,59.86543448317001,
,,,,,,,,stim/Instruction_adaptive.png,conditions/adaptive.xlsx,test,-0.6,-0.6,-0.6,0.6,0.6,left,L,,,,,0,1,1,1,0,36,36,85,,,,,,,,,,,,,,,,,,,,,,,,,,,,,,,,,,,,,,,,,,,,219.90387300006114,None,left,1,0.8694152999669313,220.4048925000243,221.406044100062,220.4048925000243,220.90494220005348,220.4048925000243,220.90494220005348,220.4048925000243,220.90494220005348,220.4048925000243,220.90494220005348,220.4048925000243,220.90494220005348,220.8718133000657,221.37240130000282,220.8718133000657,221.37240130000282,220.8718133000657,221.37240130000282,220.8718133000657,221.37240130000282,220.8718133000657,221.37240130000282,220.8718133000657,221.37240130000282,220.8718133000657,221.37240130000282,220.8718133000657,221.37240130000282,220.4048925000243,None,221.37240130000282,223.25906800001394,0.4900000000000002,223.29152160009835,None,224.0423980000196,None,,,,,,,[1.88432432],3.810000000000003,0.7567567567567568,11017,002,2024_Jan_04_1958,MFTM_A_new1021,2021.2.3,59.86543448317001,
,,,,,,,,stim/Instruction_adaptive.png,conditions/adaptive.xlsx,test,0.6,0.6,0.6,-0.6,-0.6,right,R,,,,,0,1,1,1,0,37,37,58,,,,,,,,,,,,,,,,,,,,,,,,,,,,,,,,,,,,,,,,,,,,224.54434770008083,None,left,0,0.837908299989067,225.04430090007372,226.0290563000599,225.04430090007372,225.52823320007883,225.04430090007372,225.52823320007883,225.04430090007372,225.52823320007883,225.04430090007372,225.52823320007883,225.04430090007372,225.52823320007883,225.49554470006842,225.99624910007697,225.49554470006842,225.99624910007697,225.49554470006842,225.99624910007697,225.49554470006842,225.99624910007697,225.49554470006842,225.99624910007697,225.49554470006842,225.99624910007697,225.49554470006842,225.99624910007697,225.49554470006842,225.99624910007697,225.04430090007372,None,225.99624910007697,227.8995656000916,0.4700000000000002,227.91490890004206,None,228.66706940007862,None,,,,,,,[1.88815789],3.660000000000003,0.7368421052631579,11017,002,2024_Jan_04_1958,MFTM_A_new1021,2021.2.3,59.86543448317001,
,,,,,,,,stim/Instruction_adaptive.png,conditions/adaptive.xlsx,test,0.6,0.6,0.6,-0.6,-0.6,right,R,,,,,0,1,1,1,0,38,38,94,,,,,,,,,,,,,,,,,,,,,,,,,,,,,,,,,,,,,,,,,,,,229.16801890009083,None,right,1,1.4784931999165565,229.66776710003614,230.7027931000339,229.66776710003614,230.20219560002442,229.66776710003614,230.20219560002442,229.66776710003614,230.20219560002442,229.66776710003614,230.20219560002442,229.66776710003614,230.20219560002442,230.1697795999935,230.66917270002887,230.1697795999935,230.66917270002887,230.1697795999935,230.66917270002887,230.1697795999935,230.66917270002887,230.1697795999935,230.66917270002887,230.1697795999935,230.66917270002887,230.1697795999935,230.66917270002887,230.1697795999935,230.66917270002887,229.66776710003614,None,230.66917270002887,232.5727073000744,0.5200000000000002,232.58875910006464,None,233.33993240003474,None,,,,,,,[1.89051282],3.720000000000003,0.7435897435897436,11017,002,2024_Jan_04_1958,MFTM_A_new1021,2021.2.3,59.86543448317001,
,,,,,,,,stim/Instruction_adaptive.png,conditions/adaptive.xlsx,test,-0.6,-0.6,-0.6,0.6,0.6,left,L,,,,,0,1,1,1,0,39,39,67,,,,,,,,,,,,,,,,,,,,,,,,,,,,,,,,,,,,,,,,,,,,233.84115069999825,None,left,1,0.8371268999762833,234.34133409999777,235.34350640000775,234.34133409999777,234.8427982000867,234.34133409999777,234.8427982000867,234.34133409999777,234.8427982000867,234.34133409999777,234.8427982000867,234.34133409999777,234.8427982000867,234.826188200037,235.32646340003703,234.826188200037,235.32646340003703,234.826188200037,235.32646340003703,234.826188200037,235.32646340003703,234.826188200037,235.32646340003703,234.826188200037,235.32646340003703,234.826188200037,235.32646340003703,234.826188200037,235.32646340003703,234.34133409999777,None,235.32646340003703,237.22881070000585,0.5000000000000002,237.24602970003616,None,237.99706750002224,None,,,,,,,[1.89325],3.770000000000003,0.75,11017,002,2024_Jan_04_1958,MFTM_A_new1021,2021.2.3,59.86543448317001,
,,,,,,,,stim/Instruction_adaptive.png,conditions/adaptive.xlsx,test,-0.6,-0.6,-0.6,0.6,0.6,left,L,,,,,0,1,1,1,0,40,40,91,,,,,,,,,,,,,,,,,,,,,,,,,,,,,,,,,,,,,,,,,,,,238.49836630001664,None,left,1,0.8033133000135422,238.99893280002289,239.98317650007084,238.99893280002289,239.48329470003955,238.99893280002289,239.48329470003955,238.99893280002289,239.48329470003955,238.99893280002289,239.48329470003955,238.99893280002289,239.48329470003955,239.46559370006435,239.96710120001808,239.46559370006435,239.96710120001808,239.46559370006435,239.96710120001808,239.46559370006435,239.96710120001808,239.46559370006435,239.96710120001808,239.46559370006435,239.96710120001808,239.46559370006435,239.96710120001808,239.46559370006435,239.96710120001808,238.99893280002289,None,239.96710120001808,241.87029200000688,0.4800000000000002,241.8872396000661,None,242.63694070000201,None,,,,,,,[1.89634146],3.810000000000003,0.7560975609756098,11017,002,2024_Jan_04_1958,MFTM_A_new1021,2021.2.3,59.86543448317001,
,,,,,,,,stim/Instruction_adaptive.png,conditions/adaptive.xlsx,test,-0.6,-0.6,-0.6,0.6,0.6,left,L,,,,,0,1,1,1,0,41,41,9,,,,,,,,,,,,,,,,,,,,,,,,,,,,,,,,,,,,,,,,,,,,243.13856640004087,None,left,1,1.1559722000965849,243.63844170002267,244.62368200009223,243.63844170002267,244.12303850008175,243.63844170002267,244.12303850008175,243.63844170002267,244.12303850008175,243.63844170002267,244.12303850008175,243.63844170002267,244.12303850008175,244.09026950004045,244.59046620002482,244.09026950004045,244.59046620002482,244.09026950004045,244.59046620002482,244.09026950004045,244.59046620002482,244.09026950004045,244.59046620002482,244.09026950004045,244.59046620002482,244.09026950004045,244.59046620002482,244.09026950004045,244.59046620002482,243.63844170002267,None,244.59046620002482,246.4931264000479,0.4700000000000002,246.51008710009046,None,247.2607542000478,None,,,,,,,[1.89952381],3.860000000000003,0.7619047619047619,11017,002,2024_Jan_04_1958,MFTM_A_new1021,2021.2.3,59.86543448317001,
,,,,,,,,stim/Instruction_adaptive.png,conditions/adaptive.xlsx,test,-0.6,-0.6,-0.6,0.6,0.6,left,L,,,,,0,1,1,1,0,42,42,61,,,,,,,,,,,,,,,,,,,,,,,,,,,,,,,,,,,,,,,,,,,,247.76232010009699,None,left,1,0.9959211000241339,248.26272380002774,249.21390760003123,248.26272380002774,248.71331280004233,248.26272380002774,248.71331280004233,248.26272380002774,248.71331280004233,248.26272380002774,248.71331280004233,248.26272380002774,248.71331280004233,248.69655250001233,249.19759360002354,248.69655250001233,249.19759360002354,248.69655250001233,249.19759360002354,248.69655250001233,249.19759360002354,248.69655250001233,249.19759360002354,248.69655250001233,249.19759360002354,248.69655250001233,249.19759360002354,248.69655250001233,249.19759360002354,248.26272380002774,None,249.19759360002354,251.09956710005645,0.4500000000000002,251.116142300074,None,251.86777840007562,None,,,,,,,[1.90302326],3.900000000000003,0.7674418604651163,11017,002,2024_Jan_04_1958,MFTM_A_new1021,2021.2.3,59.86543448317001,
,,,,,,,,stim/Instruction_adaptive.png,conditions/adaptive.xlsx,test,-0.6,-0.6,-0.6,0.6,0.6,left,L,,,,,0,1,1,1,0,43,43,71,,,,,,,,,,,,,,,,,,,,,,,,,,,,,,,,,,,,,,,,,,,,252.36964910000097,None,right,0,0.8130623999750242,252.86965070001315,253.82051580003463,252.86965070001315,253.31953060009982,252.86965070001315,253.31953060009982,252.86965070001315,253.31953060009982,252.86965070001315,253.31953060009982,252.86965070001315,253.31953060009982,253.2859803000465,253.78781020001043,253.2859803000465,253.78781020001043,253.2859803000465,253.78781020001043,253.2859803000465,253.78781020001043,253.2859803000465,253.78781020001043,253.2859803000465,253.78781020001043,253.2859803000465,253.78781020001043,253.2859803000465,253.78781020001043,252.86965070001315,None,253.78781020001043,255.7066429000115,0.44000000000000017,255.7230591000989,None,256.47461520007346,None,,,,,,,[1.90659091],3.780000000000003,0.75,11017,002,2024_Jan_04_1958,MFTM_A_new1021,2021.2.3,59.86543448317001,
,,,,,,,,stim/Instruction_adaptive.png,conditions/adaptive.xlsx,test,-0.6,-0.6,-0.6,0.6,0.6,left,L,,,,,0,1,1,1,0,44,44,45,,,,,,,,,,,,,,,,,,,,,,,,,,,,,,,,,,,,,,,,,,,,256.9755384000018,None,right,0,0.8866987000219524,257.4755615000613,258.4608069000533,257.4755615000613,257.9611298000673,257.4755615000613,257.9611298000673,257.4755615000613,257.9611298000673,257.4755615000613,257.9611298000673,257.4755615000613,257.9611298000673,257.9438125001034,258.4444013000466,257.9438125001034,258.4444013000466,257.9438125001034,258.4444013000466,257.9438125001034,258.4444013000466,257.9438125001034,258.4444013000466,257.9438125001034,258.4444013000466,257.9438125001034,258.4444013000466,257.9438125001034,258.4444013000466,257.4755615000613,None,258.4444013000466,260.3636575000128,0.4800000000000002,260.3797142000403,None,261.131765200058,None,,,,,,,[1.90911111],3.650000000000003,0.7333333333333333,11017,002,2024_Jan_04_1958,MFTM_A_new1021,2021.2.3,59.86543448317001,
,,,,,,,,stim/Instruction_adaptive.png,conditions/adaptive.xlsx,test,0.6,0.6,0.6,-0.6,-0.6,right,R,,,,,0,1,1,1,0,45,45,78,,,,,,,,,,,,,,,,,,,,,,,,,,,,,,,,,,,,,,,,,,,,261.6329455000814,None,left,0,1.061437499942258,262.13284390000626,263.1671985000139,262.13284390000626,262.6666034000227,262.13284390000626,262.6666034000227,262.13284390000626,262.6666034000227,262.13284390000626,262.6666034000227,262.13284390000626,262.6666034000227,262.6338684000075,263.1338275000453,262.6338684000075,263.1338275000453,262.6338684000075,263.1338275000453,262.6338684000075,263.1338275000453,262.6338684000075,263.1338275000453,262.6338684000075,263.1338275000453,262.6338684000075,263.1338275000453,262.6338684000075,263.1338275000453,262.13284390000626,None,263.1338275000453,265.05402350006625,0.5200000000000002,265.0701237000758,None,265.82187270000577,None,,,,,,,[1.91065217],3.5100000000000025,0.717391304347826,11017,002,2024_Jan_04_1958,MFTM_A_new1021,2021.2.3,59.86543448317001,
,,,,,,,,stim/Instruction_adaptive.png,conditions/adaptive.xlsx,test,-0.6,-0.6,-0.6,0.6,0.6,left,L,,,,,0,1,1,1,0,46,46,89,,,,,,,,,,,,,,,,,,,,,,,,,,,,,,,,,,,,,,,,,,,,266.3229908000212,None,left,1,1.2916532000526786,266.8226949000964,267.90811170008965,266.8226949000964,267.4078966000816,266.8226949000964,267.4078966000816,266.8226949000964,267.4078966000816,266.8226949000964,267.4078966000816,266.8226949000964,267.4078966000816,267.39056480000727,267.8909415000817,267.39056480000727,267.8909415000817,267.39056480000727,267.8909415000817,267.39056480000727,267.8909415000817,267.39056480000727,267.8909415000817,267.39056480000727,267.8909415000817,267.39056480000727,267.8909415000817,267.39056480000727,267.8909415000817,266.8226949000964,None,267.8909415000817,269.8107303000288,0.5800000000000003,269.8272101000184,None,270.57899830001406,None,,,,,,,[1.91085106],3.5600000000000027,0.723404255319149,11017,002,2024_Jan_04_1958,MFTM_A_new1021,2021.2.3,59.86543448317001,
,,,,,,,,stim/Instruction_adaptive.png,conditions/adaptive.xlsx,test,-0.6,-0.6,-0.6,0.6,0.6,left,L,,,,,0,1,1,1,0,47,47,59,,,,,,,,,,,,,,,,,,,,,,,,,,,,,,,,,,,,,,,,,,,,271.07915050000884,None,right,0,0.9264554000692442,271.5798211999936,272.6479242000496,271.5798211999936,272.1472023000242,271.5798211999936,272.1472023000242,271.5798211999936,272.1472023000242,271.5798211999936,272.1472023000242,271.5798211999936,272.1472023000242,272.11414270009845,272.6147161000408,272.11414270009845,272.6147161000408,272.11414270009845,272.6147161000408,272.11414270009845,272.6147161000408,272.11414270009845,272.6147161000408,272.11414270009845,272.6147161000408,272.11414270009845,272.6147161000408,272.11414270009845,272.6147161000408,271.5798211999936,None,272.6147161000408,274.5340988000389,0.5600000000000003,274.5508291000733,None,275.3021437000716,None,,,,,,,[1.91145833],3.4200000000000026,0.7083333333333334,11017,002,2024_Jan_04_1958,MFTM_A_new1021,2021.2.3,59.86543448317001,
,,,,,,,,stim/Instruction_adaptive.png,conditions/adaptive.xlsx,test,-0.6,-0.6,-0.6,0.6,0.6,left,L,,,,,0,1,1,1,0,48,48,1,,,,,,,,,,,,,,,,,,,,,,,,,,,,,,,,,,,,,,,,,,,,275.80367480008863,None,right,0,0.9628621999872848,276.3034260000568,277.421640100074,276.3034260000568,276.9213113000151,276.3034260000568,276.9213113000151,276.3034260000568,276.9213113000151,276.3034260000568,276.9213113000151,276.3034260000568,276.9213113000151,276.8876411000965,277.3884181000758,276.8876411000965,277.3884181000758,276.8876411000965,277.3884181000758,276.8876411000965,277.3884181000758,276.8876411000965,277.3884181000758,276.8876411000965,277.3884181000758,276.8876411000965,277.3884181000758,276.8876411000965,277.3884181000758,276.3034260000568,None,277.3884181000758,279.29111560003366,0.6100000000000003,279.30794220010284,None,280.060148700024,None,,,,,,,[[1.89]],3.2700000000000022,0.6938775510204082,11017,002,2024_Jan_04_1958,MFTM_A_new1021,2021.2.3,59.86543448317001,
,,,,,,,,stim/Instruction_adaptive.png,conditions/adaptive.xlsx,test,-0.6,-0.6,-0.6,0.6,0.6,left,L,,,,,0,1,1,1,0,49,49,83,,,,,,,,,,,,,,,,,,,,,,,,,,,,,,,,,,,,,,,,,,,,280.56033460004255,None,left,1,0.6857193999458104,281.0605797000462,282.2456764000235,281.0605797000462,281.7449194000801,281.0605797000462,281.7449194000801,281.0605797000462,281.7449194000801,281.0605797000462,281.7449194000801,281.0605797000462,281.7449194000801,281.7280507000396,282.2296998000238,281.7280507000396,282.2296998000238,281.7280507000396,282.2296998000238,281.7280507000396,282.2296998000238,281.7280507000396,282.2296998000238,281.7280507000396,282.2296998000238,281.7280507000396,282.2296998000238,281.7280507000396,282.2296998000238,281.0605797000462,None,282.2296998000238,None,0.6800000000000004,284.06541929999366,None,284.81753890006803,None,,,,,,,[[1.82]],3.3200000000000025,0.7,11017,002,2024_Jan_04_1958,MFTM_A_new1021,2021.2.3,59.86543448317001,
,,,,,,,,stim/Instruction_adaptive.png,conditions/adaptive.xlsx,test,0.6,0.6,0.6,-0.6,-0.6,right,R,,,,,0,1,1,1,0,50,50,46,,,,,,,,,,,,,,,,,,,,,,,,,,,,,,,,,,,,,,,,,,,,285.31734200008214,None,right,1,1.0883644999703392,285.81808450003155,286.98630140000023,285.81808450003155,286.48614980001,285.81808450003155,286.48614980001,285.81808450003155,286.48614980001,285.81808450003155,286.48614980001,285.81808450003155,286.48614980001,286.45182090008166,286.95286850002594,286.45182090008166,286.95286850002594,286.45182090008166,286.95286850002594,286.45182090008166,286.95286850002594,286.45182090008166,286.95286850002594,286.45182090008166,286.95286850002594,286.45182090008166,286.95286850002594,286.45182090008166,286.95286850002594,285.81808450003155,None,286.95286850002594,288.8053470000159,0.6600000000000004,288.8218310000375,None,289.5743603000883,None,,,,,,,[[1.84]],3.3700000000000028,0.7058823529411765,11017,002,2024_Jan_04_1958,MFTM_A_new1021,2021.2.3,59.86543448317001,
,,,,,,,,stim/Instruction_adaptive.png,conditions/adaptive.xlsx,test,-0.6,-0.6,-0.6,0.6,0.6,left,L,,,,,0,1,1,1,0,51,51,93,,,,,,,,,,,,,,,,,,,,,,,,,,,,,,,,,,,,,,,,,,,,290.07366210001055,None,left,1,0.9483031999552622,290.57466700009536,291.72723870002665,290.57466700009536,291.225563300075,290.57466700009536,291.225563300075,290.57466700009536,291.225563300075,290.57466700009536,291.225563300075,290.57466700009536,291.225563300075,291.192765600048,291.69291810004506,291.192765600048,291.69291810004506,291.192765600048,291.69291810004506,291.192765600048,291.69291810004506,291.192765600048,291.69291810004506,291.192765600048,291.69291810004506,291.192765600048,291.69291810004506,291.192765600048,291.69291810004506,290.57466700009536,None,291.69291810004506,293.56317179999314,0.6400000000000003,293.58043820003513,None,294.33120090002194,None,,,,,,,[[1.86]],3.4200000000000026,0.7115384615384616,11017,002,2024_Jan_04_1958,MFTM_A_new1021,2021.2.3,59.86543448317001,
,,,,,,,,stim/Instruction_adaptive.png,conditions/adaptive.xlsx,test,0.6,0.6,0.6,-0.6,-0.6,right,R,,,,,0,1,1,1,0,52,52,84,,,,,,,,,,,,,,,,,,,,,,,,,,,,,,,,,,,,,,,,,,,,294.83161820005625,None,left,0,0.9506971000228077,295.3317065000301,296.4500089000212,295.3317065000301,295.9492589000147,295.3317065000301,295.9492589000147,295.3317065000301,295.9492589000147,295.3317065000301,295.9492589000147,295.3317065000301,295.9492589000147,295.93339700007346,296.4342470000265,295.93339700007346,296.4342470000265,295.93339700007346,296.4342470000265,295.93339700007346,296.4342470000265,295.93339700007346,296.4342470000265,295.93339700007346,296.4342470000265,295.93339700007346,296.4342470000265,295.93339700007346,296.4342470000265,295.3317065000301,None,296.4342470000265,None,0.6100000000000003,298.3360426001018,None,299.087470700033,None,,,,,,,[[1.89]],3.2800000000000025,0.6981132075471698,11017,002,2024_Jan_04_1958,MFTM_A_new1021,2021.2.3,59.86543448317001,
,,,,,,,,stim/Instruction_adaptive.png,conditions/adaptive.xlsx,test,-0.6,-0.6,-0.6,0.6,0.6,left,L,,,,,0,1,1,1,0,53,53,97,,,,,,,,,,,,,,,,,,,,,,,,,,,,,,,,,,,,,,,,,,,,299.5880202000262,None,left,1,1.3128775000805035,300.08942060009576,301.2737782000331,300.08942060009576,300.77314380009193,300.08942060009576,300.77314380009193,300.08942060009576,300.77314380009193,300.08942060009576,300.77314380009193,300.08942060009576,300.77314380009193,300.7564953000983,301.257092300104,300.7564953000983,301.257092300104,300.7564953000983,301.257092300104,300.7564953000983,301.257092300104,300.7564953000983,301.257092300104,300.7564953000983,301.257092300104,300.7564953000983,301.257092300104,300.7564953000983,301.257092300104,300.08942060009576,None,301.257092300104,303.0768823000835,0.6800000000000004,303.0929327000631,None,303.8442889000289,None,,,,,,,[[1.82]],3.3300000000000027,0.7037037037037037,11017,002,2024_Jan_04_1958,MFTM_A_new1021,2021.2.3,59.86543448317001,
,,,,,,,,stim/Instruction_adaptive.png,conditions/adaptive.xlsx,test,-0.6,-0.6,-0.6,0.6,0.6,left,L,,,,,0,1,1,1,0,54,54,29,,,,,,,,,,,,,,,,,,,,,,,,,,,,,,,,,,,,,,,,,,,,304.34604550001677,None,right,0,1.0358483000891283,304.8463833000278,305.9979484000942,304.8463833000278,305.49676060001366,304.8463833000278,305.49676060001366,304.8463833000278,305.49676060001366,304.8463833000278,305.49676060001366,304.8463833000278,305.49676060001366,305.4808267999906,305.9814926000545,305.4808267999906,305.9814926000545,305.4808267999906,305.9814926000545,305.4808267999906,305.9814926000545,305.4808267999906,305.9814926000545,305.4808267999906,305.9814926000545,305.4808267999906,305.9814926000545,305.4808267999906,305.9814926000545,304.8463833000278,None,305.9814926000545,307.8343839000445,0.6500000000000004,307.8497815000592,None,308.60226380010135,None,,,,,,,[[1.85]],3.190000000000002,0.6909090909090909,11017,002,2024_Jan_04_1958,MFTM_A_new1021,2021.2.3,59.86543448317001,
,,,,,,,,stim/Instruction_adaptive.png,conditions/adaptive.xlsx,test,0.6,0.6,0.6,-0.6,-0.6,right,R,,,,,0,1,1,1,0,55,55,44,,,,,,,,,,,,,,,,,,,,,,,,,,,,,,,,,,,,,,,,,,,,309.10227340005804,None,left,0,1.0955402000108734,309.60280450002756,310.8223749001045,309.60280450002756,310.3379595000297,309.60280450002756,310.3379595000297,309.60280450002756,310.3379595000297,309.60280450002756,310.3379595000297,309.60280450002756,310.3379595000297,310.3045470000943,310.8053318000166,310.3045470000943,310.8053318000166,310.3045470000943,310.8053318000166,310.3045470000943,310.8053318000166,310.3045470000943,310.8053318000166,310.3045470000943,310.8053318000166,310.3045470000943,310.8053318000166,310.3045470000943,310.8053318000166,309.60280450002756,None,310.8053318000166,312.5915764000965,0.7200000000000004,312.6072755000787,None,313.358504200005,None,,,,,,,[[1.78]],3.0400000000000023,0.6785714285714286,11017,002,2024_Jan_04_1958,MFTM_A_new1021,2021.2.3,59.86543448317001,
,,,,,,,,stim/Instruction_adaptive.png,conditions/adaptive.xlsx,test,0.6,0.6,0.6,-0.6,-0.6,right,R,,,,,0,1,1,1,0,56,56,98,,,,,,,,,,,,,,,,,,,,,,,,,,,,,,,,,,,,,,,,,,,,313.86009360000025,None,left,0,1.6185993000399321,314.35988400003407,315.66201100009494,314.35988400003407,315.1611210000701,314.35988400003407,315.1611210000701,314.35988400003407,315.1611210000701,314.35988400003407,315.1611210000701,314.35988400003407,315.1611210000701,315.14496920001693,315.64592020004056,315.14496920001693,315.64592020004056,315.14496920001693,315.64592020004056,315.14496920001693,315.64592020004056,315.14496920001693,315.64592020004056,315.14496920001693,315.64592020004056,315.14496920001693,315.64592020004056,315.14496920001693,315.64592020004056,314.35988400003407,None,315.64592020004056,317.34856970002875,0.8000000000000005,317.3650784000056,None,318.11585320008453,None,,,,,,,[[1.7]],2.870000000000002,0.6666666666666666,11017,002,2024_Jan_04_1958,MFTM_A_new1021,2021.2.3,59.86543448317001,
,,,,,,,,stim/Instruction_adaptive.png,conditions/adaptive.xlsx,test,-0.6,-0.6,-0.6,0.6,0.6,left,L,,,,,0,1,1,1,0,57,57,35,,,,,,,,,,,,,,,,,,,,,,,,,,,,,,,,,,,,,,,,,,,,318.6167355000507,None,right,0,1.341444700025022,319.1168481000932,320.51984750002157,319.1168481000932,320.01810790004674,319.1168481000932,320.01810790004674,319.1168481000932,320.01810790004674,319.1168481000932,320.01810790004674,319.1168481000932,320.01810790004674,320.00138100003824,320.50276880001184,320.00138100003824,320.50276880001184,320.00138100003824,320.50276880001184,320.00138100003824,320.50276880001184,320.00138100003824,320.50276880001184,320.00138100003824,320.50276880001184,320.00138100003824,320.50276880001184,320.00138100003824,320.50276880001184,319.1168481000932,None,320.50276880001184,322.1057238000212,0.9000000000000006,322.12149620009586,None,322.87311020004563,None,,,,,,,[[1.6]],2.680000000000002,0.6551724137931034,11017,002,2024_Jan_04_1958,MFTM_A_new1021,2021.2.3,59.86543448317001,
,,,,,,,,stim/Instruction_adaptive.png,conditions/adaptive.xlsx,test,0.6,0.6,0.6,-0.6,-0.6,right,R,,,,,0,1,1,1,0,58,58,72,,,,,,,,,,,,,,,,,,,,,,,,,,,,,,,,,,,,,,,,,,,,323.3739276000997,None,right,1,1.3922449999954551,323.8740446000593,325.41042830003425,323.8740446000593,324.9088427000679,323.8740446000593,324.9088427000679,323.8740446000593,324.9088427000679,323.8740446000593,324.9088427000679,323.8740446000593,324.9088427000679,324.8922606999986,325.3935434001032,324.8922606999986,325.3935434001032,324.8922606999986,325.3935434001032,324.8922606999986,325.3935434001032,324.8922606999986,325.3935434001032,324.8922606999986,325.3935434001032,324.8922606999986,325.3935434001032,324.8922606999986,325.3935434001032,323.8740446000593,None,325.3935434001032,None,1.0300000000000007,326.8784220000962,None,327.63005850010086,None,,,,,,,[[1.47]],2.7500000000000018,0.6610169491525424,11017,002,2024_Jan_04_1958,MFTM_A_new1021,2021.2.3,59.86543448317001,
,,,,,,,,stim/Instruction_adaptive.png,conditions/adaptive.xlsx,test,-0.6,-0.6,-0.6,0.6,0.6,left,L,,,,,0,1,1,1,0,59,59,23,,,,,,,,,,,,,,,,,,,,,,,,,,,,,,,,,,,,,,,,,,,,328.13028020004276,None,left,1,1.2275430000154302,328.63088690000586,330.1164642000804,328.63088690000586,329.6164550000103,328.63088690000586,329.6164550000103,328.63088690000586,329.6164550000103,328.63088690000586,329.6164550000103,328.63088690000586,329.6164550000103,329.599155300064,330.09977670002263,329.599155300064,330.09977670002263,329.599155300064,330.09977670002263,329.599155300064,330.09977670002263,329.599155300064,330.09977670002263,329.599155300064,330.09977670002263,329.599155300064,330.09977670002263,329.599155300064,330.09977670002263,328.63088690000586,None,330.09977670002263,None,0.9800000000000006,331.63613830006216,None,332.3867350000655,None,,,,,,,[[1.52]],2.8100000000000023,0.6666666666666666,11017,002,2024_Jan_04_1958,MFTM_A_new1021,2021.2.3,59.86543448317001,
,,,,,,,,stim/Instruction_adaptive.png,conditions/adaptive.xlsx,test,-0.6,-0.6,-0.6,0.6,0.6,left,L,,,,,0,1,1,1,0,60,60,11,,,,,,,,,,,,,,,,,,,,,,,,,,,,,,,,,,,,,,,,,,,,332.88746900006663,None,right,0,1.413829000084661,333.38901670009363,334.84020100010093,333.38901670009363,334.3394415000221,333.38901670009363,334.3394415000221,333.38901670009363,334.3394415000221,333.38901670009363,334.3394415000221,333.38901670009363,334.3394415000221,334.30615459999535,334.8075916999951,334.30615459999535,334.8075916999951,334.30615459999535,334.8075916999951,334.30615459999535,334.8075916999951,334.30615459999535,334.8075916999951,334.30615459999535,334.8075916999951,334.30615459999535,334.8075916999951,334.30615459999535,334.8075916999951,333.38901670009363,None,334.8075916999951,336.3758880000096,0.9400000000000006,336.392450000043,None,337.14426279999316,None,,,,,,,[[1.56]],2.6300000000000017,0.6557377049180327,11017,002,2024_Jan_04_1958,MFTM_A_new1021,2021.2.3,59.86543448317001,
,,,,,,,,stim/Instruction_adaptive.png,conditions/adaptive.xlsx,test,-0.6,-0.6,-0.6,0.6,0.6,left,L,,,,,0,1,1,1,0,61,61,27,,,,,,,,,,,,,,,,,,,,,,,,,,,,,,,,,,,,,,,,,,,,337.6455731000751,None,left,1,1.2642463999800384,338.14620529999956,339.7155736000277,338.14620529999956,339.21360690006986,338.14620529999956,339.21360690006986,338.14620529999956,339.21360690006986,338.14620529999956,339.21360690006986,338.14620529999956,339.21360690006986,339.18081620009616,339.6811317000538,339.18081620009616,339.6811317000538,339.18081620009616,339.6811317000538,339.18081620009616,339.6811317000538,339.18081620009616,339.6811317000538,339.18081620009616,339.6811317000538,339.18081620009616,339.6811317000538,339.18081620009616,339.6811317000538,338.14620529999956,None,339.6811317000538,341.13279970001895,1.0600000000000007,341.1496509000426,None,341.90101280005183,None,,,,,,,[[1.44]],2.700000000000002,0.6612903225806451,11017,002,2024_Jan_04_1958,MFTM_A_new1021,2021.2.3,59.86543448317001,
,,,,,,,,stim/Instruction_adaptive.png,conditions/adaptive.xlsx,test,0.6,0.6,0.6,-0.6,-0.6,right,R,,,,,0,1,1,1,0,62,62,32,,,,,,,,,,,,,,,,,,,,,,,,,,,,,,,,,,,,,,,,,,,,342.4025176001014,None,right,1,1.7956442999420688,342.90286210004706,344.42246560007334,342.90286210004706,343.92047910008114,342.90286210004706,343.92047910008114,342.90286210004706,343.92047910008114,342.90286210004706,343.92047910008114,342.90286210004706,343.92047910008114,343.90444220008794,344.40649230009876,343.90444220008794,344.40649230009876,343.90444220008794,344.40649230009876,343.90444220008794,344.40649230009876,343.90444220008794,344.40649230009876,343.90444220008794,344.40649230009876,343.90444220008794,344.40649230009876,343.90444220008794,344.40649230009876,342.90286210004706,None,344.3876336000394,345.88989109999966,1.0100000000000007,345.9066516000312,None,346.6580065001035,None,,,,,,,[[1.49]],2.760000000000002,0.6666666666666666,11017,002,2024_Jan_04_1958,MFTM_A_new1021,2021.2.3,59.86543448317001,
,,,,,,,,stim/Instruction_adaptive.png,conditions/adaptive.xlsx,test,-0.6,-0.6,-0.6,0.6,0.6,left,L,,,,,0,1,1,1,0,63,63,19,,,,,,,,,,,,,,,,,,,,,,,,,,,,,,,,,,,,,,,,,,,,347.15941930003464,None,left,1,1.2873170000966638,347.65921750001144,349.14476530009415,347.65921750001144,348.6445706000086,347.65921750001144,348.6445706000086,347.65921750001144,348.6445706000086,347.65921750001144,348.6445706000086,347.65921750001144,348.6445706000086,348.6105183000909,349.1113740000874,348.6105183000909,349.1113740000874,348.6105183000909,349.1113740000874,348.6105183000909,349.1113740000874,348.6105183000909,349.1113740000874,348.6105183000909,349.1113740000874,348.6105183000909,349.1113740000874,348.6105183000909,349.1113740000874,347.65921750001144,None,349.1113740000874,350.6471371999942,0.9700000000000006,350.6636548000388,None,351.41545870003756,None,,,,,,,[[1.53]],2.8100000000000023,0.671875,11017,002,2024_Jan_04_1958,MFTM_A_new1021,2021.2.3,59.86543448317001,
,,,,,,,,stim/Instruction_adaptive.png,conditions/adaptive.xlsx,test,0.6,0.6,0.6,-0.6,-0.6,right,R,,,,,0,1,1,1,0,64,64,68,,,,,,,,,,,,,,,,,,,,,,,,,,,,,,,,,,,,,,,,,,,,351.9161618000362,None,right,1,1.2662399999098852,352.41624740010593,353.86864060000516,352.41624740010593,353.3676814000355,352.41624740010593,353.3676814000355,352.41624740010593,353.3676814000355,352.41624740010593,353.3676814000355,352.41624740010593,353.3676814000355,353.3343722000718,353.835582000087,353.3343722000718,353.835582000087,353.3343722000718,353.835582000087,353.3343722000718,353.835582000087,353.3343722000718,353.835582000087,353.3343722000718,353.835582000087,353.3343722000718,353.835582000087,353.3343722000718,353.835582000087,352.41624740010593,None,353.835582000087,355.40406680002343,0.9400000000000006,355.42067860008683,None,356.17316750006285,None,,,,,,,[[1.56]],2.870000000000002,0.676923076923077,11017,002,2024_Jan_04_1958,MFTM_A_new1021,2021.2.3,59.86543448317001,
,,,,,,,,stim/Instruction_adaptive.png,conditions/adaptive.xlsx,test,0.6,0.6,0.6,-0.6,-0.6,right,R,,,,,0,1,1,1,0,65,65,42,,,,,,,,,,,,,,,,,,,,,,,,,,,,,,,,,,,,,,,,,,,,356.6734292000765,None,right,1,1.1965663000009954,357.1737322000554,358.57575960003305,357.1737322000554,358.07467110001016,357.1737322000554,358.07467110001016,357.1737322000554,358.07467110001016,357.1737322000554,358.07467110001016,357.1737322000554,358.07467110001016,358.05794910003897,358.558632500004,358.05794910003897,358.558632500004,358.05794910003897,358.558632500004,358.05794910003897,358.558632500004,358.05794910003897,358.558632500004,358.05794910003897,358.558632500004,358.05794910003897,358.558632500004,358.05794910003897,358.558632500004,357.1737322000554,None,358.558632500004,360.160861600074,0.9000000000000006,360.1776105000172,None,360.93012979999185,None,,,,,,,[[1.6]],2.910000000000002,0.6818181818181818,11017,002,2024_Jan_04_1958,MFTM_A_new1021,2021.2.3,59.86543448317001,
,,,,,,,,stim/Instruction_adaptive.png,conditions/adaptive.xlsx,test,-0.6,-0.6,-0.6,0.6,0.6,left,L,,,,,0,1,1,1,0,66,66,77,,,,,,,,,,,,,,,,,,,,,,,,,,,,,,,,,,,,,,,,,,,,361.4301868000766,None,right,0,1.2719547000015154,361.9304218000034,363.3165431000525,361.9304218000034,362.8161170000676,361.9304218000034,362.8161170000676,361.9304218000034,362.8161170000676,361.9304218000034,362.8161170000676,361.9304218000034,362.8161170000676,362.79823730001226,363.30008620000444,362.79823730001226,363.30008620000444,362.79823730001226,363.30008620000444,362.79823730001226,363.30008620000444,362.79823730001226,363.30008620000444,362.79823730001226,363.30008620000444,362.79823730001226,363.30008620000444,362.79823730001226,363.30008620000444,361.9304218000034,None,363.30008620000444,None,0.8800000000000006,364.93580810003914,None,365.6863543000072,None,,,,,,,[[1.62]],2.7700000000000022,0.6716417910447762,11017,002,2024_Jan_04_1958,MFTM_A_new1021,2021.2.3,59.86543448317001,
,,,,,,,,stim/Instruction_adaptive.png,conditions/adaptive.xlsx,test,0.6,0.6,0.6,-0.6,-0.6,right,R,,,,,0,1,1,1,0,67,67,38,,,,,,,,,,,,,,,,,,,,,,,,,,,,,,,,,,,,,,,,,,,,366.1867048999993,None,left,0,1.939206900075078,366.6875036000274,368.1563005000353,366.6875036000274,367.6555664000334,366.6875036000274,367.6555664000334,366.6875036000274,367.6555664000334,366.6875036000274,367.6555664000334,366.6875036000274,367.6555664000334,367.63886320008896,368.1395588000305,367.63886320008896,368.1395588000305,367.63886320008896,368.1395588000305,367.63886320008896,368.1395588000305,367.63886320008896,368.1395588000305,367.63886320008896,368.1395588000305,367.63886320008896,368.1395588000305,367.63886320008896,368.1395588000305,366.6875036000274,None,368.1395588000305,None,0.9600000000000006,369.6927615000168,None,370.44388600008097,None,,,,,,,[[1.54]],2.620000000000002,0.6617647058823529,11017,002,2024_Jan_04_1958,MFTM_A_new1021,2021.2.3,59.86543448317001,
,,,,,,,,stim/Instruction_adaptive.png,conditions/adaptive.xlsx,test,0.6,0.6,0.6,-0.6,-0.6,right,R,,,,,0,1,1,1,0,68,68,28,,,,,,,,,,,,,,,,,,,,,,,,,,,,,,,,,,,,,,,,,,,,370.9439420000417,None,right,1,1.3582852999679744,371.44445629999973,373.01353360002395,371.44445629999973,372.52938290010206,371.44445629999973,372.52938290010206,371.44445629999973,372.52938290010206,371.44445629999973,372.52938290010206,371.44445629999973,372.52938290010206,372.49600280006416,372.996925799991,372.49600280006416,372.996925799991,372.49600280006416,372.996925799991,372.49600280006416,372.996925799991,372.49600280006416,372.996925799991,372.49600280006416,372.996925799991,372.49600280006416,372.996925799991,372.49600280006416,372.996925799991,371.44445629999973,None,372.996925799991,374.4327247000765,1.0700000000000007,374.448747400078,None,375.20016580005176,None,,,,,,,[[1.43]],2.6700000000000017,0.6666666666666666,11017,002,2024_Jan_04_1958,MFTM_A_new1021,2021.2.3,59.86543448317001,
,,,,,,,,stim/Instruction_adaptive.png,conditions/adaptive.xlsx,test,0.6,0.6,0.6,-0.6,-0.6,right,R,,,,,0,1,1,1,0,69,69,22,,,,,,,,,,,,,,,,,,,,,,,,,,,,,,,,,,,,,,,,,,,,375.7014761000173,None,right,1,1.3369279999751598,376.201567400014,377.73794840008486,376.201567400014,377.2374688000418,376.201567400014,377.2374688000418,376.201567400014,377.2374688000418,376.201567400014,377.2374688000418,376.201567400014,377.2374688000418,377.21967820008285,377.72059700009413,377.21967820008285,377.72059700009413,377.21967820008285,377.72059700009413,377.21967820008285,377.72059700009413,377.21967820008285,377.72059700009413,377.21967820008285,377.72059700009413,377.21967820008285,377.72059700009413,377.21967820008285,377.72059700009413,376.201567400014,None,377.72059700009413,None,1.0300000000000007,379.20630080008414,None,379.957059700042,None,,,,,,,[[1.47]],2.730000000000002,0.6714285714285714,11017,002,2024_Jan_04_1958,MFTM_A_new1021,2021.2.3,59.86543448317001,
,,,,,,,,stim/Instruction_adaptive.png,conditions/adaptive.xlsx,test,0.6,0.6,0.6,-0.6,-0.6,right,R,,,,,0,1,1,1,0,70,70,76,,,,,,,,,,,,,,,,,,,,,,,,,,,,,,,,,,,,,,,,,,,,380.4589996000286,None,right,1,1.475825099973008,380.95856540009845,382.46138810005505,380.95856540009845,381.9603854001034,380.95856540009845,381.9603854001034,380.95856540009845,381.9603854001034,380.95856540009845,381.9603854001034,380.95856540009845,381.9603854001034,381.9268594000023,382.42741890007164,381.9268594000023,382.42741890007164,381.9268594000023,382.42741890007164,381.9268594000023,382.42741890007164,381.9268594000023,382.42741890007164,381.9268594000023,382.42741890007164,381.9268594000023,382.42741890007164,381.9268594000023,382.42741890007164,380.95856540009845,None,382.42741890007164,383.9471120000817,0.9900000000000007,383.963816100033,None,384.7148901000619,None,,,,,,,[[1.51]],2.7700000000000022,0.676056338028169,11017,002,2024_Jan_04_1958,MFTM_A_new1021,2021.2.3,59.86543448317001,
,,,,,,,,stim/Instruction_adaptive.png,conditions/adaptive.xlsx,test,0.6,0.6,0.6,-0.6,-0.6,right,R,,,,,0,1,1,1,0,71,71,74,,,,,,,,,,,,,,,,,,,,,,,,,,,,,,,,,,,,,,,,,,,,385.2148854000261,None,left,0,1.2873067999025807,385.7156719000777,387.1845806000056,385.7156719000777,386.6844546000939,385.7156719000777,386.6844546000939,385.7156719000777,386.6844546000939,385.7156719000777,386.6844546000939,385.7156719000777,386.6844546000939,386.65033309999853,387.1520053000422,386.65033309999853,387.1520053000422,386.65033309999853,387.1520053000422,386.65033309999853,387.1520053000422,386.65033309999853,387.1520053000422,386.65033309999853,387.1520053000422,386.65033309999853,387.1520053000422,386.65033309999853,387.1520053000422,385.7156719000777,None,387.1520053000422,388.7034454999957,0.9600000000000006,388.7200307000894,None,389.4718183000805,None,,,,,,,[[1.54]],2.6300000000000017,0.6666666666666666,11017,002,2024_Jan_04_1958,MFTM_A_new1021,2021.2.3,59.86543448317001,
,,,,,,,,stim/Instruction_adaptive.png,conditions/adaptive.xlsx,test,-0.6,-0.6,-0.6,0.6,0.6,left,L,,,,,0,1,1,1,0,72,72,65,,,,,,,,,,,,,,,,,,,,,,,,,,,,,,,,,,,,,,,,,,,,389.97254020010587,None,left,1,1.4022925000172108,390.4732392000733,392.04292570007965,390.4732392000733,391.5414800000144,390.4732392000733,391.5414800000144,390.4732392000733,391.5414800000144,390.4732392000733,391.5414800000144,390.4732392000733,391.5414800000144,391.50761760002933,392.00861050002277,391.50761760002933,392.00861050002277,391.50761760002933,392.00861050002277,391.50761760002933,392.00861050002277,391.50761760002933,392.00861050002277,391.50761760002933,392.00861050002277,391.50761760002933,392.00861050002277,391.50761760002933,392.00861050002277,390.4732392000733,None,392.00861050002277,393.46056540007703,1.0600000000000007,393.4771402000915,None,394.2283925000811,None,,,,,,,[[1.44]],2.680000000000002,0.6712328767123288,11017,002,2024_Jan_04_1958,MFTM_A_new1021,2021.2.3,59.86543448317001,
,,,,,,,,stim/Instruction_adaptive.png,conditions/adaptive.xlsx,test,-0.6,-0.6,-0.6,0.6,0.6,left,L,,,,,0,1,1,1,0,73,73,95,,,,,,,,,,,,,,,,,,,,,,,,,,,,,,,,,,,,,,,,,,,,394.72991470003035,None,left,1,1.349262100062333,395.22968990006484,396.76544710004237,395.22968990006484,396.2646493000211,395.22968990006484,396.2646493000211,395.22968990006484,396.2646493000211,395.22968990006484,396.2646493000211,395.22968990006484,396.2646493000211,396.2489079000661,396.7487454999937,396.2489079000661,396.7487454999937,396.2489079000661,396.7487454999937,396.2489079000661,396.7487454999937,396.2489079000661,396.7487454999937,396.2489079000661,396.7487454999937,396.2489079000661,396.7487454999937,396.2489079000661,396.7487454999937,395.22968990006484,None,396.7487454999937,None,1.0300000000000007,398.23424680007156,None,398.98619250010233,None,,,,,,,[[1.47]],2.730000000000002,0.6756756756756757,11017,002,2024_Jan_04_1958,MFTM_A_new1021,2021.2.3,59.86543448317001,
,,,,,,,,stim/Instruction_adaptive.png,conditions/adaptive.xlsx,test,-0.6,-0.6,-0.6,0.6,0.6,left,L,,,,,0,1,1,1,0,74,74,33,,,,,,,,,,,,,,,,,,,,,,,,,,,,,,,,,,,,,,,,,,,,399.4867532000644,None,left,1,1.06412310001906,399.98686900001485,401.48965260002296,399.98686900001485,400.98883170005865,399.98686900001485,400.98883170005865,399.98686900001485,400.98883170005865,399.98686900001485,400.98883170005865,399.98686900001485,400.98883170005865,400.9553493000567,401.4563340001041,400.9553493000567,401.4563340001041,400.9553493000567,401.4563340001041,400.9553493000567,401.4563340001041,400.9553493000567,401.4563340001041,400.9553493000567,401.4563340001041,400.9553493000567,401.4563340001041,400.9553493000567,401.4563340001041,399.98686900001485,None,401.4563340001041,402.9753441000357,0.9900000000000007,402.991236000089,None,403.7422807000112,None,,,,,,,[[1.51]],2.7700000000000022,0.68,11017,002,2024_Jan_04_1958,MFTM_A_new1021,2021.2.3,59.86543448317001,
,,,,,,,,stim/Instruction_adaptive.png,conditions/adaptive.xlsx,test,0.6,0.6,0.6,-0.6,-0.6,right,R,,,,,0,1,1,1,0,75,75,50,,,,,,,,,,,,,,,,,,,,,,,,,,,,,,,,,,,,,,,,,,,,404.2430690000765,None,left,0,2.0192829000297934,404.74398220004514,406.21277690003626,404.74398220004514,405.71247790008783,404.74398220004514,405.71247790008783,404.74398220004514,405.71247790008783,404.74398220004514,405.71247790008783,404.74398220004514,405.71247790008783,405.6958630000008,406.1957956000697,405.6958630000008,406.1957956000697,405.6958630000008,406.1957956000697,405.6958630000008,406.1957956000697,405.6958630000008,406.1957956000697,405.6958630000008,406.1957956000697,405.6958630000008,406.1957956000697,405.6958630000008,406.1957956000697,404.74398220004514,None,406.1957956000697,None,0.9600000000000006,407.7481426000595,None,408.49947340006474,None,,,,,,,[[1.54]],2.650000000000002,0.6710526315789473,11017,002,2024_Jan_04_1958,MFTM_A_new1021,2021.2.3,59.86543448317001,
,,,,,,,,stim/Instruction_adaptive.png,conditions/adaptive.xlsx,test,-0.6,-0.6,-0.6,0.6,0.6,left,L,,,,,0,1,1,1,0,76,76,13,,,,,,,,,,,,,,,,,,,,,,,,,,,,,,,,,,,,,,,,,,,,409.00090570002794,None,left,1,1.445452700019814,409.50104960007593,411.0538751001004,409.50104960007593,410.5525096000638,409.50104960007593,410.5525096000638,409.50104960007593,410.5525096000638,409.50104960007593,410.5525096000638,409.50104960007593,410.5525096000638,410.53568259999156,411.037086400087,410.53568259999156,411.037086400087,410.53568259999156,411.037086400087,410.53568259999156,411.037086400087,410.53568259999156,411.037086400087,410.53568259999156,411.037086400087,410.53568259999156,411.037086400087,410.53568259999156,411.037086400087,409.50104960007593,None,411.037086400087,412.48883200006094,1.0500000000000007,412.50593920005485,None,413.2565075000748,None,,,,,,,[[1.45]],2.690000000000002,0.6753246753246753,11017,002,2024_Jan_04_1958,MFTM_A_new1021,2021.2.3,59.86543448317001,
,,,,,,,,stim/Instruction_adaptive.png,conditions/adaptive.xlsx,test,-0.6,-0.6,-0.6,0.6,0.6,left,L,,,,,0,1,1,1,0,77,77,99,,,,,,,,,,,,,,,,,,,,,,,,,,,,,,,,,,,,,,,,,,,,413.7578893000027,None,right,0,1.433272200054489,414.25788889999967,415.7783743001055,414.25788889999967,415.2929066000506,414.25788889999967,415.2929066000506,414.25788889999967,415.2929066000506,414.25788889999967,415.2929066000506,414.25788889999967,415.2929066000506,415.2593274000101,415.7605741000734,415.2593274000101,415.7605741000734,415.2593274000101,415.7605741000734,415.2593274000101,415.7605741000734,415.2593274000101,415.7605741000734,415.2593274000101,415.7605741000734,415.2593274000101,415.7605741000734,415.2593274000101,415.7605741000734,414.25788889999967,None,415.7605741000734,417.2459393000463,1.0200000000000007,417.26225210004486,None,418.0134973000968,None,,,,,,,[[1.48]],2.560000000000002,0.6666666666666666,11017,002,2024_Jan_04_1958,MFTM_A_new1021,2021.2.3,59.86543448317001,
,,,,,,,,stim/Instruction_adaptive.png,conditions/adaptive.xlsx,test,0.6,0.6,0.6,-0.6,-0.6,right,R,,,,,0,1,1,1,0,78,78,12,,,,,,,,,,,,,,,,,,,,,,,,,,,,,,,,,,,,,,,,,,,,418.5142642999999,None,right,1,1.6599203000077978,419.01466920005623,420.6342031999957,419.01466920005623,420.13346440007444,419.01466920005623,420.13346440007444,419.01466920005623,420.13346440007444,419.01466920005623,420.13346440007444,419.01466920005623,420.13346440007444,420.1172970000189,420.61841560003813,420.1172970000189,420.61841560003813,420.1172970000189,420.61841560003813,420.1172970000189,420.61841560003813,420.1172970000189,420.61841560003813,420.1172970000189,420.61841560003813,420.1172970000189,420.61841560003813,420.1172970000189,420.61841560003813,419.01466920005623,None,420.61841560003813,422.0040682000108,1.1200000000000008,422.018741200096,None,422.77114070008975,None,,,,,,,[[1.38]],2.610000000000002,0.6708860759493671,11017,002,2024_Jan_04_1958,MFTM_A_new1021,2021.2.3,59.86543448317001,
,,,,,,,,stim/Instruction_adaptive.png,conditions/adaptive.xlsx,test,0.6,0.6,0.6,-0.6,-0.6,right,R,,,,,0,1,1,1,0,79,79,10,,,,,,,,,,,,,,,,,,,,,,,,,,,,,,,,,,,,,,,,,,,,423.2723023000872,None,right,1,1.4224049999611452,423.7720269000856,425.35797490004916,423.7720269000856,424.8577394000022,423.7720269000856,424.8577394000022,423.7720269000856,424.8577394000022,423.7720269000856,424.8577394000022,423.7720269000856,424.8577394000022,424.8403328000568,425.34163820010144,424.8403328000568,425.34163820010144,424.8403328000568,425.34163820010144,424.8403328000568,425.34163820010144,424.8403328000568,425.34163820010144,424.8403328000568,425.34163820010144,424.8403328000568,425.34163820010144,424.8403328000568,425.34163820010144,423.7720269000856,None,425.34163820010144,None,1.0800000000000007,426.77770640002564,None,427.528082700097,None,,,,,,,[[1.42]],2.650000000000002,0.675,11017,002,2024_Jan_04_1958,MFTM_A_new1021,2021.2.3,59.86543448317001,
,,,,,,,,stim/Instruction_adaptive.png,conditions/adaptive.xlsx,test,0.6,0.6,0.6,-0.6,-0.6,right,R,,,,,0,1,1,1,0,80,80,20,,,,,,,,,,,,,,,,,,,,,,,,,,,,,,,,,,,,,,,,,,,,428.02909030008595,None,right,1,1.737837600056082,428.5291729000164,430.0817880000686,428.5291729000164,429.5808898000978,428.5291729000164,429.5808898000978,428.5291729000164,429.5808898000978,428.5291729000164,429.5808898000978,428.5291729000164,429.5808898000978,429.56442220008466,430.0653457000153,429.56442220008466,430.0653457000153,429.56442220008466,430.0653457000153,429.56442220008466,430.0653457000153,429.56442220008466,430.0653457000153,429.56442220008466,430.0653457000153,429.56442220008466,430.0653457000153,429.56442220008466,430.0653457000153,428.5291729000164,None,430.0653457000153,431.51670280005783,1.0500000000000007,431.5345082000131,None,432.28517090005334,None,,,,,,,[[1.45]],2.690000000000002,0.6790123456790124,11017,002,2024_Jan_04_1958,MFTM_A_new1021,2021.2.3,59.86543448317001,
,,,,,,,,stim/Instruction_adaptive.png,conditions/adaptive.xlsx,test,-0.6,-0.6,-0.6,0.6,0.6,left,L,,,,,0,1,1,1,0,81,81,81,,,,,,,,,,,,,,,,,,,,,,,,,,,,,,,,,,,,,,,,,,,,432.7864893000806,None,left,1,1.1554472000570968,433.2871167000849,434.82168180006556,433.2871167000849,434.32211539999116,433.2871167000849,434.32211539999116,433.2871167000849,434.32211539999116,433.2871167000849,434.32211539999116,433.2871167000849,434.32211539999116,434.2876113000093,434.7891990999924,434.2876113000093,434.7891990999924,434.2876113000093,434.7891990999924,434.2876113000093,434.7891990999924,434.2876113000093,434.7891990999924,434.2876113000093,434.7891990999924,434.2876113000093,434.7891990999924,434.2876113000093,434.7891990999924,433.2871167000849,None,434.7891990999924,436.27390340005513,1.0200000000000007,436.2911344000604,None,437.0420632000314,None,,,,,,,[[1.48]],2.730000000000002,0.6829268292682927,11017,002,2024_Jan_04_1958,MFTM_A_new1021,2021.2.3,59.86543448317001,
,,,,,,,,stim/Instruction_adaptive.png,conditions/adaptive.xlsx,test,0.6,0.6,0.6,-0.6,-0.6,right,R,,,,,0,1,1,1,0,82,82,70,,,,,,,,,,,,,,,,,,,,,,,,,,,,,,,,,,,,,,,,,,,,437.5424775000429,None,right,1,1.3595385999651626,438.04306799999904,439.5456927000778,438.04306799999904,439.045486100018,438.04306799999904,439.045486100018,438.04306799999904,439.045486100018,438.04306799999904,439.045486100018,438.04306799999904,439.045486100018,439.0112088000169,439.5128851000918,439.0112088000169,439.5128851000918,439.0112088000169,439.5128851000918,439.0112088000169,439.5128851000918,439.0112088000169,439.5128851000918,439.0112088000169,439.5128851000918,439.0112088000169,439.5128851000918,439.0112088000169,439.5128851000918,438.04306799999904,None,439.5128851000918,441.03170240006875,0.9900000000000007,441.04812270007096,None,441.7995909000747,None,,,,,,,[[1.51]],2.7700000000000022,0.6867469879518072,11017,002,2024_Jan_04_1958,MFTM_A_new1021,2021.2.3,59.86543448317001,
,,,,,,,,stim/Instruction_adaptive.png,conditions/adaptive.xlsx,test,-0.6,-0.6,-0.6,0.6,0.6,left,L,,,,,0,1,1,1,0,83,83,63,,,,,,,,,,,,,,,,,,,,,,,,,,,,,,,,,,,,,,,,,,,,442.3001915999921,None,left,1,1.5783691999968141,442.8002536999993,444.26949750003405,442.8002536999993,443.76859430002514,442.8002536999993,443.76859430002514,442.8002536999993,443.76859430002514,442.8002536999993,443.76859430002514,442.8002536999993,443.76859430002514,443.7356329000322,444.2364232999971,443.7356329000322,444.2364232999971,443.7356329000322,444.2364232999971,443.7356329000322,444.2364232999971,443.7356329000322,444.2364232999971,443.7356329000322,444.2364232999971,443.7356329000322,444.2364232999971,443.7356329000322,444.2364232999971,442.8002536999993,None,444.2364232999971,445.78815430006944,0.9600000000000006,445.80574500001967,None,446.5565020000795,None,,,,,,,[[1.54]],2.800000000000002,0.6904761904761905,11017,002,2024_Jan_04_1958,MFTM_A_new1021,2021.2.3,59.86543448317001,
,,,,,,,,stim/Instruction_adaptive.png,conditions/adaptive.xlsx,test,-0.6,-0.6,-0.6,0.6,0.6,left,L,,,,,0,1,1,1,0,84,84,73,,,,,,,,,,,,,,,,,,,,,,,,,,,,,,,,,,,,,,,,,,,,447.0565036000917,None,left,1,1.46144570002798,447.55726040003356,449.01019090006594,447.55726040003356,448.5094386000419,447.55726040003356,448.5094386000419,447.55726040003356,448.5094386000419,447.55726040003356,448.5094386000419,447.55726040003356,448.5094386000419,448.47622110007796,448.97743710002396,448.47622110007796,448.97743710002396,448.47622110007796,448.97743710002396,448.47622110007796,448.97743710002396,448.47622110007796,448.97743710002396,448.47622110007796,448.97743710002396,448.47622110007796,448.97743710002396,448.47622110007796,448.97743710002396,447.55726040003356,None,448.97743710002396,450.5453892000951,0.9400000000000006,450.56239050009754,None,451.3130356000038,None,,,,,,,[[1.56]],2.840000000000002,0.6941176470588235,11017,002,2024_Jan_04_1958,MFTM_A_new1021,2021.2.3,59.86543448317001,
,,,,,,,,stim/Instruction_adaptive.png,conditions/adaptive.xlsx,test,-0.6,-0.6,-0.6,0.6,0.6,left,L,,,,,0,1,1,1,0,85,85,15,,,,,,,,,,,,,,,,,,,,,,,,,,,,,,,,,,,,,,,,,,,,451.81463830010034,None,right,0,1.4803013000637293,452.31424940004945,453.75110910006333,452.31424940004945,453.24971170001663,452.31424940004945,453.24971170001663,452.31424940004945,453.24971170001663,452.31424940004945,453.24971170001663,452.31424940004945,453.24971170001663,453.21637510007713,453.71639110008255,453.21637510007713,453.71639110008255,453.21637510007713,453.71639110008255,453.21637510007713,453.71639110008255,453.21637510007713,453.71639110008255,453.21637510007713,453.71639110008255,453.21637510007713,453.71639110008255,453.21637510007713,453.71639110008255,452.31424940004945,None,453.71639110008255,455.30308119999245,0.9200000000000006,455.3187495000893,None,456.07013130001724,None,,,,,,,[[1.58]],2.740000000000002,0.686046511627907,11017,002,2024_Jan_04_1958,MFTM_A_new1021,2021.2.3,59.86543448317001,
,,,,,,,,stim/Instruction_adaptive.png,conditions/adaptive.xlsx,test,0.6,0.6,0.6,-0.6,-0.6,right,R,,,,,0,1,1,1,0,86,86,36,,,,,,,,,,,,,,,,,,,,,,,,,,,,,,,,,,,,,,,,,,,,456.571362900082,None,right,1,1.3159137000329792,457.0713135000551,458.55686530005187,457.0713135000551,458.0562143001007,457.0713135000551,458.0562143001007,457.0713135000551,458.0562143001007,457.0713135000551,458.0562143001007,457.0713135000551,458.0562143001007,458.04017960000783,458.5409465000266,458.04017960000783,458.5409465000266,458.04017960000783,458.5409465000266,458.04017960000783,458.5409465000266,458.04017960000783,458.5409465000266,458.04017960000783,458.5409465000266,458.04017960000783,458.5409465000266,458.04017960000783,458.5409465000266,457.0713135000551,None,458.5409465000266,None,0.9800000000000006,460.07594770006835,None,460.82767730008345,None,,,,,,,[[1.52]],2.7700000000000022,0.6896551724137931,11017,002,2024_Jan_04_1958,MFTM_A_new1021,2021.2.3,59.86543448317001,
,,,,,,,,stim/Instruction_adaptive.png,conditions/adaptive.xlsx,test,-0.6,-0.6,-0.6,0.6,0.6,left,L,,,,,0,1,1,1,0,87,87,57,,,,,,,,,,,,,,,,,,,,,,,,,,,,,,,,,,,,,,,,,,,,461.327787599992,None,right,0,1.3341369000263512,461.8286238000728,463.29799099999946,461.8286238000728,462.79727080010343,461.8286238000728,462.79727080010343,461.8286238000728,462.79727080010343,461.8286238000728,462.79727080010343,461.8286238000728,462.79727080010343,462.7631476999959,463.26501920004375,462.7631476999959,463.26501920004375,462.7631476999959,463.26501920004375,462.7631476999959,463.26501920004375,462.7631476999959,463.26501920004375,462.7631476999959,463.26501920004375,462.7631476999959,463.26501920004375,462.7631476999959,463.26501920004375,461.8286238000728,None,463.26501920004375,464.81670160009526,0.9600000000000006,464.83334990008734,None,465.58391050004866,None,,,,,,,[[1.54]],2.6700000000000017,0.6818181818181818,11017,002,2024_Jan_04_1958,MFTM_A_new1021,2021.2.3,59.86543448317001,
,,,,,,,,stim/Instruction_adaptive.png,conditions/adaptive.xlsx,test,-0.6,-0.6,-0.6,0.6,0.6,left,L,,,,,0,1,1,1,0,88,88,87,,,,,,,,,,,,,,,,,,,,,,,,,,,,,,,,,,,,,,,,,,,,466.0854447000893,None,right,0,1.5053966001141816,466.58541659999173,468.1229506999953,466.58541659999173,467.62022350006737,466.58541659999173,467.62022350006737,466.58541659999173,467.62022350006737,466.58541659999173,467.62022350006737,466.58541659999173,467.62022350006737,467.6036531000864,468.10445490002166,467.6036531000864,468.10445490002166,467.6036531000864,468.10445490002166,467.6036531000864,468.10445490002166,467.6036531000864,468.10445490002166,467.6036531000864,468.10445490002166,467.6036531000864,468.10445490002166,467.6036531000864,468.10445490002166,466.58541659999173,None,468.10445490002166,469.5733484000666,1.0300000000000007,469.59034059999976,None,470.34111400006805,None,,,,,,,[[1.47]],2.560000000000002,0.6741573033707865,11017,002,2024_Jan_04_1958,MFTM_A_new1021,2021.2.3,59.86543448317001,
,,,,,,,,stim/Instruction_adaptive.png,conditions/adaptive.xlsx,test,0.6,0.6,0.6,-0.6,-0.6,right,R,,,,,0,1,1,1,0,89,89,82,,,,,,,,,,,,,,,,,,,,,,,,,,,,,,,,,,,,,,,,,,,,470.84249970002566,None,right,1,1.453070200048387,471.3425689000869,472.9613781000953,471.3425689000869,472.4607416000217,471.3425689000869,472.4607416000217,471.3425689000869,472.4607416000217,471.3425689000869,472.4607416000217,471.3425689000869,472.4607416000217,472.4452200999949,472.9450683000032,472.4452200999949,472.9450683000032,472.4452200999949,472.9450683000032,472.4452200999949,472.9450683000032,472.4452200999949,472.9450683000032,472.4452200999949,472.9450683000032,472.4452200999949,472.9450683000032,472.4452200999949,472.9450683000032,471.3425689000869,None,472.9450683000032,474.3309425000334,1.1200000000000008,474.3475497000618,None,475.09859890001826,None,,,,,,,[[1.38]],2.600000000000002,0.6777777777777778,11017,002,2024_Jan_04_1958,MFTM_A_new1021,2021.2.3,59.86543448317001,
,,,,,,,,stim/Instruction_adaptive.png,conditions/adaptive.xlsx,test,0.6,0.6,0.6,-0.6,-0.6,right,R,,,,,0,1,1,1,0,90,90,0,,,,,,,,,,,,,,,,,,,,,,,,,,,,,,,,,,,,,,,,,,,,475.5994754000567,None,left,0,2.0300930000375956,476.1005804000888,477.70185090007726,476.1005804000888,477.20212850009557,476.1005804000888,477.20212850009557,476.1005804000888,477.20212850009557,476.1005804000888,477.20212850009557,476.1005804000888,477.20212850009557,477.1678956000833,477.668676600093,477.1678956000833,477.668676600093,477.1678956000833,477.668676600093,477.1678956000833,477.668676600093,477.1678956000833,477.668676600093,477.1678956000833,477.668676600093,477.1678956000833,477.668676600093,477.1678956000833,477.668676600093,476.1005804000888,None,477.668676600093,479.0892793000676,1.0900000000000007,479.1218645001063,None,479.8724454001058,None,,,,,,,[[1.41]],2.490000000000002,0.6703296703296703,11017,002,2024_Jan_04_1958,MFTM_A_new1021,2021.2.3,59.86543448317001,
,,,,,,,,stim/Instruction_adaptive.png,conditions/adaptive.xlsx,test,0.6,0.6,0.6,-0.6,-0.6,right,R,,,,,0,1,1,1,0,91,91,86,,,,,,,,,,,,,,,,,,,,,,,,,,,,,,,,,,,,,,,,,,,,480.3725662000943,None,right,1,1.5615552000235766,480.8731992000248,482.5435400001006,480.8731992000248,482.0585320000537,480.8731992000248,482.0585320000537,480.8731992000248,482.0585320000537,480.8731992000248,482.0585320000537,480.8731992000248,482.0585320000537,482.02506680006627,482.5269818000961,482.02506680006627,482.5269818000961,482.02506680006627,482.5269818000961,482.02506680006627,482.5269818000961,482.02506680006627,482.5269818000961,482.02506680006627,482.5269818000961,482.02506680006627,482.5269818000961,482.02506680006627,482.5269818000961,480.8731992000248,None,482.5269818000961,483.86133600003086,1.1700000000000008,483.87770559999626,None,484.62942540005315,None,,,,,,,[[1.33]],2.530000000000002,0.6739130434782609,11017,002,2024_Jan_04_1958,MFTM_A_new1021,2021.2.3,59.86543448317001,
,,,,,,,,stim/Instruction_adaptive.png,conditions/adaptive.xlsx,test,-0.6,-0.6,-0.6,0.6,0.6,left,L,,,,,0,1,1,1,0,92,92,25,,,,,,,,,,,,,,,,,,,,,,,,,,,,,,,,,,,,,,,,,,,,485.12961740000173,None,left,1,1.41936399997212,485.6312309000641,487.28310000000056,485.6312309000641,486.7820802000351,485.6312309000641,486.7820802000351,485.6312309000641,486.7820802000351,485.6312309000641,486.7820802000351,485.6312309000641,486.7820802000351,486.7486523000989,487.2493575999979,486.7486523000989,487.2493575999979,486.7486523000989,487.2493575999979,486.7486523000989,487.2493575999979,486.7486523000989,487.2493575999979,486.7486523000989,487.2493575999979,486.7486523000989,487.2493575999979,486.7486523000989,487.2493575999979,485.6312309000641,None,487.2493575999979,488.6200616999995,1.1400000000000008,488.634766500094,None,489.38687360007316,None,,,,,,,[[1.36]],2.570000000000002,0.6774193548387096,11017,002,2024_Jan_04_1958,MFTM_A_new1021,2021.2.3,59.86543448317001,
,,,,,,,,stim/Instruction_adaptive.png,conditions/adaptive.xlsx,test,0.6,0.6,0.6,-0.6,-0.6,right,R,,,,,0,1,1,1,0,93,93,56,,,,,,,,,,,,,,,,,,,,,,,,,,,,,,,,,,,,,,,,,,,,489.88681540009566,None,right,1,1.3996080999495462,490.387229999993,492.00711050000973,490.387229999993,491.5058649000712,490.387229999993,491.5058649000712,490.387229999993,491.5058649000712,490.387229999993,491.5058649000712,490.387229999993,491.5058649000712,491.4888755000429,491.99039110005833,491.4888755000429,491.99039110005833,491.4888755000429,491.99039110005833,491.4888755000429,491.99039110005833,491.4888755000429,491.99039110005833,491.4888755000429,491.99039110005833,491.4888755000429,491.99039110005833,491.4888755000429,491.99039110005833,490.387229999993,None,491.9736291000154,493.37519080005586,1.1100000000000008,493.3919076001039,None,494.1429194000084,None,,,,,,,[[1.39]],2.600000000000002,0.6808510638297872,11017,002,2024_Jan_04_1958,MFTM_A_new1021,2021.2.3,59.86543448317001,
