arrwidth1,arrwidth2,arrwidth3,arrwidth4,arrwidth5,keyb,type,orientation,instruction_image,block_filename,block_type,arrow11,arrow22,arrow33,arrow44,arrow55,keyb_3,orientation3,trials.thisRepN,trials.thisTrialN,trials.thisN,trials.thisIndex,trials_3.thisRepN,trials_3.thisTrialN,trials_3.thisN,trials_3.thisIndex,trials_2.thisRepN,trials_2.thisTrialN,trials_2.thisN,trials_2.thisIndex,welcome.started,welcome.stopped,key_resp.keys,key_resp.rt,key_resp.started,key_resp.stopped,instruction_example.started,instruction_example.stopped,key_resp_3.keys,key_resp_3.rt,key_resp_3.started,key_resp_3.stopped,instruction_task.started,instruction_task.stopped,key_resp_2.keys,key_resp_2.rt,key_resp_2.started,key_resp_2.stopped,text_2.started,text_2.stopped,A1.started,A1.stopped,A2.started,A2.stopped,A3.started,A3.stopped,A4.started,A4.stopped,A5.started,A5.stopped,key_resp_4.keys,key_resp_4.corr,key_resp_4.rt,key_resp_4.started,key_resp_4.stopped,fb.started,fb.stopped,instruction_block.started,instruction_block.stopped,key_resp_8.keys,key_resp_8.rt,key_resp_8.started,key_resp_8.stopped,text_8.started,text_8.stopped,key_resp_9.keys,key_resp_9.corr,key_resp_9.rt,text_5.started,text_5.stopped,A11_3.started,A11_3.stopped,A22_2.started,A22_2.stopped,A33_2.started,A33_2.stopped,A44_2.started,A44_2.stopped,A55_2.started,A55_2.stopped,M1_3.started,M1_3.stopped,M2_2.started,M2_2.stopped,M3_2.started,M3_2.stopped,M4_2.started,M4_2.stopped,M5_2.started,M5_2.stopped,M6_2.started,M6_2.stopped,M7_2.started,M7_2.stopped,M8_2.started,M8_2.stopped,key_resp_9.started,key_resp_9.stopped,fixation.started,fixation.stopped,ET,fb_3.started,fb_3.stopped,text_9.started,text_9.stopped,fb_4.started,fb_4.stopped,text_7.started,text_7.stopped,endtext.started,endtext.stopped,fixation_ITI,CCC,Acc,participant,session,date,expName,psychopyVersion,frameRate,
,,,,,,,,,,,,,,,,,,,,,,,,,,,,,,12.326490800012834,None,space,13.92456100002164,12.326490800012834,None,,,,,,,,,,,,,,,,,,,,,,,,,,,,,,,,,,,,,,,,,,,,,,,,,,,,,,,,,,,,,,,,,,,,,,,,,,,,,,,,,,,,,,,,,11013,001,2024_Jan_02_1634,MFTM_A_new1021,2021.2.3,59.787336439716285,
,,,,,,,,,,,,,,,,,,,,,,,,,,,,,,,,,,,,26.28157170000486,None,right,32.02543640002841,26.28157170000486,None,,,,,,,,,,,,,,,,,,,,,,,,,,,,,,,,,,,,,,,,,,,,,,,,,,,,,,,,,,,,,,,,,,,,,,,,,,,,,,,,,,,11013,001,2024_Jan_02_1634,MFTM_A_new1021,2021.2.3,59.787336439716285,
,,,,,,,,,,,,,,,,,,,,,,,,,,,,,,,,,,,,,,,,,,58.327587600040715,None,space,12.867532900010701,58.327587600040715,None,,,,,,,,,,,,,,,,,,,,,,,,,,,,,,,,,,,,,,,,,,,,,,,,,,,,,,,,,,,,,,,,,,,,,,,,,,,,,11013,001,2024_Jan_02_1634,MFTM_A_new1021,2021.2.3,59.787336439716285,
-0.6,-0.6,-0.6,0.6,0.6,left,3:2,L,,,,,,,,,,,0,0,0,1,,,,,,,,,,,,,,,,,,,,,,,,,,,71.23141480004415,None,71.23141480004415,None,71.23141480004415,None,71.23141480004415,None,71.23141480004415,None,71.23141480004415,None,left,1,2.2917041999753565,71.23141480004415,None,73.56742580002174,None,,,,,,,,,,,,,,,,,,,,,,,,,,,,,,,,,,,,,,,,,,,,,,,,,,,,,,,,,,11013,001,2024_Jan_02_1634,MFTM_A_new1021,2021.2.3,59.787336439716285,
0.6,0.6,0.6,-0.6,-0.6,right,3:2,R,,,,,,,,,,,0,1,1,0,,,,,,,,,,,,,,,,,,,,,,,,,,,74.31820360000711,None,74.31820360000711,None,74.31820360000711,None,74.31820360000711,None,74.31820360000711,None,74.31820360000711,None,right,1,1.324971700028982,74.31820360000711,None,75.6701563000097,None,,,,,,,,,,,,,,,,,,,,,,,,,,,,,,,,,,,,,,,,,,,,,,,,,,,,,,,,,,11013,001,2024_Jan_02_1634,MFTM_A_new1021,2021.2.3,59.787336439716285,
0.6,0.6,0.6,-0.6,-0.6,right,3:2,R,,,,,,,,,,,1,0,2,0,,,,,,,,,,,,,,,,,,,,,,,,,,,76.42169170000125,None,76.42169170000125,None,76.42169170000125,None,76.42169170000125,None,76.42169170000125,None,76.42169170000125,None,right,1,1.2216482000076212,76.42169170000125,None,77.6732385000214,None,,,,,,,,,,,,,,,,,,,,,,,,,,,,,,,,,,,,,,,,,,,,,,,,,,,,,,,,,,11013,001,2024_Jan_02_1634,MFTM_A_new1021,2021.2.3,59.787336439716285,
-0.6,-0.6,-0.6,0.6,0.6,left,3:2,L,,,,,,,,,,,1,1,3,1,,,,,,,,,,,,,,,,,,,,,,,,,,,78.42431860003853,None,78.42431860003853,None,78.42431860003853,None,78.42431860003853,None,78.42431860003853,None,78.42431860003853,None,left,1,1.3307035999605432,78.42431860003853,None,79.7762253000401,None,,,,,,,,,,,,,,,,,,,,,,,,,,,,,,,,,,,,,,,,,,,,,,,,,,,,,,,,,,11013,001,2024_Jan_02_1634,MFTM_A_new1021,2021.2.3,59.787336439716285,
,,,,,,,,stim/Instruction_mask.png,conditions/adaptive.xlsx,practice,0.6,0.6,0.6,-0.6,-0.6,right,R,,,,,0,0,0,0,0,0,0,34,,,,,,,,,,,,,,,,,,,,,,,,,,,,,,,,,,,,,,80.76111570000648,None,space,51.538037799997255,80.76111570000648,None,132.40457459999016,None,right,1,1.8050382999936119,132.83828840003116,None,132.83828840003116,135.84296060004272,132.83828840003116,135.84296060004272,132.83828840003116,135.84296060004272,132.83828840003116,135.84296060004272,132.83828840003116,135.84296060004272,135.8261181000271,136.32712050003465,135.8261181000271,136.32712050003465,135.8261181000271,136.32712050003465,135.8261181000271,136.32712050003465,135.8261181000271,136.32712050003465,135.8261181000271,136.32712050003465,135.8261181000271,136.32712050003465,135.8261181000271,136.32712050003465,132.83828840003116,None,136.32712050003465,136.32712050003465,3,136.34341590001713,None,137.09512960002758,None,,,,,,,,,,11013,001,2024_Jan_02_1634,MFTM_A_new1021,2021.2.3,59.787336439716285,
,,,,,,,,stim/Instruction_mask.png,conditions/adaptive.xlsx,practice,-0.6,-0.6,-0.6,0.6,0.6,left,L,,,,,0,0,0,0,0,1,1,13,,,,,,,,,,,,,,,,,,,,,,,,,,,,,,,,,,,,,,,,,,,,137.59538579999935,None,left,1,1.539201800012961,138.0958780000219,140.09910829999717,138.0958780000219,139.5982689000084,138.0958780000219,139.5982689000084,138.0958780000219,139.5982689000084,138.0958780000219,139.5982689000084,138.0958780000219,139.5982689000084,139.58231339999475,140.08272519998718,139.58231339999475,140.08272519998718,139.58231339999475,140.08272519998718,139.58231339999475,140.08272519998718,139.58231339999475,140.08272519998718,139.58231339999475,140.08272519998718,139.58231339999475,140.08272519998718,139.58231339999475,140.08272519998718,138.0958780000219,None,140.08272519998718,141.58569700003136,1.5,141.6019084000145,None,142.35222910001175,None,,,,,,,,,,11013,001,2024_Jan_02_1634,MFTM_A_new1021,2021.2.3,59.787336439716285,
,,,,,,,,stim/Instruction_mask.png,conditions/adaptive.xlsx,practice,0.6,0.6,0.6,-0.6,-0.6,right,R,,,,,0,0,0,0,0,2,2,78,,,,,,,,,,,,,,,,,,,,,,,,,,,,,,,,,,,,,,,,,,,,142.8537110000034,None,left,0,2.4492380999727175,143.35385080002015,144.6558239000151,143.35385080002015,144.15524130000267,143.35385080002015,144.15524130000267,143.35385080002015,144.15524130000267,143.35385080002015,144.15524130000267,143.35385080002015,144.15524130000267,144.13843580003595,144.63920370000415,144.13843580003595,144.63920370000415,144.13843580003595,144.63920370000415,144.13843580003595,144.63920370000415,144.13843580003595,144.63920370000415,144.13843580003595,144.63920370000415,144.13843580003595,144.63920370000415,144.13843580003595,144.63920370000415,143.35385080002015,None,144.63920370000415,146.8422150000115,0.8,146.8589595000376,None,147.61144210002385,None,,,,,,,,,,11013,001,2024_Jan_02_1634,MFTM_A_new1021,2021.2.3,59.787336439716285,
,,,,,,,,stim/Instruction_mask.png,conditions/adaptive.xlsx,practice,-0.6,-0.6,-0.6,0.6,0.6,left,L,,,,,0,0,0,0,0,3,3,9,,,,,,,,,,,,,,,,,,,,,,,,,,,,,,,,,,,,,,,,,,,,148.11094740004046,None,right,0,2.1909676999785006,148.61235870001838,149.36266169999726,148.61235870001838,148.86270669999067,148.61235870001838,148.86270669999067,148.61235870001838,148.86270669999067,148.61235870001838,148.86270669999067,148.61235870001838,148.86270669999067,148.84600990003673,149.34606420004275,148.84600990003673,149.34606420004275,148.84600990003673,149.34606420004275,148.84600990003673,149.34606420004275,148.84600990003673,149.34606420004275,148.84600990003673,149.34606420004275,148.84600990003673,149.34606420004275,148.84600990003673,149.34606420004275,148.61235870001838,None,149.34606420004275,152.1001134000253,3,152.11676639999496,None,152.86794309999095,None,,,,,,,,,,11013,001,2024_Jan_02_1634,MFTM_A_new1021,2021.2.3,59.787336439716285,
,,,,,,,,stim/Instruction_mask.png,conditions/adaptive.xlsx,practice,,,,,,,,,,,,0,0,0,0,,,,,,,,,,,,,,,,,,,,,,,,,,,,,,,,,,,,,,,,,,,,,,,,,,,,,,,,,,,,,,,,,,,,,,,,,,,,,,,,,,,,,,,,,,153.38535930000944,154.387896500004,154.3702220999985,154.3702220999985,154.3702220999985,None,,,,11013,001,2024_Jan_02_1634,MFTM_A_new1021,2021.2.3,59.787336439716285,
,,,,,,,,stim/Instruction_adaptive.png,conditions/adaptive.xlsx,test,-0.6,-0.6,-0.6,0.6,0.6,left,L,,,,,0,1,1,1,0,0,0,3,,,,,,,,,,,,,,,,,,,,,,,,,,,,,,,,,,,,,,157.50723909999942,None,space,15.144188500009477,157.50723909999942,None,172.69704550004099,None,left,1,2.2762393000302836,173.19912220002152,None,173.19912220002152,176.20301600004314,173.19912220002152,176.20301600004314,173.19912220002152,176.20301600004314,173.19912220002152,176.20301600004314,173.19912220002152,176.20301600004314,176.18577959999675,176.68669960001716,176.18577959999675,176.68669960001716,176.18577959999675,176.68669960001716,176.18577959999675,176.68669960001716,176.18577959999675,176.68669960001716,176.18577959999675,176.68669960001716,176.18577959999675,176.68669960001716,176.18577959999675,176.68669960001716,173.19912220002152,None,176.68669960001716,176.68669960001716,3,176.70313490001718,None,177.45497429999523,None,,,,,,,0,6.000000000000005,1.0,11013,001,2024_Jan_02_1634,MFTM_A_new1021,2021.2.3,59.787336439716285,
,,,,,,,,stim/Instruction_adaptive.png,conditions/adaptive.xlsx,test,0.6,0.6,0.6,-0.6,-0.6,right,R,,,,,0,1,1,1,0,1,1,54,,,,,,,,,,,,,,,,,,,,,,,,,,,,,,,,,,,,,,,,,,,,177.95522000000346,None,right,1,0.8271865000133403,178.4558903000434,179.20814360002987,178.4558903000434,178.7062517000013,178.4558903000434,178.7062517000013,178.4558903000434,178.7062517000013,178.4558903000434,178.7062517000013,178.4558903000434,178.7062517000013,178.6912109000259,179.19020479999017,178.6912109000259,179.19020479999017,178.6912109000259,179.19020479999017,178.6912109000259,179.19020479999017,178.6912109000259,179.19020479999017,178.6912109000259,179.19020479999017,178.6912109000259,179.19020479999017,178.6912109000259,179.19020479999017,178.4558903000434,None,179.19020479999017,180.07498610002222,0.25,180.0923684000154,None,180.8434160000179,None,,,,,,,[0.875],6.000000000000005,1.0,11013,001,2024_Jan_02_1634,MFTM_A_new1021,2021.2.3,59.787336439716285,
,,,,,,,,stim/Instruction_adaptive.png,conditions/adaptive.xlsx,test,-0.6,-0.6,-0.6,0.6,0.6,left,L,,,,,0,1,1,1,0,2,2,37,,,,,,,,,,,,,,,,,,,,,,,,,,,,,,,,,,,,,,,,,,,,181.3440685000387,None,left,1,1.662936799984891,181.84420190000674,182.5953152999864,181.84420190000674,182.0946077000117,181.84420190000674,182.0946077000117,181.84420190000674,182.0946077000117,181.84420190000674,182.0946077000117,181.84420190000674,182.0946077000117,182.0786414000322,182.57878460001666,182.0786414000322,182.57878460001666,182.0786414000322,182.57878460001666,182.0786414000322,182.57878460001666,182.0786414000322,182.57878460001666,182.0786414000322,182.57878460001666,182.0786414000322,182.57878460001666,182.0786414000322,182.57878460001666,181.84420190000674,None,182.57878460001666,183.91471919999458,0.25,183.9311247000005,None,184.68166760000167,None,,,,,,,[1.33333333],6.000000000000005,1.0,11013,001,2024_Jan_02_1634,MFTM_A_new1021,2021.2.3,59.787336439716285,
,,,,,,,,stim/Instruction_adaptive.png,conditions/adaptive.xlsx,test,0.6,0.6,0.6,-0.6,-0.6,right,R,,,,,0,1,1,1,0,3,3,44,,,,,,,,,,,,,,,,,,,,,,,,,,,,,,,,,,,,,,,,,,,,185.18257110001286,None,right,1,1.407645399973262,185.68354160001036,186.4343857000349,185.68354160001036,185.93358630000148,185.68354160001036,185.93358630000148,185.68354160001036,185.93358630000148,185.68354160001036,185.93358630000148,185.68354160001036,185.93358630000148,185.91745110001648,186.4178358000354,185.91745110001648,186.4178358000354,185.91745110001648,186.4178358000354,185.91745110001648,186.4178358000354,185.91745110001648,186.4178358000354,185.91745110001648,186.4178358000354,185.91745110001648,186.4178358000354,185.91745110001648,186.4178358000354,185.68354160001036,None,186.4178358000354,187.98660130001372,0.25,188.0031420000014,None,188.75433309999062,None,,,,,,,[1.5625],6.000000000000005,1.0,11013,001,2024_Jan_02_1634,MFTM_A_new1021,2021.2.3,59.787336439716285,
,,,,,,,,stim/Instruction_adaptive.png,conditions/adaptive.xlsx,test,0.6,0.6,0.6,-0.6,-0.6,right,R,,,,,0,1,1,1,0,4,4,70,,,,,,,,,,,,,,,,,,,,,,,,,,,,,,,,,,,,,,,,,,,,189.25562100001844,None,left,0,0.854401400021743,189.7567173000425,190.5077610000153,189.7567173000425,190.00636020000093,189.7567173000425,190.00636020000093,189.7567173000425,190.00636020000093,189.7567173000425,190.00636020000093,189.7567173000425,190.00636020000093,189.99040860001696,190.49075300002005,189.99040860001696,190.49075300002005,189.99040860001696,190.49075300002005,189.99040860001696,190.49075300002005,189.99040860001696,190.49075300002005,189.99040860001696,190.49075300002005,189.99040860001696,190.49075300002005,189.99040860001696,190.49075300002005,189.7567173000425,None,190.49075300002005,192.19361340004252,0.25,192.20948180003325,None,192.9604643000057,None,,,,,,,[1.7],4.720000000000004,0.8,11013,001,2024_Jan_02_1634,MFTM_A_new1021,2021.2.3,59.787336439716285,
,,,,,,,,stim/Instruction_adaptive.png,conditions/adaptive.xlsx,test,-0.6,-0.6,-0.6,0.6,0.6,left,L,,,,,0,1,1,1,0,5,5,15,,,,,,,,,,,,,,,,,,,,,,,,,,,,,,,,,,,,,,,,,,,,193.46224700001767,None,left,1,1.6815353999845684,193.96229280001717,194.71397710003657,193.96229280001717,194.21378280001227,193.96229280001717,194.21378280001227,193.96229280001717,194.21378280001227,193.96229280001717,194.21378280001227,193.96229280001717,194.21378280001227,194.19587689999025,194.69667840003967,194.19587689999025,194.69667840003967,194.19587689999025,194.69667840003967,194.19587689999025,194.69667840003967,194.19587689999025,194.69667840003967,194.19587689999025,194.69667840003967,194.19587689999025,194.69667840003967,194.19587689999025,194.69667840003967,193.96229280001717,None,194.69667840003967,196.50037060002796,0.25,196.51598190004006,None,197.26713230001042,None,,,,,,,[1.79166667],5.1200000000000045,0.8333333333333334,11013,001,2024_Jan_02_1634,MFTM_A_new1021,2021.2.3,59.787336439716285,
,,,,,,,,stim/Instruction_adaptive.png,conditions/adaptive.xlsx,test,-0.6,-0.6,-0.6,0.6,0.6,left,L,,,,,0,1,1,1,0,6,6,9,,,,,,,,,,,,,,,,,,,,,,,,,,,,,,,,,,,,,,,,,,,,197.7684525999939,None,left,1,1.8785685999901034,198.26854300004197,199.02035470004193,198.26854300004197,198.52020640001865,198.26854300004197,198.52020640001865,198.26854300004197,198.52020640001865,198.26854300004197,198.52020640001865,198.26854300004197,198.52020640001865,198.50223959999857,199.00283380004112,198.50223959999857,199.00283380004112,198.50223959999857,199.00283380004112,198.50223959999857,199.00283380004112,198.50223959999857,199.00283380004112,198.50223959999857,199.00283380004112,198.50223959999857,199.00283380004112,198.50223959999857,199.00283380004112,198.26854300004197,None,199.00283380004112,200.87340979999863,0.25,200.8902369000134,None,201.64038200001232,None,,,,,,,[1.85714286],5.380000000000004,0.8571428571428571,11013,001,2024_Jan_02_1634,MFTM_A_new1021,2021.2.3,59.787336439716285,
,,,,,,,,stim/Instruction_adaptive.png,conditions/adaptive.xlsx,test,-0.6,-0.6,-0.6,0.6,0.6,left,L,,,,,0,1,1,1,0,7,7,99,,,,,,,,,,,,,,,,,,,,,,,,,,,,,,,,,,,,,,,,,,,,202.1409152999986,None,left,1,0.9611458999570459,202.64200600003824,203.3930163999903,202.64200600003824,202.89212110004155,202.64200600003824,202.89212110004155,202.64200600003824,202.89212110004155,202.64200600003824,202.89212110004155,202.64200600003824,202.89212110004155,202.87629290000768,203.376162200002,202.87629290000768,203.376162200002,202.87629290000768,203.376162200002,202.87629290000768,203.376162200002,202.87629290000768,203.376162200002,202.87629290000768,203.376162200002,202.87629290000768,203.376162200002,202.87629290000768,203.376162200002,202.64200600003824,None,203.376162200002,205.29565240000375,0.25,205.31283619999886,None,206.0634136000299,None,,,,,,,[1.90625],5.570000000000005,0.875,11013,001,2024_Jan_02_1634,MFTM_A_new1021,2021.2.3,59.787336439716285,
,,,,,,,,stim/Instruction_adaptive.png,conditions/adaptive.xlsx,test,-0.6,-0.6,-0.6,0.6,0.6,left,L,,,,,0,1,1,1,0,8,8,47,,,,,,,,,,,,,,,,,,,,,,,,,,,,,,,,,,,,,,,,,,,,206.56510680000065,None,right,0,1.8262992999516428,207.06493140000384,207.816771599988,207.06493140000384,207.31647280004108,207.06493140000384,207.31647280004108,207.06493140000384,207.31647280004108,207.06493140000384,207.31647280004108,207.06493140000384,207.31647280004108,207.29853560001357,207.7999844000442,207.29853560001357,207.7999844000442,207.29853560001357,207.7999844000442,207.29853560001357,207.7999844000442,207.29853560001357,207.7999844000442,207.29853560001357,207.7999844000442,207.29853560001357,207.7999844000442,207.29853560001357,207.7999844000442,207.06493140000384,None,207.7999844000442,209.75280489999568,0.25,209.76886509999167,None,210.52016880002338,None,,,,,,,[1.94444444],4.720000000000004,0.7777777777777778,11013,001,2024_Jan_02_1634,MFTM_A_new1021,2021.2.3,59.787336439716285,
,,,,,,,,stim/Instruction_adaptive.png,conditions/adaptive.xlsx,test,0.6,0.6,0.6,-0.6,-0.6,right,R,,,,,0,1,1,1,0,9,9,78,,,,,,,,,,,,,,,,,,,,,,,,,,,,,,,,,,,,,,,,,,,,211.02115789998788,None,right,1,2.6659625999745913,211.5215496000019,212.2724287000019,211.5215496000019,211.7720626000082,211.5215496000019,211.7720626000082,211.5215496000019,211.7720626000082,211.5215496000019,211.7720626000082,211.5215496000019,211.7720626000082,211.75524460000452,212.2574857000145,211.75524460000452,212.2574857000145,211.75524460000452,212.2574857000145,211.75524460000452,212.2574857000145,211.75524460000452,212.2574857000145,211.75524460000452,212.2574857000145,211.75524460000452,212.2574857000145,211.75524460000452,212.2574857000145,211.5215496000019,None,212.2574857000145,214.24381950002862,0.25,214.2588078000117,None,215.01114940003026,None,,,,,,,[1.975],4.940000000000004,0.8,11013,001,2024_Jan_02_1634,MFTM_A_new1021,2021.2.3,59.787336439716285,
,,,,,,,,stim/Instruction_adaptive.png,conditions/adaptive.xlsx,test,0.6,0.6,0.6,-0.6,-0.6,right,R,,,,,0,1,1,1,0,10,10,48,,,,,,,,,,,,,,,,,,,,,,,,,,,,,,,,,,,,,,,,,,,,215.51077480003005,None,left,0,1.039325200021267,216.01189850002993,216.76269950001733,216.01189850002993,216.26162629999453,216.01189850002993,216.26162629999453,216.01189850002993,216.26162629999453,216.01189850002993,216.26162629999453,216.01189850002993,216.26162629999453,216.24540370004252,216.74631379998755,216.24540370004252,216.74631379998755,216.24540370004252,216.74631379998755,216.24540370004252,216.74631379998755,216.24540370004252,216.74631379998755,216.24540370004252,216.74631379998755,216.24540370004252,216.74631379998755,216.24540370004252,216.74631379998755,216.01189850002993,None,216.74631379998755,218.74886590003734,0.25,218.76553330000024,None,219.5167743000202,None,,,,,,,[2.],4.290000000000004,0.7272727272727273,11013,001,2024_Jan_02_1634,MFTM_A_new1021,2021.2.3,59.787336439716285,
,,,,,,,,stim/Instruction_adaptive.png,conditions/adaptive.xlsx,test,0.6,0.6,0.6,-0.6,-0.6,right,R,,,,,0,1,1,1,0,11,11,92,,,,,,,,,,,,,,,,,,,,,,,,,,,,,,,,,,,,,,,,,,,,220.01839059998747,None,left,0,1.3021258999942802,220.51819500001147,221.36991519998992,220.51819500001147,220.86977170000318,220.51819500001147,220.86977170000318,220.51819500001147,220.86977170000318,220.51819500001147,220.86977170000318,220.51819500001147,220.86977170000318,220.8351483999868,221.33668180002132,220.8351483999868,221.33668180002132,220.8351483999868,221.33668180002132,220.8351483999868,221.33668180002132,220.8351483999868,221.33668180002132,220.8351483999868,221.33668180002132,220.8351483999868,221.33668180002132,220.8351483999868,221.33668180002132,220.51819500001147,None,221.33668180002132,223.35572650004178,0.3400000000000001,223.3724870000151,None,224.12346390000312,None,,,,,,,[2.01333333],3.4700000000000024,0.6666666666666666,11013,001,2024_Jan_02_1634,MFTM_A_new1021,2021.2.3,59.787336439716285,
,,,,,,,,stim/Instruction_adaptive.png,conditions/adaptive.xlsx,test,-0.6,-0.6,-0.6,0.6,0.6,left,L,,,,,0,1,1,1,0,12,12,57,,,,,,,,,,,,,,,,,,,,,,,,,,,,,,,,,,,,,,,,,,,,224.6242801999906,None,right,0,1.6780487999785691,225.1251814000425,226.22822360001737,225.1251814000425,225.7258751000045,225.1251814000425,225.7258751000045,225.1251814000425,225.7258751000045,225.1251814000425,225.7258751000045,225.1251814000425,225.7258751000045,225.69259650004096,226.19414730003336,225.69259650004096,226.19414730003336,225.69259650004096,226.19414730003336,225.69259650004096,226.19414730003336,225.69259650004096,226.19414730003336,225.69259650004096,226.19414730003336,225.69259650004096,226.19414730003336,225.69259650004096,226.19414730003336,225.1251814000425,None,226.19414730003336,228.11353309999686,0.5900000000000003,228.1300837000017,None,228.88075990002835,None,,,,,,,[[1.91]],2.370000000000002,0.6153846153846154,11013,001,2024_Jan_02_1634,MFTM_A_new1021,2021.2.3,59.787336439716285,
,,,,,,,,stim/Instruction_adaptive.png,conditions/adaptive.xlsx,test,-0.6,-0.6,-0.6,0.6,0.6,left,L,,,,,0,1,1,1,0,13,13,79,,,,,,,,,,,,,,,,,,,,,,,,,,,,,,,,,,,,,,,,,,,,229.3820829000324,None,left,1,1.7046238000039011,229.88247730000876,231.66893270000583,229.88247730000876,231.16714189999038,229.88247730000876,231.16714189999038,229.88247730000876,231.16714189999038,229.88247730000876,231.16714189999038,229.88247730000876,231.16714189999038,231.13373739999952,231.63460869999835,231.13373739999952,231.63460869999835,231.13373739999952,231.63460869999835,231.13373739999952,231.63460869999835,231.13373739999952,231.63460869999835,231.13373739999952,231.63460869999835,231.13373739999952,231.63460869999835,231.13373739999952,231.63460869999835,229.88247730000876,None,231.63460869999835,232.86985150002874,1.270000000000001,232.8865695000277,None,233.63803740002913,None,,,,,,,[[1.23]],2.870000000000002,0.6428571428571429,11013,001,2024_Jan_02_1634,MFTM_A_new1021,2021.2.3,59.787336439716285,
,,,,,,,,stim/Instruction_adaptive.png,conditions/adaptive.xlsx,test,0.6,0.6,0.6,-0.6,-0.6,right,R,,,,,0,1,1,1,0,14,14,50,,,,,,,,,,,,,,,,,,,,,,,,,,,,,,,,,,,,,,,,,,,,234.13835550000658,None,left,0,1.124237300013192,234.63907450000988,236.04190060001565,234.63907450000988,235.54129730002023,234.63907450000988,235.54129730002023,234.63907450000988,235.54129730002023,234.63907450000988,235.54129730002023,234.63907450000988,235.54129730002023,235.5246103000245,236.02496180002345,235.5246103000245,236.02496180002345,235.5246103000245,236.02496180002345,235.5246103000245,236.02496180002345,235.5246103000245,236.02496180002345,235.5246103000245,236.02496180002345,235.5246103000245,236.02496180002345,235.5246103000245,236.02496180002345,234.63907450000988,None,236.02496180002345,237.6269084000378,0.9000000000000006,237.64351040002657,None,238.39561240002513,None,,,,,,,[[1.6]],1.8700000000000012,0.6,11013,001,2024_Jan_02_1634,MFTM_A_new1021,2021.2.3,59.787336439716285,
,,,,,,,,stim/Instruction_adaptive.png,conditions/adaptive.xlsx,test,0.6,0.6,0.6,-0.6,-0.6,right,R,,,,,0,1,1,1,0,15,15,4,,,,,,,,,,,,,,,,,,,,,,,,,,,,,,,,,,,,,,,,,,,,238.8958655000315,None,right,1,1.686294699960854,239.397094200016,241.70025430002715,239.397094200016,241.19943830004195,239.397094200016,241.19943830004195,239.397094200016,241.19943830004195,239.397094200016,241.19943830004195,239.397094200016,241.19943830004195,241.1821573000052,241.6834194000112,241.1821573000052,241.6834194000112,241.1821573000052,241.6834194000112,241.1821573000052,241.6834194000112,241.1821573000052,241.6834194000112,241.1821573000052,241.6834194000112,241.1821573000052,241.6834194000112,241.1821573000052,241.6834194000112,239.397094200016,None,241.6834194000112,242.38414249999914,1.8000000000000014,242.40052220004145,None,243.15174980001757,None,,,,,,,[[0.7]],2.3200000000000016,0.625,11013,001,2024_Jan_02_1634,MFTM_A_new1021,2021.2.3,59.787336439716285,
,,,,,,,,stim/Instruction_adaptive.png,conditions/adaptive.xlsx,test,0.6,0.6,0.6,-0.6,-0.6,right,R,,,,,0,1,1,1,0,16,16,86,,,,,,,,,,,,,,,,,,,,,,,,,,,,,,,,,,,,,,,,,,,,243.65366140002152,None,right,1,2.5228874999447726,244.15317569999024,245.97331870003836,244.15317569999024,245.48858050000854,244.15317569999024,245.48858050000854,244.15317569999024,245.48858050000854,244.15317569999024,245.48858050000854,244.15317569999024,245.48858050000854,245.45493810001062,245.95579500001622,245.45493810001062,245.95579500001622,245.45493810001062,245.95579500001622,245.45493810001062,245.95579500001622,245.45493810001062,245.95579500001622,245.45493810001062,245.95579500001622,245.45493810001062,245.95579500001622,245.45493810001062,245.95579500001622,244.15317569999024,None,245.95579500001622,247.14211650000652,1.320000000000001,247.15766389999771,None,247.90884520002874,None,,,,,,,[[1.18]],2.610000000000002,0.6470588235294118,11013,001,2024_Jan_02_1634,MFTM_A_new1021,2021.2.3,59.787336439716285,
,,,,,,,,stim/Instruction_adaptive.png,conditions/adaptive.xlsx,test,0.6,0.6,0.6,-0.6,-0.6,right,R,,,,,0,1,1,1,0,17,17,24,,,,,,,,,,,,,,,,,,,,,,,,,,,,,,,,,,,,,,,,,,,,248.41046590002952,None,right,1,1.66129479999654,248.91000010003336,250.49606720003067,248.91000010003336,249.99516059999587,248.91000010003336,249.99516059999587,248.91000010003336,249.99516059999587,248.91000010003336,249.99516059999587,248.91000010003336,249.99516059999587,249.97878490004223,250.47989940003026,249.97878490004223,250.47989940003026,249.97878490004223,250.47989940003026,249.97878490004223,250.47989940003026,249.97878490004223,250.47989940003026,249.97878490004223,250.47989940003026,249.97878490004223,250.47989940003026,249.97878490004223,250.47989940003026,248.91000010003336,None,250.47989940003026,None,1.0800000000000007,251.9151036000112,None,252.666422600043,None,,,,,,,[[1.42]],2.840000000000002,0.6666666666666666,11013,001,2024_Jan_02_1634,MFTM_A_new1021,2021.2.3,59.787336439716285,
,,,,,,,,stim/Instruction_adaptive.png,conditions/adaptive.xlsx,test,-0.6,-0.6,-0.6,0.6,0.6,left,L,,,,,0,1,1,1,0,18,18,91,,,,,,,,,,,,,,,,,,,,,,,,,,,,,,,,,,,,,,,,,,,,253.16727860004175,None,right,0,2.3361300000105985,253.66722430003574,255.08607780002058,253.66722430003574,254.60196260001976,253.66722430003574,254.60196260001976,253.66722430003574,254.60196260001976,253.66722430003574,254.60196260001976,253.66722430003574,254.60196260001976,254.56898490001913,255.06994160002796,254.56898490001913,255.06994160002796,254.56898490001913,255.06994160002796,254.56898490001913,255.06994160002796,254.56898490001913,255.06994160002796,254.56898490001913,255.06994160002796,254.56898490001913,255.06994160002796,254.56898490001913,255.06994160002796,253.66722430003574,None,255.06994160002796,256.65519090002635,0.9200000000000006,256.6720284000039,None,257.4228068999946,None,,,,,,,[[1.58]],2.290000000000002,0.631578947368421,11013,001,2024_Jan_02_1634,MFTM_A_new1021,2021.2.3,59.787336439716285,
,,,,,,,,stim/Instruction_adaptive.png,conditions/adaptive.xlsx,test,-0.6,-0.6,-0.6,0.6,0.6,left,L,,,,,0,1,1,1,0,19,19,61,,,,,,,,,,,,,,,,,,,,,,,,,,,,,,,,,,,,,,,,,,,,257.92468230001396,None,left,1,1.0748716000234708,258.4246428000042,260.2792032000143,258.4246428000042,259.77635040000314,258.4246428000042,259.77635040000314,258.4246428000042,259.77635040000314,258.4246428000042,259.77635040000314,258.4246428000042,259.77635040000314,259.7596065000398,260.2607519000303,259.7596065000398,260.2607519000303,259.7596065000398,260.2607519000303,259.7596065000398,260.2607519000303,259.7596065000398,260.2607519000303,259.7596065000398,260.2607519000303,259.7596065000398,260.2607519000303,259.7596065000398,260.2607519000303,258.4246428000042,None,260.2607519000303,261.41255380003713,1.350000000000001,261.428837799991,None,262.1797595000244,None,,,,,,,[[1.15]],2.5100000000000016,0.65,11013,001,2024_Jan_02_1634,MFTM_A_new1021,2021.2.3,59.787336439716285,
,,,,,,,,stim/Instruction_adaptive.png,conditions/adaptive.xlsx,test,-0.6,-0.6,-0.6,0.6,0.6,left,L,,,,,0,1,1,1,0,20,20,27,,,,,,,,,,,,,,,,,,,,,,,,,,,,,,,,,,,,,,,,,,,,262.6814228000003,None,left,1,1.301058400014881,263.18222630000673,264.83392270002514,263.18222630000673,264.3331074999878,263.18222630000673,264.3331074999878,263.18222630000673,264.3331074999878,263.18222630000673,264.3331074999878,263.18222630000673,264.3331074999878,264.3163967000437,264.8179022000404,264.3163967000437,264.8179022000404,264.3163967000437,264.8179022000404,264.3163967000437,264.8179022000404,264.3163967000437,264.8179022000404,264.3163967000437,264.8179022000404,264.3163967000437,264.8179022000404,264.3163967000437,264.8179022000404,263.18222630000673,None,264.8179022000404,266.1697114999988,1.1500000000000008,266.186887799995,None,266.9369168000412,None,,,,,,,[[1.35]],2.690000000000002,0.6666666666666666,11013,001,2024_Jan_02_1634,MFTM_A_new1021,2021.2.3,59.787336439716285,
,,,,,,,,stim/Instruction_adaptive.png,conditions/adaptive.xlsx,test,-0.6,-0.6,-0.6,0.6,0.6,left,L,,,,,0,1,1,1,0,21,21,1,,,,,,,,,,,,,,,,,,,,,,,,,,,,,,,,,,,,,,,,,,,,267.4378571000416,None,left,1,1.401552899973467,267.9384131000261,269.45724690001225,267.9384131000261,268.9739610000397,267.9384131000261,268.9739610000397,267.9384131000261,268.9739610000397,267.9384131000261,268.9739610000397,267.9384131000261,268.9739610000397,268.9400439999881,269.44107160001295,268.9400439999881,269.44107160001295,268.9400439999881,269.44107160001295,268.9400439999881,269.44107160001295,268.9400439999881,269.44107160001295,268.9400439999881,269.44107160001295,268.9400439999881,269.44107160001295,268.9400439999881,269.44107160001295,267.9384131000261,None,269.44107160001295,270.92707530001644,1.0200000000000007,270.94283820001874,None,271.6941125000012,None,,,,,,,[[1.48]],2.830000000000002,0.6818181818181818,11013,001,2024_Jan_02_1634,MFTM_A_new1021,2021.2.3,59.787336439716285,
,,,,,,,,stim/Instruction_adaptive.png,conditions/adaptive.xlsx,test,-0.6,-0.6,-0.6,0.6,0.6,left,L,,,,,0,1,1,1,0,22,22,7,,,,,,,,,,,,,,,,,,,,,,,,,,,,,,,,,,,,,,,,,,,,272.1946772999945,None,left,1,1.7798046999960206,272.69545080000535,274.1311551000108,272.69545080000535,273.6314542000182,272.69545080000535,273.6314542000182,272.69545080000535,273.6314542000182,272.69545080000535,273.6314542000182,272.69545080000535,273.6314542000182,273.6141177000245,274.1148484000005,273.6141177000245,274.1148484000005,273.6141177000245,274.1148484000005,273.6141177000245,274.1148484000005,273.6141177000245,274.1148484000005,273.6141177000245,274.1148484000005,273.6141177000245,274.1148484000005,273.6141177000245,274.1148484000005,272.69545080000535,None,274.1148484000005,275.68413850001525,0.9300000000000006,275.6998522999929,None,276.45110340003157,None,,,,,,,[[1.57]],2.960000000000002,0.6956521739130435,11013,001,2024_Jan_02_1634,MFTM_A_new1021,2021.2.3,59.787336439716285,
,,,,,,,,stim/Instruction_adaptive.png,conditions/adaptive.xlsx,test,0.6,0.6,0.6,-0.6,-0.6,right,R,,,,,0,1,1,1,0,23,23,18,,,,,,,,,,,,,,,,,,,,,,,,,,,,,,,,,,,,,,,,,,,,276.95210340002086,None,right,1,1.2073643000330776,277.4525436999975,278.8056198999984,277.4525436999975,278.30405299999984,277.4525436999975,278.30405299999984,277.4525436999975,278.30405299999984,277.4525436999975,278.30405299999984,277.4525436999975,278.30405299999984,278.2872232000227,278.78783270000713,278.2872232000227,278.78783270000713,278.2872232000227,278.78783270000713,278.2872232000227,278.78783270000713,278.2872232000227,278.78783270000713,278.2872232000227,278.78783270000713,278.2872232000227,278.78783270000713,278.2872232000227,278.78783270000713,277.4525436999975,None,278.78783270000713,280.44068400003016,0.8500000000000005,280.45681070000865,None,281.20808519999264,None,,,,,,,[[1.65]],3.070000000000002,0.7083333333333334,11013,001,2024_Jan_02_1634,MFTM_A_new1021,2021.2.3,59.787336439716285,
,,,,,,,,stim/Instruction_adaptive.png,conditions/adaptive.xlsx,test,0.6,0.6,0.6,-0.6,-0.6,right,R,,,,,0,1,1,1,0,24,24,94,,,,,,,,,,,,,,,,,,,,,,,,,,,,,,,,,,,,,,,,,,,,281.70890590001363,None,right,1,2.649697200045921,282.2102154000313,283.49538259999827,282.2102154000313,282.99453200004064,282.2102154000313,282.99453200004064,282.2102154000313,282.99453200004064,282.2102154000313,282.99453200004064,282.2102154000313,282.99453200004064,282.97742569999536,283.47837600001367,282.97742569999536,283.47837600001367,282.97742569999536,283.47837600001367,282.97742569999536,283.47837600001367,282.97742569999536,283.47837600001367,282.97742569999536,283.47837600001367,282.97742569999536,283.47837600001367,282.97742569999536,283.47837600001367,282.2102154000313,None,283.47837600001367,None,0.7800000000000005,285.19747640000423,None,285.9483270000201,None,,,,,,,[1.708],3.1700000000000026,0.72,11013,001,2024_Jan_02_1634,MFTM_A_new1021,2021.2.3,59.787336439716285,
,,,,,,,,stim/Instruction_adaptive.png,conditions/adaptive.xlsx,test,0.6,0.6,0.6,-0.6,-0.6,right,R,,,,,0,1,1,1,0,25,25,74,,,,,,,,,,,,,,,,,,,,,,,,,,,,,,,,,,,,,,,,,,,,286.4491381000262,None,right,1,1.9656014999491163,286.9499511999893,288.185492300021,286.9499511999893,287.68460370000685,286.9499511999893,287.68460370000685,286.9499511999893,287.68460370000685,286.9499511999893,287.68460370000685,286.9499511999893,287.68460370000685,287.66781290003564,288.16842840000754,287.66781290003564,288.16842840000754,287.66781290003564,288.16842840000754,287.66781290003564,288.16842840000754,287.66781290003564,288.16842840000754,287.66781290003564,288.16842840000754,287.66781290003564,288.16842840000754,287.66781290003564,288.16842840000754,286.9499511999893,None,288.16842840000754,289.8882271000184,0.7300000000000004,289.90488119999645,None,290.65596599999117,None,,,,,,,[1.71038462],3.2700000000000022,0.7307692307692307,11013,001,2024_Jan_02_1634,MFTM_A_new1021,2021.2.3,59.787336439716285,
,,,,,,,,stim/Instruction_adaptive.png,conditions/adaptive.xlsx,test,-0.6,-0.6,-0.6,0.6,0.6,left,L,,,,,0,1,1,1,0,26,26,33,,,,,,,,,,,,,,,,,,,,,,,,,,,,,,,,,,,,,,,,,,,,291.15614560001995,None,None,0,0,291.65687599999364,292.84197090001544,291.65687599999364,292.34122500004014,291.65687599999364,292.34122500004014,291.65687599999364,292.34122500004014,291.65687599999364,292.34122500004014,291.65687599999364,292.34122500004014,292.32461579999654,292.82535240001744,292.32461579999654,292.82535240001744,292.32461579999654,292.82535240001744,292.32461579999654,292.82535240001744,292.32461579999654,292.82535240001744,292.32461579999654,292.82535240001744,292.32461579999654,292.82535240001744,292.32461579999654,292.82535240001744,291.65687599999364,None,292.82535240001744,295.14740300003905,0.6800000000000004,295.17903880000813,None,295.93136320001213,None,,,,,,,[[2.32]],3.0200000000000022,0.7037037037037037,11013,001,2024_Jan_02_1634,MFTM_A_new1021,2021.2.3,59.787336439716285,
,,,,,,,,stim/Instruction_adaptive.png,conditions/adaptive.xlsx,test,0.6,0.6,0.6,-0.6,-0.6,right,R,,,,,0,1,1,1,0,27,27,76,,,,,,,,,,,,,,,,,,,,,,,,,,,,,,,,,,,,,,,,,,,,296.43102499999804,None,right,1,1.5996631999732926,296.93227099999785,298.2507741000154,296.93227099999785,297.74912410002435,296.93227099999785,297.74912410002435,296.93227099999785,297.74912410002435,296.93227099999785,297.74912410002435,296.93227099999785,297.74912410002435,297.715871900029,298.2165927999886,297.715871900029,298.2165927999886,297.715871900029,298.2165927999886,297.715871900029,298.2165927999886,297.715871900029,298.2165927999886,297.715871900029,298.2165927999886,297.715871900029,298.2165927999886,297.715871900029,298.2165927999886,296.93227099999785,None,298.2165927999886,299.91916290001245,0.8100000000000005,299.93521530000726,None,300.6877203999902,None,,,,,,,[[1.69]],3.110000000000002,0.7142857142857143,11013,001,2024_Jan_02_1634,MFTM_A_new1021,2021.2.3,59.787336439716285,
,,,,,,,,stim/Instruction_adaptive.png,conditions/adaptive.xlsx,test,-0.6,-0.6,-0.6,0.6,0.6,left,L,,,,,0,1,1,1,0,28,28,83,,,,,,,,,,,,,,,,,,,,,,,,,,,,,,,,,,,,,,,,,,,,301.18753759999527,None,left,1,1.122578699956648,301.68873580003856,302.95714810001664,301.68873580003856,302.4561523000011,301.68873580003856,302.4561523000011,301.68873580003856,302.4561523000011,301.68873580003856,302.4561523000011,301.68873580003856,302.4561523000011,302.4398819000344,302.94033030001447,302.4398819000344,302.94033030001447,302.4398819000344,302.94033030001447,302.4398819000344,302.94033030001447,302.4398819000344,302.94033030001447,302.4398819000344,302.94033030001447,302.4398819000344,302.94033030001447,302.4398819000344,302.94033030001447,301.68873580003856,None,302.94033030001447,304.65948030003347,0.7600000000000005,304.6760712999967,None,305.42840949998936,None,,,,,,,[1.71448276],3.190000000000002,0.7241379310344828,11013,001,2024_Jan_02_1634,MFTM_A_new1021,2021.2.3,59.787336439716285,
,,,,,,,,stim/Instruction_adaptive.png,conditions/adaptive.xlsx,test,-0.6,-0.6,-0.6,0.6,0.6,left,L,,,,,0,1,1,1,0,29,29,13,,,,,,,,,,,,,,,,,,,,,,,,,,,,,,,,,,,,,,,,,,,,305.9295066000195,None,left,1,1.3105850999709219,306.428798500041,307.66405690001557,306.428798500041,307.163745900034,306.428798500041,307.163745900034,306.428798500041,307.163745900034,306.428798500041,307.163745900034,306.428798500041,307.163745900034,307.12974050000776,307.630923299992,307.12974050000776,307.630923299992,307.12974050000776,307.630923299992,307.12974050000776,307.630923299992,307.12974050000776,307.630923299992,307.12974050000776,307.630923299992,307.12974050000776,307.630923299992,307.12974050000776,307.630923299992,306.428798500041,None,307.630923299992,309.35036810004385,0.7200000000000004,309.36679589998676,None,310.11828570003854,None,,,,,,,[1.71666667],3.2700000000000022,0.7333333333333333,11013,001,2024_Jan_02_1634,MFTM_A_new1021,2021.2.3,59.787336439716285,
,,,,,,,,stim/Instruction_adaptive.png,conditions/adaptive.xlsx,test,-0.6,-0.6,-0.6,0.6,0.6,left,L,,,,,0,1,1,1,0,30,30,67,,,,,,,,,,,,,,,,,,,,,,,,,,,,,,,,,,,,,,,,,,,,310.61824969999725,None,left,1,1.0752919999649748,311.12010739999823,312.3049432000262,311.12010739999823,311.80411560001085,311.12010739999823,311.80411560001085,311.12010739999823,311.80411560001085,311.12010739999823,311.80411560001085,311.12010739999823,311.80411560001085,311.7867976000416,312.28854850004427,311.7867976000416,312.28854850004427,311.7867976000416,312.28854850004427,311.7867976000416,312.28854850004427,311.7867976000416,312.28854850004427,311.7867976000416,312.28854850004427,311.7867976000416,312.28854850004427,311.7867976000416,312.28854850004427,311.12010739999823,None,312.28854850004427,None,0.6800000000000004,314.023237299989,None,314.77554619999137,None,,,,,,,[1.72],3.3400000000000025,0.7419354838709677,11013,001,2024_Jan_02_1634,MFTM_A_new1021,2021.2.3,59.787336439716285,
,,,,,,,,stim/Instruction_adaptive.png,conditions/adaptive.xlsx,test,0.6,0.6,0.6,-0.6,-0.6,right,R,,,,,0,1,1,1,0,31,31,30,,,,,,,,,,,,,,,,,,,,,,,,,,,,,,,,,,,,,,,,,,,,315.2759568000329,None,right,1,1.4271811000071466,315.7761296000099,316.9277148999972,315.7761296000099,316.42774640000425,315.7761296000099,316.42774640000425,315.7761296000099,316.42774640000425,315.7761296000099,316.42774640000425,315.7761296000099,316.42774640000425,316.410242700018,316.9113293000264,316.410242700018,316.9113293000264,316.410242700018,316.9113293000264,316.410242700018,316.9113293000264,316.410242700018,316.9113293000264,316.410242700018,316.9113293000264,316.410242700018,316.9113293000264,316.410242700018,316.9113293000264,315.7761296000099,None,316.9113293000264,318.6471770000062,0.6500000000000004,318.66356670000823,None,319.41511490003904,None,,,,,,,[1.7240625],3.410000000000003,0.75,11013,001,2024_Jan_02_1634,MFTM_A_new1021,2021.2.3,59.787336439716285,
,,,,,,,,stim/Instruction_adaptive.png,conditions/adaptive.xlsx,test,0.6,0.6,0.6,-0.6,-0.6,right,R,,,,,0,1,1,1,0,32,32,90,,,,,,,,,,,,,,,,,,,,,,,,,,,,,,,,,,,,,,,,,,,,319.91539510001894,None,right,1,1.0430345000349917,320.4162534000352,321.5523223000346,320.4162534000352,321.0510516000213,320.4162534000352,321.0510516000213,320.4162534000352,321.0510516000213,320.4162534000352,321.0510516000213,320.4162534000352,321.0510516000213,321.01707810000516,321.51778140000533,321.01707810000516,321.51778140000533,321.01707810000516,321.51778140000533,321.01707810000516,321.51778140000533,321.01707810000516,321.51778140000533,321.01707810000516,321.51778140000533,321.01707810000516,321.51778140000533,321.01707810000516,321.51778140000533,320.4162534000352,None,321.51778140000533,323.25490460003493,0.6200000000000003,323.2703458000324,None,324.02141750004375,None,,,,,,,[1.72878788],3.4700000000000024,0.7575757575757576,11013,001,2024_Jan_02_1634,MFTM_A_new1021,2021.2.3,59.787336439716285,
,,,,,,,,stim/Instruction_adaptive.png,conditions/adaptive.xlsx,test,0.6,0.6,0.6,-0.6,-0.6,right,R,,,,,0,1,1,1,0,33,33,62,,,,,,,,,,,,,,,,,,,,,,,,,,,,,,,,,,,,,,,,,,,,324.5223890999914,None,right,1,1.772557999996934,325.0227995000314,326.12539160001324,325.0227995000314,325.6244903000188,325.0227995000314,325.6244903000188,325.0227995000314,325.6244903000188,325.0227995000314,325.6244903000188,325.0227995000314,325.6244903000188,325.59051190002356,326.09128759999294,325.59051190002356,326.09128759999294,325.59051190002356,326.09128759999294,325.59051190002356,326.09128759999294,325.59051190002356,326.09128759999294,325.59051190002356,326.09128759999294,325.59051190002356,326.09128759999294,325.59051190002356,326.09128759999294,325.0227995000314,None,326.09128759999294,327.82747210003436,0.5900000000000003,327.8605017000227,None,328.61303200002294,None,,,,,,,[1.73411765],3.530000000000003,0.7647058823529411,11013,001,2024_Jan_02_1634,MFTM_A_new1021,2021.2.3,59.787336439716285,
,,,,,,,,stim/Instruction_adaptive.png,conditions/adaptive.xlsx,test,-0.6,-0.6,-0.6,0.6,0.6,left,L,,,,,0,1,1,1,0,34,34,93,,,,,,,,,,,,,,,,,,,,,,,,,,,,,,,,,,,,,,,,,,,,329.11368710000534,None,left,1,1.2066418000031263,329.61303120001685,330.698978200031,329.61303120001685,330.1974633000209,329.61303120001685,330.1974633000209,329.61303120001685,330.1974633000209,329.61303120001685,330.1974633000209,329.61303120001685,330.1974633000209,330.16467269998975,330.6647345999954,330.16467269998975,330.6647345999954,330.16467269998975,330.6647345999954,330.16467269998975,330.6647345999954,330.16467269998975,330.6647345999954,330.16467269998975,330.6647345999954,330.16467269998975,330.6647345999954,330.16467269998975,330.6647345999954,329.61303120001685,None,330.6647345999954,332.41729700000724,0.5700000000000003,332.43405780004105,None,333.18509109999286,None,,,,,,,[1.73971429],3.5900000000000025,0.7714285714285715,11013,001,2024_Jan_02_1634,MFTM_A_new1021,2021.2.3,59.787336439716285,
,,,,,,,,stim/Instruction_adaptive.png,conditions/adaptive.xlsx,test,0.6,0.6,0.6,-0.6,-0.6,right,R,,,,,0,1,1,1,0,35,35,72,,,,,,,,,,,,,,,,,,,,,,,,,,,,,,,,,,,,,,,,,,,,333.6858998000389,None,right,1,3.1927178000332788,334.18666780000785,335.238380099996,334.18666780000785,334.73731840000255,334.18666780000785,334.73731840000255,334.18666780000785,334.73731840000255,334.18666780000785,334.73731840000255,334.18666780000785,334.73731840000255,334.72063340002205,335.22175520000746,334.72063340002205,335.22175520000746,334.72063340002205,335.22175520000746,334.72063340002205,335.22175520000746,334.72063340002205,335.22175520000746,334.72063340002205,335.22175520000746,334.72063340002205,335.22175520000746,334.72063340002205,335.22175520000746,334.18666780000785,None,335.22175520000746,337.40812179999193,0.5500000000000003,337.4247272000066,None,338.1765579000348,None,,,,,,,[1.74555556],3.640000000000003,0.7777777777777778,11013,001,2024_Jan_02_1634,MFTM_A_new1021,2021.2.3,59.787336439716285,
,,,,,,,,stim/Instruction_adaptive.png,conditions/adaptive.xlsx,test,0.6,0.6,0.6,-0.6,-0.6,right,R,,,,,0,1,1,1,0,36,36,16,,,,,,,,,,,,,,,,,,,,,,,,,,,,,,,,,,,,,,,,,,,,338.67572420003125,None,right,1,2.1059490999905393,339.17735620000167,340.21312259999104,339.17735620000167,339.711366500007,339.17735620000167,339.711366500007,339.17735620000167,339.711366500007,339.17735620000167,339.711366500007,339.17735620000167,339.711366500007,339.69538380001904,340.19593670003815,339.69538380001904,340.19593670003815,339.69538380001904,340.19593670003815,339.69538380001904,340.19593670003815,339.69538380001904,340.19593670003815,339.69538380001904,340.19593670003815,339.69538380001904,340.19593670003815,339.69538380001904,340.19593670003815,339.17735620000167,None,340.19593670003815,341.94823570002336,0.5300000000000002,341.96534610004164,None,342.7158034000313,None,,,,,,,[1.75162162],3.690000000000003,0.7837837837837838,11013,001,2024_Jan_02_1634,MFTM_A_new1021,2021.2.3,59.787336439716285,
,,,,,,,,stim/Instruction_adaptive.png,conditions/adaptive.xlsx,test,-0.6,-0.6,-0.6,0.6,0.6,left,L,,,,,0,1,1,1,0,37,37,21,,,,,,,,,,,,,,,,,,,,,,,,,,,,,,,,,,,,,,,,,,,,343.2170567000285,None,right,0,2.3583916999632493,343.7174340999918,344.73550680000335,343.7174340999918,344.23563850001665,343.7174340999918,344.23563850001665,343.7174340999918,344.23563850001665,343.7174340999918,344.23563850001665,343.7174340999918,344.23563850001665,344.20138680003583,344.70278520003194,344.20138680003583,344.70278520003194,344.20138680003583,344.70278520003194,344.20138680003583,344.70278520003194,344.20138680003583,344.70278520003194,344.20138680003583,344.70278520003194,344.20138680003583,344.70278520003194,344.20138680003583,344.70278520003194,343.7174340999918,None,344.70278520003194,346.4722837000154,0.5100000000000002,346.4875250000041,None,347.240315300005,None,,,,,,,[1.75789474],3.5400000000000027,0.7631578947368421,11013,001,2024_Jan_02_1634,MFTM_A_new1021,2021.2.3,59.787336439716285,
,,,,,,,,stim/Instruction_adaptive.png,conditions/adaptive.xlsx,test,-0.6,-0.6,-0.6,0.6,0.6,left,L,,,,,0,1,1,1,0,38,38,63,,,,,,,,,,,,,,,,,,,,,,,,,,,,,,,,,,,,,,,,,,,,347.7405012000236,None,right,0,1.8026859000092372,348.24072940001497,349.3090194000397,348.24072940001497,348.82496940001147,348.24072940001497,348.82496940001147,348.24072940001497,348.82496940001147,348.24072940001497,348.82496940001147,348.24072940001497,348.82496940001147,348.7922961000004,349.2930533000035,348.7922961000004,349.2930533000035,348.7922961000004,349.2930533000035,348.7922961000004,349.2930533000035,348.7922961000004,349.2930533000035,348.7922961000004,349.2930533000035,348.7922961000004,349.2930533000035,348.7922961000004,349.2930533000035,348.24072940001497,None,349.2930533000035,351.06153720000293,0.5700000000000003,351.07830630004173,None,351.83019680000143,None,,,,,,,[1.76230769],3.3900000000000023,0.7435897435897436,11013,001,2024_Jan_02_1634,MFTM_A_new1021,2021.2.3,59.787336439716285,
,,,,,,,,stim/Instruction_adaptive.png,conditions/adaptive.xlsx,test,0.6,0.6,0.6,-0.6,-0.6,right,R,,,,,0,1,1,1,0,39,39,28,,,,,,,,,,,,,,,,,,,,,,,,,,,,,,,,,,,,,,,,,,,,352.3304390000412,None,right,1,1.252304500027094,352.8313404000364,353.9658712000237,352.8313404000364,353.4660712000332,352.8313404000364,353.4660712000332,352.8313404000364,353.4660712000332,352.8313404000364,353.4660712000332,352.8313404000364,353.4660712000332,353.44848260004073,353.9492476999876,353.44848260004073,353.9492476999876,353.44848260004073,353.9492476999876,353.44848260004073,353.9492476999876,353.44848260004073,353.9492476999876,353.44848260004073,353.9492476999876,353.44848260004073,353.9492476999876,353.44848260004073,353.9492476999876,352.8313404000364,None,353.9492476999876,355.7185213000048,0.6300000000000003,355.73512960004155,None,356.4864324000082,None,,,,,,,[1.765],3.450000000000003,0.75,11013,001,2024_Jan_02_1634,MFTM_A_new1021,2021.2.3,59.787336439716285,
,,,,,,,,stim/Instruction_adaptive.png,conditions/adaptive.xlsx,test,-0.6,-0.6,-0.6,0.6,0.6,left,L,,,,,0,1,1,1,0,40,40,75,,,,,,,,,,,,,,,,,,,,,,,,,,,,,,,,,,,,,,,,,,,,356.9874381000409,None,left,1,1.0275916999671608,357.4876878000214,358.5903037000098,357.4876878000214,358.08980280003743,357.4876878000214,358.08980280003743,357.4876878000214,358.08980280003743,357.4876878000214,358.08980280003743,357.4876878000214,358.08980280003743,358.07186860003276,358.5726957000443,358.07186860003276,358.5726957000443,358.07186860003276,358.5726957000443,358.07186860003276,358.5726957000443,358.07186860003276,358.5726957000443,358.07186860003276,358.5726957000443,358.07186860003276,358.5726957000443,358.07186860003276,358.5726957000443,357.4876878000214,None,358.5726957000443,360.34198560001096,0.6000000000000003,360.3587031000061,None,361.1099778999924,None,,,,,,,[1.76829268],3.5000000000000027,0.7560975609756098,11013,001,2024_Jan_02_1634,MFTM_A_new1021,2021.2.3,59.787336439716285,
,,,,,,,,stim/Instruction_adaptive.png,conditions/adaptive.xlsx,test,0.6,0.6,0.6,-0.6,-0.6,right,R,,,,,0,1,1,1,0,41,41,8,,,,,,,,,,,,,,,,,,,,,,,,,,,,,,,,,,,,,,,,,,,,361.6112606000388,None,left,0,2.9068081000004895,362.11253059998853,363.1965617000242,362.11253059998853,362.6962421000353,362.11253059998853,362.6962421000353,362.11253059998853,362.6962421000353,362.11253059998853,362.6962421000353,362.11253059998853,362.6962421000353,362.67889800004195,363.1793112999876,362.67889800004195,363.1793112999876,362.67889800004195,363.1793112999876,362.67889800004195,363.1793112999876,362.67889800004195,363.1793112999876,362.67889800004195,363.1793112999876,362.67889800004195,363.1793112999876,362.67889800004195,363.1793112999876,362.11253059998853,None,363.1793112999876,365.04910689999815,0.5800000000000003,365.06560930004343,None,365.81754840002395,None,,,,,,,[1.77190476],3.3500000000000023,0.7380952380952381,11013,001,2024_Jan_02_1634,MFTM_A_new1021,2021.2.3,59.787336439716285,
,,,,,,,,stim/Instruction_adaptive.png,conditions/adaptive.xlsx,test,-0.6,-0.6,-0.6,0.6,0.6,left,L,,,,,0,1,1,1,0,42,42,39,,,,,,,,,,,,,,,,,,,,,,,,,,,,,,,,,,,,,,,,,,,,366.31849590002093,None,left,1,1.3849571999744512,366.81908129999647,367.97000600001775,366.81908129999647,367.469362200005,366.81908129999647,367.469362200005,366.81908129999647,367.469362200005,366.81908129999647,367.469362200005,366.81908129999647,367.469362200005,367.4528363000136,367.954047700041,367.4528363000136,367.954047700041,367.4528363000136,367.954047700041,367.4528363000136,367.954047700041,367.4528363000136,367.954047700041,367.4528363000136,367.954047700041,367.4528363000136,367.954047700041,367.4528363000136,367.954047700041,366.81908129999647,None,367.954047700041,369.7399452000391,0.6500000000000004,369.755536200013,None,370.50791460002074,None,,,,,,,[1.77372093],3.4000000000000026,0.7441860465116279,11013,001,2024_Jan_02_1634,MFTM_A_new1021,2021.2.3,59.787336439716285,
,,,,,,,,stim/Instruction_adaptive.png,conditions/adaptive.xlsx,test,0.6,0.6,0.6,-0.6,-0.6,right,R,,,,,0,1,1,1,0,43,43,58,,,,,,,,,,,,,,,,,,,,,,,,,,,,,,,,,,,,,,,,,,,,371.0085235000006,None,right,1,1.1742411000304855,371.50916090002283,372.6437062000041,371.50916090002283,372.14360670000315,371.50916090002283,372.14360670000315,371.50916090002283,372.14360670000315,371.50916090002283,372.14360670000315,371.50916090002283,372.14360670000315,372.1097418999998,372.6101284000324,372.1097418999998,372.6101284000324,372.1097418999998,372.6101284000324,372.1097418999998,372.6101284000324,372.1097418999998,372.6101284000324,372.1097418999998,372.6101284000324,372.1097418999998,372.6101284000324,372.1097418999998,372.6101284000324,371.50916090002283,None,372.6101284000324,374.3976948999916,0.6200000000000003,374.41295890003676,None,375.16465670004254,None,,,,,,,[1.77613636],3.450000000000003,0.75,11013,001,2024_Jan_02_1634,MFTM_A_new1021,2021.2.3,59.787336439716285,
,,,,,,,,stim/Instruction_adaptive.png,conditions/adaptive.xlsx,test,0.6,0.6,0.6,-0.6,-0.6,right,R,,,,,0,1,1,1,0,44,44,96,,,,,,,,,,,,,,,,,,,,,,,,,,,,,,,,,,,,,,,,,,,,375.664752200013,None,right,1,1.980861600022763,376.16664449998643,377.26769390003756,376.16664449998643,376.7663724999875,376.16664449998643,376.7663724999875,376.16664449998643,376.7663724999875,376.16664449998643,376.7663724999875,376.16664449998643,376.7663724999875,376.7495056000189,377.25098250003066,376.7495056000189,377.25098250003066,376.7495056000189,377.25098250003066,376.7495056000189,377.25098250003066,376.7495056000189,377.25098250003066,376.7495056000189,377.25098250003066,376.7495056000189,377.25098250003066,376.7495056000189,377.25098250003066,376.16664449998643,None,377.25098250003066,379.0372851000284,0.6000000000000003,379.0531112999888,None,379.8051863000146,None,,,,,,,[1.77888889],3.5000000000000027,0.7555555555555555,11013,001,2024_Jan_02_1634,MFTM_A_new1021,2021.2.3,59.787336439716285,
,,,,,,,,stim/Instruction_adaptive.png,conditions/adaptive.xlsx,test,-0.6,-0.6,-0.6,0.6,0.6,left,L,,,,,0,1,1,1,0,45,45,97,,,,,,,,,,,,,,,,,,,,,,,,,,,,,,,,,,,,,,,,,,,,380.3054975999985,None,left,1,1.3098293999792077,380.80570930003887,381.8905679000309,380.80570930003887,381.3900639000349,380.80570930003887,381.3900639000349,380.80570930003887,381.3900639000349,380.80570930003887,381.3900639000349,380.80570930003887,381.3900639000349,381.373056899989,381.87387760001,381.373056899989,381.87387760001,381.373056899989,381.87387760001,381.373056899989,381.87387760001,381.373056899989,381.87387760001,381.373056899989,381.87387760001,381.373056899989,381.87387760001,381.373056899989,381.87387760001,380.80570930003887,None,381.87387760001,383.6603744000313,0.5800000000000003,383.67674590001116,None,384.4284489999991,None,,,,,,,[1.78195652],3.5400000000000027,0.7608695652173914,11013,001,2024_Jan_02_1634,MFTM_A_new1021,2021.2.3,59.787336439716285,
,,,,,,,,stim/Instruction_adaptive.png,conditions/adaptive.xlsx,test,-0.6,-0.6,-0.6,0.6,0.6,left,L,,,,,0,1,1,1,0,46,46,53,,,,,,,,,,,,,,,,,,,,,,,,,,,,,,,,,,,,,,,,,,,,384.929156600032,None,right,0,1.2220640999730676,385.42926310002804,386.5153175999876,385.42926310002804,386.01330019999295,385.42926310002804,386.01330019999295,385.42926310002804,386.01330019999295,385.42926310002804,386.01330019999295,385.42926310002804,386.01330019999295,385.9805992000038,386.48076619999483,385.9805992000038,386.48076619999483,385.9805992000038,386.48076619999483,385.9805992000038,386.48076619999483,385.9805992000038,386.48076619999483,385.9805992000038,386.48076619999483,385.9805992000038,386.48076619999483,385.9805992000038,386.48076619999483,385.42926310002804,None,386.48076619999483,388.2674960999866,0.5700000000000003,388.2834755000076,None,389.0343573000282,None,,,,,,,[1.78510638],3.410000000000003,0.7446808510638298,11013,001,2024_Jan_02_1634,MFTM_A_new1021,2021.2.3,59.787336439716285,
,,,,,,,,stim/Instruction_adaptive.png,conditions/adaptive.xlsx,test,-0.6,-0.6,-0.6,0.6,0.6,left,L,,,,,0,1,1,1,0,47,47,95,,,,,,,,,,,,,,,,,,,,,,,,,,,,,,,,,,,,,,,,,,,,389.53531599999405,None,left,1,1.7842595999827608,390.0359622000251,391.1550653000013,390.0359622000251,390.67097560002003,390.0359622000251,390.67097560002003,390.0359622000251,390.67097560002003,390.0359622000251,390.67097560002003,390.0359622000251,390.67097560002003,390.63698870001826,391.1384131000377,390.63698870001826,391.1384131000377,390.63698870001826,391.1384131000377,390.63698870001826,391.1384131000377,390.63698870001826,391.1384131000377,390.63698870001826,391.1384131000377,390.63698870001826,391.1384131000377,390.63698870001826,391.1384131000377,390.0359622000251,None,391.1384131000377,392.9406784999883,0.6200000000000003,392.9570962000289,None,393.70852190000005,None,,,,,,,[1.78708333],3.4600000000000026,0.75,11013,001,2024_Jan_02_1634,MFTM_A_new1021,2021.2.3,59.787336439716285,
,,,,,,,,stim/Instruction_adaptive.png,conditions/adaptive.xlsx,test,0.6,0.6,0.6,-0.6,-0.6,right,R,,,,,0,1,1,1,0,48,48,38,,,,,,,,,,,,,,,,,,,,,,,,,,,,,,,,,,,,,,,,,,,,394.2095468000043,None,right,1,1.8138820999884047,394.71018860000186,395.8111937000067,394.71018860000186,395.31052550004097,394.71018860000186,395.31052550004097,394.71018860000186,395.31052550004097,394.71018860000186,395.31052550004097,394.71018860000186,395.31052550004097,395.29382580000674,395.79533420002554,395.29382580000674,395.79533420002554,395.29382580000674,395.79533420002554,395.29382580000674,395.79533420002554,395.29382580000674,395.79533420002554,395.29382580000674,395.79533420002554,395.29382580000674,395.79533420002554,395.29382580000674,395.79533420002554,394.71018860000186,None,395.79533420002554,397.5979607999907,0.6000000000000003,397.61404640000546,None,398.36578039999586,None,,,,,,,[1.78938776],3.5000000000000027,0.7551020408163265,11013,001,2024_Jan_02_1634,MFTM_A_new1021,2021.2.3,59.787336439716285,
,,,,,,,,stim/Instruction_adaptive.png,conditions/adaptive.xlsx,test,0.6,0.6,0.6,-0.6,-0.6,right,R,,,,,0,1,1,1,0,49,49,32,,,,,,,,,,,,,,,,,,,,,,,,,,,,,,,,,,,,,,,,,,,,398.8658848000341,None,right,1,2.012545899953693,399.36715840001125,400.45156860002317,399.36715840001125,399.9506844000425,399.36715840001125,399.9506844000425,399.36715840001125,399.9506844000425,399.36715840001125,399.9506844000425,399.36715840001125,399.9506844000425,399.9342460000189,400.434638500039,399.9342460000189,400.434638500039,399.9342460000189,400.434638500039,399.9342460000189,400.434638500039,399.9342460000189,400.434638500039,399.9342460000189,400.434638500039,399.9342460000189,400.434638500039,399.9342460000189,400.434638500039,399.36715840001125,None,400.434638500039,None,0.5800000000000003,402.2376417000196,None,402.9895355000044,None,,,,,,,[1.792],3.5400000000000027,0.76,11013,001,2024_Jan_02_1634,MFTM_A_new1021,2021.2.3,59.787336439716285,
,,,,,,,,stim/Instruction_adaptive.png,conditions/adaptive.xlsx,test,-0.6,-0.6,-0.6,0.6,0.6,left,L,,,,,0,1,1,1,0,50,50,59,,,,,,,,,,,,,,,,,,,,,,,,,,,,,,,,,,,,,,,,,,,,403.49030900001526,None,left,1,2.629602300003171,403.98990980000235,405.07732750003925,403.98990980000235,404.5748094000155,403.98990980000235,404.5748094000155,403.98990980000235,404.5748094000155,403.98990980000235,404.5748094000155,403.98990980000235,404.5748094000155,404.54085759999,405.04192260000855,404.54085759999,405.04192260000855,404.54085759999,405.04192260000855,404.54085759999,405.04192260000855,404.54085759999,405.04192260000855,404.54085759999,405.04192260000855,404.54085759999,405.04192260000855,404.54085759999,405.04192260000855,403.98990980000235,None,405.04192260000855,406.8444113000296,0.5700000000000003,406.86197399999946,None,407.61208709998755,None,,,,,,,[1.79470588],3.5800000000000027,0.7647058823529411,11013,001,2024_Jan_02_1634,MFTM_A_new1021,2021.2.3,59.787336439716285,
,,,,,,,,stim/Instruction_adaptive.png,conditions/adaptive.xlsx,test,-0.6,-0.6,-0.6,0.6,0.6,left,L,,,,,0,1,1,1,0,51,51,73,,,,,,,,,,,,,,,,,,,,,,,,,,,,,,,,,,,,,,,,,,,,408.1128283000435,None,left,1,1.070131499960553,408.6136478999979,409.6659423999954,408.6136478999979,409.16444580000825,408.6136478999979,409.16444580000825,408.6136478999979,409.16444580000825,408.6136478999979,409.16444580000825,408.6136478999979,409.16444580000825,409.1482207000372,409.64833960001124,409.1482207000372,409.64833960001124,409.1482207000372,409.64833960001124,409.1482207000372,409.64833960001124,409.1482207000372,409.64833960001124,409.1482207000372,409.64833960001124,409.1482207000372,409.64833960001124,409.1482207000372,409.64833960001124,408.6136478999979,None,409.64833960001124,411.451498600014,0.5500000000000003,411.4677471999894,None,412.21926350001013,None,,,,,,,[1.79769231],3.6200000000000028,0.7692307692307693,11013,001,2024_Jan_02_1634,MFTM_A_new1021,2021.2.3,59.787336439716285,
,,,,,,,,stim/Instruction_adaptive.png,conditions/adaptive.xlsx,test,-0.6,-0.6,-0.6,0.6,0.6,left,L,,,,,0,1,1,1,0,52,52,51,,,,,,,,,,,,,,,,,,,,,,,,,,,,,,,,,,,,,,,,,,,,412.7196813999908,None,right,0,1.5108387999935076,413.2205112000229,414.2726536000264,413.2205112000229,413.771844300034,413.2205112000229,413.771844300034,413.2205112000229,413.771844300034,413.2205112000229,413.771844300034,413.2205112000229,413.771844300034,413.7377904999885,414.239129900001,413.7377904999885,414.239129900001,413.7377904999885,414.239129900001,413.7377904999885,414.239129900001,413.7377904999885,414.239129900001,413.7377904999885,414.239129900001,413.7377904999885,414.239129900001,413.7377904999885,414.239129900001,413.2205112000229,None,414.239129900001,416.0421432000003,0.5400000000000003,416.0747055000393,None,416.82641899999,None,,,,,,,[1.80075472],3.5100000000000025,0.7547169811320755,11013,001,2024_Jan_02_1634,MFTM_A_new1021,2021.2.3,59.787336439716285,
,,,,,,,,stim/Instruction_adaptive.png,conditions/adaptive.xlsx,test,-0.6,-0.6,-0.6,0.6,0.6,left,L,,,,,0,1,1,1,0,53,53,69,,,,,,,,,,,,,,,,,,,,,,,,,,,,,,,,,,,,,,,,,,,,417.3271022000117,None,left,1,1.9516901999595575,417.8280636999989,418.9125314000412,417.8280636999989,418.41138120001415,417.8280636999989,418.41138120001415,417.8280636999989,418.41138120001415,417.8280636999989,418.41138120001415,417.8280636999989,418.41138120001415,418.3953418000019,418.89541619998636,418.3953418000019,418.89541619998636,418.3953418000019,418.89541619998636,418.3953418000019,418.89541619998636,418.3953418000019,418.89541619998636,418.3953418000019,418.89541619998636,418.3953418000019,418.89541619998636,418.3953418000019,418.89541619998636,417.8280636999989,None,418.89541619998636,420.69820210000034,0.5800000000000003,420.71499140001833,None,421.4661174000357,None,,,,,,,[1.80296296],3.5400000000000027,0.7592592592592593,11013,001,2024_Jan_02_1634,MFTM_A_new1021,2021.2.3,59.787336439716285,
,,,,,,,,stim/Instruction_adaptive.png,conditions/adaptive.xlsx,test,0.6,0.6,0.6,-0.6,-0.6,right,R,,,,,0,1,1,1,0,54,54,60,,,,,,,,,,,,,,,,,,,,,,,,,,,,,,,,,,,,,,,,,,,,421.96675720001804,None,left,0,1.4166002999991179,422.46747770003276,423.5523740000208,422.46747770003276,423.05165350000607,422.46747770003276,423.05165350000607,422.46747770003276,423.05165350000607,422.46747770003276,423.05165350000607,422.46747770003276,423.05165350000607,423.0182993999915,423.5189980000141,423.0182993999915,423.5189980000141,423.0182993999915,423.5189980000141,423.0182993999915,423.5189980000141,423.0182993999915,423.5189980000141,423.0182993999915,423.5189980000141,423.0182993999915,423.5189980000141,423.0182993999915,423.5189980000141,422.46747770003276,None,423.5189980000141,425.33834330004174,0.5700000000000003,425.35497059999034,None,426.1061668000184,None,,,,,,,[1.80527273],3.4400000000000026,0.7454545454545455,11013,001,2024_Jan_02_1634,MFTM_A_new1021,2021.2.3,59.787336439716285,
,,,,,,,,stim/Instruction_adaptive.png,conditions/adaptive.xlsx,test,-0.6,-0.6,-0.6,0.6,0.6,left,L,,,,,0,1,1,1,0,55,55,85,,,,,,,,,,,,,,,,,,,,,,,,,,,,,,,,,,,,,,,,,,,,426.60700910002925,None,left,1,1.4320066000218503,427.10766909999074,428.2264545999933,427.10766909999074,427.72510959999636,427.10766909999074,427.72510959999636,427.10766909999074,427.72510959999636,427.10766909999074,427.72510959999636,427.10766909999074,427.72510959999636,427.69175669999095,428.1931399999885,427.69175669999095,428.1931399999885,427.69175669999095,428.1931399999885,427.69175669999095,428.1931399999885,427.69175669999095,428.1931399999885,427.69175669999095,428.1931399999885,427.69175669999095,428.1931399999885,427.69175669999095,428.1931399999885,427.10766909999074,None,428.1931399999885,430.0119752000319,0.6100000000000003,430.0285036000423,None,430.78049670002656,None,,,,,,,[1.80678571],3.4700000000000024,0.75,11013,001,2024_Jan_02_1634,MFTM_A_new1021,2021.2.3,59.787336439716285,
,,,,,,,,stim/Instruction_adaptive.png,conditions/adaptive.xlsx,test,-0.6,-0.6,-0.6,0.6,0.6,left,L,,,,,0,1,1,1,0,56,56,43,,,,,,,,,,,,,,,,,,,,,,,,,,,,,,,,,,,,,,,,,,,,431.280527200026,None,right,0,1.0296062999987043,431.78182840003865,432.8836806000327,431.78182840003865,432.3823641000199,431.78182840003865,432.3823641000199,431.78182840003865,432.3823641000199,431.78182840003865,432.3823641000199,431.78182840003865,432.3823641000199,432.34858930000337,432.85016810003435,432.34858930000337,432.85016810003435,432.34858930000337,432.85016810003435,432.34858930000337,432.85016810003435,432.34858930000337,432.85016810003435,432.34858930000337,432.85016810003435,432.34858930000337,432.85016810003435,432.34858930000337,432.85016810003435,431.78182840003865,None,432.85016810003435,434.6696113999933,0.5900000000000003,434.6854305000161,None,435.4368768000277,None,,,,,,,[1.80859649],3.3700000000000028,0.7368421052631579,11013,001,2024_Jan_02_1634,MFTM_A_new1021,2021.2.3,59.787336439716285,
,,,,,,,,stim/Instruction_adaptive.png,conditions/adaptive.xlsx,test,-0.6,-0.6,-0.6,0.6,0.6,left,L,,,,,0,1,1,1,0,57,57,45,,,,,,,,,,,,,,,,,,,,,,,,,,,,,,,,,,,,,,,,,,,,435.9375308000017,None,left,1,1.7176217999658547,436.43832419998944,437.5905680000433,436.43832419998944,437.0891316999914,436.43832419998944,437.0891316999914,436.43832419998944,437.0891316999914,436.43832419998944,437.0891316999914,436.43832419998944,437.0891316999914,437.0557417999953,437.55642600002466,437.0557417999953,437.55642600002466,437.0557417999953,437.55642600002466,437.0557417999953,437.55642600002466,437.0557417999953,437.55642600002466,437.0557417999953,437.55642600002466,437.0557417999953,437.55642600002466,437.0557417999953,437.55642600002466,436.43832419998944,None,437.55642600002466,439.37572300003376,0.6400000000000003,439.3924073000089,None,440.1439556000405,None,,,,,,,[1.80948276],3.4000000000000026,0.7413793103448276,11013,001,2024_Jan_02_1634,MFTM_A_new1021,2021.2.3,59.787336439716285,
,,,,,,,,stim/Instruction_adaptive.png,conditions/adaptive.xlsx,test,0.6,0.6,0.6,-0.6,-0.6,right,R,,,,,0,1,1,1,0,58,58,42,,,,,,,,,,,,,,,,,,,,,,,,,,,,,,,,,,,,,,,,,,,,440.644369799993,None,right,1,1.0975832999683917,441.14584569999715,442.28028710000217,441.14584569999715,441.7794850000064,441.14584569999715,441.7794850000064,441.14584569999715,441.7794850000064,441.14584569999715,441.7794850000064,441.14584569999715,441.7794850000064,441.7462527999887,442.2464670999907,441.7462527999887,442.2464670999907,441.7462527999887,442.2464670999907,441.7462527999887,442.2464670999907,441.7462527999887,442.2464670999907,441.7462527999887,442.2464670999907,441.7462527999887,442.2464670999907,441.7462527999887,442.2464670999907,441.14584569999715,None,442.2464670999907,444.06758590001846,0.6200000000000003,444.0825867000385,None,444.8336959000444,None,,,,,,,[1.81067797],3.4400000000000026,0.7457627118644068,11013,001,2024_Jan_02_1634,MFTM_A_new1021,2021.2.3,59.787336439716285,
,,,,,,,,stim/Instruction_adaptive.png,conditions/adaptive.xlsx,test,-0.6,-0.6,-0.6,0.6,0.6,left,L,,,,,0,1,1,1,0,59,59,19,,,,,,,,,,,,,,,,,,,,,,,,,,,,,,,,,,,,,,,,,,,,445.3353903000243,None,left,1,1.5196144999936223,445.836004300043,446.95444330002647,445.836004300043,446.45366769999964,445.836004300043,446.45366769999964,445.836004300043,446.45366769999964,445.836004300043,446.45366769999964,445.836004300043,446.45366769999964,446.43631570000434,446.93764220003504,446.43631570000434,446.93764220003504,446.43631570000434,446.93764220003504,446.43631570000434,446.93764220003504,446.43631570000434,446.93764220003504,446.43631570000434,446.93764220003504,446.43631570000434,446.93764220003504,446.43631570000434,446.93764220003504,445.836004300043,None,446.93764220003504,448.7563213999965,0.6100000000000003,448.7731038000202,None,449.52498119999655,None,,,,,,,[1.812],3.4700000000000024,0.75,11013,001,2024_Jan_02_1634,MFTM_A_new1021,2021.2.3,59.787336439716285,
,,,,,,,,stim/Instruction_adaptive.png,conditions/adaptive.xlsx,test,0.6,0.6,0.6,-0.6,-0.6,right,R,,,,,0,1,1,1,0,60,60,66,,,,,,,,,,,,,,,,,,,,,,,,,,,,,,,,,,,,,,,,,,,,450.0256706000073,None,right,1,1.1978543000295758,450.5258163000108,451.6295684000361,450.5258163000108,451.12730849999934,450.5258163000108,451.12730849999934,450.5258163000108,451.12730849999934,450.5258163000108,451.12730849999934,450.5258163000108,451.12730849999934,451.09456200001296,451.5947727999883,451.09456200001296,451.5947727999883,451.09456200001296,451.5947727999883,451.09456200001296,451.5947727999883,451.09456200001296,451.5947727999883,451.09456200001296,451.5947727999883,451.09456200001296,451.5947727999883,451.09456200001296,451.5947727999883,450.5258163000108,None,451.5947727999883,453.4133399000275,0.5900000000000003,453.42995880002854,None,454.18257270002505,None,,,,,,,[1.81360656],3.5100000000000025,0.7540983606557377,11013,001,2024_Jan_02_1634,MFTM_A_new1021,2021.2.3,59.787336439716285,
,,,,,,,,stim/Instruction_adaptive.png,conditions/adaptive.xlsx,test,0.6,0.6,0.6,-0.6,-0.6,right,R,,,,,0,1,1,1,0,61,61,0,,,,,,,,,,,,,,,,,,,,,,,,,,,,,,,,,,,,,,,,,,,,454.68212479999056,None,right,1,1.852446599979885,455.18320319999475,456.2691638999968,455.18320319999475,455.7673939000233,455.18320319999475,455.7673939000233,455.18320319999475,455.7673939000233,455.18320319999475,455.7673939000233,455.18320319999475,455.7673939000233,455.7505369000137,456.2509027000051,455.7505369000137,456.2509027000051,455.7505369000137,456.2509027000051,455.7505369000137,456.2509027000051,455.7505369000137,456.2509027000051,455.7505369000137,456.2509027000051,455.7505369000137,456.2509027000051,455.7505369000137,456.2509027000051,455.18320319999475,None,456.2509027000051,458.0715306000202,0.5800000000000003,458.0872312000138,None,458.83814250002615,None,,,,,,,[1.81532258],3.5400000000000027,0.7580645161290323,11013,001,2024_Jan_02_1634,MFTM_A_new1021,2021.2.3,59.787336439716285,
,,,,,,,,stim/Instruction_adaptive.png,conditions/adaptive.xlsx,test,-0.6,-0.6,-0.6,0.6,0.6,left,L,,,,,0,1,1,1,0,62,62,31,,,,,,,,,,,,,,,,,,,,,,,,,,,,,,,,,,,,,,,,,,,,459.3398215000052,None,left,1,1.3331746999756433,459.8392195000197,460.9092033000197,459.8392195000197,460.42374749999726,459.8392195000197,460.42374749999726,459.8392195000197,460.42374749999726,459.8392195000197,460.42374749999726,459.8392195000197,460.42374749999726,460.3901741000009,460.892122499994,460.3901741000009,460.892122499994,460.3901741000009,460.892122499994,460.3901741000009,460.892122499994,460.3901741000009,460.892122499994,460.3901741000009,460.892122499994,460.3901741000009,460.892122499994,460.3901741000009,460.892122499994,459.8392195000197,None,460.892122499994,462.7109765000059,0.5700000000000003,462.7277693999931,None,463.47886120004114,None,,,,,,,[1.81714286],3.570000000000003,0.7619047619047619,11013,001,2024_Jan_02_1634,MFTM_A_new1021,2021.2.3,59.787336439716285,
,,,,,,,,stim/Instruction_adaptive.png,conditions/adaptive.xlsx,test,0.6,0.6,0.6,-0.6,-0.6,right,R,,,,,0,1,1,1,0,63,63,12,,,,,,,,,,,,,,,,,,,,,,,,,,,,,,,,,,,,,,,,,,,,463.9795549000264,None,left,0,0.9638347000000067,464.47981900000013,465.53107010002714,464.47981900000013,465.0304042000207,464.47981900000013,465.0304042000207,464.47981900000013,465.0304042000207,464.47981900000013,465.0304042000207,464.47981900000013,465.0304042000207,465.0138158000191,465.51512920000823,465.0138158000191,465.51512920000823,465.0138158000191,465.51512920000823,465.0138158000191,465.51512920000823,465.0138158000191,465.51512920000823,465.0138158000191,465.51512920000823,465.0138158000191,465.51512920000823,465.0138158000191,465.51512920000823,464.47981900000013,None,465.51512920000823,467.3348306000116,0.5500000000000003,467.35035459999926,None,468.10244640003657,None,,,,,,,[1.81921875],3.4800000000000026,0.75,11013,001,2024_Jan_02_1634,MFTM_A_new1021,2021.2.3,59.787336439716285,
,,,,,,,,stim/Instruction_adaptive.png,conditions/adaptive.xlsx,test,0.6,0.6,0.6,-0.6,-0.6,right,R,,,,,0,1,1,1,0,64,64,56,,,,,,,,,,,,,,,,,,,,,,,,,,,,,,,,,,,,,,,,,,,,468.602306100016,None,left,0,1.4207658999948762,469.1031705000205,470.20560990000376,469.1031705000205,469.7048441999941,469.1031705000205,469.7048441999941,469.1031705000205,469.7048441999941,469.1031705000205,469.7048441999941,469.1031705000205,469.7048441999941,469.67074740002863,470.17274370003724,469.67074740002863,470.17274370003724,469.67074740002863,470.17274370003724,469.67074740002863,470.17274370003724,469.67074740002863,470.17274370003724,469.67074740002863,470.17274370003724,469.67074740002863,470.17274370003724,469.67074740002863,470.17274370003724,469.1031705000205,None,470.17274370003724,472.0079345999984,0.5900000000000003,472.02473080001073,None,472.77524819999235,None,,,,,,,[1.82061538],3.3900000000000023,0.7384615384615385,11013,001,2024_Jan_02_1634,MFTM_A_new1021,2021.2.3,59.787336439716285,
,,,,,,,,stim/Instruction_adaptive.png,conditions/adaptive.xlsx,test,-0.6,-0.6,-0.6,0.6,0.6,left,L,,,,,0,1,1,1,0,65,65,81,,,,,,,,,,,,,,,,,,,,,,,,,,,,,,,,,,,,,,,,,,,,473.27730870002415,None,left,1,1.2260302999638952,473.7775190999964,474.9117484000162,473.7775190999964,474.41111240000464,473.7775190999964,474.41111240000464,473.7775190999964,474.41111240000464,473.7775190999964,474.41111240000464,473.7775190999964,474.41111240000464,474.39446829998633,474.8958538000006,474.39446829998633,474.8958538000006,474.39446829998633,474.8958538000006,474.39446829998633,474.8958538000006,474.39446829998633,474.8958538000006,474.39446829998633,474.8958538000006,474.39446829998633,474.8958538000006,474.39446829998633,474.8958538000006,473.7775190999964,None,474.8958538000006,None,0.6300000000000003,476.73106110002846,None,477.48268489999464,None,,,,,,,[1.82136364],3.4200000000000026,0.7424242424242424,11013,001,2024_Jan_02_1634,MFTM_A_new1021,2021.2.3,59.787336439716285,
,,,,,,,,stim/Instruction_adaptive.png,conditions/adaptive.xlsx,test,0.6,0.6,0.6,-0.6,-0.6,right,R,,,,,0,1,1,1,0,66,66,36,,,,,,,,,,,,,,,,,,,,,,,,,,,,,,,,,,,,,,,,,,,,477.98314329999266,None,right,1,1.9197891000076197,478.48382200003834,479.60258950002026,478.48382200003834,479.1013133000233,478.48382200003834,479.1013133000233,478.48382200003834,479.1013133000233,478.48382200003834,479.1013133000233,478.48382200003834,479.1013133000233,479.08557070000097,479.58540360000916,479.08557070000097,479.58540360000916,479.08557070000097,479.58540360000916,479.08557070000097,479.58540360000916,479.08557070000097,479.58540360000916,479.08557070000097,479.58540360000916,479.08557070000097,479.58540360000916,479.08557070000097,479.58540360000916,478.48382200003834,None,479.58540360000916,None,0.6100000000000003,481.421550500032,None,482.17395010002656,None,,,,,,,[1.82238806],3.450000000000003,0.746268656716418,11013,001,2024_Jan_02_1634,MFTM_A_new1021,2021.2.3,59.787336439716285,
,,,,,,,,stim/Instruction_adaptive.png,conditions/adaptive.xlsx,test,-0.6,-0.6,-0.6,0.6,0.6,left,L,,,,,0,1,1,1,0,67,67,71,,,,,,,,,,,,,,,,,,,,,,,,,,,,,,,,,,,,,,,,,,,,482.6733591000084,None,right,0,1.2139401000458747,483.1740982999909,484.27623499999754,483.1740982999909,483.77556280000135,483.1740982999909,483.77556280000135,483.1740982999909,483.77556280000135,483.1740982999909,483.77556280000135,483.1740982999909,483.77556280000135,483.7588099000277,484.2590043999953,483.7588099000277,484.2590043999953,483.7588099000277,484.2590043999953,483.7588099000277,484.2590043999953,483.7588099000277,484.2590043999953,483.7588099000277,484.2590043999953,483.7588099000277,484.2590043999953,483.7588099000277,484.2590043999953,483.1740982999909,None,484.2590043999953,None,0.6000000000000003,486.11288319999585,None,486.8629382000072,None,,,,,,,[1.82352941],3.3600000000000025,0.7352941176470589,11013,001,2024_Jan_02_1634,MFTM_A_new1021,2021.2.3,59.787336439716285,
,,,,,,,,stim/Instruction_adaptive.png,conditions/adaptive.xlsx,test,0.6,0.6,0.6,-0.6,-0.6,right,R,,,,,0,1,1,1,0,68,68,10,,,,,,,,,,,,,,,,,,,,,,,,,,,,,,,,,,,,,,,,,,,,487.3649628999992,None,right,1,1.8505844000028446,487.86532040004386,489.0159982999903,487.86532040004386,488.5153161000344,487.86532040004386,488.5153161000344,487.86532040004386,488.5153161000344,487.86532040004386,488.5153161000344,487.86532040004386,488.5153161000344,488.48183130001416,488.98192420002306,488.48183130001416,488.98192420002306,488.48183130001416,488.98192420002306,488.48183130001416,488.98192420002306,488.48183130001416,488.98192420002306,488.48183130001416,488.98192420002306,488.48183130001416,488.98192420002306,488.48183130001416,488.98192420002306,487.86532040004386,None,488.98192420002306,490.81944019999355,0.6400000000000003,490.8351841000258,None,491.58685970003717,None,,,,,,,[1.82405797],3.3900000000000023,0.7391304347826086,11013,001,2024_Jan_02_1634,MFTM_A_new1021,2021.2.3,59.787336439716285,
,,,,,,,,stim/Instruction_adaptive.png,conditions/adaptive.xlsx,test,0.6,0.6,0.6,-0.6,-0.6,right,R,,,,,0,1,1,1,0,69,69,6,,,,,,,,,,,,,,,,,,,,,,,,,,,,,,,,,,,,,,,,,,,,492.08849900000496,None,right,1,1.455543099960778,492.58805220003705,493.7231253000209,492.58805220003705,493.2222627000301,492.58805220003705,493.2222627000301,492.58805220003705,493.2222627000301,492.58805220003705,493.2222627000301,492.58805220003705,493.2222627000301,493.20564070000546,493.7070315000019,493.20564070000546,493.7070315000019,493.20564070000546,493.7070315000019,493.20564070000546,493.7070315000019,493.20564070000546,493.7070315000019,493.20564070000546,493.7070315000019,493.20564070000546,493.7070315000019,493.20564070000546,493.7070315000019,492.58805220003705,None,493.7070315000019,None,0.6300000000000003,495.5425099999993,None,496.29360740003176,None,,,,,,,[1.82471429],3.4200000000000026,0.7428571428571429,11013,001,2024_Jan_02_1634,MFTM_A_new1021,2021.2.3,59.787336439716285,
,,,,,,,,stim/Instruction_adaptive.png,conditions/adaptive.xlsx,test,0.6,0.6,0.6,-0.6,-0.6,right,R,,,,,0,1,1,1,0,70,70,20,,,,,,,,,,,,,,,,,,,,,,,,,,,,,,,,,,,,,,,,,,,,496.7949393999879,None,right,1,1.1968343000044115,497.29499289998785,498.413893799996,497.29499289998785,497.9126854999922,497.29499289998785,497.9126854999922,497.29499289998785,497.9126854999922,497.29499289998785,497.9126854999922,497.29499289998785,497.9126854999922,497.896669400041,498.39768709999043,497.896669400041,498.39768709999043,497.896669400041,498.39768709999043,497.896669400041,498.39768709999043,497.896669400041,498.39768709999043,497.896669400041,498.39768709999043,497.896669400041,498.39768709999043,497.896669400041,498.39768709999043,497.29499289998785,None,498.39768709999043,None,0.6100000000000003,500.2327617999981,None,500.9840676999884,None,,,,,,,[1.8256338],3.450000000000003,0.7464788732394366,11013,001,2024_Jan_02_1634,MFTM_A_new1021,2021.2.3,59.787336439716285,
,,,,,,,,stim/Instruction_adaptive.png,conditions/adaptive.xlsx,test,-0.6,-0.6,-0.6,0.6,0.6,left,L,,,,,0,1,1,1,0,71,71,17,,,,,,,,,,,,,,,,,,,,,,,,,,,,,,,,,,,,,,,,,,,,501.48522249999223,None,left,1,1.1380973000195809,501.9854257000261,503.08772960002534,501.9854257000261,502.58654230000684,501.9854257000261,502.58654230000684,501.9854257000261,502.58654230000684,501.9854257000261,502.58654230000684,501.9854257000261,502.58654230000684,502.56978950003395,503.0701749,502.56978950003395,503.0701749,502.56978950003395,503.0701749,502.56978950003395,503.0701749,502.56978950003395,503.0701749,502.56978950003395,503.0701749,502.56978950003395,503.0701749,502.56978950003395,503.0701749,501.9854257000261,None,503.0701749,504.9062386000296,0.6000000000000003,504.92304540000623,None,505.67468340002233,None,,,,,,,[1.82666667],3.4800000000000026,0.75,11013,001,2024_Jan_02_1634,MFTM_A_new1021,2021.2.3,59.787336439716285,
,,,,,,,,stim/Instruction_adaptive.png,conditions/adaptive.xlsx,test,-0.6,-0.6,-0.6,0.6,0.6,left,L,,,,,0,1,1,1,0,72,72,35,,,,,,,,,,,,,,,,,,,,,,,,,,,,,,,,,,,,,,,,,,,,506.1749288000283,None,right,0,2.00021090003429,506.6756202999968,507.7774058000068,506.6756202999968,507.2771332000266,506.6756202999968,507.2771332000266,506.6756202999968,507.2771332000266,506.6756202999968,507.2771332000266,506.6756202999968,507.2771332000266,507.24311440001475,507.74432210001396,507.24311440001475,507.74432210001396,507.24311440001475,507.74432210001396,507.24311440001475,507.74432210001396,507.24311440001475,507.74432210001396,507.24311440001475,507.74432210001396,507.24311440001475,507.74432210001396,507.24311440001475,507.74432210001396,506.6756202999968,None,507.74432210001396,509.5804991000332,0.5900000000000003,509.59627710003406,None,510.3476889000158,None,,,,,,,[1.82780822],3.4000000000000026,0.7397260273972602,11013,001,2024_Jan_02_1634,MFTM_A_new1021,2021.2.3,59.787336439716285,
,,,,,,,,stim/Instruction_adaptive.png,conditions/adaptive.xlsx,test,-0.6,-0.6,-0.6,0.6,0.6,left,L,,,,,0,1,1,1,0,73,73,11,,,,,,,,,,,,,,,,,,,,,,,,,,,,,,,,,,,,,,,,,,,,510.8498471000348,None,right,0,1.118536900030449,511.34917200001655,512.467650400009,511.34917200001655,511.98364940000465,511.34917200001655,511.98364940000465,511.34917200001655,511.98364940000465,511.34917200001655,511.98364940000465,511.34917200001655,511.98364940000465,511.9500162000186,512.4514804999926,511.9500162000186,512.4514804999926,511.9500162000186,512.4514804999926,511.9500162000186,512.4514804999926,511.9500162000186,512.4514804999926,511.9500162000186,512.4514804999926,511.9500162000186,512.4514804999926,511.9500162000186,512.4514804999926,511.34917200001655,None,512.4514804999926,514.2869794000289,0.6200000000000003,514.3035908000311,None,515.0544988000183,None,,,,,,,[1.82851351],3.3100000000000023,0.7297297297297297,11013,001,2024_Jan_02_1634,MFTM_A_new1021,2021.2.3,59.787336439716285,
,,,,,,,,stim/Instruction_adaptive.png,conditions/adaptive.xlsx,test,0.6,0.6,0.6,-0.6,-0.6,right,R,,,,,0,1,1,1,0,74,74,88,,,,,,,,,,,,,,,,,,,,,,,,,,,,,,,,,,,,,,,,,,,,515.5562027000124,None,right,1,1.9075145000242628,516.0562257000129,517.22454070003,516.0562257000129,516.7238184000016,516.0562257000129,516.7238184000016,516.0562257000129,516.7238184000016,516.0562257000129,516.7238184000016,516.0562257000129,516.7238184000016,516.6904210000066,517.1916195999947,516.6904210000066,517.1916195999947,516.6904210000066,517.1916195999947,516.6904210000066,517.1916195999947,516.6904210000066,517.1916195999947,516.6904210000066,517.1916195999947,516.6904210000066,517.1916195999947,516.6904210000066,517.1916195999947,516.0562257000129,None,517.1916195999947,519.0280478000059,0.6600000000000004,519.0435353000066,None,519.7956599000026,None,,,,,,,[1.82866667],3.3400000000000025,0.7333333333333333,11013,001,2024_Jan_02_1634,MFTM_A_new1021,2021.2.3,59.787336439716285,
,,,,,,,,stim/Instruction_adaptive.png,conditions/adaptive.xlsx,test,0.6,0.6,0.6,-0.6,-0.6,right,R,,,,,0,1,1,1,0,75,75,14,,,,,,,,,,,,,,,,,,,,,,,,,,,,,,,,,,,,,,,,,,,,520.2957884999923,None,right,1,2.358370099973399,520.7971895000082,521.9490672000102,520.7971895000082,521.4475526000024,520.7971895000082,521.4475526000024,520.7971895000082,521.4475526000024,520.7971895000082,521.4475526000024,520.7971895000082,521.4475526000024,521.4308519000188,521.9322109000059,521.4308519000188,521.9322109000059,521.4308519000188,521.9322109000059,521.4308519000188,521.9322109000059,521.4308519000188,521.9322109000059,521.4308519000188,521.9322109000059,521.4308519000188,521.9322109000059,521.4308519000188,521.9322109000059,520.7971895000082,None,521.9322109000059,523.7675604000106,0.6500000000000004,523.7848698000307,None,524.5358755000052,None,,,,,,,[1.82894737],3.3700000000000028,0.7368421052631579,11013,001,2024_Jan_02_1634,MFTM_A_new1021,2021.2.3,59.787336439716285,
,,,,,,,,stim/Instruction_adaptive.png,conditions/adaptive.xlsx,test,0.6,0.6,0.6,-0.6,-0.6,right,R,,,,,0,1,1,1,0,76,76,2,,,,,,,,,,,,,,,,,,,,,,,,,,,,,,,,,,,,,,,,,,,,525.0361899000127,None,right,1,2.2511115000233985,525.5367220999906,526.6886383999954,525.5367220999906,526.1883791,525.5367220999906,526.1883791,525.5367220999906,526.1883791,525.5367220999906,526.1883791,525.5367220999906,526.1883791,526.1544789000181,526.6552429000149,526.1544789000181,526.6552429000149,526.1544789000181,526.6552429000149,526.1544789000181,526.6552429000149,526.1544789000181,526.6552429000149,526.1544789000181,526.6552429000149,526.1544789000181,526.6552429000149,526.1544789000181,526.6552429000149,525.5367220999906,None,526.6552429000149,528.4912922999938,0.6400000000000003,528.5082081999863,None,529.2597528999904,None,,,,,,,[1.82935065],3.4000000000000026,0.7402597402597403,11013,001,2024_Jan_02_1634,MFTM_A_new1021,2021.2.3,59.787336439716285,
,,,,,,,,stim/Instruction_adaptive.png,conditions/adaptive.xlsx,test,0.6,0.6,0.6,-0.6,-0.6,right,R,,,,,0,1,1,1,0,77,77,84,,,,,,,,,,,,,,,,,,,,,,,,,,,,,,,,,,,,,,,,,,,,529.7600952000357,None,right,1,2.1037157000391744,530.260465600004,531.3952557999874,530.260465600004,530.8954181000008,530.260465600004,530.8954181000008,530.260465600004,530.8954181000008,530.260465600004,530.8954181000008,530.260465600004,530.8954181000008,530.8613115000189,531.3623711999971,530.8613115000189,531.3623711999971,530.8613115000189,531.3623711999971,530.8613115000189,531.3623711999971,530.8613115000189,531.3623711999971,530.8613115000189,531.3623711999971,530.8613115000189,531.3623711999971,530.8613115000189,531.3623711999971,530.260465600004,None,531.3623711999971,533.1979761000257,0.6200000000000003,533.2157592999865,None,533.9669833999942,None,,,,,,,[1.83],3.4200000000000026,0.7435897435897436,11013,001,2024_Jan_02_1634,MFTM_A_new1021,2021.2.3,59.787336439716285,
,,,,,,,,stim/Instruction_adaptive.png,conditions/adaptive.xlsx,test,0.6,0.6,0.6,-0.6,-0.6,right,R,,,,,0,1,1,1,0,78,78,34,,,,,,,,,,,,,,,,,,,,,,,,,,,,,,,,,,,,,,,,,,,,534.4679719000123,None,right,1,1.187711099977605,534.967992299993,536.0858201000374,534.967992299993,535.5848833000055,534.967992299993,535.5848833000055,534.967992299993,535.5848833000055,534.967992299993,535.5848833000055,534.967992299993,535.5848833000055,535.5522794999997,536.0524130000267,535.5522794999997,536.0524130000267,535.5522794999997,536.0524130000267,535.5522794999997,536.0524130000267,535.5522794999997,536.0524130000267,535.5522794999997,536.0524130000267,535.5522794999997,536.0524130000267,535.5522794999997,536.0524130000267,534.967992299993,None,536.0524130000267,537.8892163000419,0.6100000000000003,537.9219679000089,None,538.6730745999957,None,,,,,,,[1.83075949],3.450000000000003,0.7468354430379747,11013,001,2024_Jan_02_1634,MFTM_A_new1021,2021.2.3,59.787336439716285,
,,,,,,,,stim/Instruction_adaptive.png,conditions/adaptive.xlsx,test,0.6,0.6,0.6,-0.6,-0.6,right,R,,,,,0,1,1,1,0,79,79,52,,,,,,,,,,,,,,,,,,,,,,,,,,,,,,,,,,,,,,,,,,,,539.173585200042,None,left,0,1.5211507999920286,539.6744033000432,540.7762451000162,539.6744033000432,540.2759797000326,539.6744033000432,540.2759797000326,539.6744033000432,540.2759797000326,539.6744033000432,540.2759797000326,539.6744033000432,540.2759797000326,540.2587213999941,540.7597279000329,540.2587213999941,540.7597279000329,540.2587213999941,540.7597279000329,540.2587213999941,540.7597279000329,540.2587213999941,540.7597279000329,540.2587213999941,540.7597279000329,540.2587213999941,540.7597279000329,540.2587213999941,540.7597279000329,539.6744033000432,None,540.7597279000329,542.5955001999973,0.6000000000000003,542.6124697999912,None,543.3633644999936,None,,,,,,,[1.831625],3.3700000000000028,0.7375,11013,001,2024_Jan_02_1634,MFTM_A_new1021,2021.2.3,59.787336439716285,
,,,,,,,,stim/Instruction_adaptive.png,conditions/adaptive.xlsx,test,-0.6,-0.6,-0.6,0.6,0.6,left,L,,,,,0,1,1,1,0,80,80,65,,,,,,,,,,,,,,,,,,,,,,,,,,,,,,,,,,,,,,,,,,,,543.8641593999928,None,right,0,2.527134100033436,544.3647047000122,545.5173428000417,544.3647047000122,545.0157489000121,544.3647047000122,545.0157489000121,544.3647047000122,545.0157489000121,544.3647047000122,545.0157489000121,544.3647047000122,545.0157489000121,544.9821202000021,545.483194200031,544.9821202000021,545.483194200031,544.9821202000021,545.483194200031,544.9821202000021,545.483194200031,544.9821202000021,545.483194200031,544.9821202000021,545.483194200031,544.9821202000021,545.483194200031,544.9821202000021,545.483194200031,544.3647047000122,None,545.483194200031,547.3196798000135,0.6400000000000003,547.335762200004,None,548.0871723000309,None,,,,,,,[1.83197531],3.2900000000000027,0.7283950617283951,11013,001,2024_Jan_02_1634,MFTM_A_new1021,2021.2.3,59.787336439716285,
,,,,,,,,stim/Instruction_adaptive.png,conditions/adaptive.xlsx,test,-0.6,-0.6,-0.6,0.6,0.6,left,L,,,,,0,1,1,1,0,81,81,55,,,,,,,,,,,,,,,,,,,,,,,,,,,,,,,,,,,,,,,,,,,,548.588030599989,None,left,1,1.179288399987854,549.0883772000088,550.2567688000272,549.0883772000088,549.7733745999867,549.0883772000088,549.7733745999867,549.0883772000088,549.7733745999867,549.0883772000088,549.7733745999867,549.0883772000088,549.7733745999867,549.7393053999986,550.2409846000373,549.7393053999986,550.2409846000373,549.7393053999986,550.2409846000373,549.7393053999986,550.2409846000373,549.7393053999986,550.2409846000373,549.7393053999986,550.2409846000373,549.7393053999986,550.2409846000373,549.7393053999986,550.2409846000373,549.0883772000088,None,550.2409846000373,552.0776568000438,0.6700000000000004,552.0923250000342,None,552.8453336000093,None,,,,,,,[[1.83]],3.3200000000000025,0.7317073170731707,11013,001,2024_Jan_02_1634,MFTM_A_new1021,2021.2.3,59.787336439716285,
,,,,,,,,stim/Instruction_adaptive.png,conditions/adaptive.xlsx,test,-0.6,-0.6,-0.6,0.6,0.6,left,L,,,,,0,1,1,1,0,82,82,25,,,,,,,,,,,,,,,,,,,,,,,,,,,,,,,,,,,,,,,,,,,,553.3448370000115,None,left,1,1.2616816000081599,553.845880500041,555.0146099000121,553.845880500041,554.5133415000164,553.845880500041,554.5133415000164,553.845880500041,554.5133415000164,553.845880500041,554.5133415000164,553.845880500041,554.5133415000164,554.4797034999938,554.9814408000093,554.4797034999938,554.9814408000093,554.4797034999938,554.9814408000093,554.4797034999938,554.9814408000093,554.4797034999938,554.9814408000093,554.4797034999938,554.9814408000093,554.4797034999938,554.9814408000093,554.4797034999938,554.9814408000093,553.845880500041,None,554.9814408000093,556.8166548000299,0.6600000000000004,556.8505217999918,None,557.6019685000065,None,,,,,,,[1.83204819],3.3500000000000023,0.7349397590361446,11013,001,2024_Jan_02_1634,MFTM_A_new1021,2021.2.3,59.787336439716285,
,,,,,,,,stim/Instruction_adaptive.png,conditions/adaptive.xlsx,test,-0.6,-0.6,-0.6,0.6,0.6,left,L,,,,,0,1,1,1,0,83,83,49,,,,,,,,,,,,,,,,,,,,,,,,,,,,,,,,,,,,,,,,,,,,558.1027290000347,None,left,1,1.4012776999734342,558.6024922000361,559.7545170999947,558.6024922000361,559.2533026000019,558.6024922000361,559.2533026000019,558.6024922000361,559.2533026000019,558.6024922000361,559.2533026000019,558.6024922000361,559.2533026000019,559.2372985000256,559.7382422999945,559.2372985000256,559.7382422999945,559.2372985000256,559.7382422999945,559.2372985000256,559.7382422999945,559.2372985000256,559.7382422999945,559.2372985000256,559.7382422999945,559.2372985000256,559.7382422999945,559.2372985000256,559.7382422999945,558.6024922000361,None,559.7382422999945,561.5736451999983,0.6500000000000004,561.5903038000106,None,562.3415512000211,None,,,,,,,[1.8322619],3.3700000000000028,0.7380952380952381,11013,001,2024_Jan_02_1634,MFTM_A_new1021,2021.2.3,59.787336439716285,
,,,,,,,,stim/Instruction_adaptive.png,conditions/adaptive.xlsx,test,-0.6,-0.6,-0.6,0.6,0.6,left,L,,,,,0,1,1,1,0,84,84,89,,,,,,,,,,,,,,,,,,,,,,,,,,,,,,,,,,,,,,,,,,,,562.8421431999886,None,right,0,1.4926339000230655,563.3430552000063,564.4950011000037,563.3430552000063,563.9946641999995,563.3430552000063,563.9946641999995,563.3430552000063,563.9946641999995,563.3430552000063,563.9946641999995,563.3430552000063,563.9946641999995,563.9604572000098,564.4618064000388,563.9604572000098,564.4618064000388,563.9604572000098,564.4618064000388,563.9604572000098,564.4618064000388,563.9604572000098,564.4618064000388,563.9604572000098,564.4618064000388,563.9604572000098,564.4618064000388,563.9604572000098,564.4618064000388,563.3430552000063,None,564.4618064000388,566.2980390000157,0.6400000000000003,566.3134283000254,None,567.0651102000265,None,,,,,,,[1.83258824],3.2900000000000027,0.7294117647058823,11013,001,2024_Jan_02_1634,MFTM_A_new1021,2021.2.3,59.787336439716285,
,,,,,,,,stim/Instruction_adaptive.png,conditions/adaptive.xlsx,test,-0.6,-0.6,-0.6,0.6,0.6,left,L,,,,,0,1,1,1,0,85,85,41,,,,,,,,,,,,,,,,,,,,,,,,,,,,,,,,,,,,,,,,,,,,567.5657540000393,None,left,1,1.0655088999774307,568.0662798000267,569.2515380000114,568.0662798000267,568.7509776999941,568.0662798000267,568.7509776999941,568.0662798000267,568.7509776999941,568.0662798000267,568.7509776999941,568.0662798000267,568.7509776999941,568.7175017000409,569.218193800014,568.7175017000409,569.218193800014,568.7175017000409,569.218193800014,568.7175017000409,569.218193800014,568.7175017000409,569.218193800014,568.7175017000409,569.218193800014,568.7175017000409,569.218193800014,568.7175017000409,569.218193800014,568.0662798000267,None,569.218193800014,571.0544377000188,0.6700000000000004,571.0710304999957,None,571.8227260000422,None,,,,,,,[[1.83]],3.3200000000000025,0.7325581395348837,11013,001,2024_Jan_02_1634,MFTM_A_new1021,2021.2.3,59.787336439716285,
,,,,,,,,stim/Instruction_adaptive.png,conditions/adaptive.xlsx,test,0.6,0.6,0.6,-0.6,-0.6,right,R,,,,,0,1,1,1,0,86,86,64,,,,,,,,,,,,,,,,,,,,,,,,,,,,,,,,,,,,,,,,,,,,572.322766199999,None,right,1,1.3963174999807961,572.8233678000397,573.9919014000334,572.8233678000397,573.491306400043,572.8233678000397,573.491306400043,572.8233678000397,573.491306400043,572.8233678000397,573.491306400043,572.8233678000397,573.491306400043,573.458367299987,573.9586750000017,573.458367299987,573.9586750000017,573.458367299987,573.9586750000017,573.458367299987,573.9586750000017,573.458367299987,573.9586750000017,573.458367299987,573.9586750000017,573.458367299987,573.9586750000017,573.458367299987,573.9586750000017,572.8233678000397,None,573.9586750000017,575.7945435000001,0.6600000000000004,575.8279942999943,None,576.579114400025,None,,,,,,,[1.83264368],3.3500000000000023,0.735632183908046,11013,001,2024_Jan_02_1634,MFTM_A_new1021,2021.2.3,59.787336439716285,
,,,,,,,,stim/Instruction_adaptive.png,conditions/adaptive.xlsx,test,0.6,0.6,0.6,-0.6,-0.6,right,R,,,,,0,1,1,1,0,87,87,98,,,,,,,,,,,,,,,,,,,,,,,,,,,,,,,,,,,,,,,,,,,,577.0807861000067,None,right,1,1.767739300034009,577.5808295999886,578.7325223000371,577.5808295999886,578.232296400005,577.5808295999886,578.232296400005,577.5808295999886,578.232296400005,577.5808295999886,578.232296400005,577.5808295999886,578.232296400005,578.215026299993,578.7164557999931,578.215026299993,578.7164557999931,578.215026299993,578.7164557999931,578.215026299993,578.7164557999931,578.215026299993,578.7164557999931,578.215026299993,578.7164557999931,578.215026299993,578.7164557999931,578.215026299993,578.7164557999931,577.5808295999886,None,578.7164557999931,580.5515268000308,0.6500000000000004,580.5682684000349,None,581.3201527000056,None,,,,,,,[1.83284091],3.3700000000000028,0.7386363636363636,11013,001,2024_Jan_02_1634,MFTM_A_new1021,2021.2.3,59.787336439716285,
,,,,,,,,stim/Instruction_adaptive.png,conditions/adaptive.xlsx,test,0.6,0.6,0.6,-0.6,-0.6,right,R,,,,,0,1,1,1,0,88,88,22,,,,,,,,,,,,,,,,,,,,,,,,,,,,,,,,,,,,,,,,,,,,581.8208061000332,None,right,1,1.5065275999950245,582.3211901999894,583.4729311999981,582.3211901999894,582.9726269000093,582.3211901999894,582.9726269000093,582.3211901999894,582.9726269000093,582.3211901999894,582.9726269000093,582.3211901999894,582.9726269000093,582.9391757000121,583.4409244999988,582.9391757000121,583.4409244999988,582.9391757000121,583.4409244999988,582.9391757000121,583.4409244999988,582.9391757000121,583.4409244999988,582.9391757000121,583.4409244999988,582.9391757000121,583.4409244999988,582.9391757000121,583.4409244999988,582.3211901999894,None,583.4409244999988,585.2767043000204,0.6400000000000003,585.2923019999871,None,586.0435336999944,None,,,,,,,[1.83314607],3.4000000000000026,0.7415730337078652,11013,001,2024_Jan_02_1634,MFTM_A_new1021,2021.2.3,59.787336439716285,
,,,,,,,,stim/Instruction_adaptive.png,conditions/adaptive.xlsx,test,0.6,0.6,0.6,-0.6,-0.6,right,R,,,,,0,1,1,1,0,89,89,26,,,,,,,,,,,,,,,,,,,,,,,,,,,,,,,,,,,,,,,,,,,,586.544094700017,None,left,0,1.9988124999799766,587.0449156000395,588.1801466000034,587.0449156000395,587.6789934000117,587.0449156000395,587.6789934000117,587.0449156000395,587.6789934000117,587.0449156000395,587.6789934000117,587.0449156000395,587.6789934000117,587.645471900003,588.1469088000013,587.645471900003,588.1469088000013,587.645471900003,588.1469088000013,587.645471900003,588.1469088000013,587.645471900003,588.1469088000013,587.645471900003,588.1469088000013,587.645471900003,588.1469088000013,587.645471900003,588.1469088000013,587.0449156000395,None,588.1469088000013,589.9824172999943,0.6200000000000003,589.9990254000295,None,590.7503076000139,None,,,,,,,[1.83366667],3.3300000000000027,0.7333333333333333,11013,001,2024_Jan_02_1634,MFTM_A_new1021,2021.2.3,59.787336439716285,
,,,,,,,,stim/Instruction_adaptive.png,conditions/adaptive.xlsx,test,0.6,0.6,0.6,-0.6,-0.6,right,R,,,,,0,1,1,1,0,90,90,40,,,,,,,,,,,,,,,,,,,,,,,,,,,,,,,,,,,,,,,,,,,,591.2516481000348,None,right,1,1.5804074999759905,591.7514827999985,592.9039225000306,591.7514827999985,592.4032112000277,591.7514827999985,592.4032112000277,591.7514827999985,592.4032112000277,591.7514827999985,592.4032112000277,591.7514827999985,592.4032112000277,592.3864086000249,592.8882879000157,592.3864086000249,592.8882879000157,592.3864086000249,592.8882879000157,592.3864086000249,592.8882879000157,592.3864086000249,592.8882879000157,592.3864086000249,592.8882879000157,592.3864086000249,592.8882879000157,592.3864086000249,592.8882879000157,591.7514827999985,None,592.8882879000157,594.7232225000043,0.6500000000000004,594.7393003000179,None,595.4910284000216,None,,,,,,,[1.83384615],3.3500000000000023,0.7362637362637363,11013,001,2024_Jan_02_1634,MFTM_A_new1021,2021.2.3,59.787336439716285,
,,,,,,,,stim/Instruction_adaptive.png,conditions/adaptive.xlsx,test,-0.6,-0.6,-0.6,0.6,0.6,left,L,,,,,0,1,1,1,0,91,91,29,,,,,,,,,,,,,,,,,,,,,,,,,,,,,,,,,,,,,,,,,,,,595.9914507000358,None,left,1,1.0303040000144392,596.4937274000258,597.6441106999991,596.4937274000258,597.1428584000096,596.4937274000258,597.1428584000096,596.4937274000258,597.1428584000096,596.4937274000258,597.1428584000096,596.4937274000258,597.1428584000096,597.1261459999951,597.6269762000302,597.1261459999951,597.6269762000302,597.1261459999951,597.6269762000302,597.1261459999951,597.6269762000302,597.1261459999951,597.6269762000302,597.1261459999951,597.6269762000302,597.1261459999951,597.6269762000302,597.1261459999951,597.6269762000302,596.4937274000258,None,597.6269762000302,599.463659400004,0.6500000000000004,599.479693500034,None,600.2314188000164,None,,,,,,,[1.83402174],3.3700000000000028,0.7391304347826086,11013,001,2024_Jan_02_1634,MFTM_A_new1021,2021.2.3,59.787336439716285,
,,,,,,,,stim/Instruction_adaptive.png,conditions/adaptive.xlsx,test,-0.6,-0.6,-0.6,0.6,0.6,left,L,,,,,0,1,1,1,0,92,92,5,,,,,,,,,,,,,,,,,,,,,,,,,,,,,,,,,,,,,,,,,,,,600.7315843999968,None,right,0,1.2032886000233702,601.2326146000414,602.3850442999974,601.2326146000414,601.8839138000039,601.2326146000414,601.8839138000039,601.2326146000414,601.8839138000039,601.2326146000414,601.8839138000039,601.2326146000414,601.8839138000039,601.8497760000173,602.3504196000285,601.8497760000173,602.3504196000285,601.8497760000173,602.3504196000285,601.8497760000173,602.3504196000285,601.8497760000173,602.3504196000285,601.8497760000173,602.3504196000285,601.8497760000173,602.3504196000285,601.8497760000173,602.3504196000285,601.2326146000414,None,602.3504196000285,604.1866448000073,0.6400000000000003,604.2198492999887,None,604.972170300025,None,,,,,,,[1.83430108],3.3000000000000025,0.7311827956989247,11013,001,2024_Jan_02_1634,MFTM_A_new1021,2021.2.3,59.787336439716285,
,,,,,,,,stim/Instruction_adaptive.png,conditions/adaptive.xlsx,test,-0.6,-0.6,-0.6,0.6,0.6,left,L,,,,,0,1,1,1,0,93,93,87,,,,,,,,,,,,,,,,,,,,,,,,,,,,,,,,,,,,,,,,,,,,605.4726169999922,None,left,1,1.246906999964267,605.9727737000212,607.1576612000354,605.9727737000212,606.6571958000422,605.9727737000212,606.6571958000422,605.9727737000212,606.6571958000422,605.9727737000212,606.6571958000422,605.9727737000212,606.6571958000422,606.623625600012,607.1241862000315,606.623625600012,607.1241862000315,606.623625600012,607.1241862000315,606.623625600012,607.1241862000315,606.623625600012,607.1241862000315,606.623625600012,607.1241862000315,606.623625600012,607.1241862000315,606.623625600012,607.1241862000315,605.9727737000212,None,607.1241862000315,608.9611985000083,0.6700000000000004,608.9765843999921,None,609.728137500002,None,,,,,,,[[1.83]],3.3300000000000027,0.7340425531914894,11013,001,2024_Jan_02_1634,MFTM_A_new1021,2021.2.3,59.787336439716285,
