arrwidth1,arrwidth2,arrwidth3,arrwidth4,arrwidth5,keyb,type,orientation,instruction_image,block_filename,block_type,arrow11,arrow22,arrow33,arrow44,arrow55,keyb_3,orientation3,trials.thisRepN,trials.thisTrialN,trials.thisN,trials.thisIndex,trials_3.thisRepN,trials_3.thisTrialN,trials_3.thisN,trials_3.thisIndex,trials_2.thisRepN,trials_2.thisTrialN,trials_2.thisN,trials_2.thisIndex,welcome.started,welcome.stopped,key_resp.keys,key_resp.rt,key_resp.started,key_resp.stopped,instruction_example.started,instruction_example.stopped,key_resp_3.keys,key_resp_3.rt,key_resp_3.started,key_resp_3.stopped,instruction_task.started,instruction_task.stopped,key_resp_2.keys,key_resp_2.rt,key_resp_2.started,key_resp_2.stopped,text_2.started,text_2.stopped,A1.started,A1.stopped,A2.started,A2.stopped,A3.started,A3.stopped,A4.started,A4.stopped,A5.started,A5.stopped,key_resp_4.keys,key_resp_4.corr,key_resp_4.rt,key_resp_4.started,key_resp_4.stopped,fb.started,fb.stopped,instruction_block.started,instruction_block.stopped,key_resp_8.keys,key_resp_8.rt,key_resp_8.started,key_resp_8.stopped,text_8.started,text_8.stopped,key_resp_9.keys,key_resp_9.corr,key_resp_9.rt,text_5.started,text_5.stopped,A11_3.started,A11_3.stopped,A22_2.started,A22_2.stopped,A33_2.started,A33_2.stopped,A44_2.started,A44_2.stopped,A55_2.started,A55_2.stopped,M1_3.started,M1_3.stopped,M2_2.started,M2_2.stopped,M3_2.started,M3_2.stopped,M4_2.started,M4_2.stopped,M5_2.started,M5_2.stopped,M6_2.started,M6_2.stopped,M7_2.started,M7_2.stopped,M8_2.started,M8_2.stopped,key_resp_9.started,key_resp_9.stopped,fixation.started,fixation.stopped,ET,fb_3.started,fb_3.stopped,text_9.started,text_9.stopped,fb_4.started,fb_4.stopped,text_7.started,text_7.stopped,endtext.started,endtext.stopped,fixation_ITI,CCC,Acc,participant,session,date,expName,psychopyVersion,frameRate,
,,,,,,,,,,,,,,,,,,,,,,,,,,,,,,57.01093009999022,None,space,21.59686030005105,57.01093009999022,None,,,,,,,,,,,,,,,,,,,,,,,,,,,,,,,,,,,,,,,,,,,,,,,,,,,,,,,,,,,,,,,,,,,,,,,,,,,,,,,,,,,,,,,,,11015,001,2024_Jan_04_1058,MFTM_A_new1021,2021.2.3,60.28901351194675,
,,,,,,,,,,,,,,,,,,,,,,,,,,,,,,,,,,,,78.62611019995529,None,space,19.765779500012286,78.62611019995529,None,,,,,,,,,,,,,,,,,,,,,,,,,,,,,,,,,,,,,,,,,,,,,,,,,,,,,,,,,,,,,,,,,,,,,,,,,,,,,,,,,,,11015,001,2024_Jan_04_1058,MFTM_A_new1021,2021.2.3,60.28901351194675,
,,,,,,,,,,,,,,,,,,,,,,,,,,,,,,,,,,,,,,,,,,98.42300269997213,None,space,9.520933900028467,98.42300269997213,None,,,,,,,,,,,,,,,,,,,,,,,,,,,,,,,,,,,,,,,,,,,,,,,,,,,,,,,,,,,,,,,,,,,,,,,,,,,,,11015,001,2024_Jan_04_1058,MFTM_A_new1021,2021.2.3,60.28901351194675,
-0.6,-0.6,-0.6,0.6,0.6,left,3:2,L,,,,,,,,,,,0,0,0,1,,,,,,,,,,,,,,,,,,,,,,,,,,,107.98642749991268,None,107.98642749991268,None,107.98642749991268,None,107.98642749991268,None,107.98642749991268,None,107.98642749991268,None,left,1,3.077673099935055,107.98642749991268,None,111.1078378999373,None,,,,,,,,,,,,,,,,,,,,,,,,,,,,,,,,,,,,,,,,,,,,,,,,,,,,,,,,,,11015,001,2024_Jan_04_1058,MFTM_A_new1021,2021.2.3,60.28901351194675,
0.6,0.6,0.6,-0.6,-0.6,right,3:2,R,,,,,,,,,,,0,1,1,0,,,,,,,,,,,,,,,,,,,,,,,,,,,111.85945849993732,None,111.85945849993732,None,111.85945849993732,None,111.85945849993732,None,111.85945849993732,None,111.85945849993732,None,left,0,2.5326748000225052,111.85945849993732,None,114.41254809999373,None,,,,,,,,,,,,,,,,,,,,,,,,,,,,,,,,,,,,,,,,,,,,,,,,,,,,,,,,,,11015,001,2024_Jan_04_1058,MFTM_A_new1021,2021.2.3,60.28901351194675,
0.6,0.6,0.6,-0.6,-0.6,right,3:2,R,,,,,,,,,,,1,0,2,0,,,,,,,,,,,,,,,,,,,,,,,,,,,115.16413869999815,None,115.16413869999815,None,115.16413869999815,None,115.16413869999815,None,115.16413869999815,None,115.16413869999815,None,right,1,4.123983099940233,115.16413869999815,None,119.30307159991935,None,,,,,,,,,,,,,,,,,,,,,,,,,,,,,,,,,,,,,,,,,,,,,,,,,,,,,,,,,,11015,001,2024_Jan_04_1058,MFTM_A_new1021,2021.2.3,60.28901351194675,
-0.6,-0.6,-0.6,0.6,0.6,left,3:2,L,,,,,,,,,,,1,1,3,1,,,,,,,,,,,,,,,,,,,,,,,,,,,120.0556602999568,None,120.0556602999568,None,120.0556602999568,None,120.0556602999568,None,120.0556602999568,None,120.0556602999568,None,left,1,2.664131799945608,120.0556602999568,None,122.74145329999737,None,,,,,,,,,,,,,,,,,,,,,,,,,,,,,,,,,,,,,,,,,,,,,,,,,,,,,,,,,,11015,001,2024_Jan_04_1058,MFTM_A_new1021,2021.2.3,60.28901351194675,
,,,,,,,,stim/Instruction_mask.png,conditions/adaptive.xlsx,practice,-0.6,-0.6,-0.6,0.6,0.6,left,L,,,,,0,0,0,0,0,0,0,55,,,,,,,,,,,,,,,,,,,,,,,,,,,,,,,,,,,,,,123.69299909996334,None,space,9.459315899992362,123.69299909996334,None,133.23995379998814,None,left,1,2.9967344000469893,133.69121959991753,None,133.69121959991753,136.69588489993475,133.69121959991753,136.69588489993475,133.69121959991753,136.69588489993475,133.69121959991753,136.69588489993475,133.69121959991753,136.69588489993475,136.67890609998722,137.1797505998984,136.67890609998722,137.1797505998984,136.67890609998722,137.1797505998984,136.67890609998722,137.1797505998984,136.67890609998722,137.1797505998984,136.67890609998722,137.1797505998984,136.67890609998722,137.1797505998984,136.67890609998722,137.1797505998984,133.69121959991753,None,137.1797505998984,137.1797505998984,3,137.19629759993404,None,137.94811589992605,None,,,,,,,,,,11015,001,2024_Jan_04_1058,MFTM_A_new1021,2021.2.3,60.28901351194675,
,,,,,,,,stim/Instruction_mask.png,conditions/adaptive.xlsx,practice,0.6,0.6,0.6,-0.6,-0.6,right,R,,,,,0,0,0,0,0,1,1,34,,,,,,,,,,,,,,,,,,,,,,,,,,,,,,,,,,,,,,,,,,,,138.44899710000027,None,right,1,1.379028500057757,138.94961709994823,140.95304779999424,138.94961709994823,140.4524364999961,138.94961709994823,140.4524364999961,138.94961709994823,140.4524364999961,138.94961709994823,140.4524364999961,138.94961709994823,140.4524364999961,140.43513130000792,140.9353434999939,140.43513130000792,140.9353434999939,140.43513130000792,140.9353434999939,140.43513130000792,140.9353434999939,140.43513130000792,140.9353434999939,140.43513130000792,140.9353434999939,140.43513130000792,140.9353434999939,140.43513130000792,140.9353434999939,138.94961709994823,None,140.9353434999939,142.43753609992564,1.5,142.4540858999826,None,143.20548449992202,None,,,,,,,,,,11015,001,2024_Jan_04_1058,MFTM_A_new1021,2021.2.3,60.28901351194675,
,,,,,,,,stim/Instruction_mask.png,conditions/adaptive.xlsx,practice,0.6,0.6,0.6,-0.6,-0.6,right,R,,,,,0,0,0,0,0,2,2,88,,,,,,,,,,,,,,,,,,,,,,,,,,,,,,,,,,,,,,,,,,,,143.70608339994214,None,None,0,0,144.2065282999538,145.50870849995408,144.2065282999538,145.00832779996563,144.2065282999538,145.00832779996563,144.2065282999538,145.00832779996563,144.2065282999538,145.00832779996563,144.2065282999538,145.00832779996563,144.9911248999415,145.49282169993967,144.9911248999415,145.49282169993967,144.9911248999415,145.49282169993967,144.9911248999415,145.49282169993967,144.9911248999415,145.49282169993967,144.9911248999415,145.49282169993967,144.9911248999415,145.49282169993967,144.9911248999415,145.49282169993967,144.2065282999538,None,145.49282169993967,147.6952469999669,0.8,147.71175599994604,None,148.46405790001154,None,,,,,,,,,,11015,001,2024_Jan_04_1058,MFTM_A_new1021,2021.2.3,60.28901351194675,
,,,,,,,,stim/Instruction_mask.png,conditions/adaptive.xlsx,practice,-0.6,-0.6,-0.6,0.6,0.6,left,L,,,,,0,0,0,0,0,3,3,35,,,,,,,,,,,,,,,,,,,,,,,,,,,,,,,,,,,,,,,,,,,,148.96446119993925,None,left,1,3.1992975999601185,149.464581899927,150.215637999936,149.464581899927,149.715500399936,149.464581899927,149.715500399936,149.464581899927,149.715500399936,149.464581899927,149.715500399936,149.464581899927,149.715500399936,149.69804469996598,150.19960900000297,149.69804469996598,150.19960900000297,149.69804469996598,150.19960900000297,149.69804469996598,150.19960900000297,149.69804469996598,150.19960900000297,149.69804469996598,150.19960900000297,149.69804469996598,150.19960900000297,149.69804469996598,150.19960900000297,149.464581899927,None,150.19960900000297,152.95398260001093,3,152.97012799989898,None,153.7208815999329,None,,,,,,,,,,11015,001,2024_Jan_04_1058,MFTM_A_new1021,2021.2.3,60.28901351194675,
,,,,,,,,stim/Instruction_mask.png,conditions/adaptive.xlsx,practice,,,,,,,,,,,,0,0,0,0,,,,,,,,,,,,,,,,,,,,,,,,,,,,,,,,,,,,,,,,,,,,,,,,,,,,,,,,,,,,,,,,,,,,,,,,,,,,,,,,,,,,,,,,,,154.23801529989578,155.23986269999295,155.2071150999982,155.2071150999982,155.2071150999982,None,,,,11015,001,2024_Jan_04_1058,MFTM_A_new1021,2021.2.3,60.28901351194675,
,,,,,,,,stim/Instruction_adaptive.png,conditions/adaptive.xlsx,test,0.6,0.6,0.6,-0.6,-0.6,right,R,,,,,0,1,1,1,0,0,0,8,,,,,,,,,,,,,,,,,,,,,,,,,,,,,,,,,,,,,,158.32913959992584,None,space,40.15923969994765,158.32913959992584,None,198.53856849996373,None,right,1,3.2187246000394225,199.0213342999341,None,199.0213342999341,202.02694729994982,199.0213342999341,202.02694729994982,199.0213342999341,202.02694729994982,199.0213342999341,202.02694729994982,199.0213342999341,202.02694729994982,202.00913489994127,202.51060769998003,202.00913489994127,202.51060769998003,202.00913489994127,202.51060769998003,202.00913489994127,202.51060769998003,202.00913489994127,202.51060769998003,202.00913489994127,202.51060769998003,202.00913489994127,202.51060769998003,202.00913489994127,202.51060769998003,199.0213342999341,None,202.51060769998003,202.51060769998003,3,202.52644609997515,None,203.27858079993166,None,,,,,,,0,6.000000000000005,1.0,11015,001,2024_Jan_04_1058,MFTM_A_new1021,2021.2.3,60.28901351194675,
,,,,,,,,stim/Instruction_adaptive.png,conditions/adaptive.xlsx,test,-0.6,-0.6,-0.6,0.6,0.6,left,L,,,,,0,1,1,1,0,1,1,33,,,,,,,,,,,,,,,,,,,,,,,,,,,,,,,,,,,,,,,,,,,,203.77915129996836,None,left,1,2.0486764000961557,204.2795943999663,205.03035029990133,204.2795943999663,204.52953759999946,204.2795943999663,204.52953759999946,204.2795943999663,204.52953759999946,204.2795943999663,204.52953759999946,204.2795943999663,204.52953759999946,204.5133414999582,205.01425159990322,204.5133414999582,205.01425159990322,204.5133414999582,205.01425159990322,204.5133414999582,205.01425159990322,204.5133414999582,205.01425159990322,204.5133414999582,205.01425159990322,204.5133414999582,205.01425159990322,204.5133414999582,205.01425159990322,204.2795943999663,None,205.01425159990322,206.3489358999068,0.25,206.36548899998888,None,207.11733309994452,None,,,,,,,[0.875],6.000000000000005,1.0,11015,001,2024_Jan_04_1058,MFTM_A_new1021,2021.2.3,60.28901351194675,
,,,,,,,,stim/Instruction_adaptive.png,conditions/adaptive.xlsx,test,-0.6,-0.6,-0.6,0.6,0.6,left,L,,,,,0,1,1,1,0,2,2,95,,,,,,,,,,,,,,,,,,,,,,,,,,,,,,,,,,,,,,,,,,,,207.61824889993295,None,left,1,1.2980449999449775,208.1181832998991,208.87051189993508,208.1181832998991,208.36927319993265,208.1181832998991,208.36927319993265,208.1181832998991,208.36927319993265,208.1181832998991,208.36927319993265,208.1181832998991,208.36927319993265,208.3521978999488,208.85261409997474,208.3521978999488,208.85261409997474,208.3521978999488,208.85261409997474,208.3521978999488,208.85261409997474,208.3521978999488,208.85261409997474,208.3521978999488,208.85261409997474,208.3521978999488,208.85261409997474,208.3521978999488,208.85261409997474,208.1181832998991,None,208.85261409997474,210.18976629991084,0.25,210.2045285999775,None,210.95633929991163,None,,,,,,,[1.33333333],6.000000000000005,1.0,11015,001,2024_Jan_04_1058,MFTM_A_new1021,2021.2.3,60.28901351194675,
,,,,,,,,stim/Instruction_adaptive.png,conditions/adaptive.xlsx,test,-0.6,-0.6,-0.6,0.6,0.6,left,L,,,,,0,1,1,1,0,3,3,1,,,,,,,,,,,,,,,,,,,,,,,,,,,,,,,,,,,,,,,,,,,,211.45695809996687,None,right,0,0.6749012999935076,211.95715739997104,212.70892569993157,211.95715739997104,212.20810689998325,211.95715739997104,212.20810689998325,211.95715739997104,212.20810689998325,211.95715739997104,212.20810689998325,211.95715739997104,212.20810689998325,212.19080679991748,212.69158119999338,212.19080679991748,212.69158119999338,212.19080679991748,212.69158119999338,212.19080679991748,212.69158119999338,212.19080679991748,212.69158119999338,212.19080679991748,212.69158119999338,212.19080679991748,212.69158119999338,212.19080679991748,212.69158119999338,211.95715739997104,None,212.69158119999338,214.26148119999561,0.25,214.2770451999968,None,215.02856060001068,None,,,,,,,[1.5625],4.030000000000003,0.75,11015,001,2024_Jan_04_1058,MFTM_A_new1021,2021.2.3,60.28901351194675,
,,,,,,,,stim/Instruction_adaptive.png,conditions/adaptive.xlsx,test,-0.6,-0.6,-0.6,0.6,0.6,left,L,,,,,0,1,1,1,0,4,4,55,,,,,,,,,,,,,,,,,,,,,,,,,,,,,,,,,,,,,,,,,,,,215.52903099998366,None,right,0,1.2507290000794455,216.029945999966,216.9310977999121,216.029945999966,216.43103689991403,216.029945999966,216.43103689991403,216.029945999966,216.43103689991403,216.029945999966,216.43103689991403,216.029945999966,216.43103689991403,216.41375760000665,216.91478859994095,216.41375760000665,216.91478859994095,216.41375760000665,216.91478859994095,216.41375760000665,216.91478859994095,216.41375760000665,216.91478859994095,216.41375760000665,216.91478859994095,216.41375760000665,216.91478859994095,216.41375760000665,216.91478859994095,216.029945999966,None,216.91478859994095,218.58436400000937,0.40000000000000013,218.60102629999164,None,219.35198819998186,None,,,,,,,[1.67],2.5100000000000016,0.6,11015,001,2024_Jan_04_1058,MFTM_A_new1021,2021.2.3,60.28901351194675,
,,,,,,,,stim/Instruction_adaptive.png,conditions/adaptive.xlsx,test,0.6,0.6,0.6,-0.6,-0.6,right,R,,,,,0,1,1,1,0,5,5,86,,,,,,,,,,,,,,,,,,,,,,,,,,,,,,,,,,,,,,,,,,,,219.85297709994484,None,left,0,1.623505700030364,220.3529626999516,222.00524709990714,220.3529626999516,221.50547569990158,220.3529626999516,221.50547569990158,220.3529626999516,221.50547569990158,220.3529626999516,221.50547569990158,220.3529626999516,221.50547569990158,221.48797349992674,221.9887510999106,221.48797349992674,221.9887510999106,221.48797349992674,221.9887510999106,221.48797349992674,221.9887510999106,221.48797349992674,221.9887510999106,221.48797349992674,221.9887510999106,221.48797349992674,221.9887510999106,221.48797349992674,221.9887510999106,220.3529626999516,None,221.9887510999106,223.34110550000332,1.1500000000000008,223.35769939993042,None,224.10851009993348,None,,,,,,,[[1.35]],0.6100000000000001,0.5,11015,001,2024_Jan_04_1058,MFTM_A_new1021,2021.2.3,60.28901351194675,
,,,,,,,,stim/Instruction_adaptive.png,conditions/adaptive.xlsx,test,-0.6,-0.6,-0.6,0.6,0.6,left,L,,,,,0,1,1,1,0,6,6,75,,,,,,,,,,,,,,,,,,,,,,,,,,,,,,,,,,,,,,,,,,,,224.6100530999247,None,left,1,3.4573665999341756,225.1106460998999,None,225.1106460998999,228.11438299994916,225.1106460998999,228.11438299994916,225.1106460998999,228.11438299994916,225.1106460998999,228.11438299994916,225.1106460998999,228.11438299994916,228.09846979996655,228.59849409991875,228.09846979996655,228.59849409991875,228.09846979996655,228.59849409991875,228.09846979996655,228.59849409991875,228.09846979996655,228.59849409991875,228.09846979996655,228.59849409991875,228.09846979996655,228.59849409991875,228.09846979996655,228.59849409991875,225.1106460998999,None,228.59849409991875,228.59849409991875,3.0000000000000027,228.6147383999778,None,229.36753950000275,None,,,,,,,0,1.640000000000001,0.5714285714285714,11015,001,2024_Jan_04_1058,MFTM_A_new1021,2021.2.3,60.28901351194675,
,,,,,,,,stim/Instruction_adaptive.png,conditions/adaptive.xlsx,test,0.6,0.6,0.6,-0.6,-0.6,right,R,,,,,0,1,1,1,0,7,7,84,,,,,,,,,,,,,,,,,,,,,,,,,,,,,,,,,,,,,,,,,,,,229.86808029992972,None,right,1,2.9039265000028536,230.3683713999344,232.98848499997985,230.3683713999344,232.48807550000492,230.3683713999344,232.48807550000492,230.3683713999344,232.48807550000492,230.3683713999344,232.48807550000492,230.3683713999344,232.48807550000492,232.45425839989912,232.95565779996105,232.45425839989912,232.95565779996105,232.45425839989912,232.95565779996105,232.45425839989912,232.95565779996105,232.45425839989912,232.95565779996105,232.45425839989912,232.95565779996105,232.45425839989912,232.95565779996105,232.45425839989912,232.95565779996105,230.3683713999344,None,232.95565779996105,233.35638779995497,2.1100000000000017,233.37231989996508,None,234.12350049999077,None,,,,,,,[[0.39]],2.1000000000000014,0.625,11015,001,2024_Jan_04_1058,MFTM_A_new1021,2021.2.3,60.28901351194675,
,,,,,,,,stim/Instruction_adaptive.png,conditions/adaptive.xlsx,test,-0.6,-0.6,-0.6,0.6,0.6,left,L,,,,,0,1,1,1,0,8,8,41,,,,,,,,,,,,,,,,,,,,,,,,,,,,,,,,,,,,,,,,,,,,234.62482749996707,None,right,0,2.3710731000173837,235.1255903999554,237.16145849996246,235.1255903999554,236.66078629996628,235.1255903999554,236.66078629996628,235.1255903999554,236.66078629996628,235.1255903999554,236.66078629996628,235.1255903999554,236.66078629996628,236.64359299989883,237.1449094999116,236.64359299989883,237.1449094999116,236.64359299989883,237.1449094999116,236.64359299989883,237.1449094999116,236.64359299989883,237.1449094999116,236.64359299989883,237.1449094999116,236.64359299989883,237.1449094999116,236.64359299989883,237.1449094999116,235.1255903999554,None,237.1449094999116,None,1.5300000000000011,238.12908149999566,None,238.88027909991797,None,,,,,,,[[0.97]],1.1600000000000006,0.5555555555555556,11015,001,2024_Jan_04_1058,MFTM_A_new1021,2021.2.3,60.28901351194675,
,,,,,,,,stim/Instruction_adaptive.png,conditions/adaptive.xlsx,test,0.6,0.6,0.6,-0.6,-0.6,right,R,,,,,0,1,1,1,0,9,9,30,,,,,,,,,,,,,,,,,,,,,,,,,,,,,,,,,,,,,,,,,,,,239.38111409998965,None,right,1,2.3261718000285327,239.88185969996266,None,239.88185969996266,242.8370256999042,239.88185969996266,242.8370256999042,239.88185969996266,242.8370256999042,239.88185969996266,242.8370256999042,239.88185969996266,242.8370256999042,242.80351070000324,243.30471009993926,242.80351070000324,243.30471009993926,242.80351070000324,243.30471009993926,242.80351070000324,243.30471009993926,242.80351070000324,243.30471009993926,242.80351070000324,243.30471009993926,242.80351070000324,243.30471009993926,242.80351070000324,243.30471009993926,239.88185969996266,None,243.30471009993926,243.30471009993926,2.940000000000002,243.32038189994637,None,244.07147580001038,None,,,,,,,0,1.580000000000001,0.6,11015,001,2024_Jan_04_1058,MFTM_A_new1021,2021.2.3,60.28901351194675,
,,,,,,,,stim/Instruction_adaptive.png,conditions/adaptive.xlsx,test,0.6,0.6,0.6,-0.6,-0.6,right,R,,,,,0,1,1,1,0,10,10,22,,,,,,,,,,,,,,,,,,,,,,,,,,,,,,,,,,,,,,,,,,,,244.57216380001046,None,right,1,2.8313331999816,245.07284969999455,247.77762649999931,245.07284969999455,247.27700159989763,245.07284969999455,247.27700159989763,245.07284969999455,247.27700159989763,245.07284969999455,247.27700159989763,245.07284969999455,247.27700159989763,247.25963049998973,247.7608554000035,247.25963049998973,247.7608554000035,247.25963049998973,247.7608554000035,247.25963049998973,247.7608554000035,247.25963049998973,247.7608554000035,247.25963049998973,247.7608554000035,247.25963049998973,247.7608554000035,247.25963049998973,247.7608554000035,245.07284969999455,None,247.7608554000035,248.06125219992828,2.200000000000002,248.07745699991938,None,248.82881529990118,None,,,,,,,[[0.3]],1.8600000000000012,0.6363636363636364,11015,001,2024_Jan_04_1058,MFTM_A_new1021,2021.2.3,60.28901351194675,
,,,,,,,,stim/Instruction_adaptive.png,conditions/adaptive.xlsx,test,-0.6,-0.6,-0.6,0.6,0.6,left,L,,,,,0,1,1,1,0,11,11,3,,,,,,,,,,,,,,,,,,,,,,,,,,,,,,,,,,,,,,,,,,,,249.3290571999969,None,left,1,2.4419784999918193,249.83027739997488,252.15063970000483,249.83027739997488,251.64935199997853,249.83027739997488,251.64935199997853,249.83027739997488,251.64935199997853,249.83027739997488,251.64935199997853,249.83027739997488,251.64935199997853,251.6165297999978,252.11708160000853,251.6165297999978,252.11708160000853,251.6165297999978,252.11708160000853,251.6165297999978,252.11708160000853,251.6165297999978,252.11708160000853,251.6165297999978,252.11708160000853,251.6165297999978,252.11708160000853,251.6165297999978,252.11708160000853,249.83027739997488,None,252.11708160000853,252.81862099992577,1.8100000000000014,252.83446549996734,None,253.58545589994173,None,,,,,,,[[0.69]],2.070000000000001,0.6666666666666666,11015,001,2024_Jan_04_1058,MFTM_A_new1021,2021.2.3,60.28901351194675,
,,,,,,,,stim/Instruction_adaptive.png,conditions/adaptive.xlsx,test,0.6,0.6,0.6,-0.6,-0.6,right,R,,,,,0,1,1,1,0,12,12,80,,,,,,,,,,,,,,,,,,,,,,,,,,,,,,,,,,,,,,,,,,,,254.0872947999742,None,right,1,2.660361099988222,254.58765289990697,256.67351619992405,254.58765289990697,256.17276099999435,254.58765289990697,256.17276099999435,254.58765289990697,256.17276099999435,254.58765289990697,256.17276099999435,254.58765289990697,256.17276099999435,256.13938919990323,256.63989059999585,256.13938919990323,256.63989059999585,256.13938919990323,256.63989059999585,256.13938919990323,256.63989059999585,256.13938919990323,256.63989059999585,256.13938919990323,256.63989059999585,256.13938919990323,256.63989059999585,256.13938919990323,256.63989059999585,254.58765289990697,None,256.63989059999585,257.5748479999602,1.5700000000000012,257.59142909990624,None,258.3424296999583,None,,,,,,,[0.92615385],2.2500000000000018,0.6923076923076923,11015,001,2024_Jan_04_1058,MFTM_A_new1021,2021.2.3,60.28901351194675,
,,,,,,,,stim/Instruction_adaptive.png,conditions/adaptive.xlsx,test,0.6,0.6,0.6,-0.6,-0.6,right,R,,,,,0,1,1,1,0,13,13,12,,,,,,,,,,,,,,,,,,,,,,,,,,,,,,,,,,,,,,,,,,,,258.8441229999298,None,right,1,2.5920666999882087,259.3440425998997,261.2309360000072,259.3440425998997,260.73059769999236,259.3440425998997,260.73059769999236,259.3440425998997,260.73059769999236,259.3440425998997,260.73059769999236,259.3440425998997,260.73059769999236,260.7128242999315,261.2139399999287,260.7128242999315,261.2139399999287,260.7128242999315,261.2139399999287,260.7128242999315,261.2139399999287,260.7128242999315,261.2139399999287,260.7128242999315,261.2139399999287,260.7128242999315,261.2139399999287,260.7128242999315,261.2139399999287,259.3440425998997,None,261.2139399999287,None,1.380000000000001,262.1646286000032,None,262.91581909998786,None,,,,,,,[0.94],2.4000000000000017,0.7142857142857143,11015,001,2024_Jan_04_1058,MFTM_A_new1021,2021.2.3,60.28901351194675,
,,,,,,,,stim/Instruction_adaptive.png,conditions/adaptive.xlsx,test,-0.6,-0.6,-0.6,0.6,0.6,left,L,,,,,0,1,1,1,0,14,14,5,,,,,,,,,,,,,,,,,,,,,,,,,,,,,,,,,,,,,,,,,,,,263.4166820999235,None,left,1,2.426437900052406,263.9175544999307,265.67005209997296,263.9175544999307,265.17009459994733,263.9175544999307,265.17009459994733,263.9175544999307,265.17009459994733,263.9175544999307,265.17009459994733,263.9175544999307,265.17009459994733,265.1528105000034,265.65421109995805,265.1528105000034,265.65421109995805,265.1528105000034,265.65421109995805,265.1528105000034,265.65421109995805,265.1528105000034,265.65421109995805,265.1528105000034,265.65421109995805,265.1528105000034,265.65421109995805,265.1528105000034,265.65421109995805,263.9175544999307,None,265.65421109995805,266.6220299999695,1.2500000000000009,266.6381913999794,None,267.38933119992726,None,,,,,,,[0.96066667],2.530000000000002,0.7333333333333333,11015,001,2024_Jan_04_1058,MFTM_A_new1021,2021.2.3,60.28901351194675,
,,,,,,,,stim/Instruction_adaptive.png,conditions/adaptive.xlsx,test,-0.6,-0.6,-0.6,0.6,0.6,left,L,,,,,0,1,1,1,0,15,15,87,,,,,,,,,,,,,,,,,,,,,,,,,,,,,,,,,,,,,,,,,,,,267.89009259990416,None,left,1,1.457142599974759,268.39091259997804,270.0438300999813,268.39091259997804,269.54354529990815,268.39091259997804,269.54354529990815,268.39091259997804,269.54354529990815,268.39091259997804,269.54354529990815,268.39091259997804,269.54354529990815,269.50919859996065,270.0099218999967,269.50919859996065,270.0099218999967,269.50919859996065,270.0099218999967,269.50919859996065,270.0099218999967,269.50919859996065,270.0099218999967,269.50919859996065,270.0099218999967,269.50919859996065,270.0099218999967,269.50919859996065,270.0099218999967,268.39091259997804,None,270.0099218999967,270.995463399915,1.1400000000000008,271.02805099997204,None,271.779070999939,None,,,,,,,[0.985625],2.650000000000002,0.75,11015,001,2024_Jan_04_1058,MFTM_A_new1021,2021.2.3,60.28901351194675,
,,,,,,,,stim/Instruction_adaptive.png,conditions/adaptive.xlsx,test,-0.6,-0.6,-0.6,0.6,0.6,left,L,,,,,0,1,1,1,0,16,16,77,,,,,,,,,,,,,,,,,,,,,,,,,,,,,,,,,,,,,,,,,,,,272.2810193999903,None,left,1,1.7630821999628097,272.78089930000715,274.3330342998961,272.78089930000715,273.8326239999151,272.78089930000715,273.8326239999151,272.78089930000715,273.8326239999151,272.78089930000715,273.8326239999151,272.78089930000715,273.8326239999151,273.8158282999648,274.31619679997675,273.8158282999648,274.31619679997675,273.8158282999648,274.31619679997675,273.8158282999648,274.31619679997675,273.8158282999648,274.31619679997675,273.8158282999648,274.31619679997675,273.8158282999648,274.31619679997675,273.8158282999648,274.31619679997675,272.78089930000715,None,274.31619679997675,275.33519949996844,1.0500000000000007,275.3517787999008,None,276.1020941999741,None,,,,,,,[1.01294118],2.760000000000002,0.7647058823529411,11015,001,2024_Jan_04_1058,MFTM_A_new1021,2021.2.3,60.28901351194675,
,,,,,,,,stim/Instruction_adaptive.png,conditions/adaptive.xlsx,test,-0.6,-0.6,-0.6,0.6,0.6,left,L,,,,,0,1,1,1,0,17,17,79,,,,,,,,,,,,,,,,,,,,,,,,,,,,,,,,,,,,,,,,,,,,276.6031101999106,None,right,0,2.4725294000236318,277.10371029993985,278.5733687999891,277.10371029993985,278.0892636999488,277.10371029993985,278.0892636999488,277.10371029993985,278.0892636999488,277.10371029993985,278.0892636999488,277.10371029993985,278.0892636999488,278.0552467999514,278.55628499994054,278.0552467999514,278.55628499994054,278.0552467999514,278.55628499994054,278.0552467999514,278.55628499994054,278.0552467999514,278.55628499994054,278.0552467999514,278.55628499994054,278.0552467999514,278.55628499994054,278.0552467999514,278.55628499994054,277.10371029993985,None,278.55628499994054,279.6074283999624,0.9700000000000006,279.62434809992556,None,280.3760198999662,None,,,,,,,[1.04166667],2.4700000000000015,0.7222222222222222,11015,001,2024_Jan_04_1058,MFTM_A_new1021,2021.2.3,60.28901351194675,
,,,,,,,,stim/Instruction_adaptive.png,conditions/adaptive.xlsx,test,0.6,0.6,0.6,-0.6,-0.6,right,R,,,,,0,1,1,1,0,18,18,72,,,,,,,,,,,,,,,,,,,,,,,,,,,,,,,,,,,,,,,,,,,,280.87658089993056,None,right,1,1.486460999934934,281.37764299998526,283.0791859999299,281.37764299998526,282.5783979999833,281.37764299998526,282.5783979999833,281.37764299998526,282.5783979999833,281.37764299998526,282.5783979999833,281.37764299998526,282.5783979999833,282.544975399971,283.04687819990795,282.544975399971,283.04687819990795,282.544975399971,283.04687819990795,282.544975399971,283.04687819990795,282.544975399971,283.04687819990795,282.544975399971,283.04687819990795,282.544975399971,283.04687819990795,282.544975399971,283.04687819990795,281.37764299998526,None,283.04687819990795,284.114912299905,1.1900000000000008,284.1315698999679,None,284.8825733999256,None,,,,,,,[1.05578947],2.580000000000002,0.7368421052631579,11015,001,2024_Jan_04_1058,MFTM_A_new1021,2021.2.3,60.28901351194675,
,,,,,,,,stim/Instruction_adaptive.png,conditions/adaptive.xlsx,test,-0.6,-0.6,-0.6,0.6,0.6,left,L,,,,,0,1,1,1,0,19,19,23,,,,,,,,,,,,,,,,,,,,,,,,,,,,,,,,,,,,,,,,,,,,285.38338829996064,None,left,1,1.5804574999492615,285.8839968999382,287.4856022999156,285.8839968999382,286.9862193999579,285.8839968999382,286.9862193999579,285.8839968999382,286.9862193999579,285.8839968999382,286.9862193999579,285.8839968999382,286.9862193999579,286.9682502999203,287.4702218999155,286.9682502999203,287.4702218999155,286.9682502999203,287.4702218999155,286.9682502999203,287.4702218999155,286.9682502999203,287.4702218999155,286.9682502999203,287.4702218999155,286.9682502999203,287.4702218999155,286.9682502999203,287.4702218999155,285.8839968999382,None,287.4702218999155,288.5539570999099,1.1000000000000008,288.5707553999964,None,289.32272529997863,None,,,,,,,[1.073],2.6700000000000017,0.75,11015,001,2024_Jan_04_1058,MFTM_A_new1021,2021.2.3,60.28901351194675,
,,,,,,,,stim/Instruction_adaptive.png,conditions/adaptive.xlsx,test,0.6,0.6,0.6,-0.6,-0.6,right,R,,,,,0,1,1,1,0,20,20,2,,,,,,,,,,,,,,,,,,,,,,,,,,,,,,,,,,,,,,,,,,,,289.8224205999868,None,right,1,2.405060700024478,290.32325769995805,291.8589141999837,290.32325769995805,291.35918619995937,290.32325769995805,291.35918619995937,290.32325769995805,291.35918619995937,290.32325769995805,291.35918619995937,290.32325769995805,291.35918619995937,291.3413808000041,291.8428444999736,291.3413808000041,291.8428444999736,291.3413808000041,291.8428444999736,291.3413808000041,291.8428444999736,291.3413808000041,291.8428444999736,291.3413808000041,291.8428444999736,291.3413808000041,291.8428444999736,291.3413808000041,291.8428444999736,290.32325769995805,None,291.8428444999736,292.94378789991606,1.0300000000000007,292.96043899992947,None,293.71164569992106,None,,,,,,,[1.09190476],2.760000000000002,0.7619047619047619,11015,001,2024_Jan_04_1058,MFTM_A_new1021,2021.2.3,60.28901351194675,
,,,,,,,,stim/Instruction_adaptive.png,conditions/adaptive.xlsx,test,0.6,0.6,0.6,-0.6,-0.6,right,R,,,,,0,1,1,1,0,21,21,48,,,,,,,,,,,,,,,,,,,,,,,,,,,,,,,,,,,,,,,,,,,,294.21275830001105,None,right,1,1.8704770000185817,294.71358260000125,296.20042189990636,294.71358260000125,295.69851879996713,294.71358260000125,295.69851879996713,294.71358260000125,295.69851879996713,294.71358260000125,295.69851879996713,294.71358260000125,295.69851879996713,295.66467989992816,296.16568639990874,295.66467989992816,296.16568639990874,295.66467989992816,296.16568639990874,295.66467989992816,296.16568639990874,295.66467989992816,296.16568639990874,295.66467989992816,296.16568639990874,295.66467989992816,296.16568639990874,295.66467989992816,296.16568639990874,294.71358260000125,None,296.16568639990874,297.28364949999377,0.9700000000000006,297.30038189992774,None,298.0514925000025,None,,,,,,,[1.11181818],2.840000000000002,0.7727272727272727,11015,001,2024_Jan_04_1058,MFTM_A_new1021,2021.2.3,60.28901351194675,
,,,,,,,,stim/Instruction_adaptive.png,conditions/adaptive.xlsx,test,-0.6,-0.6,-0.6,0.6,0.6,left,L,,,,,0,1,1,1,0,22,22,65,,,,,,,,,,,,,,,,,,,,,,,,,,,,,,,,,,,,,,,,,,,,298.5528424999211,None,left,1,2.643640400026925,299.0526823999826,300.47167110000737,299.0526823999826,299.9875453999266,299.0526823999826,299.9875453999266,299.0526823999826,299.9875453999266,299.0526823999826,299.9875453999266,299.0526823999826,299.9875453999266,299.9539803999942,300.4550523000071,299.9539803999942,300.4550523000071,299.9539803999942,300.4550523000071,299.9539803999942,300.4550523000071,299.9539803999942,300.4550523000071,299.9539803999942,300.4550523000071,299.9539803999942,300.4550523000071,299.9539803999942,300.4550523000071,299.0526823999826,None,300.4550523000071,301.7245738999918,0.9200000000000006,301.7401072999928,None,302.4919007999124,None,,,,,,,[1.13217391],2.920000000000002,0.782608695652174,11015,001,2024_Jan_04_1058,MFTM_A_new1021,2021.2.3,60.28901351194675,
,,,,,,,,stim/Instruction_adaptive.png,conditions/adaptive.xlsx,test,0.6,0.6,0.6,-0.6,-0.6,right,R,,,,,0,1,1,1,0,23,23,54,,,,,,,,,,,,,,,,,,,,,,,,,,,,,,,,,,,,,,,,,,,,302.9927388000069,None,right,1,2.1549237000290304,303.49337229994126,304.8789740999928,303.49337229994126,304.3773745999206,303.49337229994126,304.3773745999206,303.49337229994126,304.3773745999206,303.49337229994126,304.3773745999206,303.49337229994126,304.3773745999206,304.34416280000005,304.84522489993833,304.34416280000005,304.84522489993833,304.34416280000005,304.84522489993833,304.34416280000005,304.84522489993833,304.34416280000005,304.84522489993833,304.34416280000005,304.84522489993833,304.34416280000005,304.84522489993833,304.34416280000005,304.84522489993833,303.49337229994126,None,304.84522489993833,305.997223299928,0.8700000000000006,306.0298372999532,None,306.78223919996526,None,,,,,,,[1.15291667],2.990000000000002,0.7916666666666666,11015,001,2024_Jan_04_1058,MFTM_A_new1021,2021.2.3,60.28901351194675,
,,,,,,,,stim/Instruction_adaptive.png,conditions/adaptive.xlsx,test,-0.6,-0.6,-0.6,0.6,0.6,left,L,,,,,0,1,1,1,0,24,24,93,,,,,,,,,,,,,,,,,,,,,,,,,,,,,,,,,,,,,,,,,,,,307.28187289997004,None,left,1,1.953441100078635,307.7827826999128,309.11856769991573,307.7827826999128,308.61697029997595,307.7827826999128,308.61697029997595,307.7827826999128,308.61697029997595,307.7827826999128,308.61697029997595,307.7827826999128,308.61697029997595,308.6003665999742,309.1019052999327,308.6003665999742,309.1019052999327,308.6003665999742,309.1019052999327,308.6003665999742,309.1019052999327,308.6003665999742,309.1019052999327,308.6003665999742,309.1019052999327,308.6003665999742,309.1019052999327,308.6003665999742,309.1019052999327,307.7827826999128,None,309.1019052999327,None,0.8300000000000005,310.2866339999018,None,311.03780940000433,None,,,,,,,[1.1736],3.0600000000000023,0.8,11015,001,2024_Jan_04_1058,MFTM_A_new1021,2021.2.3,60.28901351194675,
,,,,,,,,stim/Instruction_adaptive.png,conditions/adaptive.xlsx,test,0.6,0.6,0.6,-0.6,-0.6,right,R,,,,,0,1,1,1,0,25,25,60,,,,,,,,,,,,,,,,,,,,,,,,,,,,,,,,,,,,,,,,,,,,311.53818039991893,None,left,0,1.8973951999796554,312.03921449999325,313.34077809995506,312.03921449999325,312.84058640000876,312.03921449999325,312.84058640000876,312.03921449999325,312.84058640000876,312.03921449999325,312.84058640000876,312.03921449999325,312.84058640000876,312.8245405999478,313.32436119997874,312.8245405999478,313.32436119997874,312.8245405999478,313.32436119997874,312.8245405999478,313.32436119997874,312.8245405999478,313.32436119997874,312.8245405999478,313.32436119997874,312.8245405999478,313.32436119997874,312.8245405999478,313.32436119997874,312.03921449999325,None,313.30784929997753,314.5097075999947,0.7900000000000005,314.5258115999168,None,315.27756219997536,None,,,,,,,[1.19423077],2.870000000000002,0.7692307692307693,11015,001,2024_Jan_04_1058,MFTM_A_new1021,2021.2.3,60.28901351194675,
,,,,,,,,stim/Instruction_adaptive.png,conditions/adaptive.xlsx,test,0.6,0.6,0.6,-0.6,-0.6,right,R,,,,,0,1,1,1,0,26,26,68,,,,,,,,,,,,,,,,,,,,,,,,,,,,,,,,,,,,,,,,,,,,315.7784685000079,None,right,1,1.5925808000611141,316.27941239997745,317.68122649996076,316.27941239997745,317.17959399998654,316.27941239997745,317.17959399998654,316.27941239997745,317.17959399998654,316.27941239997745,317.17959399998654,316.27941239997745,317.17959399998654,317.1630772999488,317.6641617999412,317.1630772999488,317.6641617999412,317.1630772999488,317.6641617999412,317.1630772999488,317.6641617999412,317.1630772999488,317.6641617999412,317.1630772999488,317.6641617999412,317.1630772999488,317.6641617999412,317.1630772999488,317.6641617999412,316.27941239997745,None,317.6641617999412,318.88343229994643,0.9000000000000006,318.8990306999767,None,319.65053869993426,None,,,,,,,[1.20925926],2.940000000000002,0.7777777777777778,11015,001,2024_Jan_04_1058,MFTM_A_new1021,2021.2.3,60.28901351194675,
,,,,,,,,stim/Instruction_adaptive.png,conditions/adaptive.xlsx,test,-0.6,-0.6,-0.6,0.6,0.6,left,L,,,,,0,1,1,1,0,27,27,99,,,,,,,,,,,,,,,,,,,,,,,,,,,,,,,,,,,,,,,,,,,,320.1514048000099,None,left,1,1.3011493999511003,320.6521623999579,322.020877599949,320.6521623999579,321.51957659993786,320.6521623999579,321.51957659993786,320.6521623999579,321.51957659993786,320.6521623999579,321.51957659993786,320.6521623999579,321.51957659993786,321.48626349994447,321.98805109993555,321.48626349994447,321.98805109993555,321.48626349994447,321.98805109993555,321.48626349994447,321.98805109993555,321.48626349994447,321.98805109993555,321.48626349994447,321.98805109993555,321.48626349994447,321.98805109993555,321.48626349994447,321.98805109993555,320.6521623999579,None,321.98805109993555,323.2219919000054,0.8600000000000005,323.23873159999494,None,323.99076819990296,None,,,,,,,[1.22464286],3.000000000000002,0.7857142857142857,11015,001,2024_Jan_04_1058,MFTM_A_new1021,2021.2.3,60.28901351194675,
,,,,,,,,stim/Instruction_adaptive.png,conditions/adaptive.xlsx,test,0.6,0.6,0.6,-0.6,-0.6,right,R,,,,,0,1,1,1,0,28,28,44,,,,,,,,,,,,,,,,,,,,,,,,,,,,,,,,,,,,,,,,,,,,324.49174649990164,None,right,1,1.0724706000182778,324.99168099998496,326.32781980000436,324.99168099998496,325.8259863998974,324.99168099998496,325.8259863998974,324.99168099998496,325.8259863998974,324.99168099998496,325.8259863998974,324.99168099998496,325.8259863998974,325.7929684999399,326.29335309995804,325.7929684999399,326.29335309995804,325.7929684999399,326.29335309995804,325.7929684999399,326.29335309995804,325.7929684999399,326.29335309995804,325.7929684999399,326.29335309995804,325.7929684999399,326.29335309995804,325.7929684999399,326.29335309995804,324.99168099998496,None,326.29335309995804,327.54574089997914,0.8200000000000005,327.5618259999901,None,328.31363280001096,None,,,,,,,[1.24034483],3.0600000000000023,0.7931034482758621,11015,001,2024_Jan_04_1058,MFTM_A_new1021,2021.2.3,60.28901351194675,
,,,,,,,,stim/Instruction_adaptive.png,conditions/adaptive.xlsx,test,0.6,0.6,0.6,-0.6,-0.6,right,R,,,,,0,1,1,1,0,29,29,46,,,,,,,,,,,,,,,,,,,,,,,,,,,,,,,,,,,,,,,,,,,,328.8144944999367,None,left,0,1.9655649999622256,329.31506509997416,330.6177193999756,329.31506509997416,330.11666469997726,329.31506509997416,330.11666469997726,329.31506509997416,330.11666469997726,329.31506509997416,330.11666469997726,329.31506509997416,330.11666469997726,330.0821872999659,330.5839018999832,330.0821872999659,330.5839018999832,330.0821872999659,330.5839018999832,330.0821872999659,330.5839018999832,330.0821872999659,330.5839018999832,330.0821872999659,330.5839018999832,330.0821872999659,330.5839018999832,330.0821872999659,330.5839018999832,329.31506509997416,None,330.5839018999832,331.8514581999043,0.7900000000000005,331.86804549989756,None,332.62033629999496,None,,,,,,,[1.256],2.8900000000000023,0.7666666666666667,11015,001,2024_Jan_04_1058,MFTM_A_new1021,2021.2.3,60.28901351194675,
,,,,,,,,stim/Instruction_adaptive.png,conditions/adaptive.xlsx,test,0.6,0.6,0.6,-0.6,-0.6,right,R,,,,,0,1,1,1,0,30,30,76,,,,,,,,,,,,,,,,,,,,,,,,,,,,,,,,,,,,,,,,,,,,333.1208585998975,None,right,1,1.7636679999995977,333.6209208999062,335.02288159995805,333.6209208999062,334.52220549993217,333.6209208999062,334.52220549993217,333.6209208999062,334.52220549993217,333.6209208999062,334.52220549993217,333.6209208999062,334.52220549993217,334.48945859994274,334.99025749997236,334.48945859994274,334.99025749997236,334.48945859994274,334.99025749997236,334.48945859994274,334.99025749997236,334.48945859994274,334.99025749997236,334.48945859994274,334.99025749997236,334.48945859994274,334.99025749997236,334.48945859994274,334.99025749997236,333.6209208999062,None,334.99025749997236,336.25779139995575,0.8900000000000006,336.2912080999231,None,337.0426550999982,None,,,,,,,[1.26741935],2.950000000000002,0.7741935483870968,11015,001,2024_Jan_04_1058,MFTM_A_new1021,2021.2.3,60.28901351194675,
,,,,,,,,stim/Instruction_adaptive.png,conditions/adaptive.xlsx,test,-0.6,-0.6,-0.6,0.6,0.6,left,L,,,,,0,1,1,1,0,31,31,13,,,,,,,,,,,,,,,,,,,,,,,,,,,,,,,,,,,,,,,,,,,,337.5434090999188,None,left,1,1.8759870000649244,338.04404730000533,339.39587409992237,338.04404730000533,338.8955197999021,338.04404730000533,338.8955197999021,338.04404730000533,338.8955197999021,338.04404730000533,338.8955197999021,338.04404730000533,338.8955197999021,338.8792701999191,339.3797499999637,338.8792701999191,339.3797499999637,338.8792701999191,339.3797499999637,338.8792701999191,339.3797499999637,338.8792701999191,339.3797499999637,338.8792701999191,339.3797499999637,338.8792701999191,339.3797499999637,338.8792701999191,339.3797499999637,338.04404730000533,None,339.3797499999637,340.6655795999104,0.8500000000000005,340.6817676000064,None,341.4335895999102,None,,,,,,,[1.279375],3.0100000000000025,0.78125,11015,001,2024_Jan_04_1058,MFTM_A_new1021,2021.2.3,60.28901351194675,
,,,,,,,,stim/Instruction_adaptive.png,conditions/adaptive.xlsx,test,0.6,0.6,0.6,-0.6,-0.6,right,R,,,,,0,1,1,1,0,32,32,32,,,,,,,,,,,,,,,,,,,,,,,,,,,,,,,,,,,,,,,,,,,,341.93337989994325,None,right,1,1.9424469000659883,342.4338826999301,343.75318679993507,342.4338826999301,343.2699222000083,342.4338826999301,343.2699222000083,342.4338826999301,343.2699222000083,342.4338826999301,343.2699222000083,342.4338826999301,343.2699222000083,343.23488479992375,343.73660329997074,343.23488479992375,343.73660329997074,343.23488479992375,343.73660329997074,343.23488479992375,343.73660329997074,343.23488479992375,343.73660329997074,343.23488479992375,343.73660329997074,343.23488479992375,343.73660329997074,343.23488479992375,343.73660329997074,342.4338826999301,None,343.73660329997074,345.03766159992665,0.8200000000000005,345.0544424999971,None,345.8062937000068,None,,,,,,,[1.29151515],3.0600000000000023,0.7878787878787878,11015,001,2024_Jan_04_1058,MFTM_A_new1021,2021.2.3,60.28901351194675,
,,,,,,,,stim/Instruction_adaptive.png,conditions/adaptive.xlsx,test,-0.6,-0.6,-0.6,0.6,0.6,left,L,,,,,0,1,1,1,0,33,33,7,,,,,,,,,,,,,,,,,,,,,,,,,,,,,,,,,,,,,,,,,,,,346.3067707999144,None,left,1,1.4813659999053925,346.80697479995433,348.10928529989906,346.80697479995433,347.60814229992684,346.80697479995433,347.60814229992684,346.80697479995433,347.60814229992684,346.80697479995433,347.60814229992684,346.80697479995433,347.60814229992684,347.576187599916,348.0755553999916,347.576187599916,348.0755553999916,347.576187599916,348.0755553999916,347.576187599916,348.0755553999916,347.576187599916,348.0755553999916,347.576187599916,348.0755553999916,347.576187599916,348.0755553999916,347.576187599916,348.0755553999916,346.80697479995433,None,348.0755553999916,349.39509409992024,0.7900000000000005,349.41136929998174,None,350.163838999928,None,,,,,,,[1.30382353],3.110000000000002,0.7941176470588235,11015,001,2024_Jan_04_1058,MFTM_A_new1021,2021.2.3,60.28901351194675,
,,,,,,,,stim/Instruction_adaptive.png,conditions/adaptive.xlsx,test,0.6,0.6,0.6,-0.6,-0.6,right,R,,,,,0,1,1,1,0,34,34,40,,,,,,,,,,,,,,,,,,,,,,,,,,,,,,,,,,,,,,,,,,,,350.66324789996725,None,right,1,2.2754083999898285,351.1647193999961,352.43351369991433,351.1647193999961,351.93133699998725,351.1647193999961,351.93133699998725,351.1647193999961,351.93133699998725,351.1647193999961,351.93133699998725,351.1647193999961,351.93133699998725,351.9146145998966,352.41550040000584,351.9146145998966,352.41550040000584,351.9146145998966,352.41550040000584,351.9146145998966,352.41550040000584,351.9146145998966,352.41550040000584,351.9146145998966,352.41550040000584,351.9146145998966,352.41550040000584,351.9146145998966,352.41550040000584,351.1647193999961,None,352.41550040000584,353.7340207999805,0.7600000000000005,353.7507018999895,None,354.50204920000397,None,,,,,,,[1.31628571],3.1600000000000024,0.8,11015,001,2024_Jan_04_1058,MFTM_A_new1021,2021.2.3,60.28901351194675,
,,,,,,,,stim/Instruction_adaptive.png,conditions/adaptive.xlsx,test,-0.6,-0.6,-0.6,0.6,0.6,left,L,,,,,0,1,1,1,0,35,35,67,,,,,,,,,,,,,,,,,,,,,,,,,,,,,,,,,,,,,,,,,,,,355.0025918999454,None,left,1,2.4331092999782413,355.50332209991757,356.75504729989916,355.50332209991757,356.2547643999569,355.50332209991757,356.2547643999569,355.50332209991757,356.2547643999569,355.50332209991757,356.2547643999569,355.50332209991757,356.2547643999569,356.22088149993215,356.722217499977,356.22088149993215,356.722217499977,356.22088149993215,356.722217499977,356.22088149993215,356.722217499977,356.22088149993215,356.722217499977,356.22088149993215,356.722217499977,356.22088149993215,356.722217499977,356.22088149993215,356.722217499977,355.50332209991757,None,356.722217499977,358.0579214999452,0.7400000000000004,358.07350399997085,None,358.82573399995454,None,,,,,,,[1.32861111],3.2000000000000024,0.8055555555555556,11015,001,2024_Jan_04_1058,MFTM_A_new1021,2021.2.3,60.28901351194675,
,,,,,,,,stim/Instruction_adaptive.png,conditions/adaptive.xlsx,test,-0.6,-0.6,-0.6,0.6,0.6,left,L,,,,,0,1,1,1,0,36,36,85,,,,,,,,,,,,,,,,,,,,,,,,,,,,,,,,,,,,,,,,,,,,359.32617429993115,None,left,1,2.222308700089343,359.82627029996365,361.0448460999178,359.82627029996365,360.5607343999436,359.82627029996365,360.5607343999436,359.82627029996365,360.5607343999436,359.82627029996365,360.5607343999436,359.82627029996365,360.5607343999436,360.52727729990147,361.0288037999999,360.52727729990147,361.0288037999999,360.52727729990147,361.0288037999999,360.52727729990147,361.0288037999999,360.52727729990147,361.0288037999999,360.52727729990147,361.0288037999999,360.52727729990147,361.0288037999999,360.52727729990147,361.0288037999999,359.82627029996365,None,361.0288037999999,362.3801084998995,0.7200000000000004,362.39673359994777,None,363.14791029994376,None,,,,,,,[1.34081081],3.2500000000000027,0.8108108108108109,11015,001,2024_Jan_04_1058,MFTM_A_new1021,2021.2.3,60.28901351194675,
,,,,,,,,stim/Instruction_adaptive.png,conditions/adaptive.xlsx,test,-0.6,-0.6,-0.6,0.6,0.6,left,L,,,,,0,1,1,1,0,37,37,83,,,,,,,,,,,,,,,,,,,,,,,,,,,,,,,,,,,,,,,,,,,,363.6494136999827,None,left,1,1.4993655000580475,364.14934619993437,365.3532899999991,364.14934619993437,364.8510564999888,364.14934619993437,364.8510564999888,364.14934619993437,364.8510564999888,364.14934619993437,364.8510564999888,364.14934619993437,364.8510564999888,364.8172687999904,365.31778619997203,364.8172687999904,365.31778619997203,364.8172687999904,365.31778619997203,364.8172687999904,365.31778619997203,364.8172687999904,365.31778619997203,364.8172687999904,365.31778619997203,364.8172687999904,365.31778619997203,364.8172687999904,365.31778619997203,364.14934619993437,None,365.31778619997203,366.6703891999787,0.6900000000000004,366.70294919994194,None,367.4542102999985,None,,,,,,,[1.35315789],3.2900000000000027,0.8157894736842105,11015,001,2024_Jan_04_1058,MFTM_A_new1021,2021.2.3,60.28901351194675,
,,,,,,,,stim/Instruction_adaptive.png,conditions/adaptive.xlsx,test,0.6,0.6,0.6,-0.6,-0.6,right,R,,,,,0,1,1,1,0,38,38,78,,,,,,,,,,,,,,,,,,,,,,,,,,,,,,,,,,,,,,,,,,,,367.9563460999634,None,right,1,2.4079962000250816,368.45622669998556,369.6414595999522,368.45622669998556,369.1403881999431,368.45622669998556,369.1403881999431,368.45622669998556,369.1403881999431,368.45622669998556,369.1403881999431,368.45622669998556,369.1403881999431,369.1068244999042,369.60810789989773,369.1068244999042,369.60810789989773,369.1068244999042,369.60810789989773,369.1068244999042,369.60810789989773,369.1068244999042,369.60810789989773,369.1068244999042,369.60810789989773,369.1068244999042,369.60810789989773,369.1068244999042,369.60810789989773,368.45622669998556,None,369.60810789989773,370.97637709998526,0.6700000000000004,370.9932601999026,None,371.74389369995333,None,,,,,,,[1.36538462],3.3300000000000027,0.8205128205128205,11015,001,2024_Jan_04_1058,MFTM_A_new1021,2021.2.3,60.28901351194675,
,,,,,,,,stim/Instruction_adaptive.png,conditions/adaptive.xlsx,test,0.6,0.6,0.6,-0.6,-0.6,right,R,,,,,0,1,1,1,0,39,39,0,,,,,,,,,,,,,,,,,,,,,,,,,,,,,,,,,,,,,,,,,,,,372.2457239999203,None,left,0,1.4230901999399066,372.74528899998404,373.8983427999774,372.74528899998404,373.39696129993536,372.74528899998404,373.39696129993536,372.74528899998404,373.39696129993536,372.74528899998404,373.39696129993536,372.74528899998404,373.39696129993536,373.3799061999889,373.88118939998094,373.3799061999889,373.88118939998094,373.3799061999889,373.88118939998094,373.3799061999889,373.88118939998094,373.3799061999889,373.88118939998094,373.3799061999889,373.88118939998094,373.3799061999889,373.88118939998094,373.3799061999889,373.88118939998094,372.74528899998404,None,373.88118939998094,375.2678023999324,0.6500000000000004,375.30051069997717,None,376.05138289998285,None,,,,,,,[1.3775],3.2200000000000024,0.8,11015,001,2024_Jan_04_1058,MFTM_A_new1021,2021.2.3,60.28901351194675,
,,,,,,,,stim/Instruction_adaptive.png,conditions/adaptive.xlsx,test,0.6,0.6,0.6,-0.6,-0.6,right,R,,,,,0,1,1,1,0,40,40,14,,,,,,,,,,,,,,,,,,,,,,,,,,,,,,,,,,,,,,,,,,,,376.5529210999375,None,right,1,1.5404486999614164,377.05179639998823,378.27022319997195,377.05179639998823,377.7696772000054,377.05179639998823,377.7696772000054,377.05179639998823,377.7696772000054,377.05179639998823,377.7696772000054,377.05179639998823,377.7696772000054,377.7362209999701,378.2368618999608,377.7362209999701,378.2368618999608,377.7362209999701,378.2368618999608,377.7362209999701,378.2368618999608,377.7362209999701,378.2368618999608,377.7362209999701,378.2368618999608,377.7362209999701,378.2368618999608,377.7362209999701,378.2368618999608,377.05179639998823,None,378.2368618999608,379.63958169997204,0.7100000000000004,379.6557071999414,None,380.4075217999052,None,,,,,,,[1.38756098],3.2600000000000025,0.8048780487804879,11015,001,2024_Jan_04_1058,MFTM_A_new1021,2021.2.3,60.28901351194675,
,,,,,,,,stim/Instruction_adaptive.png,conditions/adaptive.xlsx,test,0.6,0.6,0.6,-0.6,-0.6,right,R,,,,,0,1,1,1,0,41,41,90,,,,,,,,,,,,,,,,,,,,,,,,,,,,,,,,,,,,,,,,,,,,380.90757429995574,None,left,0,2.199470699997619,381.40928679995704,382.61051709996536,381.40928679995704,382.1092992000049,381.40928679995704,382.1092992000049,381.40928679995704,382.1092992000049,381.40928679995704,382.1092992000049,381.40928679995704,382.1092992000049,382.077189899981,382.57744929997716,382.077189899981,382.57744929997716,382.077189899981,382.57744929997716,382.077189899981,382.57744929997716,382.077189899981,382.57744929997716,382.077189899981,382.57744929997716,382.077189899981,382.57744929997716,382.077189899981,382.57744929997716,381.40928679995704,None,382.57744929997716,383.9786371999653,0.6900000000000004,384.0119086999912,None,384.76330899994355,None,,,,,,,[1.39761905],3.1400000000000023,0.7857142857142857,11015,001,2024_Jan_04_1058,MFTM_A_new1021,2021.2.3,60.28901351194675,
,,,,,,,,stim/Instruction_adaptive.png,conditions/adaptive.xlsx,test,0.6,0.6,0.6,-0.6,-0.6,right,R,,,,,0,1,1,1,0,42,42,98,,,,,,,,,,,,,,,,,,,,,,,,,,,,,,,,,,,,,,,,,,,,385.26399249990936,None,right,1,2.083956699934788,385.7647744999267,387.01723130000755,385.7647744999267,386.51663619989995,385.7647744999267,386.51663619989995,385.7647744999267,386.51663619989995,385.7647744999267,386.51663619989995,385.7647744999267,386.51663619989995,386.4996304999804,387.00049070001114,386.4996304999804,387.00049070001114,386.4996304999804,387.00049070001114,386.4996304999804,387.00049070001114,386.4996304999804,387.00049070001114,386.4996304999804,387.00049070001114,386.4996304999804,387.00049070001114,386.4996304999804,387.00049070001114,385.7647744999267,None,387.00049070001114,388.4199512999039,0.7500000000000004,388.43473099998664,None,389.18647869990673,None,,,,,,,[1.40581395],3.1800000000000024,0.7906976744186046,11015,001,2024_Jan_04_1058,MFTM_A_new1021,2021.2.3,60.28901351194675,
,,,,,,,,stim/Instruction_adaptive.png,conditions/adaptive.xlsx,test,-0.6,-0.6,-0.6,0.6,0.6,left,L,,,,,0,1,1,1,0,43,43,29,,,,,,,,,,,,,,,,,,,,,,,,,,,,,,,,,,,,,,,,,,,,389.68726129992865,None,left,1,1.7170834999997169,390.18765689991415,391.4238831999246,390.18765689991415,390.92227459989954,390.18765689991415,390.92227459989954,390.18765689991415,390.92227459989954,390.18765689991415,390.92227459989954,390.18765689991415,390.92227459989954,390.90643360000104,391.4064960000105,390.90643360000104,391.4064960000105,390.90643360000104,391.4064960000105,390.90643360000104,391.4064960000105,390.90643360000104,391.4064960000105,390.90643360000104,391.4064960000105,390.90643360000104,391.4064960000105,390.90643360000104,391.4064960000105,390.18765689991415,None,391.4064960000105,392.82517570001073,0.7300000000000004,392.84188419999555,None,393.59364789992105,None,,,,,,,[1.41409091],3.2200000000000024,0.7954545454545454,11015,001,2024_Jan_04_1058,MFTM_A_new1021,2021.2.3,60.28901351194675,
,,,,,,,,stim/Instruction_adaptive.png,conditions/adaptive.xlsx,test,0.6,0.6,0.6,-0.6,-0.6,right,R,,,,,0,1,1,1,0,44,44,58,,,,,,,,,,,,,,,,,,,,,,,,,,,,,,,,,,,,,,,,,,,,394.0937106999336,None,left,0,2.3329404999967664,394.5959266999271,395.81366949994117,394.5959266999271,395.3120093999896,394.5959266999271,395.3120093999896,394.5959266999271,395.3120093999896,394.5959266999271,395.3120093999896,394.5959266999271,395.3120093999896,395.29537189996336,395.7963558000047,395.29537189996336,395.7963558000047,395.29537189996336,395.7963558000047,395.29537189996336,395.7963558000047,395.29537189996336,395.7963558000047,395.29537189996336,395.7963558000047,395.29537189996336,395.7963558000047,395.29537189996336,395.7963558000047,394.5959266999271,None,395.7802292999113,397.2150680999039,0.7100000000000004,397.23193739994895,None,397.98336759989616,None,,,,,,,[1.42244444],3.1000000000000023,0.7777777777777778,11015,001,2024_Jan_04_1058,MFTM_A_new1021,2021.2.3,60.28901351194675,
,,,,,,,,stim/Instruction_adaptive.png,conditions/adaptive.xlsx,test,0.6,0.6,0.6,-0.6,-0.6,right,R,,,,,0,1,1,1,0,45,45,26,,,,,,,,,,,,,,,,,,,,,,,,,,,,,,,,,,,,,,,,,,,,398.48476159991696,None,right,1,2.1675241000484675,398.98513289995026,400.27073029999156,398.98513289995026,399.7694382999325,398.98513289995026,399.7694382999325,398.98513289995026,399.7694382999325,398.98513289995026,399.7694382999325,398.98513289995026,399.7694382999325,399.7365666999249,400.2371327999281,399.7365666999249,400.2371327999281,399.7365666999249,400.2371327999281,399.7365666999249,400.2371327999281,399.7365666999249,400.2371327999281,399.7365666999249,400.2371327999281,399.7365666999249,400.2371327999281,399.7365666999249,400.2371327999281,398.98513289995026,None,400.2371327999281,401.67168909998145,0.7700000000000005,401.6890551999677,None,402.4408282999648,None,,,,,,,[1.42913043],3.1400000000000023,0.782608695652174,11015,001,2024_Jan_04_1058,MFTM_A_new1021,2021.2.3,60.28901351194675,
,,,,,,,,stim/Instruction_adaptive.png,conditions/adaptive.xlsx,test,0.6,0.6,0.6,-0.6,-0.6,right,R,,,,,0,1,1,1,0,46,46,94,,,,,,,,,,,,,,,,,,,,,,,,,,,,,,,,,,,,,,,,,,,,402.94022709992714,None,right,1,1.5432683998951688,403.44098769989796,404.6932451999746,403.44098769989796,404.1921341998968,403.44098769989796,404.1921341998968,403.44098769989796,404.1921341998968,403.44098769989796,404.1921341998968,403.44098769989796,404.1921341998968,404.1759082999779,404.67606389999855,404.1759082999779,404.67606389999855,404.1759082999779,404.67606389999855,404.1759082999779,404.67606389999855,404.1759082999779,404.67606389999855,404.1759082999779,404.67606389999855,404.1759082999779,404.67606389999855,404.1759082999779,404.67606389999855,403.44098769989796,None,404.67606389999855,406.1123062999686,0.7500000000000004,406.1280158999143,None,406.8795017999364,None,,,,,,,[1.43595745],3.1800000000000024,0.7872340425531915,11015,001,2024_Jan_04_1058,MFTM_A_new1021,2021.2.3,60.28901351194675,
,,,,,,,,stim/Instruction_adaptive.png,conditions/adaptive.xlsx,test,-0.6,-0.6,-0.6,0.6,0.6,left,L,,,,,0,1,1,1,0,47,47,27,,,,,,,,,,,,,,,,,,,,,,,,,,,,,,,,,,,,,,,,,,,,407.3809871999547,None,right,0,2.1270644000032917,407.881372999982,409.11665260000154,407.881372999982,408.6153339999728,407.881372999982,408.6153339999728,407.881372999982,408.6153339999728,407.881372999982,408.6153339999728,407.881372999982,408.6153339999728,408.5991723999614,409.0997713999823,408.5991723999614,409.0997713999823,408.5991723999614,409.0997713999823,408.5991723999614,409.0997713999823,408.5991723999614,409.0997713999823,408.5991723999614,409.0997713999823,408.5991723999614,409.0997713999823,408.5991723999614,409.0997713999823,407.881372999982,None,409.0997713999823,410.55199189996347,0.7300000000000004,410.5680182999931,None,411.3196800999576,None,,,,,,,[1.44291667],3.070000000000002,0.7708333333333334,11015,001,2024_Jan_04_1058,MFTM_A_new1021,2021.2.3,60.28901351194675,
,,,,,,,,stim/Instruction_adaptive.png,conditions/adaptive.xlsx,test,0.6,0.6,0.6,-0.6,-0.6,right,R,,,,,0,1,1,1,0,48,48,10,,,,,,,,,,,,,,,,,,,,,,,,,,,,,,,,,,,,,,,,,,,,411.819887099904,None,right,1,2.7359224000247195,412.3208040999016,413.6070380999008,412.3208040999016,413.10518660000525,412.3208040999016,413.10518660000525,412.3208040999016,413.10518660000525,412.3208040999016,413.10518660000525,412.3208040999016,413.10518660000525,413.08926589996554,413.5899697999703,413.08926589996554,413.5899697999703,413.08926589996554,413.5899697999703,413.08926589996554,413.5899697999703,413.08926589996554,413.5899697999703,413.08926589996554,413.5899697999703,413.08926589996554,413.5899697999703,413.08926589996554,413.5899697999703,412.3208040999016,None,413.5899697999703,415.0748833999969,0.7800000000000005,415.0915427999571,None,415.8434014999075,None,,,,,,,[1.44857143],3.110000000000002,0.7755102040816326,11015,001,2024_Jan_04_1058,MFTM_A_new1021,2021.2.3,60.28901351194675,
,,,,,,,,stim/Instruction_adaptive.png,conditions/adaptive.xlsx,test,-0.6,-0.6,-0.6,0.6,0.6,left,L,,,,,0,1,1,1,0,49,49,73,,,,,,,,,,,,,,,,,,,,,,,,,,,,,,,,,,,,,,,,,,,,416.34393529989757,None,right,0,2.4920409000478685,416.8443423999706,418.11395979998633,416.8443423999706,417.612922100001,416.8443423999706,417.612922100001,416.8443423999706,417.612922100001,416.8443423999706,417.612922100001,416.8443423999706,417.612922100001,417.5785106999101,418.07948009995744,417.5785106999101,418.07948009995744,417.5785106999101,418.07948009995744,417.5785106999101,418.07948009995744,417.5785106999101,418.07948009995744,417.5785106999101,418.07948009995744,417.5785106999101,418.07948009995744,417.5785106999101,418.07948009995744,416.8443423999706,None,418.07948009995744,419.54926859994885,0.7600000000000005,419.56477279996034,None,420.31583969993517,None,,,,,,,[1.4544],3.000000000000002,0.76,11015,001,2024_Jan_04_1058,MFTM_A_new1021,2021.2.3,60.28901351194675,
,,,,,,,,stim/Instruction_adaptive.png,conditions/adaptive.xlsx,test,0.6,0.6,0.6,-0.6,-0.6,right,R,,,,,0,1,1,1,0,50,50,36,,,,,,,,,,,,,,,,,,,,,,,,,,,,,,,,,,,,,,,,,,,,420.81648709997535,None,right,1,2.02673829998821,421.3175199999241,422.6535011999076,421.3175199999241,422.1523057000013,421.3175199999241,422.1523057000013,421.3175199999241,422.1523057000013,421.3175199999241,422.1523057000013,421.3175199999241,422.1523057000013,422.1196217999095,422.6192037999863,422.1196217999095,422.6192037999863,422.1196217999095,422.6192037999863,422.1196217999095,422.6192037999863,422.1196217999095,422.6192037999863,422.1196217999095,422.6192037999863,422.1196217999095,422.6192037999863,422.1196217999095,422.6192037999863,421.3175199999241,None,422.6192037999863,424.0889632999897,0.8200000000000005,424.10481169994455,None,424.8577291999245,None,,,,,,,[1.45882353],3.0400000000000023,0.7647058823529411,11015,001,2024_Jan_04_1058,MFTM_A_new1021,2021.2.3,60.28901351194675,
,,,,,,,,stim/Instruction_adaptive.png,conditions/adaptive.xlsx,test,-0.6,-0.6,-0.6,0.6,0.6,left,L,,,,,0,1,1,1,0,51,51,89,,,,,,,,,,,,,,,,,,,,,,,,,,,,,,,,,,,,,,,,,,,,425.35659429989755,None,left,1,1.6941991000203416,425.858128999942,427.1593872999074,425.858128999942,426.65864769998007,425.858128999942,426.65864769998007,425.858128999942,426.65864769998007,425.858128999942,426.65864769998007,425.858128999942,426.65864769998007,426.64302459999453,427.1455148999812,426.64302459999453,427.1455148999812,426.64302459999453,427.1455148999812,426.64302459999453,427.1455148999812,426.64302459999453,427.1455148999812,426.64302459999453,427.1455148999812,426.64302459999453,427.1455148999812,426.64302459999453,427.1455148999812,425.858128999942,None,427.1455148999812,428.61218179995194,0.8000000000000005,428.6282239999855,None,429.3795576998964,None,,,,,,,[1.46346154],3.0800000000000023,0.7692307692307693,11015,001,2024_Jan_04_1058,MFTM_A_new1021,2021.2.3,60.28901351194675,
,,,,,,,,stim/Instruction_adaptive.png,conditions/adaptive.xlsx,test,0.6,0.6,0.6,-0.6,-0.6,right,R,,,,,0,1,1,1,0,52,52,34,,,,,,,,,,,,,,,,,,,,,,,,,,,,,,,,,,,,,,,,,,,,429.88079939992167,None,left,0,2.4754487000172958,430.3808945999481,431.66717559995595,430.3808945999481,431.1661133999005,430.3808945999481,431.1661133999005,430.3808945999481,431.1661133999005,430.3808945999481,431.1661133999005,430.3808945999481,431.1661133999005,431.14919309993275,431.6502172999317,431.14919309993275,431.6502172999317,431.14919309993275,431.6502172999317,431.14919309993275,431.6502172999317,431.14919309993275,431.6502172999317,431.14919309993275,431.6502172999317,431.14919309993275,431.6502172999317,431.14919309993275,431.6502172999317,430.3808945999481,None,431.6502172999317,433.11818809993565,0.7800000000000005,433.1348514999263,None,433.8871517999796,None,,,,,,,[1.46830189],2.9700000000000024,0.7547169811320755,11015,001,2024_Jan_04_1058,MFTM_A_new1021,2021.2.3,60.28901351194675,
,,,,,,,,stim/Instruction_adaptive.png,conditions/adaptive.xlsx,test,0.6,0.6,0.6,-0.6,-0.6,right,R,,,,,0,1,1,1,0,53,53,96,,,,,,,,,,,,,,,,,,,,,,,,,,,,,,,,,,,,,,,,,,,,434.38773570000194,None,left,0,2.3927559999283403,434.8876570999855,436.24038709991146,434.8876570999855,435.73873099999037,434.8876570999855,435.73873099999037,434.8876570999855,435.73873099999037,434.8876570999855,435.73873099999037,434.8876570999855,435.73873099999037,435.7062940999167,436.2064032999333,435.7062940999167,436.2064032999333,435.7062940999167,436.2064032999333,435.7062940999167,436.2064032999333,435.7062940999167,436.2064032999333,435.7062940999167,436.2064032999333,435.7062940999167,436.2064032999333,435.7062940999167,436.2064032999333,434.8876570999855,None,436.2064032999333,437.69169559993315,0.8400000000000005,437.70828799996525,None,438.4594997999957,None,,,,,,,[1.47185185],2.860000000000002,0.7407407407407407,11015,001,2024_Jan_04_1058,MFTM_A_new1021,2021.2.3,60.28901351194675,
,,,,,,,,stim/Instruction_adaptive.png,conditions/adaptive.xlsx,test,0.6,0.6,0.6,-0.6,-0.6,right,R,,,,,0,1,1,1,0,54,54,92,,,,,,,,,,,,,,,,,,,,,,,,,,,,,,,,,,,,,,,,,,,,438.9611923999619,None,right,1,1.882806200068444,439.46183119993657,440.8799146999372,439.46183119993657,440.3798151999945,439.46183119993657,440.3798151999945,439.46183119993657,440.3798151999945,439.46183119993657,440.3798151999945,439.46183119993657,440.3798151999945,440.3623911999166,440.8636028999463,440.3623911999166,440.8636028999463,440.3623911999166,440.8636028999463,440.3623911999166,440.8636028999463,440.3623911999166,440.8636028999463,440.3623911999166,440.8636028999463,440.3623911999166,440.8636028999463,440.3623911999166,440.8636028999463,439.46183119993657,None,440.84705789992586,442.33171209995635,0.9100000000000006,442.3484093999723,None,443.10034219990484,None,,,,,,,[1.474],2.900000000000002,0.7454545454545455,11015,001,2024_Jan_04_1058,MFTM_A_new1021,2021.2.3,60.28901351194675,
,,,,,,,,stim/Instruction_adaptive.png,conditions/adaptive.xlsx,test,-0.6,-0.6,-0.6,0.6,0.6,left,L,,,,,0,1,1,1,0,55,55,57,,,,,,,,,,,,,,,,,,,,,,,,,,,,,,,,,,,,,,,,,,,,443.60051039990503,None,left,1,1.9793915000045672,444.1010693999706,445.4864576999098,444.1010693999706,444.98645089997444,444.1010693999706,444.98645089997444,444.1010693999706,444.98645089997444,444.1010693999706,444.98645089997444,444.1010693999706,444.98645089997444,444.96956919995137,445.4697980999481,444.96956919995137,445.4697980999481,444.96956919995137,445.4697980999481,444.96956919995137,445.4697980999481,444.96956919995137,445.4697980999481,444.96956919995137,445.4697980999481,444.96956919995137,445.4697980999481,444.96956919995137,445.4697980999481,444.1010693999706,None,445.4697980999481,446.9559328999603,0.8800000000000006,446.9722225998994,None,447.72329879994504,None,,,,,,,[1.47660714],2.940000000000002,0.75,11015,001,2024_Jan_04_1058,MFTM_A_new1021,2021.2.3,60.28901351194675,
,,,,,,,,stim/Instruction_adaptive.png,conditions/adaptive.xlsx,test,0.6,0.6,0.6,-0.6,-0.6,right,R,,,,,0,1,1,1,0,56,56,52,,,,,,,,,,,,,,,,,,,,,,,,,,,,,,,,,,,,,,,,,,,,448.2239666999085,None,left,0,2.4837414000649005,448.7247484999243,450.0935284999432,448.7247484999243,449.5932163000107,448.7247484999243,449.5932163000107,448.7247484999243,449.5932163000107,448.7247484999243,449.5932163000107,448.7247484999243,449.5932163000107,449.57673009997234,450.0774444999406,449.57673009997234,450.0774444999406,449.57673009997234,450.0774444999406,449.57673009997234,450.0774444999406,449.57673009997234,450.0774444999406,449.57673009997234,450.0774444999406,449.57673009997234,450.0774444999406,449.57673009997234,450.0774444999406,448.7247484999243,None,450.0774444999406,451.56289209995884,0.8600000000000005,451.57895409991033,None,452.3307496999623,None,,,,,,,[1.47947368],2.830000000000002,0.7368421052631579,11015,001,2024_Jan_04_1058,MFTM_A_new1021,2021.2.3,60.28901351194675,
,,,,,,,,stim/Instruction_adaptive.png,conditions/adaptive.xlsx,test,-0.6,-0.6,-0.6,0.6,0.6,left,L,,,,,0,1,1,1,0,57,57,19,,,,,,,,,,,,,,,,,,,,,,,,,,,,,,,,,,,,,,,,,,,,452.83082389994524,None,left,1,2.0127315999707207,453.33149499993306,454.7676761999028,453.33149499993306,454.2675795999821,453.33149499993306,454.2675795999821,453.33149499993306,454.2675795999821,453.33149499993306,454.2675795999821,453.33149499993306,454.2675795999821,454.24960479990114,454.75026040000375,454.24960479990114,454.75026040000375,454.24960479990114,454.75026040000375,454.24960479990114,454.75026040000375,454.24960479990114,454.75026040000375,454.24960479990114,454.75026040000375,454.24960479990114,454.75026040000375,454.24960479990114,454.75026040000375,453.33149499993306,None,454.75026040000375,456.2366985999979,0.9300000000000006,456.2524929000065,None,457.00369209994096,None,,,,,,,[1.48103448],2.870000000000002,0.7413793103448276,11015,001,2024_Jan_04_1058,MFTM_A_new1021,2021.2.3,60.28901351194675,
,,,,,,,,stim/Instruction_adaptive.png,conditions/adaptive.xlsx,test,0.6,0.6,0.6,-0.6,-0.6,right,R,,,,,0,1,1,1,0,58,58,18,,,,,,,,,,,,,,,,,,,,,,,,,,,,,,,,,,,,,,,,,,,,457.5041700999718,None,right,1,1.7074481999734417,458.00518370000646,459.4071872999193,458.00518370000646,458.90649309998844,458.00518370000646,458.90649309998844,458.00518370000646,458.90649309998844,458.00518370000646,458.90649309998844,458.00518370000646,458.90649309998844,458.8901978000067,459.39053089998197,458.8901978000067,459.39053089998197,458.8901978000067,459.39053089998197,458.8901978000067,459.39053089998197,458.8901978000067,459.39053089998197,458.8901978000067,459.39053089998197,458.8901978000067,459.39053089998197,458.8901978000067,459.39053089998197,458.00518370000646,None,459.39053089998197,460.8764488999732,0.9000000000000006,460.89296189998277,None,461.6445093000075,None,,,,,,,[1.48305085],2.900000000000002,0.7457627118644068,11015,001,2024_Jan_04_1058,MFTM_A_new1021,2021.2.3,60.28901351194675,
,,,,,,,,stim/Instruction_adaptive.png,conditions/adaptive.xlsx,test,0.6,0.6,0.6,-0.6,-0.6,right,R,,,,,0,1,1,1,0,59,59,42,,,,,,,,,,,,,,,,,,,,,,,,,,,,,,,,,,,,,,,,,,,,462.1446558999596,None,right,1,2.8273924000095576,462.645171299926,464.03071409999393,462.645171299926,463.5297614999581,462.645171299926,463.5297614999581,462.645171299926,463.5297614999581,462.645171299926,463.5297614999581,462.645171299926,463.5297614999581,463.5132418998983,464.0142586999573,463.5132418998983,464.0142586999573,463.5132418998983,464.0142586999573,463.5132418998983,464.0142586999573,463.5132418998983,464.0142586999573,463.5132418998983,464.0142586999573,463.5132418998983,464.0142586999573,463.5132418998983,464.0142586999573,462.645171299926,None,464.0142586999573,465.50005859998055,0.8800000000000006,465.5162776999641,None,466.26804909994826,None,,,,,,,[1.48533333],2.940000000000002,0.75,11015,001,2024_Jan_04_1058,MFTM_A_new1021,2021.2.3,60.28901351194675,
,,,,,,,,stim/Instruction_adaptive.png,conditions/adaptive.xlsx,test,-0.6,-0.6,-0.6,0.6,0.6,left,L,,,,,0,1,1,1,0,60,60,31,,,,,,,,,,,,,,,,,,,,,,,,,,,,,,,,,,,,,,,,,,,,466.7681674999185,None,left,1,1.8516958000836894,467.26906799990684,468.63911519991234,467.26906799990684,468.13660399999935,467.26906799990684,468.13660399999935,467.26906799990684,468.13660399999935,467.26906799990684,468.13660399999935,467.26906799990684,468.13660399999935,468.1041669999249,468.60505519993603,468.1041669999249,468.60505519993603,468.1041669999249,468.60505519993603,468.1041669999249,468.60505519993603,468.1041669999249,468.60505519993603,468.1041669999249,468.60505519993603,468.1041669999249,468.60505519993603,468.1041669999249,468.60505519993603,467.26906799990684,None,468.60505519993603,470.10672139993403,0.8600000000000005,470.1230970999459,None,470.8741624999093,None,,,,,,,[1.48786885],2.9700000000000024,0.7540983606557377,11015,001,2024_Jan_04_1058,MFTM_A_new1021,2021.2.3,60.28901351194675,
,,,,,,,,stim/Instruction_adaptive.png,conditions/adaptive.xlsx,test,-0.6,-0.6,-0.6,0.6,0.6,left,L,,,,,0,1,1,1,0,61,61,69,,,,,,,,,,,,,,,,,,,,,,,,,,,,,,,,,,,,,,,,,,,,471.3760723999003,None,left,1,2.3328410999383777,471.87588279997,473.2285527999047,471.87588279997,472.7277854999993,471.87588279997,472.7277854999993,471.87588279997,472.7277854999993,471.87588279997,472.7277854999993,471.87588279997,472.7277854999993,472.6934839999303,473.1950311999535,472.6934839999303,473.1950311999535,472.6934839999303,473.1950311999535,472.6934839999303,473.1950311999535,472.6934839999303,473.1950311999535,472.6934839999303,473.1950311999535,472.6934839999303,473.1950311999535,472.6934839999303,473.1950311999535,471.87588279997,None,473.1950311999535,474.6966524999589,0.8400000000000005,474.7131937999511,None,475.4651137999026,None,,,,,,,[1.49064516],3.000000000000002,0.7580645161290323,11015,001,2024_Jan_04_1058,MFTM_A_new1021,2021.2.3,60.28901351194675,
,,,,,,,,stim/Instruction_adaptive.png,conditions/adaptive.xlsx,test,-0.6,-0.6,-0.6,0.6,0.6,left,L,,,,,0,1,1,1,0,62,62,61,,,,,,,,,,,,,,,,,,,,,,,,,,,,,,,,,,,,,,,,,,,,475.9657864999026,None,left,1,1.9266020000213757,476.4657244000118,477.78491129993927,476.4657244000118,477.30042509990744,476.4657244000118,477.30042509990744,476.4657244000118,477.30042509990744,476.4657244000118,477.30042509990744,476.4657244000118,477.30042509990744,477.26692619989626,477.7681021000026,477.26692619989626,477.7681021000026,477.26692619989626,477.7681021000026,477.26692619989626,477.7681021000026,477.26692619989626,477.7681021000026,477.26692619989626,477.7681021000026,477.26692619989626,477.7681021000026,477.26692619989626,477.7681021000026,476.4657244000118,None,477.7681021000026,479.2708969999803,0.8200000000000005,479.28668909997214,None,480.0385615999112,None,,,,,,,[1.49365079],3.030000000000002,0.7619047619047619,11015,001,2024_Jan_04_1058,MFTM_A_new1021,2021.2.3,60.28901351194675,
,,,,,,,,stim/Instruction_adaptive.png,conditions/adaptive.xlsx,test,-0.6,-0.6,-0.6,0.6,0.6,left,L,,,,,0,1,1,1,0,63,63,39,,,,,,,,,,,,,,,,,,,,,,,,,,,,,,,,,,,,,,,,,,,,480.5385741000064,None,right,0,2.297251299954951,481.03922459995374,482.35839349997696,481.03922459995374,481.85756399994716,481.03922459995374,481.85756399994716,481.03922459995374,481.85756399994716,481.03922459995374,481.85756399994716,481.03922459995374,481.85756399994716,481.8409424999263,482.3418995999964,481.8409424999263,482.3418995999964,481.8409424999263,482.3418995999964,481.8409424999263,482.3418995999964,481.8409424999263,482.3418995999964,481.8409424999263,482.3418995999964,481.8409424999263,482.3418995999964,481.8409424999263,482.3418995999964,481.03922459995374,None,482.3250729999272,483.82764859998133,0.8100000000000005,483.8607705999166,None,484.6114198999712,None,,,,,,,[1.49671875],2.940000000000002,0.75,11015,001,2024_Jan_04_1058,MFTM_A_new1021,2021.2.3,60.28901351194675,
,,,,,,,,stim/Instruction_adaptive.png,conditions/adaptive.xlsx,test,-0.6,-0.6,-0.6,0.6,0.6,left,L,,,,,0,1,1,1,0,64,64,47,,,,,,,,,,,,,,,,,,,,,,,,,,,,,,,,,,,,,,,,,,,,485.1121016999241,None,left,1,1.6438186999876052,485.6125376999844,486.9819151998963,485.6125376999844,486.48152759997174,485.6125376999844,486.48152759997174,485.6125376999844,486.48152759997174,485.6125376999844,486.48152759997174,485.6125376999844,486.48152759997174,486.46381669992115,486.965017599985,486.46381669992115,486.965017599985,486.46381669992115,486.965017599985,486.46381669992115,486.965017599985,486.46381669992115,486.965017599985,486.46381669992115,486.965017599985,486.46381669992115,486.965017599985,486.46381669992115,486.965017599985,485.6125376999844,None,486.965017599985,488.4675973999547,0.8600000000000005,488.48424449993763,None,489.2358621999156,None,,,,,,,[1.49892308],2.9700000000000024,0.7538461538461538,11015,001,2024_Jan_04_1058,MFTM_A_new1021,2021.2.3,60.28901351194675,
,,,,,,,,stim/Instruction_adaptive.png,conditions/adaptive.xlsx,test,0.6,0.6,0.6,-0.6,-0.6,right,R,,,,,0,1,1,1,0,65,65,82,,,,,,,,,,,,,,,,,,,,,,,,,,,,,,,,,,,,,,,,,,,,489.73599610000383,None,left,0,2.0122045000316575,490.23620719998144,491.5889311999781,490.23620719998144,491.0874649999896,490.23620719998144,491.0874649999896,490.23620719998144,491.0874649999896,490.23620719998144,491.0874649999896,490.23620719998144,491.0874649999896,491.054024699959,491.5548708999995,491.054024699959,491.5548708999995,491.054024699959,491.5548708999995,491.054024699959,491.5548708999995,491.054024699959,491.5548708999995,491.054024699959,491.5548708999995,491.054024699959,491.5548708999995,491.054024699959,491.5548708999995,490.23620719998144,None,491.5548708999995,493.05729319993407,0.8400000000000005,493.0902162999846,None,493.8421646999195,None,,,,,,,[1.50136364],2.880000000000002,0.7424242424242424,11015,001,2024_Jan_04_1058,MFTM_A_new1021,2021.2.3,60.28901351194675,
,,,,,,,,stim/Instruction_adaptive.png,conditions/adaptive.xlsx,test,-0.6,-0.6,-0.6,0.6,0.6,left,L,,,,,0,1,1,1,0,66,66,97,,,,,,,,,,,,,,,,,,,,,,,,,,,,,,,,,,,,,,,,,,,,494.3429124999093,None,left,1,1.7412802999606356,494.8430717999581,496.2467013999121,494.8430717999581,495.744338999968,494.8430717999581,495.744338999968,494.8430717999581,495.744338999968,494.8430717999581,495.744338999968,494.8430717999581,495.744338999968,495.7109413999133,496.21147909993306,495.7109413999133,496.21147909993306,495.7109413999133,496.21147909993306,495.7109413999133,496.21147909993306,495.7109413999133,496.21147909993306,495.7109413999133,496.21147909993306,495.7109413999133,496.21147909993306,495.7109413999133,496.21147909993306,494.8430717999581,None,496.21147909993306,497.7145957999164,0.8900000000000006,497.747350599966,None,498.49856139998883,None,,,,,,,[1.50298507],2.910000000000002,0.746268656716418,11015,001,2024_Jan_04_1058,MFTM_A_new1021,2021.2.3,60.28901351194675,
,,,,,,,,stim/Instruction_adaptive.png,conditions/adaptive.xlsx,test,-0.6,-0.6,-0.6,0.6,0.6,left,L,,,,,0,1,1,1,0,67,67,9,,,,,,,,,,,,,,,,,,,,,,,,,,,,,,,,,,,,,,,,,,,,498.9992441999493,None,left,1,1.2443989000748843,499.4999116999097,500.88614989991765,499.4999116999097,500.3846045999089,499.4999116999097,500.3846045999089,499.4999116999097,500.3846045999089,499.4999116999097,500.3846045999089,499.4999116999097,500.3846045999089,500.3680474999128,500.86930319992825,500.3680474999128,500.86930319992825,500.3680474999128,500.86930319992825,500.3680474999128,500.86930319992825,500.3680474999128,500.86930319992825,500.3680474999128,500.86930319992825,500.3680474999128,500.86930319992825,500.3680474999128,500.86930319992825,499.4999116999097,None,500.86930319992825,None,0.8800000000000006,502.3874707999639,None,503.1386500999797,None,,,,,,,[1.50470588],2.940000000000002,0.75,11015,001,2024_Jan_04_1058,MFTM_A_new1021,2021.2.3,60.28901351194675,
,,,,,,,,stim/Instruction_adaptive.png,conditions/adaptive.xlsx,test,-0.6,-0.6,-0.6,0.6,0.6,left,L,,,,,0,1,1,1,0,68,68,91,,,,,,,,,,,,,,,,,,,,,,,,,,,,,,,,,,,,,,,,,,,,503.63969729992095,None,left,1,1.4120889999903738,504.1402339999331,505.5088732999284,504.1402339999331,505.00791689998005,504.1402339999331,505.00791689998005,504.1402339999331,505.00791689998005,504.1402339999331,505.00791689998005,504.1402339999331,505.00791689998005,504.97563040000387,505.4761632999871,504.97563040000387,505.4761632999871,504.97563040000387,505.4761632999871,504.97563040000387,505.4761632999871,504.97563040000387,505.4761632999871,504.97563040000387,505.4761632999871,504.97563040000387,505.4761632999871,504.97563040000387,505.4761632999871,504.1402339999331,None,505.4761632999871,506.9951548000099,0.8600000000000005,507.0117522999644,None,507.7631761999801,None,,,,,,,[1.50666667],2.9700000000000024,0.7536231884057971,11015,001,2024_Jan_04_1058,MFTM_A_new1021,2021.2.3,60.28901351194675,
,,,,,,,,stim/Instruction_adaptive.png,conditions/adaptive.xlsx,test,-0.6,-0.6,-0.6,0.6,0.6,left,L,,,,,0,1,1,1,0,69,69,35,,,,,,,,,,,,,,,,,,,,,,,,,,,,,,,,,,,,,,,,,,,,508.2636112999171,None,left,1,1.4446206000866368,508.7636733999243,510.1157807999989,508.7636733999243,509.6149523999775,508.7636733999243,509.6149523999775,508.7636733999243,509.6149523999775,508.7636733999243,509.6149523999775,508.7636733999243,509.6149523999775,509.58157449995633,510.0823183999164,509.58157449995633,510.0823183999164,509.58157449995633,510.0823183999164,509.58157449995633,510.0823183999164,509.58157449995633,510.0823183999164,509.58157449995633,510.0823183999164,509.58157449995633,510.0823183999164,509.58157449995633,510.0823183999164,508.7636733999243,None,510.0823183999164,511.602112499997,0.8400000000000005,511.6178516999353,None,512.3690276999259,None,,,,,,,[1.50885714],3.000000000000002,0.7571428571428571,11015,001,2024_Jan_04_1058,MFTM_A_new1021,2021.2.3,60.28901351194675,
,,,,,,,,stim/Instruction_adaptive.png,conditions/adaptive.xlsx,test,-0.6,-0.6,-0.6,0.6,0.6,left,L,,,,,0,1,1,1,0,70,70,53,,,,,,,,,,,,,,,,,,,,,,,,,,,,,,,,,,,,,,,,,,,,512.8700098999543,None,left,1,1.0140517000108957,513.3705516000045,514.6893314999761,513.3705516000045,514.2049583999906,513.3705516000045,514.2049583999906,513.3705516000045,514.2049583999906,513.3705516000045,514.2049583999906,513.3705516000045,514.2049583999906,514.1714565999573,514.6731557999738,514.1714565999573,514.6731557999738,514.1714565999573,514.6731557999738,514.1714565999573,514.6731557999738,514.1714565999573,514.6731557999738,514.1714565999573,514.6731557999738,514.1714565999573,514.6731557999738,514.1714565999573,514.6731557999738,513.3705516000045,None,514.6731557999738,516.1920759999193,0.8200000000000005,516.2078588999575,None,516.9593376999255,None,,,,,,,[1.51126761],3.030000000000002,0.7605633802816901,11015,001,2024_Jan_04_1058,MFTM_A_new1021,2021.2.3,60.28901351194675,
,,,,,,,,stim/Instruction_adaptive.png,conditions/adaptive.xlsx,test,0.6,0.6,0.6,-0.6,-0.6,right,R,,,,,0,1,1,1,0,71,71,62,,,,,,,,,,,,,,,,,,,,,,,,,,,,,,,,,,,,,,,,,,,,517.4600052000023,None,left,0,2.247695600031875,517.9606250999495,519.2793315999443,517.9606250999495,518.779362799949,517.9606250999495,518.779362799949,517.9606250999495,518.779362799949,517.9606250999495,518.779362799949,517.9606250999495,518.779362799949,518.7456966999453,519.246773299994,518.7456966999453,519.246773299994,518.7456966999453,519.246773299994,518.7456966999453,519.246773299994,518.7456966999453,519.246773299994,518.7456966999453,519.246773299994,518.7456966999453,519.246773299994,518.7456966999453,519.246773299994,517.9606250999495,None,519.246773299994,520.7657904999796,0.8100000000000005,520.7981613999,None,521.5499157999875,None,,,,,,,[1.51375],2.950000000000002,0.75,11015,001,2024_Jan_04_1058,MFTM_A_new1021,2021.2.3,60.28901351194675,
,,,,,,,,stim/Instruction_adaptive.png,conditions/adaptive.xlsx,test,-0.6,-0.6,-0.6,0.6,0.6,left,L,,,,,0,1,1,1,0,72,72,11,,,,,,,,,,,,,,,,,,,,,,,,,,,,,,,,,,,,,,,,,,,,522.0511308999266,None,left,1,2.6087027000030503,522.5517477999674,523.9028739999048,522.5517477999674,523.4019615999423,522.5517477999674,523.4019615999423,522.5517477999674,523.4019615999423,522.5517477999674,523.4019615999423,522.5517477999674,523.4019615999423,523.3853111999342,523.8868038000073,523.3853111999342,523.8868038000073,523.3853111999342,523.8868038000073,523.3853111999342,523.8868038000073,523.3853111999342,523.8868038000073,523.3853111999342,523.8868038000073,523.3853111999342,523.8868038000073,523.3853111999342,523.8868038000073,522.5517477999674,None,523.8868038000073,525.4060792999808,0.8500000000000005,525.4216285999864,None,526.1730954999803,None,,,,,,,[1.51561644],2.9700000000000024,0.7534246575342466,11015,001,2024_Jan_04_1058,MFTM_A_new1021,2021.2.3,60.28901351194675,
,,,,,,,,stim/Instruction_adaptive.png,conditions/adaptive.xlsx,test,0.6,0.6,0.6,-0.6,-0.6,right,R,,,,,0,1,1,1,0,73,73,24,,,,,,,,,,,,,,,,,,,,,,,,,,,,,,,,,,,,,,,,,,,,526.6744839999592,None,right,1,1.6263826000504196,527.1743587999372,528.5265129999025,527.1743587999372,528.0260286999401,527.1743587999372,528.0260286999401,527.1743587999372,528.0260286999401,527.1743587999372,528.0260286999401,527.1743587999372,528.0260286999401,527.9923366999719,528.4927588999271,527.9923366999719,528.4927588999271,527.9923366999719,528.4927588999271,527.9923366999719,528.4927588999271,527.9923366999719,528.4927588999271,527.9923366999719,528.4927588999271,527.9923366999719,528.4927588999271,527.9923366999719,528.4927588999271,527.1743587999372,None,528.4927588999271,530.0117881000042,0.8400000000000005,530.0453431999777,None,530.7964543999406,None,,,,,,,[1.51756757],3.000000000000002,0.7567567567567568,11015,001,2024_Jan_04_1058,MFTM_A_new1021,2021.2.3,60.28901351194675,
,,,,,,,,stim/Instruction_adaptive.png,conditions/adaptive.xlsx,test,-0.6,-0.6,-0.6,0.6,0.6,left,L,,,,,0,1,1,1,0,74,74,45,,,,,,,,,,,,,,,,,,,,,,,,,,,,,,,,,,,,,,,,,,,,531.2971601999598,None,left,1,1.9148646999383345,531.7978500999743,533.1334144999273,531.7978500999743,532.6323957999703,531.7978500999743,532.6323957999703,531.7978500999743,532.6323957999703,531.7978500999743,532.6323957999703,531.7978500999743,532.6323957999703,532.5992605999345,533.0996178999776,532.5992605999345,533.0996178999776,532.5992605999345,533.0996178999776,532.5992605999345,533.0996178999776,532.5992605999345,533.0996178999776,532.5992605999345,533.0996178999776,532.5992605999345,533.0996178999776,532.5992605999345,533.0996178999776,531.7978500999743,None,533.0996178999776,534.6192596999463,0.8200000000000005,534.6525039999979,None,535.4036045999965,None,,,,,,,[1.51973333],3.030000000000002,0.76,11015,001,2024_Jan_04_1058,MFTM_A_new1021,2021.2.3,60.28901351194675,
,,,,,,,,stim/Instruction_adaptive.png,conditions/adaptive.xlsx,test,0.6,0.6,0.6,-0.6,-0.6,right,R,,,,,0,1,1,1,0,75,75,66,,,,,,,,,,,,,,,,,,,,,,,,,,,,,,,,,,,,,,,,,,,,535.9041406000033,None,left,0,1.6674382999772206,536.4054176999489,537.7240189999575,536.4054176999489,537.2230291999876,536.4054176999489,537.2230291999876,536.4054176999489,537.2230291999876,536.4054176999489,537.2230291999876,536.4054176999489,537.2230291999876,537.1892522999551,537.6904435999459,537.1892522999551,537.6904435999459,537.1892522999551,537.6904435999459,537.1892522999551,537.6904435999459,537.1892522999551,537.6904435999459,537.1892522999551,537.6904435999459,537.1892522999551,537.6904435999459,537.1892522999551,537.6904435999459,536.4054176999489,None,537.6904435999459,539.2262206999585,0.8100000000000005,539.2430907000089,None,539.9943532999605,None,,,,,,,[1.52197368],2.950000000000002,0.75,11015,001,2024_Jan_04_1058,MFTM_A_new1021,2021.2.3,60.28901351194675,
,,,,,,,,stim/Instruction_adaptive.png,conditions/adaptive.xlsx,test,0.6,0.6,0.6,-0.6,-0.6,right,R,,,,,0,1,1,1,0,76,76,38,,,,,,,,,,,,,,,,,,,,,,,,,,,,,,,,,,,,,,,,,,,,540.4945585000096,None,left,0,0.7255566000239924,540.99497349991,542.3473726999946,540.99497349991,541.8468261999078,540.99497349991,541.8468261999078,540.99497349991,541.8468261999078,540.99497349991,541.8468261999078,540.99497349991,541.8468261999078,541.8298945999704,542.3301348999375,541.8298945999704,542.3301348999375,541.8298945999704,542.3301348999375,541.8298945999704,542.3301348999375,541.8298945999704,542.3301348999375,541.8298945999704,542.3301348999375,541.8298945999704,542.3301348999375,541.8298945999704,542.3301348999375,540.99497349991,None,542.3301348999375,543.8656027999241,0.8500000000000005,543.8822504999116,None,544.634341099998,None,,,,,,,[1.52363636],2.870000000000002,0.7402597402597403,11015,001,2024_Jan_04_1058,MFTM_A_new1021,2021.2.3,60.28901351194675,
,,,,,,,,stim/Instruction_adaptive.png,conditions/adaptive.xlsx,test,0.6,0.6,0.6,-0.6,-0.6,right,R,,,,,0,1,1,1,0,77,77,20,,,,,,,,,,,,,,,,,,,,,,,,,,,,,,,,,,,,,,,,,,,,545.1346710999496,None,right,1,1.3249543000711128,545.6354918999132,547.0373027999885,545.6354918999132,546.5362812000094,545.6354918999132,546.5362812000094,545.6354918999132,546.5362812000094,545.6354918999132,546.5362812000094,545.6354918999132,546.5362812000094,546.5196369999321,547.020238499972,546.5196369999321,547.020238499972,546.5196369999321,547.020238499972,546.5196369999321,547.020238499972,546.5196369999321,547.020238499972,546.5196369999321,547.020238499972,546.5196369999321,547.020238499972,546.5196369999321,547.020238499972,545.6354918999132,None,547.020238499972,548.5564304,0.9000000000000006,548.5732828999171,None,549.3245046999073,None,,,,,,,[1.52461538],2.900000000000002,0.7435897435897436,11015,001,2024_Jan_04_1058,MFTM_A_new1021,2021.2.3,60.28901351194675,
,,,,,,,,stim/Instruction_adaptive.png,conditions/adaptive.xlsx,test,-0.6,-0.6,-0.6,0.6,0.6,left,L,,,,,0,1,1,1,0,78,78,71,,,,,,,,,,,,,,,,,,,,,,,,,,,,,,,,,,,,,,,,,,,,549.8252229999052,None,left,1,1.8995575999142602,550.3251815999392,551.7106059999205,550.3251815999392,551.2099986999528,550.3251815999392,551.2099986999528,550.3251815999392,551.2099986999528,550.3251815999392,551.2099986999528,550.3251815999392,551.2099986999528,551.1951342999237,551.7106059999205,551.1951342999237,551.7106059999205,551.1951342999237,551.7106059999205,551.1951342999237,551.7106059999205,551.1951342999237,551.7106059999205,551.1951342999237,551.7106059999205,551.1951342999237,551.7106059999205,551.1951342999237,551.7106059999205,550.3251815999392,None,551.6939494999824,553.2296212000074,0.8800000000000006,553.2460612999275,None,553.9982369999634,None,,,,,,,[1.52582278],2.9300000000000024,0.7468354430379747,11015,001,2024_Jan_04_1058,MFTM_A_new1021,2021.2.3,60.28901351194675,
,,,,,,,,stim/Instruction_adaptive.png,conditions/adaptive.xlsx,test,0.6,0.6,0.6,-0.6,-0.6,right,R,,,,,0,1,1,1,0,79,79,70,,,,,,,,,,,,,,,,,,,,,,,,,,,,,,,,,,,,,,,,,,,,554.4991738999961,None,left,0,1.2894536000676453,554.9994783999864,556.3684839999769,554.9994783999864,555.8679123999318,554.9994783999864,555.8679123999318,554.9994783999864,555.8679123999318,554.9994783999864,555.8679123999318,554.9994783999864,555.8679123999318,555.8333472999511,556.3349581999937,555.8333472999511,556.3349581999937,555.8333472999511,556.3349581999937,555.8333472999511,556.3349581999937,555.8333472999511,556.3349581999937,555.8333472999511,556.3349581999937,555.8333472999511,556.3349581999937,555.8333472999511,556.3349581999937,554.9994783999864,None,556.3349581999937,557.8697253999999,0.8600000000000005,557.8870346999029,None,558.6382380999858,None,,,,,,,[1.52725],2.8500000000000023,0.7375,11015,001,2024_Jan_04_1058,MFTM_A_new1021,2021.2.3,60.28901351194675,
,,,,,,,,stim/Instruction_adaptive.png,conditions/adaptive.xlsx,test,0.6,0.6,0.6,-0.6,-0.6,right,R,,,,,0,1,1,1,0,80,80,64,,,,,,,,,,,,,,,,,,,,,,,,,,,,,,,,,,,,,,,,,,,,559.1382941999473,None,right,1,1.6889669999945909,559.6394680999219,561.058324099984,559.6394680999219,560.5569356000051,559.6394680999219,560.5569356000051,559.6394680999219,560.5569356000051,559.6394680999219,560.5569356000051,559.6394680999219,560.5569356000051,560.5237575999927,561.0245007999474,560.5237575999927,561.0245007999474,560.5237575999927,561.0245007999474,560.5237575999927,561.0245007999474,560.5237575999927,561.0245007999474,560.5237575999927,561.0245007999474,560.5237575999927,561.0245007999474,560.5237575999927,561.0245007999474,559.6394680999219,None,561.0245007999474,562.560043699923,0.9100000000000006,562.5766336999368,None,563.3278596999589,None,,,,,,,[1.52802469],2.880000000000002,0.7407407407407407,11015,001,2024_Jan_04_1058,MFTM_A_new1021,2021.2.3,60.28901351194675,
,,,,,,,,stim/Instruction_adaptive.png,conditions/adaptive.xlsx,test,-0.6,-0.6,-0.6,0.6,0.6,left,L,,,,,0,1,1,1,0,81,81,49,,,,,,,,,,,,,,,,,,,,,,,,,,,,,,,,,,,,,,,,,,,,563.8295370999258,None,left,1,1.7110499000409618,564.329396899906,565.7314252000069,564.329396899906,565.2308407999808,564.329396899906,565.2308407999808,564.329396899906,565.2308407999808,564.329396899906,565.2308407999808,564.329396899906,565.2308407999808,565.1985033999663,565.6986923000077,565.1985033999663,565.6986923000077,565.1985033999663,565.6986923000077,565.1985033999663,565.6986923000077,565.1985033999663,565.6986923000077,565.1985033999663,565.6986923000077,565.1985033999663,565.6986923000077,565.1985033999663,565.6986923000077,564.329396899906,None,565.6986923000077,567.2336760999169,0.8900000000000006,567.2502912000054,None,568.0019992999732,None,,,,,,,[1.52902439],2.900000000000002,0.7439024390243902,11015,001,2024_Jan_04_1058,MFTM_A_new1021,2021.2.3,60.28901351194675,
,,,,,,,,stim/Instruction_adaptive.png,conditions/adaptive.xlsx,test,0.6,0.6,0.6,-0.6,-0.6,right,R,,,,,0,1,1,1,0,82,82,74,,,,,,,,,,,,,,,,,,,,,,,,,,,,,,,,,,,,,,,,,,,,568.5032187999459,None,left,0,2.0366526000434533,569.0039766000118,570.3892109999433,569.0039766000118,569.8876376999542,569.0039766000118,569.8876376999542,569.0039766000118,569.8876376999542,569.0039766000118,569.8876376999542,569.0039766000118,569.8876376999542,569.8710910999216,570.3716248999117,569.8710910999216,570.3716248999117,569.8710910999216,570.3716248999117,569.8710910999216,570.3716248999117,569.8710910999216,570.3716248999117,569.8710910999216,570.3716248999117,569.8710910999216,570.3716248999117,569.8710910999216,570.3716248999117,569.0039766000118,None,570.3716248999117,571.9080086000031,0.8800000000000006,571.9236874999478,None,572.6749072999228,None,,,,,,,[1.53012048],2.830000000000002,0.7349397590361446,11015,001,2024_Jan_04_1058,MFTM_A_new1021,2021.2.3,60.28901351194675,
,,,,,,,,stim/Instruction_adaptive.png,conditions/adaptive.xlsx,test,-0.6,-0.6,-0.6,0.6,0.6,left,L,,,,,0,1,1,1,0,83,83,15,,,,,,,,,,,,,,,,,,,,,,,,,,,,,,,,,,,,,,,,,,,,573.1759194999468,None,left,1,1.547528599970974,573.6768580999924,575.1131785999751,573.6768580999924,574.6120319999754,573.6768580999924,574.6120319999754,573.6768580999924,574.6120319999754,573.6768580999924,574.6120319999754,573.6768580999924,574.6120319999754,574.59516789997,575.0957590999315,574.59516789997,575.0957590999315,574.59516789997,575.0957590999315,574.59516789997,575.0957590999315,574.59516789997,575.0957590999315,574.59516789997,575.0957590999315,574.59516789997,575.0957590999315,574.59516789997,575.0957590999315,573.6768580999924,None,575.0957590999315,576.6312821999891,0.9300000000000006,576.6475795999868,None,577.3996915000025,None,,,,,,,[1.53059524],2.8500000000000023,0.7380952380952381,11015,001,2024_Jan_04_1058,MFTM_A_new1021,2021.2.3,60.28901351194675,
,,,,,,,,stim/Instruction_adaptive.png,conditions/adaptive.xlsx,test,-0.6,-0.6,-0.6,0.6,0.6,left,L,,,,,0,1,1,1,0,84,84,37,,,,,,,,,,,,,,,,,,,,,,,,,,,,,,,,,,,,,,,,,,,,577.89945789997,None,left,1,1.4881839000154287,578.4002762999153,579.8189219000051,578.4002762999153,579.3182407999411,578.4002762999153,579.3182407999411,578.4002762999153,579.3182407999411,578.4002762999153,579.3182407999411,578.4002762999153,579.3182407999411,579.2856559999054,579.7861072999658,579.2856559999054,579.7861072999658,579.2856559999054,579.7861072999658,579.2856559999054,579.7861072999658,579.2856559999054,579.7861072999658,579.2856559999054,579.7861072999658,579.2856559999054,579.7861072999658,579.2856559999054,579.7861072999658,578.4002762999153,None,579.7861072999658,581.3232390999328,0.9100000000000006,581.3545275999932,None,582.1062399999937,None,,,,,,,[1.53129412],2.880000000000002,0.7411764705882353,11015,001,2024_Jan_04_1058,MFTM_A_new1021,2021.2.3,60.28901351194675,
,,,,,,,,stim/Instruction_adaptive.png,conditions/adaptive.xlsx,test,0.6,0.6,0.6,-0.6,-0.6,right,R,,,,,0,1,1,1,0,85,85,88,,,,,,,,,,,,,,,,,,,,,,,,,,,,,,,,,,,,,,,,,,,,582.607116799918,None,left,0,1.6761963999597356,583.108251699945,584.509980599978,583.108251699945,584.0085485999007,583.108251699945,584.0085485999007,583.108251699945,584.0085485999007,583.108251699945,584.0085485999007,583.108251699945,584.0085485999007,583.9759273999371,584.477187499986,583.9759273999371,584.477187499986,583.9759273999371,584.477187499986,583.9759273999371,584.477187499986,583.9759273999371,584.477187499986,583.9759273999371,584.477187499986,583.9759273999371,584.477187499986,583.9759273999371,584.477187499986,583.108251699945,None,584.477187499986,586.0115119999973,0.8900000000000006,586.0448431000113,None,586.7962035000091,None,,,,,,,[1.5322093],2.800000000000002,0.7325581395348837,11015,001,2024_Jan_04_1058,MFTM_A_new1021,2021.2.3,60.28901351194675,
,,,,,,,,stim/Instruction_adaptive.png,conditions/adaptive.xlsx,test,-0.6,-0.6,-0.6,0.6,0.6,left,L,,,,,0,1,1,1,0,86,86,51,,,,,,,,,,,,,,,,,,,,,,,,,,,,,,,,,,,,,,,,,,,,587.297493299935,None,right,0,1.8105145000154153,587.7980583999306,589.2501968999859,587.7980583999306,588.7489592999918,587.7980583999306,588.7489592999918,587.7980583999306,588.7489592999918,587.7980583999306,588.7489592999918,587.7980583999306,588.7489592999918,588.7154927999945,589.2166114998981,588.7154927999945,589.2166114998981,588.7154927999945,589.2166114998981,588.7154927999945,589.2166114998981,588.7154927999945,589.2166114998981,588.7154927999945,589.2166114998981,588.7154927999945,589.2166114998981,588.7154927999945,589.2166114998981,587.7980583999306,None,589.2166114998981,590.7524099999573,0.9400000000000006,590.7858091999078,None,591.5364558999427,None,,,,,,,[1.53252874],2.730000000000002,0.7241379310344828,11015,001,2024_Jan_04_1058,MFTM_A_new1021,2021.2.3,60.28901351194675,
,,,,,,,,stim/Instruction_adaptive.png,conditions/adaptive.xlsx,test,-0.6,-0.6,-0.6,0.6,0.6,left,L,,,,,0,1,1,1,0,87,87,81,,,,,,,,,,,,,,,,,,,,,,,,,,,,,,,,,,,,,,,,,,,,592.0375490000006,None,left,1,2.9033448999980465,592.5377881999593,594.0404972999822,592.5377881999593,593.5393747999333,592.5377881999593,593.5393747999333,592.5377881999593,593.5393747999333,592.5377881999593,593.5393747999333,592.5377881999593,593.5393747999333,593.5059545999393,594.0065799999284,593.5059545999393,594.0065799999284,593.5059545999393,594.0065799999284,593.5059545999393,594.0065799999284,593.5059545999393,594.0065799999284,593.5059545999393,594.0065799999284,593.5059545999393,594.0065799999284,593.5059545999393,594.0065799999284,592.5377881999593,None,594.0065799999284,595.5262437999481,0.9900000000000007,595.5426211999729,None,596.2936764999758,None,,,,,,,[[1.51]],2.7500000000000018,0.7272727272727273,11015,001,2024_Jan_04_1058,MFTM_A_new1021,2021.2.3,60.28901351194675,
,,,,,,,,stim/Instruction_adaptive.png,conditions/adaptive.xlsx,test,-0.6,-0.6,-0.6,0.6,0.6,left,L,,,,,0,1,1,1,0,88,88,59,,,,,,,,,,,,,,,,,,,,,,,,,,,,,,,,,,,,,,,,,,,,596.794733399991,None,left,1,1.4086117999395356,597.2958786999807,598.7817127999151,597.2958786999807,598.2799300999613,597.2958786999807,598.2799300999613,597.2958786999807,598.2799300999613,597.2958786999807,598.2799300999613,597.2958786999807,598.2799300999613,598.2635875999695,598.7637705999659,598.2635875999695,598.7637705999659,598.2635875999695,598.7637705999659,598.2635875999695,598.7637705999659,598.2635875999695,598.7637705999659,598.2635875999695,598.7637705999659,598.2635875999695,598.7637705999659,598.2635875999695,598.7637705999659,597.2958786999807,None,598.7637705999659,None,0.9800000000000006,600.2996021999279,None,601.0512221999234,None,,,,,,,[[1.52]],2.780000000000002,0.7303370786516854,11015,001,2024_Jan_04_1058,MFTM_A_new1021,2021.2.3,60.28901351194675,
,,,,,,,,stim/Instruction_adaptive.png,conditions/adaptive.xlsx,test,0.6,0.6,0.6,-0.6,-0.6,right,R,,,,,0,1,1,1,0,89,89,16,,,,,,,,,,,,,,,,,,,,,,,,,,,,,,,,,,,,,,,,,,,,601.5517740999348,None,right,1,1.6366792999906465,602.0519139999524,603.5211496999254,602.0519139999524,603.0206229999894,602.0519139999524,603.0206229999894,602.0519139999524,603.0206229999894,602.0519139999524,603.0206229999894,602.0519139999524,603.0206229999894,602.9867232999532,603.4882053999463,602.9867232999532,603.4882053999463,602.9867232999532,603.4882053999463,602.9867232999532,603.4882053999463,602.9867232999532,603.4882053999463,602.9867232999532,603.4882053999463,602.9867232999532,603.4882053999463,602.9867232999532,603.4882053999463,602.0519139999524,None,603.4882053999463,605.0231893999735,0.9600000000000006,605.0563699000049,None,605.8075658999151,None,,,,,,,[1.53222222],2.800000000000002,0.7333333333333333,11015,001,2024_Jan_04_1058,MFTM_A_new1021,2021.2.3,60.28901351194675,
,,,,,,,,stim/Instruction_adaptive.png,conditions/adaptive.xlsx,test,-0.6,-0.6,-0.6,0.6,0.6,left,L,,,,,0,1,1,1,0,90,90,63,,,,,,,,,,,,,,,,,,,,,,,,,,,,,,,,,,,,,,,,,,,,606.3095216999063,None,left,1,1.3677412000251934,606.8088632998988,608.2619327999419,606.8088632998988,607.7610023999587,606.8088632998988,607.7610023999587,606.8088632998988,607.7610023999587,606.8088632998988,607.7610023999587,606.8088632998988,607.7610023999587,607.7270136999432,608.2280986999394,607.7270136999432,608.2280986999394,607.7270136999432,608.2280986999394,607.7270136999432,608.2280986999394,607.7270136999432,608.2280986999394,607.7270136999432,608.2280986999394,607.7270136999432,608.2280986999394,607.7270136999432,608.2280986999394,606.8088632998988,None,608.2280986999394,609.7636907999404,0.9400000000000006,609.7802550999913,None,610.5321690998971,None,,,,,,,[1.53252747],2.830000000000002,0.7362637362637363,11015,001,2024_Jan_04_1058,MFTM_A_new1021,2021.2.3,60.28901351194675,
,,,,,,,,stim/Instruction_adaptive.png,conditions/adaptive.xlsx,test,-0.6,-0.6,-0.6,0.6,0.6,left,L,,,,,0,1,1,1,0,91,91,43,,,,,,,,,,,,,,,,,,,,,,,,,,,,,,,,,,,,,,,,,,,,611.0319120999193,None,left,1,1.1080726000946015,611.5326705999905,612.9687158999732,611.5326705999905,612.4683506999863,611.5326705999905,612.4683506999863,611.5326705999905,612.4683506999863,611.5326705999905,612.4683506999863,611.5326705999905,612.4683506999863,612.4508188999025,612.9515724999364,612.4508188999025,612.9515724999364,612.4508188999025,612.9515724999364,612.4508188999025,612.9515724999364,612.4508188999025,612.9515724999364,612.4508188999025,612.9515724999364,612.4508188999025,612.9515724999364,612.4508188999025,612.9515724999364,611.5326705999905,None,612.9515724999364,614.4869958999334,0.9300000000000006,614.5042988999048,None,615.2558695999905,None,,,,,,,[1.53293478],2.8500000000000023,0.7391304347826086,11015,001,2024_Jan_04_1058,MFTM_A_new1021,2021.2.3,60.28901351194675,
,,,,,,,,stim/Instruction_adaptive.png,conditions/adaptive.xlsx,test,0.6,0.6,0.6,-0.6,-0.6,right,R,,,,,0,1,1,1,0,92,92,50,,,,,,,,,,,,,,,,,,,,,,,,,,,,,,,,,,,,,,,,,,,,615.7567544999765,None,right,1,1.7115777999861166,616.256961899926,617.6750576999038,616.256961899926,617.1742785999086,616.256961899926,617.1742785999086,616.256961899926,617.1742785999086,616.256961899926,617.1742785999086,616.256961899926,617.1742785999086,617.1576484999387,617.6584450999508,617.1576484999387,617.6584450999508,617.1576484999387,617.6584450999508,617.1576484999387,617.6584450999508,617.1576484999387,617.6584450999508,617.1576484999387,617.6584450999508,617.1576484999387,617.6584450999508,617.1576484999387,617.6584450999508,616.256961899926,None,617.6584450999508,619.1947730999673,0.9100000000000006,619.2110993999522,None,619.9632180999033,None,,,,,,,[1.53354839],2.870000000000002,0.7419354838709677,11015,001,2024_Jan_04_1058,MFTM_A_new1021,2021.2.3,60.28901351194675,
,,,,,,,,stim/Instruction_adaptive.png,conditions/adaptive.xlsx,test,-0.6,-0.6,-0.6,0.6,0.6,left,L,,,,,0,1,1,1,0,93,93,25,,,,,,,,,,,,,,,,,,,,,,,,,,,,,,,,,,,,,,,,,,,,620.4633250999032,None,right,0,1.6211134999757633,620.9633149999427,622.3660461999243,620.9633149999427,621.8653542000102,620.9633149999427,621.8653542000102,620.9633149999427,621.8653542000102,620.9633149999427,621.8653542000102,620.9633149999427,621.8653542000102,621.8478505999083,622.3497054999461,621.8478505999083,622.3497054999461,621.8478505999083,622.3497054999461,621.8478505999083,622.3497054999461,621.8478505999083,622.3497054999461,621.8478505999083,622.3497054999461,621.8478505999083,622.3497054999461,621.8478505999083,622.3497054999461,620.9633149999427,None,622.3497054999461,623.8851690998999,0.9000000000000006,623.9010177999735,None,624.65323419997,None,,,,,,,[1.53425532],2.8100000000000023,0.7340425531914894,11015,001,2024_Jan_04_1058,MFTM_A_new1021,2021.2.3,60.28901351194675,
