arrwidth1,arrwidth2,arrwidth3,arrwidth4,arrwidth5,keyb,type,orientation,instruction_image,block_filename,block_type,arrow11,arrow22,arrow33,arrow44,arrow55,keyb_3,orientation3,trials.thisRepN,trials.thisTrialN,trials.thisN,trials.thisIndex,trials_3.thisRepN,trials_3.thisTrialN,trials_3.thisN,trials_3.thisIndex,trials_2.thisRepN,trials_2.thisTrialN,trials_2.thisN,trials_2.thisIndex,welcome.started,welcome.stopped,key_resp.keys,key_resp.rt,key_resp.started,key_resp.stopped,instruction_example.started,instruction_example.stopped,key_resp_3.keys,key_resp_3.rt,key_resp_3.started,key_resp_3.stopped,instruction_task.started,instruction_task.stopped,key_resp_2.keys,key_resp_2.rt,key_resp_2.started,key_resp_2.stopped,text_2.started,text_2.stopped,A1.started,A1.stopped,A2.started,A2.stopped,A3.started,A3.stopped,A4.started,A4.stopped,A5.started,A5.stopped,key_resp_4.keys,key_resp_4.corr,key_resp_4.rt,key_resp_4.started,key_resp_4.stopped,fb.started,fb.stopped,instruction_block.started,instruction_block.stopped,key_resp_8.keys,key_resp_8.rt,key_resp_8.started,key_resp_8.stopped,text_8.started,text_8.stopped,key_resp_9.keys,key_resp_9.corr,key_resp_9.rt,text_5.started,text_5.stopped,A11_3.started,A11_3.stopped,A22_2.started,A22_2.stopped,A33_2.started,A33_2.stopped,A44_2.started,A44_2.stopped,A55_2.started,A55_2.stopped,M1_3.started,M1_3.stopped,M2_2.started,M2_2.stopped,M3_2.started,M3_2.stopped,M4_2.started,M4_2.stopped,M5_2.started,M5_2.stopped,M6_2.started,M6_2.stopped,M7_2.started,M7_2.stopped,M8_2.started,M8_2.stopped,key_resp_9.started,key_resp_9.stopped,fixation.started,fixation.stopped,ET,fb_3.started,fb_3.stopped,text_9.started,text_9.stopped,fb_4.started,fb_4.stopped,text_7.started,text_7.stopped,endtext.started,endtext.stopped,fixation_ITI,CCC,Acc,participant,session,date,expName,psychopyVersion,frameRate,
,,,,,,,,,,,,,,,,,,,,,,,,,,,,,,10.397601000033319,None,left,9.149931499967352,10.397601000033319,None,,,,,,,,,,,,,,,,,,,,,,,,,,,,,,,,,,,,,,,,,,,,,,,,,,,,,,,,,,,,,,,,,,,,,,,,,,,,,,,,,,,,,,,,,11018,001,2024_Jan_05_0800,MFTM_A_new1021,2021.2.3,60.23729879853563,
,,,,,,,,,,,,,,,,,,,,,,,,,,,,,,,,,,,,19.577895399997942,None,right,26.4970363000175,19.577895399997942,None,,,,,,,,,,,,,,,,,,,,,,,,,,,,,,,,,,,,,,,,,,,,,,,,,,,,,,,,,,,,,,,,,,,,,,,,,,,,,,,,,,,11018,001,2024_Jan_05_0800,MFTM_A_new1021,2021.2.3,60.23729879853563,
,,,,,,,,,,,,,,,,,,,,,,,,,,,,,,,,,,,,,,,,,,46.10016350005753,None,right,9.278883600025438,46.10016350005753,None,,,,,,,,,,,,,,,,,,,,,,,,,,,,,,,,,,,,,,,,,,,,,,,,,,,,,,,,,,,,,,,,,,,,,,,,,,,,,11018,001,2024_Jan_05_0800,MFTM_A_new1021,2021.2.3,60.23729879853563,
0.6,0.6,0.6,-0.6,-0.6,right,3:2,R,,,,,,,,,,,0,0,0,0,,,,,,,,,,,,,,,,,,,,,,,,,,,55.41432560002431,None,55.41432560002431,None,55.41432560002431,None,55.41432560002431,None,55.41432560002431,None,55.41432560002431,None,right,1,5.3570011999690905,55.41432560002431,None,60.80546280008275,None,,,,,,,,,,,,,,,,,,,,,,,,,,,,,,,,,,,,,,,,,,,,,,,,,,,,,,,,,,11018,001,2024_Jan_05_0800,MFTM_A_new1021,2021.2.3,60.23729879853563,
-0.6,-0.6,-0.6,0.6,0.6,left,3:2,L,,,,,,,,,,,0,1,1,1,,,,,,,,,,,,,,,,,,,,,,,,,,,61.55767570005264,None,61.55767570005264,None,61.55767570005264,None,61.55767570005264,None,61.55767570005264,None,61.55767570005264,None,left,1,3.222008500015363,61.55767570005264,None,64.7948290000204,None,,,,,,,,,,,,,,,,,,,,,,,,,,,,,,,,,,,,,,,,,,,,,,,,,,,,,,,,,,11018,001,2024_Jan_05_0800,MFTM_A_new1021,2021.2.3,60.23729879853563,
0.6,0.6,0.6,-0.6,-0.6,right,3:2,R,,,,,,,,,,,1,0,2,0,,,,,,,,,,,,,,,,,,,,,,,,,,,65.5456929000793,None,65.5456929000793,None,65.5456929000793,None,65.5456929000793,None,65.5456929000793,None,65.5456929000793,None,right,1,2.129348599934019,65.5456929000793,None,67.69907070009504,None,,,,,,,,,,,,,,,,,,,,,,,,,,,,,,,,,,,,,,,,,,,,,,,,,,,,,,,,,,11018,001,2024_Jan_05_0800,MFTM_A_new1021,2021.2.3,60.23729879853563,
-0.6,-0.6,-0.6,0.6,0.6,left,3:2,L,,,,,,,,,,,1,1,3,1,,,,,,,,,,,,,,,,,,,,,,,,,,,68.45085970009677,None,68.45085970009677,None,68.45085970009677,None,68.45085970009677,None,68.45085970009677,None,68.45085970009677,None,left,1,1.8000069000991061,68.45085970009677,None,70.2696860000724,None,,,,,,,,,,,,,,,,,,,,,,,,,,,,,,,,,,,,,,,,,,,,,,,,,,,,,,,,,,11018,001,2024_Jan_05_0800,MFTM_A_new1021,2021.2.3,60.23729879853563,
,,,,,,,,stim/Instruction_mask.png,conditions/adaptive.xlsx,practice,0.6,0.6,0.6,-0.6,-0.6,right,R,,,,,0,0,0,0,0,0,0,38,,,,,,,,,,,,,,,,,,,,,,,,,,,,,,,,,,,,,,71.20388060004916,None,right,46.119189299992286,71.20388060004916,None,117.423191400012,None,left,0,3.4415306999580935,117.85775150009431,None,117.85775150009431,120.8613134000916,117.85775150009431,120.8613134000916,117.85775150009431,120.8613134000916,117.85775150009431,120.8613134000916,117.85775150009431,120.8613134000916,120.84461530006956,121.34588050004095,120.84461530006956,121.34588050004095,120.84461530006956,121.34588050004095,120.84461530006956,121.34588050004095,120.84461530006956,121.34588050004095,120.84461530006956,121.34588050004095,120.84461530006956,121.34588050004095,120.84461530006956,121.34588050004095,117.85775150009431,None,121.34588050004095,121.34588050004095,3,121.36184900009539,None,122.11310010007583,None,,,,,,,,,,11018,001,2024_Jan_05_0800,MFTM_A_new1021,2021.2.3,60.23729879853563,
,,,,,,,,stim/Instruction_mask.png,conditions/adaptive.xlsx,practice,-0.6,-0.6,-0.6,0.6,0.6,left,L,,,,,0,0,0,0,0,1,1,75,,,,,,,,,,,,,,,,,,,,,,,,,,,,,,,,,,,,,,,,,,,,122.61450160003733,None,right,0,1.911562200053595,123.11549450003076,125.11792880005669,123.11549450003076,124.61675810010638,123.11549450003076,124.61675810010638,123.11549450003076,124.61675810010638,123.11549450003076,124.61675810010638,123.11549450003076,124.61675810010638,124.60091190005187,125.10175670008175,124.60091190005187,125.10175670008175,124.60091190005187,125.10175670008175,124.60091190005187,125.10175670008175,124.60091190005187,125.10175670008175,124.60091190005187,125.10175670008175,124.60091190005187,125.10175670008175,124.60091190005187,125.10175670008175,123.11549450003076,None,125.10175670008175,126.60330050007906,1.5,126.61964770010673,None,127.37082100007683,None,,,,,,,,,,11018,001,2024_Jan_05_0800,MFTM_A_new1021,2021.2.3,60.23729879853563,
,,,,,,,,stim/Instruction_mask.png,conditions/adaptive.xlsx,practice,-0.6,-0.6,-0.6,0.6,0.6,left,L,,,,,0,0,0,0,0,2,2,49,,,,,,,,,,,,,,,,,,,,,,,,,,,,,,,,,,,,,,,,,,,,127.87161490006838,None,left,1,2.790160500095226,128.3726787000196,129.67431050003506,128.3726787000196,129.1735979000805,128.3726787000196,129.1735979000805,128.3726787000196,129.1735979000805,128.3726787000196,129.1735979000805,128.3726787000196,129.1735979000805,129.15668870008085,129.65830830007326,129.15668870008085,129.65830830007326,129.15668870008085,129.65830830007326,129.15668870008085,129.65830830007326,129.15668870008085,129.65830830007326,129.15668870008085,129.65830830007326,129.15668870008085,129.65830830007326,129.15668870008085,129.65830830007326,128.3726787000196,None,129.65830830007326,131.86161330004688,0.8,131.87826120003592,None,132.62914050009567,None,,,,,,,,,,11018,001,2024_Jan_05_0800,MFTM_A_new1021,2021.2.3,60.23729879853563,
,,,,,,,,stim/Instruction_mask.png,conditions/adaptive.xlsx,practice,-0.6,-0.6,-0.6,0.6,0.6,left,L,,,,,0,0,0,0,0,3,3,67,,,,,,,,,,,,,,,,,,,,,,,,,,,,,,,,,,,,,,,,,,,,133.1299924000632,None,right,0,2.621896199998446,133.6301538000116,134.3820141000906,133.6301538000116,133.8804563001031,133.6301538000116,133.8804563001031,133.6301538000116,133.8804563001031,133.6301538000116,133.8804563001031,133.6301538000116,133.8804563001031,133.8646248000441,134.36561030009761,133.8646248000441,134.36561030009761,133.8646248000441,134.36561030009761,133.8646248000441,134.36561030009761,133.8646248000441,134.36561030009761,133.8646248000441,134.36561030009761,133.8646248000441,134.36561030009761,133.8646248000441,134.36561030009761,133.6301538000116,None,134.36561030009761,137.11929810000584,3,137.13528809999116,None,137.88649659999646,None,,,,,,,,,,11018,001,2024_Jan_05_0800,MFTM_A_new1021,2021.2.3,60.23729879853563,
,,,,,,,,stim/Instruction_mask.png,conditions/adaptive.xlsx,practice,,,,,,,,,,,,0,0,0,0,,,,,,,,,,,,,,,,,,,,,,,,,,,,,,,,,,,,,,,,,,,,,,,,,,,,,,,,,,,,,,,,,,,,,,,,,,,,,,,,,,,,,,,,,,138.40394310001284,139.40593040001113,139.38866810000036,139.38866810000036,139.38866810000036,None,,,,11018,001,2024_Jan_05_0800,MFTM_A_new1021,2021.2.3,60.23729879853563,
,,,,,,,,stim/Instruction_adaptive.png,conditions/adaptive.xlsx,test,-0.6,-0.6,-0.6,0.6,0.6,left,L,,,,,0,1,1,1,0,0,0,11,,,,,,,,,,,,,,,,,,,,,,,,,,,,,,,,,,,,,,142.5099232000066,None,right,21.293294699979015,142.5099232000066,None,163.84130500000902,None,left,1,2.716605499968864,164.3429224001011,None,164.3429224001011,167.3467344000237,164.3429224001011,167.3467344000237,164.3429224001011,167.3467344000237,164.3429224001011,167.3467344000237,164.3429224001011,167.3467344000237,167.32993310003076,167.8317547000479,167.32993310003076,167.8317547000479,167.32993310003076,167.8317547000479,167.32993310003076,167.8317547000479,167.32993310003076,167.8317547000479,167.32993310003076,167.8317547000479,167.32993310003076,167.8317547000479,167.32993310003076,167.8317547000479,164.3429224001011,None,167.8317547000479,167.8317547000479,3,167.8485579000553,None,168.59864320000634,None,,,,,,,0,6.000000000000005,1.0,11018,001,2024_Jan_05_0800,MFTM_A_new1021,2021.2.3,60.23729879853563,
,,,,,,,,stim/Instruction_adaptive.png,conditions/adaptive.xlsx,test,0.6,0.6,0.6,-0.6,-0.6,right,R,,,,,0,1,1,1,0,1,1,44,,,,,,,,,,,,,,,,,,,,,,,,,,,,,,,,,,,,,,,,,,,,169.09944000001997,None,right,1,1.3548179999925196,169.60017740004696,170.35132030001841,169.60017740004696,169.85100510006305,169.60017740004696,169.85100510006305,169.60017740004696,169.85100510006305,169.60017740004696,169.85100510006305,169.60017740004696,169.85100510006305,169.83378430001903,170.33455030003097,169.83378430001903,170.33455030003097,169.83378430001903,170.33455030003097,169.83378430001903,170.33455030003097,169.83378430001903,170.33455030003097,169.83378430001903,170.33455030003097,169.83378430001903,170.33455030003097,169.83378430001903,170.33455030003097,169.60017740004696,None,170.33455030003097,171.21897750010248,0.25,171.23586380004417,None,171.98795110010542,None,,,,,,,[0.875],6.000000000000005,1.0,11018,001,2024_Jan_05_0800,MFTM_A_new1021,2021.2.3,60.23729879853563,
,,,,,,,,stim/Instruction_adaptive.png,conditions/adaptive.xlsx,test,0.6,0.6,0.6,-0.6,-0.6,right,R,,,,,0,1,1,1,0,2,2,92,,,,,,,,,,,,,,,,,,,,,,,,,,,,,,,,,,,,,,,,,,,,172.48796000005677,None,left,0,1.614985299995169,172.98891080007888,173.74022840010002,172.98891080007888,173.23867750004865,172.98891080007888,173.23867750004865,172.98891080007888,173.23867750004865,172.98891080007888,173.23867750004865,172.98891080007888,173.23867750004865,173.22198350005783,173.72315040009562,173.22198350005783,173.72315040009562,173.22198350005783,173.72315040009562,173.22198350005783,173.72315040009562,173.22198350005783,173.72315040009562,173.22198350005783,173.72315040009562,173.22198350005783,173.72315040009562,173.22198350005783,173.72315040009562,172.98891080007888,None,173.72315040009562,175.0581868001027,0.25,175.07472960010637,None,175.82616820000112,None,,,,,,,[1.33333333],3.1800000000000024,0.6666666666666666,11018,001,2024_Jan_05_0800,MFTM_A_new1021,2021.2.3,60.23729879853563,
,,,,,,,,stim/Instruction_adaptive.png,conditions/adaptive.xlsx,test,0.6,0.6,0.6,-0.6,-0.6,right,R,,,,,0,1,1,1,0,3,3,22,,,,,,,,,,,,,,,,,,,,,,,,,,,,,,,,,,,,,,,,,,,,176.32652110001072,None,right,1,1.127607800066471,176.82757379999384,178.06297690002248,176.82757379999384,177.5629836000735,176.82757379999384,177.5629836000735,176.82757379999384,177.5629836000735,176.82757379999384,177.5629836000735,176.82757379999384,177.5629836000735,177.54557680001017,178.04591220000293,177.54557680001017,178.04591220000293,177.54557680001017,178.04591220000293,177.54557680001017,178.04591220000293,177.54557680001017,178.04591220000293,177.54557680001017,178.04591220000293,177.54557680001017,178.04591220000293,177.54557680001017,178.04591220000293,176.82757379999384,None,178.04591220000293,179.49818370002322,0.7300000000000004,179.51503320003394,None,180.26639050000813,None,,,,,,,[1.4425],4.030000000000003,0.75,11018,001,2024_Jan_05_0800,MFTM_A_new1021,2021.2.3,60.23729879853563,
,,,,,,,,stim/Instruction_adaptive.png,conditions/adaptive.xlsx,test,-0.6,-0.6,-0.6,0.6,0.6,left,L,,,,,0,1,1,1,0,4,4,5,,,,,,,,,,,,,,,,,,,,,,,,,,,,,,,,,,,,,,,,,,,,180.76649670000188,None,left,1,1.4396929000504315,181.26808970002457,182.16936270007864,181.26808970002457,181.6680557000218,181.26808970002457,181.6680557000218,181.26808970002457,181.6680557000218,181.26808970002457,181.6680557000218,181.26808970002457,181.6680557000218,181.65116990008391,182.1523425000487,181.65116990008391,182.1523425000487,181.65116990008391,182.1523425000487,181.65116990008391,182.1523425000487,181.65116990008391,182.1523425000487,181.65116990008391,182.1523425000487,181.65116990008391,182.1523425000487,181.65116990008391,182.1523425000487,181.26808970002457,None,182.1523425000487,183.73916780005675,0.40000000000000013,183.75434099999256,None,184.50629260006826,None,,,,,,,[1.574],4.550000000000003,0.8,11018,001,2024_Jan_05_0800,MFTM_A_new1021,2021.2.3,60.23729879853563,
,,,,,,,,stim/Instruction_adaptive.png,conditions/adaptive.xlsx,test,0.6,0.6,0.6,-0.6,-0.6,right,R,,,,,0,1,1,1,0,5,5,32,,,,,,,,,,,,,,,,,,,,,,,,,,,,,,,,,,,,,,,,,,,,185.00750450009946,None,left,0,1.7532155000371858,185.50682450004388,186.2923490999965,185.50682450004388,185.79123720002826,185.50682450004388,185.79123720002826,185.50682450004388,185.79123720002826,185.50682450004388,185.79123720002826,185.50682450004388,185.79123720002826,185.77463350002654,186.27464250009507,185.77463350002654,186.27464250009507,185.77463350002654,186.27464250009507,185.77463350002654,186.27464250009507,185.77463350002654,186.27464250009507,185.77463350002654,186.27464250009507,185.77463350002654,186.27464250009507,185.77463350002654,186.27464250009507,185.50682450004388,None,186.27464250009507,187.9617935999995,0.28,187.97720810002647,None,188.72933100000955,None,,,,,,,[1.68166667],3.5900000000000025,0.6666666666666666,11018,001,2024_Jan_05_0800,MFTM_A_new1021,2021.2.3,60.23729879853563,
,,,,,,,,stim/Instruction_adaptive.png,conditions/adaptive.xlsx,test,0.6,0.6,0.6,-0.6,-0.6,right,R,,,,,0,1,1,1,0,6,6,0,,,,,,,,,,,,,,,,,,,,,,,,,,,,,,,,,,,,,,,,,,,,189.229103700025,None,right,1,1.802638699999079,189.73016200005077,190.7815289000282,189.73016200005077,190.28066470008343,189.73016200005077,190.28066470008343,189.73016200005077,190.28066470008343,189.73016200005077,190.28066470008343,189.73016200005077,190.28066470008343,190.26467980002053,190.7648043000372,190.26467980002053,190.7648043000372,190.26467980002053,190.7648043000372,190.26467980002053,190.7648043000372,190.26467980002053,190.7648043000372,190.26467980002053,190.7648043000372,190.26467980002053,190.7648043000372,190.26467980002053,190.7648043000372,189.73016200005077,None,190.7648043000372,None,0.5500000000000003,192.50066150003113,None,193.25192070007324,None,,,,,,,[1.72],4.0000000000000036,0.7142857142857143,11018,001,2024_Jan_05_0800,MFTM_A_new1021,2021.2.3,60.23729879853563,
,,,,,,,,stim/Instruction_adaptive.png,conditions/adaptive.xlsx,test,-0.6,-0.6,-0.6,0.6,0.6,left,L,,,,,0,1,1,1,0,7,7,97,,,,,,,,,,,,,,,,,,,,,,,,,,,,,,,,,,,,,,,,,,,,193.75330660003237,None,left,1,1.6708787999814376,194.2536684999941,195.17196060006972,194.2536684999941,194.6703606999945,194.2536684999941,194.6703606999945,194.2536684999941,194.6703606999945,194.2536684999941,194.6703606999945,194.2536684999941,194.6703606999945,194.6380613000365,195.13863160007168,194.6380613000365,195.13863160007168,194.6380613000365,195.13863160007168,194.6380613000365,195.13863160007168,194.6380613000365,195.13863160007168,194.6380613000365,195.13863160007168,194.6380613000365,195.13863160007168,194.6380613000365,195.13863160007168,194.2536684999941,None,195.13863160007168,196.90775720006786,0.41000000000000014,196.94119170005433,None,197.69226430007257,None,,,,,,,[1.76625],4.290000000000004,0.75,11018,001,2024_Jan_05_0800,MFTM_A_new1021,2021.2.3,60.23729879853563,
,,,,,,,,stim/Instruction_adaptive.png,conditions/adaptive.xlsx,test,0.6,0.6,0.6,-0.6,-0.6,right,R,,,,,0,1,1,1,0,8,8,56,,,,,,,,,,,,,,,,,,,,,,,,,,,,,,,,,,,,,,,,,,,,198.19252050004434,None,right,1,1.1815083000110462,198.69391060003545,199.5444742999971,198.69391060003545,199.0439241999993,198.69391060003545,199.0439241999993,198.69391060003545,199.0439241999993,198.69391060003545,199.0439241999993,198.69391060003545,199.0439241999993,199.01039750000928,199.51169760001358,199.01039750000928,199.51169760001358,199.01039750000928,199.51169760001358,199.01039750000928,199.51169760001358,199.01039750000928,199.51169760001358,199.01039750000928,199.51169760001358,199.01039750000928,199.51169760001358,199.01039750000928,199.51169760001358,198.69391060003545,None,199.51169760001358,201.33043720002752,0.3400000000000001,201.34717340010684,None,202.09833250008523,None,,,,,,,[1.81],4.520000000000003,0.7777777777777778,11018,001,2024_Jan_05_0800,MFTM_A_new1021,2021.2.3,60.23729879853563,
,,,,,,,,stim/Instruction_adaptive.png,conditions/adaptive.xlsx,test,-0.6,-0.6,-0.6,0.6,0.6,left,L,,,,,0,1,1,1,0,9,9,61,,,,,,,,,,,,,,,,,,,,,,,,,,,,,,,,,,,,,,,,,,,,202.60007680009585,None,left,1,1.6786454999819398,203.10040100000333,203.9021777000744,203.10040100000333,203.4000610000221,203.10040100000333,203.4000610000221,203.10040100000333,203.4000610000221,203.10040100000333,203.4000610000221,203.10040100000333,203.4000610000221,203.36676160001662,203.8673619000474,203.36676160001662,203.8673619000474,203.36676160001662,203.8673619000474,203.36676160001662,203.8673619000474,203.36676160001662,203.8673619000474,203.36676160001662,203.8673619000474,203.36676160001662,203.8673619000474,203.36676160001662,203.8673619000474,203.10040100000333,None,203.8673619000474,205.721408200101,0.29000000000000004,205.75375460006762,None,206.50548910000362,None,,,,,,,[1.85],4.7100000000000035,0.8,11018,001,2024_Jan_05_0800,MFTM_A_new1021,2021.2.3,60.23729879853563,
,,,,,,,,stim/Instruction_adaptive.png,conditions/adaptive.xlsx,test,0.6,0.6,0.6,-0.6,-0.6,right,R,,,,,0,1,1,1,0,10,10,34,,,,,,,,,,,,,,,,,,,,,,,,,,,,,,,,,,,,,,,,,,,,207.0065569001017,None,left,0,1.2249674000777304,207.5062392000109,208.25770690001082,207.5062392000109,207.75671770004556,207.5062392000109,207.75671770004556,207.5062392000109,207.75671770004556,207.5062392000109,207.75671770004556,207.5062392000109,207.75671770004556,207.73994430003222,208.2418628000887,207.73994430003222,208.2418628000887,207.73994430003222,208.2418628000887,207.73994430003222,208.2418628000887,207.73994430003222,208.2418628000887,207.73994430003222,208.2418628000887,207.73994430003222,208.2418628000887,207.73994430003222,208.2418628000887,207.5062392000109,None,208.2418628000887,None,0.25,210.1434612000594,None,210.8953191000037,None,,,,,,,[1.88636364],4.240000000000004,0.7272727272727273,11018,001,2024_Jan_05_0800,MFTM_A_new1021,2021.2.3,60.23729879853563,
,,,,,,,,stim/Instruction_adaptive.png,conditions/adaptive.xlsx,test,-0.6,-0.6,-0.6,0.6,0.6,left,L,,,,,0,1,1,1,0,11,11,59,,,,,,,,,,,,,,,,,,,,,,,,,,,,,,,,,,,,,,,,,,,,211.39616570004728,None,left,1,1.6032981999451295,211.89617660001386,212.7473843001062,211.89617660001386,212.24677280010656,211.89617660001386,212.24677280010656,211.89617660001386,212.24677280010656,211.89617660001386,212.24677280010656,211.89617660001386,212.24677280010656,212.230630200007,212.73136750003323,212.230630200007,212.73136750003323,212.230630200007,212.73136750003323,212.230630200007,212.73136750003323,212.230630200007,212.73136750003323,212.230630200007,212.73136750003323,212.230630200007,212.73136750003323,212.230630200007,212.73136750003323,211.89617660001386,None,212.73136750003323,214.65043680008966,0.3500000000000001,214.66688930010423,None,215.41847810009494,None,,,,,,,[1.90833333],4.4200000000000035,0.75,11018,001,2024_Jan_05_0800,MFTM_A_new1021,2021.2.3,60.23729879853563,
,,,,,,,,stim/Instruction_adaptive.png,conditions/adaptive.xlsx,test,-0.6,-0.6,-0.6,0.6,0.6,left,L,,,,,0,1,1,1,0,12,12,63,,,,,,,,,,,,,,,,,,,,,,,,,,,,,,,,,,,,,,,,,,,,215.91900930006523,None,left,1,1.3199698999524117,216.41939370008186,217.23814320005476,216.41939370008186,216.73794370004907,216.41939370008186,216.73794370004907,216.41939370008186,216.73794370004907,216.41939370008186,216.73794370004907,216.41939370008186,216.73794370004907,216.70452280004974,217.20455100003164,216.70452280004974,217.20455100003164,216.70452280004974,217.20455100003164,216.70452280004974,217.20455100003164,216.70452280004974,217.20455100003164,216.70452280004974,217.20455100003164,216.70452280004974,217.20455100003164,216.70452280004974,217.20455100003164,216.41939370008186,None,217.20455100003164,219.14020160003565,0.31000000000000005,219.17360840004403,None,219.92550280003343,None,,,,,,,[1.93],4.580000000000004,0.7692307692307693,11018,001,2024_Jan_05_0800,MFTM_A_new1021,2021.2.3,60.23729879853563,
,,,,,,,,stim/Instruction_adaptive.png,conditions/adaptive.xlsx,test,-0.6,-0.6,-0.6,0.6,0.6,left,L,,,,,0,1,1,1,0,13,13,49,,,,,,,,,,,,,,,,,,,,,,,,,,,,,,,,,,,,,,,,,,,,220.42590790009126,None,right,0,1.3490176000632346,220.92615860002115,221.71122260007542,220.92615860002115,221.20989110006485,220.92615860002115,221.20989110006485,220.92615860002115,221.20989110006485,220.92615860002115,221.20989110006485,220.92615860002115,221.20989110006485,221.19322780007496,221.69479420001153,221.19322780007496,221.69479420001153,221.19322780007496,221.69479420001153,221.19322780007496,221.69479420001153,221.19322780007496,221.69479420001153,221.19322780007496,221.69479420001153,221.19322780007496,221.69479420001153,221.19322780007496,221.69479420001153,220.92615860002115,None,221.69479420001153,223.6468430000823,0.28,223.6642584000947,None,224.41577560000587,None,,,,,,,[1.95071429],4.180000000000003,0.7142857142857143,11018,001,2024_Jan_05_0800,MFTM_A_new1021,2021.2.3,60.23729879853563,
,,,,,,,,stim/Instruction_adaptive.png,conditions/adaptive.xlsx,test,-0.6,-0.6,-0.6,0.6,0.6,left,L,,,,,0,1,1,1,0,14,14,77,,,,,,,,,,,,,,,,,,,,,,,,,,,,,,,,,,,,,,,,,,,,224.91665640007704,None,right,0,1.4194705000845715,225.41606290009804,226.28443450003397,225.41606290009804,225.78348600002937,225.41606290009804,225.78348600002937,225.41606290009804,225.78348600002937,225.41606290009804,225.78348600002937,225.41606290009804,225.78348600002937,225.75072790007107,226.25158410007134,225.75072790007107,226.25158410007134,225.75072790007107,226.25158410007134,225.75072790007107,226.25158410007134,225.75072790007107,226.25158410007134,225.75072790007107,226.25158410007134,225.75072790007107,226.25158410007134,225.75072790007107,226.25158410007134,225.41606290009804,None,226.25158410007134,228.2202638000017,0.3600000000000001,228.25383610010613,None,229.00479220005218,None,,,,,,,[1.96333333],3.720000000000003,0.6666666666666666,11018,001,2024_Jan_05_0800,MFTM_A_new1021,2021.2.3,60.23729879853563,
,,,,,,,,stim/Instruction_adaptive.png,conditions/adaptive.xlsx,test,0.6,0.6,0.6,-0.6,-0.6,right,R,,,,,0,1,1,1,0,15,15,52,,,,,,,,,,,,,,,,,,,,,,,,,,,,,,,,,,,,,,,,,,,,229.50618260004558,None,left,0,1.372883899952285,230.0062581000384,231.008937500068,230.0062581000384,230.5069357000757,230.0062581000384,230.5069357000757,230.0062581000384,230.5069357000757,230.0062581000384,230.5069357000757,230.0062581000384,230.5069357000757,230.48982800007798,230.9909205000149,230.48982800007798,230.9909205000149,230.48982800007798,230.9909205000149,230.48982800007798,230.9909205000149,230.48982800007798,230.9909205000149,230.48982800007798,230.9909205000149,230.48982800007798,230.9909205000149,230.48982800007798,230.9909205000149,230.0062581000384,None,230.9909205000149,232.96075420000125,0.5000000000000002,232.97797420003917,None,233.72880770009942,None,,,,,,,[1.965625],3.150000000000002,0.625,11018,001,2024_Jan_05_0800,MFTM_A_new1021,2021.2.3,60.23729879853563,
,,,,,,,,stim/Instruction_adaptive.png,conditions/adaptive.xlsx,test,0.6,0.6,0.6,-0.6,-0.6,right,R,,,,,0,1,1,1,0,16,16,48,,,,,,,,,,,,,,,,,,,,,,,,,,,,,,,,,,,,,,,,,,,,234.22965600003954,None,left,0,1.4578739000717178,234.7299143000273,235.98174900002778,234.7299143000273,235.48178999999072,234.7299143000273,235.48178999999072,234.7299143000273,235.48178999999072,234.7299143000273,235.48178999999072,234.7299143000273,235.48178999999072,235.44757600000594,235.94850890000816,235.44757600000594,235.94850890000816,235.44757600000594,235.94850890000816,235.44757600000594,235.94850890000816,235.44757600000594,235.94850890000816,235.44757600000594,235.94850890000816,235.44757600000594,235.94850890000816,235.44757600000594,235.94850890000816,234.7299143000273,None,235.94850890000816,237.71972170006484,0.7400000000000004,237.7341807000339,None,238.48628010007087,None,,,,,,,[[1.76]],2.3900000000000015,0.5882352941176471,11018,001,2024_Jan_05_0800,MFTM_A_new1021,2021.2.3,60.23729879853563,
,,,,,,,,stim/Instruction_adaptive.png,conditions/adaptive.xlsx,test,-0.6,-0.6,-0.6,0.6,0.6,left,L,,,,,0,1,1,1,0,17,17,91,,,,,,,,,,,,,,,,,,,,,,,,,,,,,,,,,,,,,,,,,,,,238.98708920006175,None,left,1,1.8282172000035644,239.48701680009253,241.25692900002468,239.48701680009253,240.7554594000103,239.48701680009253,240.7554594000103,239.48701680009253,240.7554594000103,239.48701680009253,240.7554594000103,239.48701680009253,240.7554594000103,240.7386365000857,241.24027830001432,240.7386365000857,241.24027830001432,240.7386365000857,241.24027830001432,240.7386365000857,241.24027830001432,240.7386365000857,241.24027830001432,240.7386365000857,241.24027830001432,240.7386365000857,241.24027830001432,240.7386365000857,241.24027830001432,239.48701680009253,None,241.24027830001432,None,1.260000000000001,242.49140669999178,None,243.24354310007766,None,,,,,,,[[1.24]],2.720000000000002,0.6111111111111112,11018,001,2024_Jan_05_0800,MFTM_A_new1021,2021.2.3,60.23729879853563,
,,,,,,,,stim/Instruction_adaptive.png,conditions/adaptive.xlsx,test,0.6,0.6,0.6,-0.6,-0.6,right,R,,,,,0,1,1,1,0,18,18,42,,,,,,,,,,,,,,,,,,,,,,,,,,,,,,,,,,,,,,,,,,,,243.7435365000274,None,left,0,1.2952403000090271,244.24416610004846,245.7461949000135,244.24416610004846,245.2456498000538,244.24416610004846,245.2456498000538,244.24416610004846,245.2456498000538,244.24416610004846,245.2456498000538,244.24416610004846,245.2456498000538,245.22940030007157,245.72978040005546,245.22940030007157,245.72978040005546,245.22940030007157,245.72978040005546,245.22940030007157,245.72978040005546,245.22940030007157,245.72978040005546,245.22940030007157,245.72978040005546,245.22940030007157,245.72978040005546,245.22940030007157,245.72978040005546,244.24416610004846,None,245.72978040005546,247.2329543000087,1.0000000000000007,247.2483351000119,None,247.99992130009923,None,,,,,,,[[1.5]],1.9500000000000013,0.5789473684210527,11018,001,2024_Jan_05_0800,MFTM_A_new1021,2021.2.3,60.23729879853563,
,,,,,,,,stim/Instruction_adaptive.png,conditions/adaptive.xlsx,test,0.6,0.6,0.6,-0.6,-0.6,right,R,,,,,0,1,1,1,0,19,19,98,,,,,,,,,,,,,,,,,,,,,,,,,,,,,,,,,,,,,,,,,,,,248.50035440002102,None,left,0,1.5870927000651136,249.0010700999992,251.20416190009564,249.0010700999992,250.70351270004176,249.0010700999992,250.70351270004176,249.0010700999992,250.70351270004176,249.0010700999992,250.70351270004176,249.0010700999992,250.70351270004176,250.68676000006963,251.1874170000665,250.68676000006963,251.1874170000665,250.68676000006963,251.1874170000665,250.68676000006963,251.1874170000665,250.68676000006963,251.1874170000665,250.68676000006963,251.1874170000665,250.68676000006963,251.1874170000665,250.68676000006963,251.1874170000665,249.0010700999992,None,251.1874170000665,251.9890003000619,1.7000000000000013,252.00590290001128,None,252.75755000009667,None,,,,,,,[[0.8]],0.6200000000000001,0.55,11018,001,2024_Jan_05_0800,MFTM_A_new1021,2021.2.3,60.23729879853563,
,,,,,,,,stim/Instruction_adaptive.png,conditions/adaptive.xlsx,test,0.6,0.6,0.6,-0.6,-0.6,right,R,,,,,0,1,1,1,0,20,20,62,,,,,,,,,,,,,,,,,,,,,,,,,,,,,,,,,,,,,,,,,,,,253.25839480001014,None,left,0,1.8454748999793082,253.75789980008267,None,253.75789980008267,256.7630727000069,253.75789980008267,256.7630727000069,253.75789980008267,256.7630727000069,253.75789980008267,256.7630727000069,253.75789980008267,256.7630727000069,256.74589680007193,257.2472894000821,256.74589680007193,257.2472894000821,256.74589680007193,257.2472894000821,256.74589680007193,257.2472894000821,256.74589680007193,257.2472894000821,256.74589680007193,257.2472894000821,256.74589680007193,257.2472894000821,256.74589680007193,257.2472894000821,253.75789980008267,None,257.2472894000821,257.2472894000821,3.0000000000000027,257.2643366000848,None,258.0148850000696,None,,,,,,,0,0.5,0.5238095238095238,11018,001,2024_Jan_05_0800,MFTM_A_new1021,2021.2.3,60.23729879853563,
,,,,,,,,stim/Instruction_adaptive.png,conditions/adaptive.xlsx,test,0.6,0.6,0.6,-0.6,-0.6,right,R,,,,,0,1,1,1,0,21,21,86,,,,,,,,,,,,,,,,,,,,,,,,,,,,,,,,,,,,,,,,,,,,258.515898300102,None,right,1,1.9707858000183478,259.0166063000215,None,259.0166063000215,262.0204911000328,259.0166063000215,262.0204911000328,259.0166063000215,262.0204911000328,259.0166063000215,262.0204911000328,259.0166063000215,262.0204911000328,262.00350460002664,262.5045182000613,262.00350460002664,262.5045182000613,262.00350460002664,262.5045182000613,262.00350460002664,262.5045182000613,262.00350460002664,262.5045182000613,262.00350460002664,262.5045182000613,262.00350460002664,262.5045182000613,262.00350460002664,262.5045182000613,259.0166063000215,None,262.5045182000613,262.5045182000613,3.0000000000000027,262.5211788000306,None,263.27304440003354,None,,,,,,,0,0.5,0.5454545454545454,11018,001,2024_Jan_05_0800,MFTM_A_new1021,2021.2.3,60.23729879853563,
,,,,,,,,stim/Instruction_adaptive.png,conditions/adaptive.xlsx,test,-0.6,-0.6,-0.6,0.6,0.6,left,L,,,,,0,1,1,1,0,22,22,27,,,,,,,,,,,,,,,,,,,,,,,,,,,,,,,,,,,,,,,,,,,,263.7737695000833,None,left,1,1.776989599922672,264.2742725000717,None,264.2742725000717,267.2782983999932,264.2742725000717,267.2782983999932,264.2742725000717,267.2782983999932,264.2742725000717,267.2782983999932,264.2742725000717,267.2782983999932,267.2617530000862,267.7622316000052,267.2617530000862,267.7622316000052,267.2617530000862,267.7622316000052,267.2617530000862,267.7622316000052,267.2617530000862,267.7622316000052,267.2617530000862,267.7622316000052,267.2617530000862,267.7622316000052,267.2617530000862,267.7622316000052,264.2742725000717,None,267.7622316000052,267.7622316000052,3.0000000000000027,267.77888280001935,None,268.5300744000124,None,,,,,,,0,0.5,0.5652173913043478,11018,001,2024_Jan_05_0800,MFTM_A_new1021,2021.2.3,60.23729879853563,
,,,,,,,,stim/Instruction_adaptive.png,conditions/adaptive.xlsx,test,0.6,0.6,0.6,-0.6,-0.6,right,R,,,,,0,1,1,1,0,23,23,74,,,,,,,,,,,,,,,,,,,,,,,,,,,,,,,,,,,,,,,,,,,,269.03143050009385,None,right,1,2.336008100071922,269.53149050008506,None,269.53149050008506,272.5360753000714,269.53149050008506,272.5360753000714,269.53149050008506,272.5360753000714,269.53149050008506,272.5360753000714,269.53149050008506,272.5360753000714,272.5192831000313,273.01999320008326,272.5192831000313,273.01999320008326,272.5192831000313,273.01999320008326,272.5192831000313,273.01999320008326,272.5192831000313,273.01999320008326,272.5192831000313,273.01999320008326,272.5192831000313,273.01999320008326,272.5192831000313,273.01999320008326,269.53149050008506,None,273.01999320008326,273.01999320008326,3.0000000000000027,273.0377265000716,None,273.7884036001051,None,,,,,,,0,0.9400000000000004,0.5833333333333334,11018,001,2024_Jan_05_0800,MFTM_A_new1021,2021.2.3,60.23729879853563,
,,,,,,,,stim/Instruction_adaptive.png,conditions/adaptive.xlsx,test,0.6,0.6,0.6,-0.6,-0.6,right,R,,,,,0,1,1,1,0,24,24,94,,,,,,,,,,,,,,,,,,,,,,,,,,,,,,,,,,,,,,,,,,,,274.28850380005315,None,right,1,1.5013327000197023,274.7899875000585,None,274.7899875000585,277.79360400000587,274.7899875000585,277.79360400000587,274.7899875000585,277.79360400000587,274.7899875000585,277.79360400000587,274.7899875000585,277.79360400000587,277.7768762001069,278.277801200049,277.7768762001069,278.277801200049,277.7768762001069,278.277801200049,277.7768762001069,278.277801200049,277.7768762001069,278.277801200049,277.7768762001069,278.277801200049,277.7768762001069,278.277801200049,277.7768762001069,278.277801200049,274.7899875000585,None,278.277801200049,278.277801200049,3.0000000000000027,278.29451710009016,None,279.04554320010357,None,,,,,,,0,1.2300000000000006,0.6,11018,001,2024_Jan_05_0800,MFTM_A_new1021,2021.2.3,60.23729879853563,
,,,,,,,,stim/Instruction_adaptive.png,conditions/adaptive.xlsx,test,0.6,0.6,0.6,-0.6,-0.6,right,R,,,,,0,1,1,1,0,25,25,24,,,,,,,,,,,,,,,,,,,,,,,,,,,,,,,,,,,,,,,,,,,,279.5474571000086,None,left,0,1.7719522999832407,280.04738280002493,None,280.04738280002493,282.8512076000916,280.04738280002493,282.8512076000916,280.04738280002493,282.8512076000916,280.04738280002493,282.8512076000916,280.04738280002493,282.8512076000916,282.83464250003453,283.33668870001566,282.83464250003453,283.33668870001566,282.83464250003453,283.33668870001566,282.83464250003453,283.33668870001566,282.83464250003453,283.33668870001566,282.83464250003453,283.33668870001566,282.83464250003453,283.33668870001566,282.83464250003453,283.33668870001566,280.04738280002493,None,283.33668870001566,283.33668870001566,2.8000000000000025,283.3513864000561,None,284.10372020001523,None,,,,,,,0,0.5,0.5769230769230769,11018,001,2024_Jan_05_0800,MFTM_A_new1021,2021.2.3,60.23729879853563,
,,,,,,,,stim/Instruction_adaptive.png,conditions/adaptive.xlsx,test,-0.6,-0.6,-0.6,0.6,0.6,left,L,,,,,0,1,1,1,0,26,26,75,,,,,,,,,,,,,,,,,,,,,,,,,,,,,,,,,,,,,,,,,,,,284.6047195000574,None,left,1,2.8428008999908343,285.10442310001235,None,285.10442310001235,288.1090228999965,285.10442310001235,288.1090228999965,285.10442310001235,288.1090228999965,285.10442310001235,288.1090228999965,285.10442310001235,288.1090228999965,288.092311500106,288.59296650008764,288.092311500106,288.59296650008764,288.092311500106,288.59296650008764,288.092311500106,288.59296650008764,288.092311500106,288.59296650008764,288.092311500106,288.59296650008764,288.092311500106,288.59296650008764,288.092311500106,288.59296650008764,285.10442310001235,None,288.59296650008764,288.59296650008764,3.0000000000000027,288.60964760009665,None,289.3609369000187,None,,,,,,,0,0.8100000000000003,0.5925925925925926,11018,001,2024_Jan_05_0800,MFTM_A_new1021,2021.2.3,60.23729879853563,
,,,,,,,,stim/Instruction_adaptive.png,conditions/adaptive.xlsx,test,-0.6,-0.6,-0.6,0.6,0.6,left,L,,,,,0,1,1,1,0,27,27,29,,,,,,,,,,,,,,,,,,,,,,,,,,,,,,,,,,,,,,,,,,,,289.8624572000699,None,left,1,2.1047182999318466,290.3624308001017,None,290.3624308001017,293.36751540005207,290.3624308001017,293.36751540005207,290.3624308001017,293.36751540005207,290.3624308001017,293.36751540005207,290.3624308001017,293.36751540005207,293.3511933000991,293.85102110006846,293.3511933000991,293.85102110006846,293.3511933000991,293.85102110006846,293.3511933000991,293.85102110006846,293.3511933000991,293.85102110006846,293.3511933000991,293.85102110006846,293.3511933000991,293.85102110006846,293.3511933000991,293.85102110006846,290.3624308001017,None,293.85102110006846,293.85102110006846,3.0000000000000027,293.867599899997,None,294.6191717000911,None,,,,,,,0,1.0500000000000005,0.6071428571428571,11018,001,2024_Jan_05_0800,MFTM_A_new1021,2021.2.3,60.23729879853563,
,,,,,,,,stim/Instruction_adaptive.png,conditions/adaptive.xlsx,test,-0.6,-0.6,-0.6,0.6,0.6,left,L,,,,,0,1,1,1,0,28,28,69,,,,,,,,,,,,,,,,,,,,,,,,,,,,,,,,,,,,,,,,,,,,295.11989160010125,None,left,1,1.8155128000071272,295.62012810003944,None,295.62012810003944,298.6255672000116,295.62012810003944,298.6255672000116,295.62012810003944,298.6255672000116,295.62012810003944,298.6255672000116,295.62012810003944,298.6255672000116,298.60850760003086,299.1097857001005,298.60850760003086,299.1097857001005,298.60850760003086,299.1097857001005,298.60850760003086,299.1097857001005,298.60850760003086,299.1097857001005,298.60850760003086,299.1097857001005,298.60850760003086,299.1097857001005,298.60850760003086,299.1097857001005,295.62012810003944,None,299.1097857001005,299.1097857001005,3.0000000000000027,299.12546740006655,None,299.87678590009455,None,,,,,,,0,1.2300000000000006,0.6206896551724138,11018,001,2024_Jan_05_0800,MFTM_A_new1021,2021.2.3,60.23729879853563,
,,,,,,,,stim/Instruction_adaptive.png,conditions/adaptive.xlsx,test,-0.6,-0.6,-0.6,0.6,0.6,left,L,,,,,0,1,1,1,0,29,29,89,,,,,,,,,,,,,,,,,,,,,,,,,,,,,,,,,,,,,,,,,,,,300.37708190002013,None,left,1,2.9494980999734253,300.87837190006394,None,300.87837190006394,303.68199420010205,300.87837190006394,303.68199420010205,300.87837190006394,303.68199420010205,300.87837190006394,303.68199420010205,300.87837190006394,303.68199420010205,303.66552060004324,304.16690579999704,303.66552060004324,304.16690579999704,303.66552060004324,304.16690579999704,303.66552060004324,304.16690579999704,303.66552060004324,304.16690579999704,303.66552060004324,304.16690579999704,303.66552060004324,304.16690579999704,303.66552060004324,304.16690579999704,300.87837190006394,None,304.16690579999704,304.16690579999704,2.8000000000000025,304.1836233000504,None,304.9347623999929,None,,,,,,,0,1.3800000000000008,0.6333333333333333,11018,001,2024_Jan_05_0800,MFTM_A_new1021,2021.2.3,60.23729879853563,
,,,,,,,,stim/Instruction_adaptive.png,conditions/adaptive.xlsx,test,0.6,0.6,0.6,-0.6,-0.6,right,R,,,,,0,1,1,1,0,30,30,4,,,,,,,,,,,,,,,,,,,,,,,,,,,,,,,,,,,,,,,,,,,,305.4347306001,None,right,1,2.8118843000847846,305.9354284000583,None,305.9354284000583,308.47300900006667,305.9354284000583,308.47300900006667,305.9354284000583,308.47300900006667,305.9354284000583,308.47300900006667,305.9354284000583,308.47300900006667,308.43927840003744,308.9414795000339,308.43927840003744,308.9414795000339,308.43927840003744,308.9414795000339,308.43927840003744,308.9414795000339,308.43927840003744,308.9414795000339,308.43927840003744,308.9414795000339,308.43927840003744,308.9414795000339,308.43927840003744,308.9414795000339,305.9354284000583,None,308.9414795000339,308.9414795000339,2.530000000000002,308.9732303000055,None,309.72430910007097,None,,,,,,,0,1.510000000000001,0.6451612903225806,11018,001,2024_Jan_05_0800,MFTM_A_new1021,2021.2.3,60.23729879853563,
,,,,,,,,stim/Instruction_adaptive.png,conditions/adaptive.xlsx,test,0.6,0.6,0.6,-0.6,-0.6,right,R,,,,,0,1,1,1,0,31,31,38,,,,,,,,,,,,,,,,,,,,,,,,,,,,,,,,,,,,,,,,,,,,310.22516030003317,None,right,1,2.1096456999657676,310.7258929000236,313.5484471000964,310.7258929000236,313.045859200065,310.7258929000236,313.045859200065,310.7258929000236,313.045859200065,310.7258929000236,313.045859200065,310.7258929000236,313.045859200065,313.0124797000317,313.5137330000289,313.0124797000317,313.5137330000289,313.0124797000317,313.5137330000289,313.0124797000317,313.5137330000289,313.0124797000317,313.5137330000289,313.0124797000317,313.5137330000289,313.0124797000317,313.5137330000289,313.0124797000317,313.5137330000289,310.7258929000236,None,313.5137330000289,313.71367389999796,2.310000000000002,313.7301309000468,None,314.48120600008406,None,,,,,,,[[0.19]],1.620000000000001,0.65625,11018,001,2024_Jan_05_0800,MFTM_A_new1021,2021.2.3,60.23729879853563,
,,,,,,,,stim/Instruction_adaptive.png,conditions/adaptive.xlsx,test,-0.6,-0.6,-0.6,0.6,0.6,left,L,,,,,0,1,1,1,0,32,32,1,,,,,,,,,,,,,,,,,,,,,,,,,,,,,,,,,,,,,,,,,,,,314.98215500009246,None,left,1,1.9041966999648139,315.4829890000401,318.13680070010014,315.4829890000401,317.6361191000324,315.4829890000401,317.6361191000324,315.4829890000401,317.6361191000324,315.4829890000401,317.6361191000324,315.4829890000401,317.6361191000324,317.60264520009514,318.10370830004103,317.60264520009514,318.10370830004103,317.60264520009514,318.10370830004103,317.60264520009514,318.10370830004103,317.60264520009514,318.10370830004103,317.60264520009514,318.10370830004103,317.60264520009514,318.10370830004103,317.60264520009514,318.10370830004103,315.4829890000401,None,318.10370830004103,318.47134670009837,2.1400000000000015,318.48722140002064,None,319.23925840004813,None,,,,,,,[[0.36]],1.710000000000001,0.6666666666666666,11018,001,2024_Jan_05_0800,MFTM_A_new1021,2021.2.3,60.23729879853563,
,,,,,,,,stim/Instruction_adaptive.png,conditions/adaptive.xlsx,test,-0.6,-0.6,-0.6,0.6,0.6,left,L,,,,,0,1,1,1,0,33,33,41,,,,,,,,,,,,,,,,,,,,,,,,,,,,,,,,,,,,,,,,,,,,319.7398564000614,None,left,1,1.603207099949941,320.24024380010087,322.7610323000699,320.24024380010087,322.25994660006836,320.24024380010087,322.25994660006836,320.24024380010087,322.25994660006836,320.24024380010087,322.25994660006836,320.24024380010087,322.25994660006836,322.22638440004084,322.7270974999992,322.22638440004084,322.7270974999992,322.22638440004084,322.7270974999992,322.22638440004084,322.7270974999992,322.22638440004084,322.7270974999992,322.22638440004084,322.7270974999992,322.22638440004084,322.7270974999992,322.22638440004084,322.7270974999992,320.24024380010087,None,322.7270974999992,323.2285091000376,2.0100000000000016,323.2448592000874,None,323.9963043000316,None,,,,,,,[[0.49]],1.8000000000000012,0.6764705882352942,11018,001,2024_Jan_05_0800,MFTM_A_new1021,2021.2.3,60.23729879853563,
,,,,,,,,stim/Instruction_adaptive.png,conditions/adaptive.xlsx,test,-0.6,-0.6,-0.6,0.6,0.6,left,L,,,,,0,1,1,1,0,34,34,23,,,,,,,,,,,,,,,,,,,,,,,,,,,,,,,,,,,,,,,,,,,,324.4965299000032,None,left,1,1.958597799995914,324.99699630006216,327.40095640008803,324.99699630006216,326.90033380000386,324.99699630006216,326.90033380000386,324.99699630006216,326.90033380000386,324.99699630006216,326.90033380000386,324.99699630006216,326.90033380000386,326.86686010006815,327.36775760003366,326.86686010006815,327.36775760003366,326.86686010006815,327.36775760003366,326.86686010006815,327.36775760003366,326.86686010006815,327.36775760003366,326.86686010006815,327.36775760003366,326.86686010006815,327.36775760003366,326.86686010006815,327.36775760003366,324.99699630006216,None,327.36775760003366,327.984779600054,1.8900000000000015,328.00153460004367,None,328.75265340006445,None,,,,,,,[[0.61]],1.8800000000000012,0.6857142857142857,11018,001,2024_Jan_05_0800,MFTM_A_new1021,2021.2.3,60.23729879853563,
,,,,,,,,stim/Instruction_adaptive.png,conditions/adaptive.xlsx,test,0.6,0.6,0.6,-0.6,-0.6,right,R,,,,,0,1,1,1,0,35,35,78,,,,,,,,,,,,,,,,,,,,,,,,,,,,,,,,,,,,,,,,,,,,329.25340090005193,None,right,1,2.289009000058286,329.75420440000016,332.0579487000359,329.75420440000016,331.55788890004624,329.75420440000016,331.55788890004624,329.75420440000016,331.55788890004624,329.75420440000016,331.55788890004624,329.75420440000016,331.55788890004624,331.5233720000833,332.02528030006215,331.5233720000833,332.02528030006215,331.5233720000833,332.02528030006215,331.5233720000833,332.02528030006215,331.5233720000833,332.02528030006215,331.5233720000833,332.02528030006215,331.5233720000833,332.02528030006215,331.5233720000833,332.02528030006215,329.75420440000016,None,332.02528030006215,332.7426199000329,1.7900000000000014,332.758617100073,None,333.5105184999993,None,,,,,,,[[0.71]],1.9600000000000013,0.6944444444444444,11018,001,2024_Jan_05_0800,MFTM_A_new1021,2021.2.3,60.23729879853563,
,,,,,,,,stim/Instruction_adaptive.png,conditions/adaptive.xlsx,test,0.6,0.6,0.6,-0.6,-0.6,right,R,,,,,0,1,1,1,0,36,36,40,,,,,,,,,,,,,,,,,,,,,,,,,,,,,,,,,,,,,,,,,,,,334.0104479000438,None,right,1,1.980608299956657,334.5113358000526,336.714324300061,334.5113358000526,336.21384700003546,334.5113358000526,336.21384700003546,334.5113358000526,336.21384700003546,334.5113358000526,336.21384700003546,334.5113358000526,336.21384700003546,336.18082680006046,336.68164409999736,336.18082680006046,336.68164409999736,336.18082680006046,336.68164409999736,336.18082680006046,336.68164409999736,336.18082680006046,336.68164409999736,336.18082680006046,336.68164409999736,336.18082680006046,336.68164409999736,336.18082680006046,336.68164409999736,334.5113358000526,None,336.68164409999736,337.4993793000467,1.6900000000000013,337.5157923999941,None,338.2670151999919,None,,,,,,,[[0.81]],2.0200000000000014,0.7027027027027027,11018,001,2024_Jan_05_0800,MFTM_A_new1021,2021.2.3,60.23729879853563,
,,,,,,,,stim/Instruction_adaptive.png,conditions/adaptive.xlsx,test,-0.6,-0.6,-0.6,0.6,0.6,left,L,,,,,0,1,1,1,0,37,37,71,,,,,,,,,,,,,,,,,,,,,,,,,,,,,,,,,,,,,,,,,,,,338.76750350010116,None,right,0,2.0389765000436455,339.268291000044,341.3880468000425,339.268291000044,340.8876900000032,339.268291000044,340.8876900000032,339.268291000044,340.8876900000032,339.268291000044,340.8876900000032,339.268291000044,340.8876900000032,340.87055290001445,341.3720834000269,340.87055290001445,341.3720834000269,340.87055290001445,341.3720834000269,340.87055290001445,341.3720834000269,340.87055290001445,341.3720834000269,340.87055290001445,341.3720834000269,340.87055290001445,341.3720834000269,340.87055290001445,341.3720834000269,339.268291000044,None,341.3720834000269,342.25663780001923,1.6200000000000012,342.2727240000386,None,343.02398310007993,None,,,,,,,[[0.88]],1.8300000000000012,0.6842105263157895,11018,001,2024_Jan_05_0800,MFTM_A_new1021,2021.2.3,60.23729879853563,
,,,,,,,,stim/Instruction_adaptive.png,conditions/adaptive.xlsx,test,0.6,0.6,0.6,-0.6,-0.6,right,R,,,,,0,1,1,1,0,38,38,8,,,,,,,,,,,,,,,,,,,,,,,,,,,,,,,,,,,,,,,,,,,,343.52508340007626,None,right,1,2.074069600086659,344.0253202000167,346.3785829000408,344.0253202000167,345.8780215000734,344.0253202000167,345.8780215000734,344.0253202000167,345.8780215000734,344.0253202000167,345.8780215000734,344.0253202000167,345.8780215000734,345.8617685000645,346.3622547000414,345.8617685000645,346.3622547000414,345.8617685000645,346.3622547000414,345.8617685000645,346.3622547000414,345.8617685000645,346.3622547000414,345.8617685000645,346.3622547000414,345.8617685000645,346.3622547000414,345.8617685000645,346.3622547000414,344.0253202000167,None,346.3622547000414,347.01370260003023,1.8500000000000014,347.0290601000888,None,347.780779600027,None,,,,,,,[[0.65]],1.9000000000000012,0.6923076923076923,11018,001,2024_Jan_05_0800,MFTM_A_new1021,2021.2.3,60.23729879853563,
,,,,,,,,stim/Instruction_adaptive.png,conditions/adaptive.xlsx,test,-0.6,-0.6,-0.6,0.6,0.6,left,L,,,,,0,1,1,1,0,39,39,73,,,,,,,,,,,,,,,,,,,,,,,,,,,,,,,,,,,,,,,,,,,,348.28263720008545,None,left,1,2.197116900002584,348.782162800082,351.0530891000526,348.782162800082,350.5517077000113,348.782162800082,350.5517077000113,348.782162800082,350.5517077000113,348.782162800082,350.5517077000113,348.782162800082,350.5517077000113,350.51838630007114,351.0189072000794,350.51838630007114,351.0189072000794,350.51838630007114,351.0189072000794,350.51838630007114,351.0189072000794,350.51838630007114,351.0189072000794,350.51838630007114,351.0189072000794,350.51838630007114,351.0189072000794,350.51838630007114,351.0189072000794,348.782162800082,None,351.0189072000794,351.77011040004436,1.7600000000000013,351.7866814000299,None,352.53830430004746,None,,,,,,,[[0.74]],1.9700000000000013,0.7,11018,001,2024_Jan_05_0800,MFTM_A_new1021,2021.2.3,60.23729879853563,
,,,,,,,,stim/Instruction_adaptive.png,conditions/adaptive.xlsx,test,-0.6,-0.6,-0.6,0.6,0.6,left,L,,,,,0,1,1,1,0,40,40,37,,,,,,,,,,,,,,,,,,,,,,,,,,,,,,,,,,,,,,,,,,,,353.0385909000179,None,left,1,1.680032299947925,353.5391952000791,355.72712100006174,353.5391952000791,355.22512439999264,353.5391952000791,355.22512439999264,353.5391952000791,355.22512439999264,353.5391952000791,355.22512439999264,353.5391952000791,355.22512439999264,355.2085182000883,355.7100573000498,355.2085182000883,355.7100573000498,355.2085182000883,355.7100573000498,355.2085182000883,355.7100573000498,355.2085182000883,355.7100573000498,355.2085182000883,355.7100573000498,355.2085182000883,355.7100573000498,355.2085182000883,355.7100573000498,353.5391952000791,None,355.7100573000498,None,1.6800000000000013,356.5437407999998,None,357.2954611000605,None,,,,,,,[[0.82]],2.030000000000001,0.7073170731707317,11018,001,2024_Jan_05_0800,MFTM_A_new1021,2021.2.3,60.23729879853563,
,,,,,,,,stim/Instruction_adaptive.png,conditions/adaptive.xlsx,test,0.6,0.6,0.6,-0.6,-0.6,right,R,,,,,0,1,1,1,0,41,41,82,,,,,,,,,,,,,,,,,,,,,,,,,,,,,,,,,,,,,,,,,,,,357.7956727000419,None,left,0,2.1391238999785855,358.29623150010593,360.41769440006465,358.29623150010593,359.9154169000685,358.29623150010593,359.9154169000685,358.29623150010593,359.9154169000685,358.29623150010593,359.9154169000685,358.29623150010593,359.9154169000685,359.8821929000551,360.383246100042,359.8821929000551,360.383246100042,359.8821929000551,360.383246100042,359.8821929000551,360.383246100042,359.8821929000551,360.383246100042,359.8821929000551,360.383246100042,359.8821929000551,360.383246100042,359.8821929000551,360.383246100042,358.29623150010593,None,360.383246100042,361.2848543000873,1.6100000000000012,361.30092650000006,None,362.05252890009433,None,,,,,,,[[0.89]],1.8600000000000012,0.6904761904761905,11018,001,2024_Jan_05_0800,MFTM_A_new1021,2021.2.3,60.23729879853563,
,,,,,,,,stim/Instruction_adaptive.png,conditions/adaptive.xlsx,test,0.6,0.6,0.6,-0.6,-0.6,right,R,,,,,0,1,1,1,0,42,42,60,,,,,,,,,,,,,,,,,,,,,,,,,,,,,,,,,,,,,,,,,,,,362.5526993999956,None,right,1,2.901499000028707,363.05402989999857,365.3736556000076,363.05402989999857,364.8735058000311,363.05402989999857,364.8735058000311,363.05402989999857,364.8735058000311,363.05402989999857,364.8735058000311,363.05402989999857,364.8735058000311,364.83943490008824,365.3402086000424,364.83943490008824,365.3402086000424,364.83943490008824,365.3402086000424,364.83943490008824,365.3402086000424,364.83943490008824,365.3402086000424,364.83943490008824,365.3402086000424,364.83943490008824,365.3402086000424,364.83943490008824,365.3402086000424,363.05402989999857,None,365.3402086000424,366.0422603000188,1.8100000000000014,366.05720969999675,None,366.80960989999585,None,,,,,,,[[0.69]],1.9200000000000013,0.6976744186046512,11018,001,2024_Jan_05_0800,MFTM_A_new1021,2021.2.3,60.23729879853563,
,,,,,,,,stim/Instruction_adaptive.png,conditions/adaptive.xlsx,test,-0.6,-0.6,-0.6,0.6,0.6,left,L,,,,,0,1,1,1,0,43,43,17,,,,,,,,,,,,,,,,,,,,,,,,,,,,,,,,,,,,,,,,,,,,367.3107405001065,None,right,0,2.1930203000083566,367.810372200096,370.0642629000358,367.810372200096,369.5634179000044,367.810372200096,369.5634179000044,367.810372200096,369.5634179000044,367.810372200096,369.5634179000044,367.810372200096,369.5634179000044,369.5302470000461,370.03054180007894,369.5302470000461,370.03054180007894,369.5302470000461,370.03054180007894,369.5302470000461,370.03054180007894,369.5302470000461,370.03054180007894,369.5302470000461,370.03054180007894,369.5302470000461,370.03054180007894,369.5302470000461,370.03054180007894,367.810372200096,None,370.03054180007894,370.798268500017,1.7400000000000013,370.8149597001029,None,371.56710650003515,None,,,,,,,[[0.76]],1.740000000000001,0.6818181818181818,11018,001,2024_Jan_05_0800,MFTM_A_new1021,2021.2.3,60.23729879853563,
,,,,,,,,stim/Instruction_adaptive.png,conditions/adaptive.xlsx,test,0.6,0.6,0.6,-0.6,-0.6,right,R,,,,,0,1,1,1,0,44,44,64,,,,,,,,,,,,,,,,,,,,,,,,,,,,,,,,,,,,,,,,,,,,372.06735310005024,None,right,1,1.898561600013636,372.5686885000905,375.0384571000468,372.5686885000905,374.55379740009084,372.5686885000905,374.55379740009084,372.5686885000905,374.55379740009084,372.5686885000905,374.55379740009084,372.5686885000905,374.55379740009084,374.5202994000865,375.0223537000129,374.5202994000865,375.0223537000129,374.5202994000865,375.0223537000129,374.5202994000865,375.0223537000129,374.5202994000865,375.0223537000129,374.5202994000865,375.0223537000129,374.5202994000865,375.0223537000129,374.5202994000865,375.0223537000129,372.5686885000905,None,375.0223537000129,375.555202400079,1.9700000000000015,375.57223859999795,None,376.3236480000196,None,,,,,,,[[0.53]],1.8100000000000012,0.6888888888888889,11018,001,2024_Jan_05_0800,MFTM_A_new1021,2021.2.3,60.23729879853563,
,,,,,,,,stim/Instruction_adaptive.png,conditions/adaptive.xlsx,test,-0.6,-0.6,-0.6,0.6,0.6,left,L,,,,,0,1,1,1,0,45,45,65,,,,,,,,,,,,,,,,,,,,,,,,,,,,,,,,,,,,,,,,,,,,376.8238082000753,None,right,0,1.902775099966675,377.32491750002373,379.71153560001403,377.32491750002373,379.21053919999395,377.32491750002373,379.21053919999395,377.32491750002373,379.21053919999395,377.32491750002373,379.21053919999395,377.32491750002373,379.21053919999395,379.1939202999929,379.69581020006444,379.1939202999929,379.69581020006444,379.1939202999929,379.69581020006444,379.1939202999929,379.69581020006444,379.1939202999929,379.69581020006444,379.1939202999929,379.69581020006444,379.1939202999929,379.69581020006444,379.1939202999929,379.69581020006444,377.32491750002373,None,379.67813450004905,380.29558850009926,1.8800000000000014,380.32889930007514,None,381.08125909999944,None,,,,,,,[[0.62]],1.630000000000001,0.6739130434782609,11018,001,2024_Jan_05_0800,MFTM_A_new1021,2021.2.3,60.23729879853563,
,,,,,,,,stim/Instruction_adaptive.png,conditions/adaptive.xlsx,test,0.6,0.6,0.6,-0.6,-0.6,right,R,,,,,0,1,1,1,0,46,46,20,,,,,,,,,,,,,,,,,,,,,,,,,,,,,,,,,,,,,,,,,,,,381.5816297000274,None,right,1,2.5693961000069976,382.08215040003415,384.7188618000364,382.08215040003415,384.2181303000543,382.08215040003415,384.2181303000543,382.08215040003415,384.2181303000543,382.08215040003415,384.2181303000543,382.08215040003415,384.2181303000543,384.20251920004375,384.70287630008534,384.20251920004375,384.70287630008534,384.20251920004375,384.70287630008534,384.20251920004375,384.70287630008534,384.20251920004375,384.70287630008534,384.20251920004375,384.70287630008534,384.20251920004375,384.70287630008534,384.20251920004375,384.70287630008534,382.08215040003415,None,384.70287630008534,None,2.1300000000000017,385.0859176000813,None,385.83825140004046,None,,,,,,,[[0.37]],1.690000000000001,0.6808510638297872,11018,001,2024_Jan_05_0800,MFTM_A_new1021,2021.2.3,60.23729879853563,
,,,,,,,,stim/Instruction_adaptive.png,conditions/adaptive.xlsx,test,0.6,0.6,0.6,-0.6,-0.6,right,R,,,,,0,1,1,1,0,47,47,2,,,,,,,,,,,,,,,,,,,,,,,,,,,,,,,,,,,,,,,,,,,,386.3378128000768,None,right,1,1.9244994000764564,386.8390177000547,389.3928439000156,386.8390177000547,388.8925130000571,386.8390177000547,388.8925130000571,386.8390177000547,388.8925130000571,386.8390177000547,388.8925130000571,386.8390177000547,388.8925130000571,388.8583477000939,389.35938810009975,388.8583477000939,389.35938810009975,388.8583477000939,389.35938810009975,388.8583477000939,389.35938810009975,388.8583477000939,389.35938810009975,388.8583477000939,389.35938810009975,388.8583477000939,389.35938810009975,388.8583477000939,389.35938810009975,386.8390177000547,None,389.35938810009975,389.82707990007475,2.040000000000002,389.84295040008146,None,390.5944504000945,None,,,,,,,[[0.46]],1.750000000000001,0.6875,11018,001,2024_Jan_05_0800,MFTM_A_new1021,2021.2.3,60.23729879853563,
,,,,,,,,stim/Instruction_adaptive.png,conditions/adaptive.xlsx,test,0.6,0.6,0.6,-0.6,-0.6,right,R,,,,,0,1,1,1,0,48,48,10,,,,,,,,,,,,,,,,,,,,,,,,,,,,,,,,,,,,,,,,,,,,391.09565650008153,None,left,0,2.311712099937722,391.5956295999931,394.06601910002064,391.5956295999931,393.5653043000493,391.5956295999931,393.5653043000493,391.5956295999931,393.5653043000493,391.5956295999931,393.5653043000493,391.5956295999931,393.5653043000493,393.5486511000199,394.0493291000603,393.5486511000199,394.0493291000603,393.5486511000199,394.0493291000603,393.5486511000199,394.0493291000603,393.5486511000199,394.0493291000603,393.5486511000199,394.0493291000603,393.5486511000199,394.0493291000603,393.5486511000199,394.0493291000603,391.5956295999931,None,394.03307780006435,394.58429660007823,1.9600000000000015,394.60024470009375,None,395.3516210000962,None,,,,,,,[[0.54]],1.590000000000001,0.673469387755102,11018,001,2024_Jan_05_0800,MFTM_A_new1021,2021.2.3,60.23729879853563,
,,,,,,,,stim/Instruction_adaptive.png,conditions/adaptive.xlsx,test,0.6,0.6,0.6,-0.6,-0.6,right,R,,,,,0,1,1,1,0,49,49,12,,,,,,,,,,,,,,,,,,,,,,,,,,,,,,,,,,,,,,,,,,,,395.8524378000293,None,right,1,2.6268389000324532,396.3527447000379,399.05679060006514,396.3527447000379,398.5560947000049,396.3527447000379,398.5560947000049,396.3527447000379,398.5560947000049,396.3527447000379,398.5560947000049,396.3527447000379,398.5560947000049,398.5241203000769,399.02372560009826,398.5241203000769,399.02372560009826,398.5241203000769,399.02372560009826,398.5241203000769,399.02372560009826,398.5241203000769,399.02372560009826,398.5241203000769,399.02372560009826,398.5241203000769,399.02372560009826,398.5241203000769,399.02372560009826,396.3527447000379,None,399.02372560009826,399.3405115000205,2.1900000000000017,399.35734720004257,None,400.1092131000478,None,,,,,,,[[0.31]],1.640000000000001,0.68,11018,001,2024_Jan_05_0800,MFTM_A_new1021,2021.2.3,60.23729879853563,
,,,,,,,,stim/Instruction_adaptive.png,conditions/adaptive.xlsx,test,0.6,0.6,0.6,-0.6,-0.6,right,R,,,,,0,1,1,1,0,50,50,36,,,,,,,,,,,,,,,,,,,,,,,,,,,,,,,,,,,,,,,,,,,,400.6097246001009,None,right,1,1.5096034999005497,401.10976220003795,403.7305539000081,401.10976220003795,403.22956490004435,401.10976220003795,403.22956490004435,401.10976220003795,403.22956490004435,401.10976220003795,403.22956490004435,401.10976220003795,403.22956490004435,403.1973731000908,403.69704170001205,403.1973731000908,403.69704170001205,403.1973731000908,403.69704170001205,403.1973731000908,403.69704170001205,403.1973731000908,403.69704170001205,403.1973731000908,403.69704170001205,403.1973731000908,403.69704170001205,403.1973731000908,403.69704170001205,401.10976220003795,None,403.69704170001205,404.0981652000919,2.1100000000000017,404.1146756000817,None,404.8661601000931,None,,,,,,,[[0.39]],1.700000000000001,0.6862745098039216,11018,001,2024_Jan_05_0800,MFTM_A_new1021,2021.2.3,60.23729879853563,
,,,,,,,,stim/Instruction_adaptive.png,conditions/adaptive.xlsx,test,-0.6,-0.6,-0.6,0.6,0.6,left,L,,,,,0,1,1,1,0,51,51,39,,,,,,,,,,,,,,,,,,,,,,,,,,,,,,,,,,,,,,,,,,,,405.3662176000653,None,right,0,2.472347200033255,405.8670105000492,408.38750390009955,405.8670105000492,407.8865117999958,405.8670105000492,407.8865117999958,405.8670105000492,407.8865117999958,405.8670105000492,407.8865117999958,405.8670105000492,407.8865117999958,407.8697815000778,408.37096580001526,407.8697815000778,408.37096580001526,407.8697815000778,408.37096580001526,407.8697815000778,408.37096580001526,407.8697815000778,408.37096580001526,407.8697815000778,408.37096580001526,407.8697815000778,408.37096580001526,407.8697815000778,408.37096580001526,405.8670105000492,None,408.37096580001526,408.85472950001713,2.0200000000000014,408.8714443000499,None,409.6227555000223,None,,,,,,,[[0.48]],1.540000000000001,0.6730769230769231,11018,001,2024_Jan_05_0800,MFTM_A_new1021,2021.2.3,60.23729879853563,
,,,,,,,,stim/Instruction_adaptive.png,conditions/adaptive.xlsx,test,-0.6,-0.6,-0.6,0.6,0.6,left,L,,,,,0,1,1,1,0,52,52,95,,,,,,,,,,,,,,,,,,,,,,,,,,,,,,,,,,,,,,,,,,,,410.12366770009976,None,left,1,2.563481800025329,410.6238904000493,413.39519480010495,410.6238904000493,412.89442330005113,410.6238904000493,412.89442330005113,410.6238904000493,412.89442330005113,410.6238904000493,412.89442330005113,410.6238904000493,412.89442330005113,412.86055390001275,413.362418100005,412.86055390001275,413.362418100005,412.86055390001275,413.362418100005,412.86055390001275,413.362418100005,412.86055390001275,413.362418100005,412.86055390001275,413.362418100005,412.86055390001275,413.362418100005,412.86055390001275,413.362418100005,410.6238904000493,None,413.362418100005,413.6123107000021,2.2600000000000016,413.62860550009646,None,414.3797246000031,None,,,,,,,[[0.24]],1.600000000000001,0.6792452830188679,11018,001,2024_Jan_05_0800,MFTM_A_new1021,2021.2.3,60.23729879853563,
,,,,,,,,stim/Instruction_adaptive.png,conditions/adaptive.xlsx,test,0.6,0.6,0.6,-0.6,-0.6,right,R,,,,,0,1,1,1,0,53,53,72,,,,,,,,,,,,,,,,,,,,,,,,,,,,,,,,,,,,,,,,,,,,414.88034800009336,None,right,1,2.158633000100963,415.3808594000293,418.05161840002984,415.3808594000293,417.55066420009825,415.3808594000293,417.55066420009825,415.3808594000293,417.55066420009825,415.3808594000293,417.55066420009825,415.3808594000293,417.55066420009825,417.5345315000741,418.03533520002384,417.5345315000741,418.03533520002384,417.5345315000741,418.03533520002384,417.5345315000741,418.03533520002384,417.5345315000741,418.03533520002384,417.5345315000741,418.03533520002384,417.5345315000741,418.03533520002384,417.5345315000741,418.03533520002384,415.3808594000293,None,418.03533520002384,418.36938290006947,2.1700000000000017,418.3854298000224,None,419.1370425000787,None,,,,,,,[[0.33]],1.650000000000001,0.6851851851851852,11018,001,2024_Jan_05_0800,MFTM_A_new1021,2021.2.3,60.23729879853563,
,,,,,,,,stim/Instruction_adaptive.png,conditions/adaptive.xlsx,test,-0.6,-0.6,-0.6,0.6,0.6,left,L,,,,,0,1,1,1,0,54,54,93,,,,,,,,,,,,,,,,,,,,,,,,,,,,,,,,,,,,,,,,,,,,419.63745600008406,None,right,0,2.5615361999953166,420.1379465000937,422.74246780003887,420.1379465000937,422.24158970010467,420.1379465000937,422.24158970010467,420.1379465000937,422.24158970010467,420.1379465000937,422.24158970010467,420.1379465000937,422.24158970010467,422.22438390005846,422.7251977000851,422.22438390005846,422.7251977000851,422.22438390005846,422.7251977000851,422.22438390005846,422.7251977000851,422.22438390005846,422.7251977000851,422.22438390005846,422.7251977000851,422.22438390005846,422.7251977000851,422.22438390005846,422.7251977000851,420.1379465000937,None,422.7251977000851,423.12645960005466,2.1000000000000014,423.14250220009126,None,423.89406030008104,None,,,,,,,[[0.4]],1.5000000000000009,0.6727272727272727,11018,001,2024_Jan_05_0800,MFTM_A_new1021,2021.2.3,60.23729879853563,
,,,,,,,,stim/Instruction_adaptive.png,conditions/adaptive.xlsx,test,-0.6,-0.6,-0.6,0.6,0.6,left,L,,,,,0,1,1,1,0,55,55,3,,,,,,,,,,,,,,,,,,,,,,,,,,,,,,,,,,,,,,,,,,,,424.39439480006695,None,left,1,2.8283245000056922,424.89506790007,427.7325662000803,424.89506790007,427.2318858000217,424.89506790007,427.2318858000217,424.89506790007,427.2318858000217,424.89506790007,427.2318858000217,424.89506790007,427.2318858000217,427.215213800082,427.71585210005287,427.215213800082,427.71585210005287,427.215213800082,427.71585210005287,427.215213800082,427.71585210005287,427.215213800082,427.71585210005287,427.215213800082,427.71585210005287,427.215213800082,427.71585210005287,427.215213800082,427.71585210005287,424.89506790007,None,427.71585210005287,None,2.330000000000002,427.89989840006456,None,428.6507021000143,None,,,,,,,[[0.17]],1.550000000000001,0.6785714285714286,11018,001,2024_Jan_05_0800,MFTM_A_new1021,2021.2.3,60.23729879853563,
,,,,,,,,stim/Instruction_adaptive.png,conditions/adaptive.xlsx,test,-0.6,-0.6,-0.6,0.6,0.6,left,L,,,,,0,1,1,1,0,56,56,31,,,,,,,,,,,,,,,,,,,,,,,,,,,,,,,,,,,,,,,,,,,,429.1514548000414,None,left,1,2.7434817999601364,429.65194290003274,432.40601860010065,429.65194290003274,431.90563670010306,429.65194290003274,431.90563670010306,429.65194290003274,431.90563670010306,429.65194290003274,431.90563670010306,429.65194290003274,431.90563670010306,431.88909450010397,432.38955330010504,431.88909450010397,432.38955330010504,431.88909450010397,432.38955330010504,431.88909450010397,432.38955330010504,431.88909450010397,432.38955330010504,431.88909450010397,432.38955330010504,431.88909450010397,432.38955330010504,431.88909450010397,432.38955330010504,429.65194290003274,None,432.38955330010504,432.6398225000594,2.2500000000000018,432.6566516000312,None,433.4076261000009,None,,,,,,,[[0.25]],1.600000000000001,0.6842105263157895,11018,001,2024_Jan_05_0800,MFTM_A_new1021,2021.2.3,60.23729879853563,
,,,,,,,,stim/Instruction_adaptive.png,conditions/adaptive.xlsx,test,-0.6,-0.6,-0.6,0.6,0.6,left,L,,,,,0,1,1,1,0,57,57,43,,,,,,,,,,,,,,,,,,,,,,,,,,,,,,,,,,,,,,,,,,,,433.9104393000016,None,left,1,2.5218618999933824,434.4096003000159,437.08048370003235,434.4096003000159,436.5790851000929,434.4096003000159,436.5790851000929,434.4096003000159,436.5790851000929,434.4096003000159,436.5790851000929,434.4096003000159,436.5790851000929,436.56246450007893,437.06391200004146,436.56246450007893,437.06391200004146,436.56246450007893,437.06391200004146,436.56246450007893,437.06391200004146,436.56246450007893,437.06391200004146,436.56246450007893,437.06391200004146,436.56246450007893,437.06391200004146,436.56246450007893,437.06391200004146,434.4096003000159,None,437.06391200004146,437.39740590006113,2.1700000000000017,437.4136337999953,None,438.165739600081,None,,,,,,,[[0.33]],1.650000000000001,0.6896551724137931,11018,001,2024_Jan_05_0800,MFTM_A_new1021,2021.2.3,60.23729879853563,
,,,,,,,,stim/Instruction_adaptive.png,conditions/adaptive.xlsx,test,-0.6,-0.6,-0.6,0.6,0.6,left,L,,,,,0,1,1,1,0,58,58,7,,,,,,,,,,,,,,,,,,,,,,,,,,,,,,,,,,,,,,,,,,,,438.6654552000109,None,right,0,2.4772036999929696,439.16630500007886,441.76993140007835,439.16630500007886,441.2700932000298,439.16630500007886,441.2700932000298,439.16630500007886,441.2700932000298,439.16630500007886,441.2700932000298,439.16630500007886,441.2700932000298,441.2539159000153,441.75333870004397,441.2539159000153,441.75333870004397,441.2539159000153,441.75333870004397,441.2539159000153,441.75333870004397,441.2539159000153,441.75333870004397,441.2539159000153,441.75333870004397,441.2539159000153,441.75333870004397,441.2539159000153,441.75333870004397,439.16630500007886,None,441.75333870004397,442.1542172000045,2.1000000000000014,442.17120370001066,None,442.92239880003035,None,,,,,,,[[0.4]],1.510000000000001,0.6779661016949152,11018,001,2024_Jan_05_0800,MFTM_A_new1021,2021.2.3,60.23729879853563,
,,,,,,,,stim/Instruction_adaptive.png,conditions/adaptive.xlsx,test,-0.6,-0.6,-0.6,0.6,0.6,left,L,,,,,0,1,1,1,0,59,59,15,,,,,,,,,,,,,,,,,,,,,,,,,,,,,,,,,,,,,,,,,,,,443.42353310005274,None,left,1,1.6561323000350967,443.923378800042,446.7460345000727,443.923378800042,446.24455679999664,443.923378800042,446.24455679999664,443.923378800042,446.24455679999664,443.923378800042,446.24455679999664,443.923378800042,446.24455679999664,446.2100560000399,446.71191360009834,446.2100560000399,446.71191360009834,446.2100560000399,446.71191360009834,446.2100560000399,446.71191360009834,446.2100560000399,446.71191360009834,446.2100560000399,446.71191360009834,446.2100560000399,446.71191360009834,446.2100560000399,446.71191360009834,443.923378800042,None,446.71191360009834,446.912015000009,2.310000000000002,446.9279779000208,None,447.6800471000606,None,,,,,,,[[0.19]],1.560000000000001,0.6833333333333333,11018,001,2024_Jan_05_0800,MFTM_A_new1021,2021.2.3,60.23729879853563,
,,,,,,,,stim/Instruction_adaptive.png,conditions/adaptive.xlsx,test,0.6,0.6,0.6,-0.6,-0.6,right,R,,,,,0,1,1,1,0,60,60,50,,,,,,,,,,,,,,,,,,,,,,,,,,,,,,,,,,,,,,,,,,,,448.1800656000851,None,left,0,3.1310517999809235,448.6804342000978,451.41865480004344,448.6804342000978,450.9168622000143,448.6804342000978,450.9168622000143,448.6804342000978,450.9168622000143,448.6804342000978,450.9168622000143,448.6804342000978,450.9168622000143,450.9002308000345,451.4017090999987,450.9002308000345,451.4017090999987,450.9002308000345,451.4017090999987,450.9002308000345,451.4017090999987,450.9002308000345,451.4017090999987,450.9002308000345,451.4017090999987,450.9002308000345,451.4017090999987,450.9002308000345,451.4017090999987,448.6804342000978,None,451.4017090999987,451.83515300008,2.2300000000000018,451.851720900042,None,452.6033982000081,None,,,,,,,[[0.27]],1.4200000000000008,0.6721311475409836,11018,001,2024_Jan_05_0800,MFTM_A_new1021,2021.2.3,60.23729879853563,
,,,,,,,,stim/Instruction_adaptive.png,conditions/adaptive.xlsx,test,0.6,0.6,0.6,-0.6,-0.6,right,R,,,,,0,1,1,1,0,61,61,16,,,,,,,,,,,,,,,,,,,,,,,,,,,,,,,,,,,,,,,,,,,,453.104366100044,None,right,1,2.583553300006315,453.6043655000394,456.57562640006654,453.6043655000394,456.07482149999123,453.6043655000394,456.07482149999123,453.6043655000394,456.07482149999123,453.6043655000394,456.07482149999123,453.6043655000394,456.07482149999123,456.04131100000814,456.5420836000703,456.04131100000814,456.5420836000703,456.04131100000814,456.5420836000703,456.04131100000814,456.5420836000703,456.04131100000814,456.5420836000703,456.04131100000814,456.5420836000703,456.04131100000814,456.5420836000703,456.04131100000814,456.5420836000703,453.6043655000394,None,456.5420836000703,456.5917855000589,2.4600000000000017,456.6085409000516,None,457.3598606000887,None,,,,,,,[[0.04]],1.4700000000000009,0.6774193548387096,11018,001,2024_Jan_05_0800,MFTM_A_new1021,2021.2.3,60.23729879853563,
,,,,,,,,stim/Instruction_adaptive.png,conditions/adaptive.xlsx,test,-0.6,-0.6,-0.6,0.6,0.6,left,L,,,,,0,1,1,1,0,62,62,53,,,,,,,,,,,,,,,,,,,,,,,,,,,,,,,,,,,,,,,,,,,,457.86119840003084,None,left,1,1.842106500058435,458.36150760005694,461.23216850007884,458.36150760005694,460.73175740009174,458.36150760005694,460.73175740009174,458.36150760005694,460.73175740009174,458.36150760005694,460.73175740009174,458.36150760005694,460.73175740009174,460.71482210000977,461.2155120000243,460.71482210000977,461.2155120000243,460.71482210000977,461.2155120000243,460.71482210000977,461.2155120000243,460.71482210000977,461.2155120000243,460.71482210000977,461.2155120000243,460.71482210000977,461.2155120000243,460.71482210000977,461.2155120000243,458.36150760005694,None,461.2155120000243,461.3492012000643,2.370000000000002,461.36645750002936,None,462.1175371001009,None,,,,,,,[[0.13]],1.520000000000001,0.6825396825396826,11018,001,2024_Jan_05_0800,MFTM_A_new1021,2021.2.3,60.23729879853563,
,,,,,,,,stim/Instruction_adaptive.png,conditions/adaptive.xlsx,test,0.6,0.6,0.6,-0.6,-0.6,right,R,,,,,0,1,1,1,0,63,63,14,,,,,,,,,,,,,,,,,,,,,,,,,,,,,,,,,,,,,,,,,,,,462.6179350001039,None,right,1,2.925037399982102,463.11852030002046,465.92263190005906,463.11852030002046,465.4219092000276,463.11852030002046,465.4219092000276,463.11852030002046,465.4219092000276,463.11852030002046,465.4219092000276,463.11852030002046,465.4219092000276,465.38876540004276,465.889654800063,465.38876540004276,465.889654800063,465.38876540004276,465.889654800063,465.38876540004276,465.889654800063,465.38876540004276,465.889654800063,465.38876540004276,465.889654800063,465.38876540004276,465.889654800063,465.38876540004276,465.889654800063,463.11852030002046,None,465.889654800063,466.10624660004396,2.290000000000002,466.12308869999833,None,466.8741568000987,None,,,,,,,[[0.21]],1.560000000000001,0.6875,11018,001,2024_Jan_05_0800,MFTM_A_new1021,2021.2.3,60.23729879853563,
,,,,,,,,stim/Instruction_adaptive.png,conditions/adaptive.xlsx,test,-0.6,-0.6,-0.6,0.6,0.6,left,L,,,,,0,1,1,1,0,64,64,13,,,,,,,,,,,,,,,,,,,,,,,,,,,,,,,,,,,,,,,,,,,,467.3748727000784,None,left,1,2.0722024999558926,467.87537740007974,470.6136469000485,467.87537740007974,470.11290370009374,467.87537740007974,470.11290370009374,467.87537740007974,470.11290370009374,467.87537740007974,470.11290370009374,467.87537740007974,470.11290370009374,470.0957445000531,470.59724170004483,470.0957445000531,470.59724170004483,470.0957445000531,470.59724170004483,470.0957445000531,470.59724170004483,470.0957445000531,470.59724170004483,470.0957445000531,470.59724170004483,470.0957445000531,470.59724170004483,470.0957445000531,470.59724170004483,467.87537740007974,None,470.59724170004483,None,2.2300000000000018,470.8798874000786,None,471.6317415999947,None,,,,,,,[[0.27]],1.600000000000001,0.6923076923076923,11018,001,2024_Jan_05_0800,MFTM_A_new1021,2021.2.3,60.23729879853563,
,,,,,,,,stim/Instruction_adaptive.png,conditions/adaptive.xlsx,test,0.6,0.6,0.6,-0.6,-0.6,right,R,,,,,0,1,1,1,0,65,65,84,,,,,,,,,,,,,,,,,,,,,,,,,,,,,,,,,,,,,,,,,,,,472.1319000000367,None,right,1,1.9949305999325588,472.63256250007544,475.30303340009414,472.63256250007544,474.80276220000815,472.63256250007544,474.80276220000815,472.63256250007544,474.80276220000815,472.63256250007544,474.80276220000815,472.63256250007544,474.80276220000815,474.7854484000709,475.28665650007315,474.7854484000709,475.28665650007315,474.7854484000709,475.28665650007315,474.7854484000709,475.28665650007315,474.7854484000709,475.28665650007315,474.7854484000709,475.28665650007315,474.7854484000709,475.28665650007315,474.7854484000709,475.28665650007315,472.63256250007544,None,475.28665650007315,475.6203302000649,2.1700000000000017,475.63740890007466,None,476.38834220007993,None,,,,,,,[[0.33]],1.640000000000001,0.696969696969697,11018,001,2024_Jan_05_0800,MFTM_A_new1021,2021.2.3,60.23729879853563,
,,,,,,,,stim/Instruction_adaptive.png,conditions/adaptive.xlsx,test,-0.6,-0.6,-0.6,0.6,0.6,left,L,,,,,0,1,1,1,0,66,66,21,,,,,,,,,,,,,,,,,,,,,,,,,,,,,,,,,,,,,,,,,,,,476.8889244000893,None,left,1,2.4222575000021607,477.38934190000873,480.0102225000737,477.38934190000873,479.50972230010666,477.38934190000873,479.50972230010666,477.38934190000873,479.50972230010666,477.38934190000873,479.50972230010666,477.38934190000873,479.50972230010666,479.4763848000439,479.9766575000249,479.4763848000439,479.9766575000249,479.4763848000439,479.9766575000249,479.4763848000439,479.9766575000249,479.4763848000439,479.9766575000249,479.4763848000439,479.9766575000249,479.4763848000439,479.9766575000249,479.4763848000439,479.9766575000249,477.38934190000873,None,479.9766575000249,480.377405700041,2.1100000000000017,480.39415310008917,None,481.14523870009,None,,,,,,,[[0.39]],1.680000000000001,0.7014925373134329,11018,001,2024_Jan_05_0800,MFTM_A_new1021,2021.2.3,60.23729879853563,
,,,,,,,,stim/Instruction_adaptive.png,conditions/adaptive.xlsx,test,-0.6,-0.6,-0.6,0.6,0.6,left,L,,,,,0,1,1,1,0,67,67,25,,,,,,,,,,,,,,,,,,,,,,,,,,,,,,,,,,,,,,,,,,,,481.6464870000491,None,right,0,2.1369114000117406,482.14715770003386,484.70047350006644,482.14715770003386,484.1996516000945,482.14715770003386,484.1996516000945,482.14715770003386,484.1996516000945,482.14715770003386,484.1996516000945,482.14715770003386,484.1996516000945,484.18297399999574,484.6833448000252,484.18297399999574,484.6833448000252,484.18297399999574,484.6833448000252,484.18297399999574,484.6833448000252,484.18297399999574,484.6833448000252,484.18297399999574,484.6833448000252,484.18297399999574,484.6833448000252,484.18297399999574,484.6833448000252,482.14715770003386,None,484.6833448000252,485.1350324000232,2.0500000000000016,485.1504475000547,None,485.9031792000169,None,,,,,,,[[0.45]],1.570000000000001,0.6911764705882353,11018,001,2024_Jan_05_0800,MFTM_A_new1021,2021.2.3,60.23729879853563,
,,,,,,,,stim/Instruction_adaptive.png,conditions/adaptive.xlsx,test,0.6,0.6,0.6,-0.6,-0.6,right,R,,,,,0,1,1,1,0,68,68,28,,,,,,,,,,,,,,,,,,,,,,,,,,,,,,,,,,,,,,,,,,,,486.40332240005955,None,right,1,2.0198593999957666,486.9040415000636,489.6242196999956,486.9040415000636,489.1247781000566,486.9040415000636,489.1247781000566,486.9040415000636,489.1247781000566,486.9040415000636,489.1247781000566,486.9040415000636,489.1247781000566,489.10676019999664,489.60792110010516,489.10676019999664,489.60792110010516,489.10676019999664,489.60792110010516,489.10676019999664,489.60792110010516,489.10676019999664,489.60792110010516,489.10676019999664,489.60792110010516,489.10676019999664,489.60792110010516,489.10676019999664,489.60792110010516,486.9040415000636,None,489.60792110010516,489.8945662000915,2.2200000000000015,489.9075542000355,None,490.65915409999434,None,,,,,,,[[0.28]],1.610000000000001,0.6956521739130435,11018,001,2024_Jan_05_0800,MFTM_A_new1021,2021.2.3,60.23729879853563,
,,,,,,,,stim/Instruction_adaptive.png,conditions/adaptive.xlsx,test,-0.6,-0.6,-0.6,0.6,0.6,left,L,,,,,0,1,1,1,0,69,69,45,,,,,,,,,,,,,,,,,,,,,,,,,,,,,,,,,,,,,,,,,,,,491.1599299000809,None,left,1,1.9589750999584794,491.660688700038,494.3312866000924,491.660688700038,493.83141950005665,491.660688700038,493.83141950005665,491.660688700038,493.83141950005665,491.660688700038,493.83141950005665,491.660688700038,493.83141950005665,493.7972483000485,494.2979699000716,493.7972483000485,494.2979699000716,493.7972483000485,494.2979699000716,493.7972483000485,494.2979699000716,493.7972483000485,494.2979699000716,493.7972483000485,494.2979699000716,493.7972483000485,494.2979699000716,493.7972483000485,494.2979699000716,491.660688700038,None,494.2979699000716,494.6485156000126,2.160000000000002,494.6663547999924,None,495.41687860002276,None,,,,,,,[[0.34]],1.650000000000001,0.7,11018,001,2024_Jan_05_0800,MFTM_A_new1021,2021.2.3,60.23729879853563,
,,,,,,,,stim/Instruction_adaptive.png,conditions/adaptive.xlsx,test,0.6,0.6,0.6,-0.6,-0.6,right,R,,,,,0,1,1,1,0,70,70,88,,,,,,,,,,,,,,,,,,,,,,,,,,,,,,,,,,,,,,,,,,,,495.91689650004264,None,right,1,1.866623800015077,496.41756740002893,499.0230240999954,496.41756740002893,498.5216483999975,496.41756740002893,498.5216483999975,496.41756740002893,498.5216483999975,496.41756740002893,498.5216483999975,496.41756740002893,498.5216483999975,498.5052817000542,499.00577960000373,498.5052817000542,499.00577960000373,498.5052817000542,499.00577960000373,498.5052817000542,499.00577960000373,498.5052817000542,499.00577960000373,498.5052817000542,499.00577960000373,498.5052817000542,499.00577960000373,498.5052817000542,499.00577960000373,496.41756740002893,None,499.00577960000373,499.4061120999977,2.1000000000000014,499.42249820008874,None,500.1734520000173,None,,,,,,,[[0.4]],1.680000000000001,0.704225352112676,11018,001,2024_Jan_05_0800,MFTM_A_new1021,2021.2.3,60.23729879853563,
,,,,,,,,stim/Instruction_adaptive.png,conditions/adaptive.xlsx,test,-0.6,-0.6,-0.6,0.6,0.6,left,L,,,,,0,1,1,1,0,71,71,57,,,,,,,,,,,,,,,,,,,,,,,,,,,,,,,,,,,,,,,,,,,,500.6745394000318,None,right,0,2.1174612999893725,501.1747745000757,503.7287772001,501.1747745000757,503.22792050009593,501.1747745000757,503.22792050009593,501.1747745000757,503.22792050009593,501.1747745000757,503.22792050009593,501.1747745000757,503.22792050009593,503.21177260007244,503.7125362000661,503.21177260007244,503.7125362000661,503.21177260007244,503.7125362000661,503.21177260007244,503.7125362000661,503.21177260007244,503.7125362000661,503.21177260007244,503.7125362000661,503.21177260007244,503.7125362000661,503.21177260007244,503.7125362000661,501.1747745000757,None,503.7125362000661,504.1625443000812,2.0500000000000016,504.1791737000458,None,504.930694000097,None,,,,,,,[[0.45]],1.580000000000001,0.6944444444444444,11018,001,2024_Jan_05_0800,MFTM_A_new1021,2021.2.3,60.23729879853563,
,,,,,,,,stim/Instruction_adaptive.png,conditions/adaptive.xlsx,test,-0.6,-0.6,-0.6,0.6,0.6,left,L,,,,,0,1,1,1,0,72,72,79,,,,,,,,,,,,,,,,,,,,,,,,,,,,,,,,,,,,,,,,,,,,505.43197040003724,None,left,1,2.5916507999645546,505.93188140005805,508.63665270002093,505.93188140005805,508.1362416000338,505.93188140005805,508.1362416000338,505.93188140005805,508.1362416000338,505.93188140005805,508.1362416000338,505.93188140005805,508.1362416000338,508.1186985000968,508.61942040000577,508.1186985000968,508.61942040000577,508.1186985000968,508.61942040000577,508.1186985000968,508.61942040000577,508.1186985000968,508.61942040000577,508.1186985000968,508.61942040000577,508.1186985000968,508.61942040000577,508.1186985000968,508.61942040000577,505.93188140005805,None,508.61942040000577,508.91957140003797,2.200000000000002,508.93572320009116,None,509.68766210007016,None,,,,,,,[[0.3]],1.620000000000001,0.6986301369863014,11018,001,2024_Jan_05_0800,MFTM_A_new1021,2021.2.3,60.23729879853563,
,,,,,,,,stim/Instruction_adaptive.png,conditions/adaptive.xlsx,test,0.6,0.6,0.6,-0.6,-0.6,right,R,,,,,0,1,1,1,0,73,73,6,,,,,,,,,,,,,,,,,,,,,,,,,,,,,,,,,,,,,,,,,,,,510.18924960005097,None,left,0,2.794529400067404,510.68919710000046,513.3439564000582,510.68919710000046,512.8421487000305,510.68919710000046,512.8421487000305,510.68919710000046,512.8421487000305,510.68919710000046,512.8421487000305,510.68919710000046,512.8421487000305,512.8090586001053,513.3094987000804,512.8090586001053,513.3094987000804,512.8090586001053,513.3094987000804,512.8090586001053,513.3094987000804,512.8090586001053,513.3094987000804,512.8090586001053,513.3094987000804,512.8090586001053,513.3094987000804,512.8090586001053,513.3094987000804,510.68919710000046,None,513.3094987000804,513.6775284000905,2.1400000000000015,513.6933793000644,None,514.4447622000007,None,,,,,,,[[0.36]],1.510000000000001,0.6891891891891891,11018,001,2024_Jan_05_0800,MFTM_A_new1021,2021.2.3,60.23729879853563,
,,,,,,,,stim/Instruction_adaptive.png,conditions/adaptive.xlsx,test,0.6,0.6,0.6,-0.6,-0.6,right,R,,,,,0,1,1,1,0,74,74,70,,,,,,,,,,,,,,,,,,,,,,,,,,,,,,,,,,,,,,,,,,,,514.9463145000627,None,right,1,1.381082999985665,515.4464680000674,518.267924200045,515.4464680000674,517.7667506000726,515.4464680000674,517.7667506000726,515.4464680000674,517.7667506000726,515.4464680000674,517.7667506000726,515.4464680000674,517.7667506000726,517.7325892000226,518.2332154000178,517.7325892000226,518.2332154000178,517.7325892000226,518.2332154000178,517.7325892000226,518.2332154000178,517.7325892000226,518.2332154000178,517.7325892000226,518.2332154000178,517.7325892000226,518.2332154000178,517.7325892000226,518.2332154000178,515.4464680000674,None,518.2332154000178,518.4336618999951,2.310000000000002,518.4503590000095,None,519.2020766000496,None,,,,,,,[[0.19]],1.550000000000001,0.6933333333333334,11018,001,2024_Jan_05_0800,MFTM_A_new1021,2021.2.3,60.23729879853563,
,,,,,,,,stim/Instruction_adaptive.png,conditions/adaptive.xlsx,test,-0.6,-0.6,-0.6,0.6,0.6,left,L,,,,,0,1,1,1,0,75,75,85,,,,,,,,,,,,,,,,,,,,,,,,,,,,,,,,,,,,,,,,,,,,519.7026782000903,None,left,1,1.4249536999268457,520.2029988000868,522.9570581000298,520.2029988000868,522.4571213000454,520.2029988000868,522.4571213000454,520.2029988000868,522.4571213000454,520.2029988000868,522.4571213000454,520.2029988000868,522.4571213000454,522.4395279000746,522.9406578000635,522.4395279000746,522.9406578000635,522.4395279000746,522.9406578000635,522.4395279000746,522.9406578000635,522.4395279000746,522.9406578000635,522.4395279000746,522.9406578000635,522.4395279000746,522.9406578000635,522.4395279000746,522.9406578000635,520.2029988000868,None,522.9406578000635,523.1909938000608,2.2500000000000018,523.20710530004,None,523.9591493000044,None,,,,,,,[[0.25]],1.580000000000001,0.6973684210526315,11018,001,2024_Jan_05_0800,MFTM_A_new1021,2021.2.3,60.23729879853563,
,,,,,,,,stim/Instruction_adaptive.png,conditions/adaptive.xlsx,test,0.6,0.6,0.6,-0.6,-0.6,right,R,,,,,0,1,1,1,0,76,76,68,,,,,,,,,,,,,,,,,,,,,,,,,,,,,,,,,,,,,,,,,,,,524.4602943999926,None,right,1,1.4593773999949917,524.9600683000172,527.6646395000862,524.9600683000172,527.163731800043,524.9600683000172,527.163731800043,524.9600683000172,527.163731800043,524.9600683000172,527.163731800043,524.9600683000172,527.163731800043,527.1468900000909,527.6484490000876,527.1468900000909,527.6484490000876,527.1468900000909,527.6484490000876,527.1468900000909,527.6484490000876,527.1468900000909,527.6484490000876,527.1468900000909,527.6484490000876,527.1468900000909,527.6484490000876,527.1468900000909,527.6484490000876,524.9600683000172,None,527.6484490000876,527.9478461000836,2.200000000000002,527.9649321000325,None,528.7157724000281,None,,,,,,,[[0.3]],1.620000000000001,0.7012987012987013,11018,001,2024_Jan_05_0800,MFTM_A_new1021,2021.2.3,60.23729879853563,
,,,,,,,,stim/Instruction_adaptive.png,conditions/adaptive.xlsx,test,-0.6,-0.6,-0.6,0.6,0.6,left,L,,,,,0,1,1,1,0,77,77,83,,,,,,,,,,,,,,,,,,,,,,,,,,,,,,,,,,,,,,,,,,,,529.2162399000954,None,right,0,2.79860729991924,529.7171670000535,532.3732718999963,529.7171670000535,531.8710156000452,529.7171670000535,531.8710156000452,529.7171670000535,531.8710156000452,529.7171670000535,531.8710156000452,529.7171670000535,531.8710156000452,531.8369679000461,532.3376396000385,531.8369679000461,532.3376396000385,531.8369679000461,532.3376396000385,531.8369679000461,532.3376396000385,531.8369679000461,532.3376396000385,531.8369679000461,532.3376396000385,531.8369679000461,532.3376396000385,531.8369679000461,532.3376396000385,529.7171670000535,None,532.3376396000385,532.7057217000984,2.1400000000000015,532.7214010000462,None,533.472582800081,None,,,,,,,[[0.36]],1.520000000000001,0.6923076923076923,11018,001,2024_Jan_05_0800,MFTM_A_new1021,2021.2.3,60.23729879853563,
,,,,,,,,stim/Instruction_adaptive.png,conditions/adaptive.xlsx,test,0.6,0.6,0.6,-0.6,-0.6,right,R,,,,,0,1,1,1,0,78,78,96,,,,,,,,,,,,,,,,,,,,,,,,,,,,,,,,,,,,,,,,,,,,533.974096900085,None,right,1,1.754218599991873,534.4743533000583,537.2793759000488,534.4743533000583,536.7773908000672,534.4743533000583,536.7773908000672,534.4743533000583,536.7773908000672,534.4743533000583,536.7773908000672,534.4743533000583,536.7773908000672,536.7441951000364,537.2455592000624,536.7441951000364,537.2455592000624,536.7441951000364,537.2455592000624,536.7441951000364,537.2455592000624,536.7441951000364,537.2455592000624,536.7441951000364,537.2455592000624,536.7441951000364,537.2455592000624,536.7441951000364,537.2455592000624,534.4743533000583,None,537.2455592000624,537.4621462000068,2.290000000000002,537.4785020001,None,538.2295097000897,None,,,,,,,[[0.21]],1.550000000000001,0.6962025316455697,11018,001,2024_Jan_05_0800,MFTM_A_new1021,2021.2.3,60.23729879853563,
,,,,,,,,stim/Instruction_adaptive.png,conditions/adaptive.xlsx,test,0.6,0.6,0.6,-0.6,-0.6,right,R,,,,,0,1,1,1,0,79,79,90,,,,,,,,,,,,,,,,,,,,,,,,,,,,,,,,,,,,,,,,,,,,538.7306731001008,None,left,0,1.900582000031136,539.2313461001031,541.9855323000811,539.2313461001031,541.485046200105,539.2313461001031,541.485046200105,539.2313461001031,541.485046200105,539.2313461001031,541.485046200105,539.2313461001031,541.485046200105,541.4678342000116,541.9685242000269,541.4678342000116,541.9685242000269,541.4678342000116,541.9685242000269,541.4678342000116,541.9685242000269,541.4678342000116,541.9685242000269,541.4678342000116,541.9685242000269,541.4678342000116,541.9685242000269,541.4678342000116,541.9685242000269,539.2313461001031,None,541.9685242000269,542.21957690001,2.2500000000000018,542.2356934000272,None,542.9870631000958,None,,,,,,,[[0.25]],1.4500000000000008,0.6875,11018,001,2024_Jan_05_0800,MFTM_A_new1021,2021.2.3,60.23729879853563,
,,,,,,,,stim/Instruction_adaptive.png,conditions/adaptive.xlsx,test,0.6,0.6,0.6,-0.6,-0.6,right,R,,,,,0,1,1,1,0,80,80,26,,,,,,,,,,,,,,,,,,,,,,,,,,,,,,,,,,,,,,,,,,,,543.4878289001063,None,right,1,1.8873377999989316,543.9883633001009,546.9094407000812,543.9883633001009,546.4084967999952,543.9883633001009,546.4084967999952,543.9883633001009,546.4084967999952,543.9883633001009,546.4084967999952,543.9883633001009,546.4084967999952,546.375036100042,546.8769897000166,546.375036100042,546.8769897000166,546.375036100042,546.8769897000166,546.375036100042,546.8769897000166,546.375036100042,546.8769897000166,546.375036100042,546.8769897000166,546.375036100042,546.8769897000166,546.375036100042,546.8769897000166,543.9883633001009,None,546.8769897000166,546.9777576000197,2.410000000000002,546.9924534000456,None,547.7438672001008,None,,,,,,,[[0.09]],1.4900000000000009,0.691358024691358,11018,001,2024_Jan_05_0800,MFTM_A_new1021,2021.2.3,60.23729879853563,
,,,,,,,,stim/Instruction_adaptive.png,conditions/adaptive.xlsx,test,0.6,0.6,0.6,-0.6,-0.6,right,R,,,,,0,1,1,1,0,81,81,18,,,,,,,,,,,,,,,,,,,,,,,,,,,,,,,,,,,,,,,,,,,,548.245052000042,None,right,1,2.563487699953839,548.7452809000388,551.6001913000364,548.7452809000388,551.0994531000033,548.7452809000388,551.0994531000033,548.7452809000388,551.0994531000033,548.7452809000388,551.0994531000033,548.7452809000388,551.0994531000033,551.065342899994,551.5666207000613,551.065342899994,551.5666207000613,551.065342899994,551.5666207000613,551.065342899994,551.5666207000613,551.065342899994,551.5666207000613,551.065342899994,551.5666207000613,551.065342899994,551.5666207000613,551.065342899994,551.5666207000613,548.7452809000388,None,551.5666207000613,551.733637800091,2.3400000000000016,551.7504882999929,None,552.5012867000187,None,,,,,,,[[0.16]],1.520000000000001,0.6951219512195121,11018,001,2024_Jan_05_0800,MFTM_A_new1021,2021.2.3,60.23729879853563,
,,,,,,,,stim/Instruction_adaptive.png,conditions/adaptive.xlsx,test,-0.6,-0.6,-0.6,0.6,0.6,left,L,,,,,0,1,1,1,0,82,82,33,,,,,,,,,,,,,,,,,,,,,,,,,,,,,,,,,,,,,,,,,,,,553.0023706000065,None,left,1,2.0443066000007093,553.5034140000353,556.3069188999943,553.5034140000353,555.8064967000391,553.5034140000353,555.8064967000391,553.5034140000353,555.8064967000391,553.5034140000353,555.8064967000391,553.5034140000353,555.8064967000391,555.7723689000122,556.273108900059,555.7723689000122,556.273108900059,555.7723689000122,556.273108900059,555.7723689000122,556.273108900059,555.7723689000122,556.273108900059,555.7723689000122,556.273108900059,555.7723689000122,556.273108900059,555.7723689000122,556.273108900059,553.5034140000353,None,556.273108900059,556.4907562000444,2.290000000000002,556.5070755000925,None,557.2583847000496,None,,,,,,,[[0.21]],1.550000000000001,0.6987951807228916,11018,001,2024_Jan_05_0800,MFTM_A_new1021,2021.2.3,60.23729879853563,
,,,,,,,,stim/Instruction_adaptive.png,conditions/adaptive.xlsx,test,0.6,0.6,0.6,-0.6,-0.6,right,R,,,,,0,1,1,1,0,83,83,76,,,,,,,,,,,,,,,,,,,,,,,,,,,,,,,,,,,,,,,,,,,,557.7586107000243,None,right,1,1.4483211999759078,558.2592705000425,561.0134009000612,558.2592705000425,560.5134455000516,558.2592705000425,560.5134455000516,558.2592705000425,560.5134455000516,558.2592705000425,560.5134455000516,558.2592705000425,560.5134455000516,560.4959557000548,560.9966102000326,560.4959557000548,560.9966102000326,560.4959557000548,560.9966102000326,560.4959557000548,560.9966102000326,560.4959557000548,560.9966102000326,560.4959557000548,560.9966102000326,560.4959557000548,560.9966102000326,560.4959557000548,560.9966102000326,558.2592705000425,None,560.9966102000326,561.2486641000723,2.2500000000000018,561.2637982000597,None,562.0158517000964,None,,,,,,,[[0.25]],1.580000000000001,0.7023809523809523,11018,001,2024_Jan_05_0800,MFTM_A_new1021,2021.2.3,60.23729879853563,
,,,,,,,,stim/Instruction_adaptive.png,conditions/adaptive.xlsx,test,0.6,0.6,0.6,-0.6,-0.6,right,R,,,,,0,1,1,1,0,84,84,54,,,,,,,,,,,,,,,,,,,,,,,,,,,,,,,,,,,,,,,,,,,,562.5161670000525,None,right,1,2.7233569000381976,563.0163275999948,565.7209744000575,563.0163275999948,565.2205908000469,563.0163275999948,565.2205908000469,563.0163275999948,565.2205908000469,563.0163275999948,565.2205908000469,563.0163275999948,565.2205908000469,565.2034445001045,565.7042443000246,565.2034445001045,565.7042443000246,565.2034445001045,565.7042443000246,565.2034445001045,565.7042443000246,565.2034445001045,565.7042443000246,565.2034445001045,565.7042443000246,565.2034445001045,565.7042443000246,565.2034445001045,565.7042443000246,563.0163275999948,None,565.7042443000246,566.0042422000552,2.200000000000002,566.0208609000547,None,566.7720327000134,None,,,,,,,[[0.3]],1.610000000000001,0.7058823529411765,11018,001,2024_Jan_05_0800,MFTM_A_new1021,2021.2.3,60.23729879853563,
,,,,,,,,stim/Instruction_adaptive.png,conditions/adaptive.xlsx,test,-0.6,-0.6,-0.6,0.6,0.6,left,L,,,,,0,1,1,1,0,85,85,51,,,,,,,,,,,,,,,,,,,,,,,,,,,,,,,,,,,,,,,,,,,,567.2733065000502,None,left,1,2.429861200042069,567.7737028000411,570.4452755000675,567.7737028000411,569.9440507000545,567.7737028000411,569.9440507000545,567.7737028000411,569.9440507000545,567.7737028000411,569.9440507000545,567.7737028000411,569.9440507000545,569.910464100074,570.4108131000539,569.910464100074,570.4108131000539,569.910464100074,570.4108131000539,569.910464100074,570.4108131000539,569.910464100074,570.4108131000539,569.910464100074,570.4108131000539,569.910464100074,570.4108131000539,569.910464100074,570.4108131000539,567.7737028000411,None,570.4108131000539,570.7612664001063,2.160000000000002,570.778097600094,None,571.5291605000384,None,,,,,,,[[0.34]],1.640000000000001,0.7093023255813954,11018,001,2024_Jan_05_0800,MFTM_A_new1021,2021.2.3,60.23729879853563,
,,,,,,,,stim/Instruction_adaptive.png,conditions/adaptive.xlsx,test,0.6,0.6,0.6,-0.6,-0.6,right,R,,,,,0,1,1,1,0,86,86,46,,,,,,,,,,,,,,,,,,,,,,,,,,,,,,,,,,,,,,,,,,,,572.0297495000996,None,right,1,2.289020900032483,572.5307118000928,575.1509872000897,572.5307118000928,574.6503963000141,572.5307118000928,574.6503963000141,572.5307118000928,574.6503963000141,572.5307118000928,574.6503963000141,572.5307118000928,574.6503963000141,574.6178212000523,575.1184897000203,574.6178212000523,575.1184897000203,574.6178212000523,575.1184897000203,574.6178212000523,575.1184897000203,574.6178212000523,575.1184897000203,574.6178212000523,575.1184897000203,574.6178212000523,575.1184897000203,574.6178212000523,575.1184897000203,572.5307118000928,None,575.1184897000203,575.5184717000229,2.1100000000000017,575.5354239000008,None,576.2868839000585,None,,,,,,,[[0.39]],1.670000000000001,0.7126436781609196,11018,001,2024_Jan_05_0800,MFTM_A_new1021,2021.2.3,60.23729879853563,
,,,,,,,,stim/Instruction_adaptive.png,conditions/adaptive.xlsx,test,-0.6,-0.6,-0.6,0.6,0.6,left,L,,,,,0,1,1,1,0,87,87,9,,,,,,,,,,,,,,,,,,,,,,,,,,,,,,,,,,,,,,,,,,,,576.7875767000951,None,right,0,2.58755990001373,577.2880450000521,579.858252700069,577.2880450000521,579.357094700099,577.2880450000521,579.357094700099,577.2880450000521,579.357094700099,577.2880450000521,579.357094700099,577.2880450000521,579.357094700099,579.3404855000554,579.841475400026,579.3404855000554,579.841475400026,579.3404855000554,579.841475400026,579.3404855000554,579.841475400026,579.3404855000554,579.841475400026,579.3404855000554,579.841475400026,579.3404855000554,579.841475400026,579.3404855000554,579.841475400026,577.2880450000521,None,579.841475400026,580.276851200033,2.0700000000000016,580.2918377000606,None,581.0432921000756,None,,,,,,,[[0.43]],1.590000000000001,0.7045454545454546,11018,001,2024_Jan_05_0800,MFTM_A_new1021,2021.2.3,60.23729879853563,
,,,,,,,,stim/Instruction_adaptive.png,conditions/adaptive.xlsx,test,-0.6,-0.6,-0.6,0.6,0.6,left,L,,,,,0,1,1,1,0,88,88,87,,,,,,,,,,,,,,,,,,,,,,,,,,,,,,,,,,,,,,,,,,,,581.5445266000461,None,left,1,2.2949857000494376,582.044650600059,584.7490155000705,582.044650600059,584.2490530000068,582.044650600059,584.2490530000068,582.044650600059,584.2490530000068,582.044650600059,584.2490530000068,582.044650600059,584.2490530000068,584.2149737,584.7160017000278,584.2149737,584.7160017000278,584.2149737,584.7160017000278,584.2149737,584.7160017000278,584.2149737,584.7160017000278,584.2149737,584.7160017000278,584.2149737,584.7160017000278,584.2149737,584.7160017000278,582.044650600059,None,584.7160017000278,585.0324278000044,2.1900000000000017,585.0490405000746,None,585.8002493000822,None,,,,,,,[[0.31]],1.620000000000001,0.7078651685393258,11018,001,2024_Jan_05_0800,MFTM_A_new1021,2021.2.3,60.23729879853563,
,,,,,,,,stim/Instruction_adaptive.png,conditions/adaptive.xlsx,test,0.6,0.6,0.6,-0.6,-0.6,right,R,,,,,0,1,1,1,0,89,89,30,,,,,,,,,,,,,,,,,,,,,,,,,,,,,,,,,,,,,,,,,,,,586.3013540999964,None,left,0,1.7540797999827191,586.8017436000519,589.4568355000811,586.8017436000519,588.9549079000717,586.8017436000519,588.9549079000717,586.8017436000519,588.9549079000717,586.8017436000519,588.9549079000717,586.8017436000519,588.9549079000717,588.9217079000082,589.4219979000045,588.9217079000082,589.4219979000045,588.9217079000082,589.4219979000045,588.9217079000082,589.4219979000045,588.9217079000082,589.4219979000045,588.9217079000082,589.4219979000045,588.9217079000082,589.4219979000045,588.9217079000082,589.4219979000045,586.8017436000519,None,589.4219979000045,589.7893716000253,2.1400000000000015,589.8060687000398,None,590.5572127000196,None,,,,,,,[[0.36]],1.530000000000001,0.7,11018,001,2024_Jan_05_0800,MFTM_A_new1021,2021.2.3,60.23729879853563,
,,,,,,,,stim/Instruction_adaptive.png,conditions/adaptive.xlsx,test,0.6,0.6,0.6,-0.6,-0.6,right,R,,,,,0,1,1,1,0,90,90,58,,,,,,,,,,,,,,,,,,,,,,,,,,,,,,,,,,,,,,,,,,,,591.0587660000892,None,right,1,2.588780299993232,591.5588067000499,594.3460158000235,591.5588067000499,593.8462553001009,591.5588067000499,593.8462553001009,591.5588067000499,593.8462553001009,591.5588067000499,593.8462553001009,591.5588067000499,593.8462553001009,593.8295988000464,594.3296035000822,593.8295988000464,594.3296035000822,593.8295988000464,594.3296035000822,593.8295988000464,594.3296035000822,593.8295988000464,594.3296035000822,593.8295988000464,594.3296035000822,593.8295988000464,594.3296035000822,593.8295988000464,594.3296035000822,591.5588067000499,None,594.312888000044,594.5476883000229,2.280000000000002,594.5635583000258,None,595.3142022000393,None,,,,,,,[[0.22]],1.560000000000001,0.7032967032967034,11018,001,2024_Jan_05_0800,MFTM_A_new1021,2021.2.3,60.23729879853563,
,,,,,,,,stim/Instruction_adaptive.png,conditions/adaptive.xlsx,test,0.6,0.6,0.6,-0.6,-0.6,right,R,,,,,0,1,1,1,0,91,91,80,,,,,,,,,,,,,,,,,,,,,,,,,,,,,,,,,,,,,,,,,,,,595.8160498000216,None,right,1,1.6553507999051362,596.3164511000505,599.0551170000108,596.3164511000505,598.5533210000722,596.3164511000505,598.5533210000722,596.3164511000505,598.5533210000722,596.3164511000505,598.5533210000722,596.3164511000505,598.5533210000722,598.535864100093,599.0365950000705,598.535864100093,599.0365950000705,598.535864100093,599.0365950000705,598.535864100093,599.0365950000705,598.535864100093,599.0365950000705,598.535864100093,599.0365950000705,598.535864100093,599.0365950000705,598.535864100093,599.0365950000705,596.3164511000505,None,599.0365950000705,None,2.2300000000000018,599.3201740999939,None,600.071251800051,None,,,,,,,[[0.27]],1.590000000000001,0.7065217391304348,11018,001,2024_Jan_05_0800,MFTM_A_new1021,2021.2.3,60.23729879853563,
,,,,,,,,stim/Instruction_adaptive.png,conditions/adaptive.xlsx,test,-0.6,-0.6,-0.6,0.6,0.6,left,L,,,,,0,1,1,1,0,92,92,81,,,,,,,,,,,,,,,,,,,,,,,,,,,,,,,,,,,,,,,,,,,,600.572089000023,None,left,1,1.9631115000229329,601.0727209000615,603.7774823000655,601.0727209000615,603.2766299000941,601.0727209000615,603.2766299000941,601.0727209000615,603.2766299000941,601.0727209000615,603.2766299000941,601.0727209000615,603.2766299000941,603.2429696000181,603.7434342000633,603.2429696000181,603.7434342000633,603.2429696000181,603.7434342000633,603.2429696000181,603.7434342000633,603.2429696000181,603.7434342000633,603.2429696000181,603.7434342000633,603.2429696000181,603.7434342000633,603.2429696000181,603.7434342000633,601.0727209000615,None,603.7434342000633,604.0606433000648,2.1900000000000017,604.0770911000436,None,604.8282248000614,None,,,,,,,[[0.31]],1.620000000000001,0.7096774193548387,11018,001,2024_Jan_05_0800,MFTM_A_new1021,2021.2.3,60.23729879853563,
,,,,,,,,stim/Instruction_adaptive.png,conditions/adaptive.xlsx,test,-0.6,-0.6,-0.6,0.6,0.6,left,L,,,,,0,1,1,1,0,93,93,55,,,,,,,,,,,,,,,,,,,,,,,,,,,,,,,,,,,,,,,,,,,,605.3292555999942,None,left,1,2.093811900005676,605.8298666001065,608.4838682000991,605.8298666001065,607.9833041999955,605.8298666001065,607.9833041999955,605.8298666001065,607.9833041999955,605.8298666001065,607.9833041999955,605.8298666001065,607.9833041999955,607.9498380000005,608.4506515000248,607.9498380000005,608.4506515000248,607.9498380000005,608.4506515000248,607.9498380000005,608.4506515000248,607.9498380000005,608.4506515000248,607.9498380000005,608.4506515000248,607.9498380000005,608.4506515000248,607.9498380000005,608.4506515000248,605.8298666001065,None,608.4506515000248,608.818389800028,2.1400000000000015,608.8344384999946,None,609.585439800052,None,,,,,,,[[0.36]],1.640000000000001,0.7127659574468085,11018,001,2024_Jan_05_0800,MFTM_A_new1021,2021.2.3,60.23729879853563,
