arrwidth1,arrwidth2,arrwidth3,arrwidth4,arrwidth5,keyb,type,orientation,instruction_image,block_filename,block_type,arrow11,arrow22,arrow33,arrow44,arrow55,keyb_3,orientation3,trials.thisRepN,trials.thisTrialN,trials.thisN,trials.thisIndex,trials_3.thisRepN,trials_3.thisTrialN,trials_3.thisN,trials_3.thisIndex,trials_2.thisRepN,trials_2.thisTrialN,trials_2.thisN,trials_2.thisIndex,welcome.started,welcome.stopped,key_resp.keys,key_resp.rt,key_resp.started,key_resp.stopped,instruction_example.started,instruction_example.stopped,key_resp_3.keys,key_resp_3.rt,key_resp_3.started,key_resp_3.stopped,instruction_task.started,instruction_task.stopped,key_resp_2.keys,key_resp_2.rt,key_resp_2.started,key_resp_2.stopped,text_2.started,text_2.stopped,A1.started,A1.stopped,A2.started,A2.stopped,A3.started,A3.stopped,A4.started,A4.stopped,A5.started,A5.stopped,key_resp_4.keys,key_resp_4.corr,key_resp_4.rt,key_resp_4.started,key_resp_4.stopped,fb.started,fb.stopped,instruction_block.started,instruction_block.stopped,key_resp_8.keys,key_resp_8.rt,key_resp_8.started,key_resp_8.stopped,text_8.started,text_8.stopped,key_resp_9.keys,key_resp_9.corr,key_resp_9.rt,text_5.started,text_5.stopped,A11_3.started,A11_3.stopped,A22_2.started,A22_2.stopped,A33_2.started,A33_2.stopped,A44_2.started,A44_2.stopped,A55_2.started,A55_2.stopped,M1_3.started,M1_3.stopped,M2_2.started,M2_2.stopped,M3_2.started,M3_2.stopped,M4_2.started,M4_2.stopped,M5_2.started,M5_2.stopped,M6_2.started,M6_2.stopped,M7_2.started,M7_2.stopped,M8_2.started,M8_2.stopped,key_resp_9.started,key_resp_9.stopped,fixation.started,fixation.stopped,ET,fb_3.started,fb_3.stopped,text_9.started,text_9.stopped,fb_4.started,fb_4.stopped,text_7.started,text_7.stopped,endtext.started,endtext.stopped,fixation_ITI,CCC,Acc,participant,session,date,expName,psychopyVersion,frameRate,
,,,,,,,,,,,,,,,,,,,,,,,,,,,,,,20.13501049997285,None,space,7.783826099941507,20.13501049997285,None,,,,,,,,,,,,,,,,,,,,,,,,,,,,,,,,,,,,,,,,,,,,,,,,,,,,,,,,,,,,,,,,,,,,,,,,,,,,,,,,,,,,,,,,,11016,002,2024_Jan_04_1747,MFTM_A_new1021,2021.2.3,59.97465471342169,
,,,,,,,,,,,,,,,,,,,,,,,,,,,,,,,,,,,,27.946270399959758,None,space,11.051443799980916,27.946270399959758,None,,,,,,,,,,,,,,,,,,,,,,,,,,,,,,,,,,,,,,,,,,,,,,,,,,,,,,,,,,,,,,,,,,,,,,,,,,,,,,,,,,,11016,002,2024_Jan_04_1747,MFTM_A_new1021,2021.2.3,59.97465471342169,
,,,,,,,,,,,,,,,,,,,,,,,,,,,,,,,,,,,,,,,,,,39.02939320006408,None,space,4.048247099970467,39.02939320006408,None,,,,,,,,,,,,,,,,,,,,,,,,,,,,,,,,,,,,,,,,,,,,,,,,,,,,,,,,,,,,,,,,,,,,,,,,,,,,,11016,002,2024_Jan_04_1747,MFTM_A_new1021,2021.2.3,59.97465471342169,
0.6,0.6,0.6,-0.6,-0.6,right,3:2,R,,,,,,,,,,,0,0,0,0,,,,,,,,,,,,,,,,,,,,,,,,,,,43.11956400005147,None,43.11956400005147,None,43.11956400005147,None,43.11956400005147,None,43.11956400005147,None,43.11956400005147,None,right,1,1.0384383000200614,43.11956400005147,None,44.20448159996886,None,,,,,,,,,,,,,,,,,,,,,,,,,,,,,,,,,,,,,,,,,,,,,,,,,,,,,,,,,,11016,002,2024_Jan_04_1747,MFTM_A_new1021,2021.2.3,59.97465471342169,
-0.6,-0.6,-0.6,0.6,0.6,left,3:2,L,,,,,,,,,,,0,1,1,1,,,,,,,,,,,,,,,,,,,,,,,,,,,44.95486990001518,None,44.95486990001518,None,44.95486990001518,None,44.95486990001518,None,44.95486990001518,None,44.95486990001518,None,left,1,2.1149395999964327,44.95486990001518,None,47.09160060004797,None,,,,,,,,,,,,,,,,,,,,,,,,,,,,,,,,,,,,,,,,,,,,,,,,,,,,,,,,,,11016,002,2024_Jan_04_1747,MFTM_A_new1021,2021.2.3,59.97465471342169,
-0.6,-0.6,-0.6,0.6,0.6,left,3:2,L,,,,,,,,,,,1,0,2,1,,,,,,,,,,,,,,,,,,,,,,,,,,,47.842887600068934,None,47.842887600068934,None,47.842887600068934,None,47.842887600068934,None,47.842887600068934,None,47.842887600068934,None,left,1,6.338997099897824,47.842887600068934,None,54.20239390002098,None,,,,,,,,,,,,,,,,,,,,,,,,,,,,,,,,,,,,,,,,,,,,,,,,,,,,,,,,,,11016,002,2024_Jan_04_1747,MFTM_A_new1021,2021.2.3,59.97465471342169,
0.6,0.6,0.6,-0.6,-0.6,right,3:2,R,,,,,,,,,,,1,1,3,0,,,,,,,,,,,,,,,,,,,,,,,,,,,54.95350950001739,None,54.95350950001739,None,54.95350950001739,None,54.95350950001739,None,54.95350950001739,None,54.95350950001739,None,right,1,1.356952799949795,54.95350950001739,None,56.338923800038174,None,,,,,,,,,,,,,,,,,,,,,,,,,,,,,,,,,,,,,,,,,,,,,,,,,,,,,,,,,,11016,002,2024_Jan_04_1747,MFTM_A_new1021,2021.2.3,59.97465471342169,
,,,,,,,,stim/Instruction_mask.png,conditions/adaptive.xlsx,practice,-0.6,-0.6,-0.6,0.6,0.6,left,L,,,,,0,0,0,0,0,0,0,23,,,,,,,,,,,,,,,,,,,,,,,,,,,,,,,,,,,,,,57.44003429997247,None,space,2.0151223000139,57.44003429997247,None,59.610512600047514,None,left,1,2.907652599969879,59.99431099998765,None,59.99431099998765,62.999280599993654,59.99431099998765,62.999280599993654,59.99431099998765,62.999280599993654,59.99431099998765,62.999280599993654,59.99431099998765,62.999280599993654,62.9814558000071,63.482385999988765,62.9814558000071,63.482385999988765,62.9814558000071,63.482385999988765,62.9814558000071,63.482385999988765,62.9814558000071,63.482385999988765,62.9814558000071,63.482385999988765,62.9814558000071,63.482385999988765,62.9814558000071,63.482385999988765,59.99431099998765,None,63.482385999988765,63.482385999988765,3,63.49904989998322,None,64.2507881000638,None,,,,,,,,,,11016,002,2024_Jan_04_1747,MFTM_A_new1021,2021.2.3,59.97465471342169,
,,,,,,,,stim/Instruction_mask.png,conditions/adaptive.xlsx,practice,0.6,0.6,0.6,-0.6,-0.6,right,R,,,,,0,0,0,0,0,1,1,18,,,,,,,,,,,,,,,,,,,,,,,,,,,,,,,,,,,,,,,,,,,,64.75130490004085,None,right,1,1.0426074999850243,65.25206379999872,67.25452740001492,65.25206379999872,66.75382800004445,65.25206379999872,66.75382800004445,65.25206379999872,66.75382800004445,65.25206379999872,66.75382800004445,65.25206379999872,66.75382800004445,66.73702320002485,67.23838200001046,66.73702320002485,67.23838200001046,66.73702320002485,67.23838200001046,66.73702320002485,67.23838200001046,66.73702320002485,67.23838200001046,66.73702320002485,67.23838200001046,66.73702320002485,67.23838200001046,66.73702320002485,67.23838200001046,65.25206379999872,None,67.23838200001046,68.7403186999727,1.5,68.75681990000885,None,69.50832729996182,None,,,,,,,,,,11016,002,2024_Jan_04_1747,MFTM_A_new1021,2021.2.3,59.97465471342169,
,,,,,,,,stim/Instruction_mask.png,conditions/adaptive.xlsx,practice,0.6,0.6,0.6,-0.6,-0.6,right,R,,,,,0,0,0,0,0,2,2,98,,,,,,,,,,,,,,,,,,,,,,,,,,,,,,,,,,,,,,,,,,,,70.00938060006592,None,left,0,3.039351399987936,70.51051649998408,71.81171669997275,70.51051649998408,71.31114800006617,70.51051649998408,71.31114800006617,70.51051649998408,71.31114800006617,70.51051649998408,71.31114800006617,70.51051649998408,71.31114800006617,71.29386049997993,71.79463110002689,71.29386049997993,71.79463110002689,71.29386049997993,71.79463110002689,71.29386049997993,71.79463110002689,71.29386049997993,71.79463110002689,71.29386049997993,71.79463110002689,71.29386049997993,71.79463110002689,71.29386049997993,71.79463110002689,70.51051649998408,None,71.79463110002689,73.99837359995581,0.8,74.01426990004256,None,74.76569060003385,None,,,,,,,,,,11016,002,2024_Jan_04_1747,MFTM_A_new1021,2021.2.3,59.97465471342169,
,,,,,,,,stim/Instruction_mask.png,conditions/adaptive.xlsx,practice,0.6,0.6,0.6,-0.6,-0.6,right,R,,,,,0,0,0,0,0,3,3,22,,,,,,,,,,,,,,,,,,,,,,,,,,,,,,,,,,,,,,,,,,,,75.26737720007077,None,right,1,3.3829242000356317,75.76724299998023,76.51888049999252,75.76724299998023,76.01743850007188,75.76724299998023,76.01743850007188,75.76724299998023,76.01743850007188,75.76724299998023,76.01743850007188,75.76724299998023,76.01743850007188,76.00150100002065,76.50169449998066,76.00150100002065,76.50169449998066,76.00150100002065,76.50169449998066,76.00150100002065,76.50169449998066,76.00150100002065,76.50169449998066,76.00150100002065,76.50169449998066,76.00150100002065,76.50169449998066,76.00150100002065,76.50169449998066,75.76724299998023,None,76.50169449998066,79.25576810003258,3,79.27324819995556,None,80.02494669996668,None,,,,,,,,,,11016,002,2024_Jan_04_1747,MFTM_A_new1021,2021.2.3,59.97465471342169,
,,,,,,,,stim/Instruction_mask.png,conditions/adaptive.xlsx,practice,,,,,,,,,,,,0,0,0,0,,,,,,,,,,,,,,,,,,,,,,,,,,,,,,,,,,,,,,,,,,,,,,,,,,,,,,,,,,,,,,,,,,,,,,,,,,,,,,,,,,,,,,,,,,80.54090769996401,81.5424024000531,81.52736960002221,81.52736960002221,81.52736960002221,None,,,,11016,002,2024_Jan_04_1747,MFTM_A_new1021,2021.2.3,59.97465471342169,
,,,,,,,,stim/Instruction_adaptive.png,conditions/adaptive.xlsx,test,0.6,0.6,0.6,-0.6,-0.6,right,R,,,,,0,1,1,1,0,0,0,50,,,,,,,,,,,,,,,,,,,,,,,,,,,,,,,,,,,,,,84.73034959996585,None,space,8.443817299907096,84.73034959996585,None,93.22759010002483,None,right,1,2.734579800046049,93.71106060000602,None,93.71106060000602,96.71479390002787,93.71106060000602,96.71479390002787,93.71106060000602,96.71479390002787,93.71106060000602,96.71479390002787,93.71106060000602,96.71479390002787,96.69833409995772,97.20127910003066,96.69833409995772,97.20127910003066,96.69833409995772,97.20127910003066,96.69833409995772,97.20127910003066,96.69833409995772,97.20127910003066,96.69833409995772,97.20127910003066,96.69833409995772,97.20127910003066,96.69833409995772,97.20127910003066,93.71106060000602,None,97.20127910003066,97.20127910003066,3,97.2156299999915,None,97.96734189998824,None,,,,,,,0,6.000000000000005,1.0,11016,002,2024_Jan_04_1747,MFTM_A_new1021,2021.2.3,59.97465471342169,
,,,,,,,,stim/Instruction_adaptive.png,conditions/adaptive.xlsx,test,0.6,0.6,0.6,-0.6,-0.6,right,R,,,,,0,1,1,1,0,1,1,28,,,,,,,,,,,,,,,,,,,,,,,,,,,,,,,,,,,,,,,,,,,,98.46749219996855,None,right,1,0.7660005999496207,98.96814650006127,99.71995030005928,98.96814650006127,99.21913480001967,98.96814650006127,99.21913480001967,98.96814650006127,99.21913480001967,98.96814650006127,99.21913480001967,98.96814650006127,99.21913480001967,99.20190930005629,99.70339519996196,99.20190930005629,99.70339519996196,99.20190930005629,99.70339519996196,99.20190930005629,99.70339519996196,99.20190930005629,99.70339519996196,99.20190930005629,99.70339519996196,99.20190930005629,99.70339519996196,99.20190930005629,99.70339519996196,98.96814650006127,None,99.70339519996196,100.5879653999582,0.25,100.60374719998799,None,101.35553499998059,None,,,,,,,[0.875],6.000000000000005,1.0,11016,002,2024_Jan_04_1747,MFTM_A_new1021,2021.2.3,59.97465471342169,
,,,,,,,,stim/Instruction_adaptive.png,conditions/adaptive.xlsx,test,0.6,0.6,0.6,-0.6,-0.6,right,R,,,,,0,1,1,1,0,2,2,82,,,,,,,,,,,,,,,,,,,,,,,,,,,,,,,,,,,,,,,,,,,,101.85720680002123,None,right,1,1.2021848000586033,102.35640849999618,103.10778049996588,102.35640849999618,102.60762530006468,102.35640849999618,102.60762530006468,102.35640849999618,102.60762530006468,102.35640849999618,102.60762530006468,102.35640849999618,102.60762530006468,102.59116509999149,103.09156149998307,102.59116509999149,103.09156149998307,102.59116509999149,103.09156149998307,102.59116509999149,103.09156149998307,102.59116509999149,103.09156149998307,102.59116509999149,103.09156149998307,102.59116509999149,103.09156149998307,102.59116509999149,103.09156149998307,102.35640849999618,None,103.09156149998307,104.42706640006509,0.25,104.4433528999798,None,105.19482800003607,None,,,,,,,[1.33333333],6.000000000000005,1.0,11016,002,2024_Jan_04_1747,MFTM_A_new1021,2021.2.3,59.97465471342169,
,,,,,,,,stim/Instruction_adaptive.png,conditions/adaptive.xlsx,test,-0.6,-0.6,-0.6,0.6,0.6,left,L,,,,,0,1,1,1,0,3,3,99,,,,,,,,,,,,,,,,,,,,,,,,,,,,,,,,,,,,,,,,,,,,105.69571100000758,None,None,0,0,106.19614090002142,106.94748029997572,106.19614090002142,106.44694729999173,106.19614090002142,106.44694729999173,106.19614090002142,106.44694729999173,106.19614090002142,106.44694729999173,106.19614090002142,106.44694729999173,106.42983679997269,106.93010720005259,106.42983679997269,106.93010720005259,106.42983679997269,106.93010720005259,106.42983679997269,106.93010720005259,106.42983679997269,106.93010720005259,106.42983679997269,106.93010720005259,106.42983679997269,106.93010720005259,106.42983679997269,106.93010720005259,106.19614090002142,None,106.93010720005259,109.68417190003674,0.25,109.70053639996331,None,110.45280400000047,None,,,,,,,[[2.75]],4.030000000000003,0.75,11016,002,2024_Jan_04_1747,MFTM_A_new1021,2021.2.3,59.97465471342169,
,,,,,,,,stim/Instruction_adaptive.png,conditions/adaptive.xlsx,test,-0.6,-0.6,-0.6,0.6,0.6,left,L,,,,,0,1,1,1,0,4,4,41,,,,,,,,,,,,,,,,,,,,,,,,,,,,,,,,,,,,,,,,,,,,110.95315019995905,None,left,1,1.1281990999123082,111.45365060004406,112.35550669999793,111.45365060004406,111.8542763000587,111.45365060004406,111.8542763000587,111.45365060004406,111.8542763000587,111.45365060004406,111.8542763000587,111.45365060004406,111.8542763000587,111.83728089998476,112.33852750004735,111.83728089998476,112.33852750004735,111.83728089998476,112.33852750004735,111.83728089998476,112.33852750004735,111.83728089998476,112.33852750004735,111.83728089998476,112.33852750004735,111.83728089998476,112.33852750004735,111.83728089998476,112.33852750004735,111.45365060004406,None,112.33852750004735,None,0.40000000000000013,114.02359019999858,None,114.77493740001228,None,,,,,,,[1.67],4.700000000000004,0.8,11016,002,2024_Jan_04_1747,MFTM_A_new1021,2021.2.3,59.97465471342169,
,,,,,,,,stim/Instruction_adaptive.png,conditions/adaptive.xlsx,test,-0.6,-0.6,-0.6,0.6,0.6,left,L,,,,,0,1,1,1,0,5,5,83,,,,,,,,,,,,,,,,,,,,,,,,,,,,,,,,,,,,,,,,,,,,115.27563389996067,None,right,0,1.1648999999742955,115.79330560006201,116.54419140005484,115.79330560006201,116.04428260005079,115.79330560006201,116.04428260005079,115.79330560006201,116.04428260005079,115.79330560006201,116.04428260005079,115.79330560006201,116.04428260005079,116.01006070000585,116.51185420004185,116.01006070000585,116.51185420004185,116.01006070000585,116.51185420004185,116.01006070000585,116.51185420004185,116.01006070000585,116.51185420004185,116.01006070000585,116.51185420004185,116.01006070000585,116.51185420004185,116.01006070000585,116.51185420004185,115.79330560006201,None,116.51185420004185,118.28195680002682,0.25,118.31325210002251,None,119.06484660005663,None,,,,,,,[1.76666667],3.5600000000000027,0.6666666666666666,11016,002,2024_Jan_04_1747,MFTM_A_new1021,2021.2.3,59.97465471342169,
,,,,,,,,stim/Instruction_adaptive.png,conditions/adaptive.xlsx,test,0.6,0.6,0.6,-0.6,-0.6,right,R,,,,,0,1,1,1,0,6,6,26,,,,,,,,,,,,,,,,,,,,,,,,,,,,,,,,,,,,,,,,,,,,119.56543620000593,None,right,1,0.9788486999459565,120.06693129998166,121.13428060000297,120.06693129998166,120.63400880002882,120.06693129998166,120.63400880002882,120.06693129998166,120.63400880002882,120.06693129998166,120.63400880002882,120.06693129998166,120.63400880002882,120.61785689997487,121.117652200046,120.61785689997487,121.117652200046,120.61785689997487,121.117652200046,120.61785689997487,121.117652200046,120.61785689997487,121.117652200046,120.61785689997487,121.117652200046,120.61785689997487,121.117652200046,120.61785689997487,121.117652200046,120.06693129998166,None,121.117652200046,None,0.5600000000000003,122.9204696000088,None,123.67211260006297,None,,,,,,,[1.79142857],4.080000000000004,0.7142857142857143,11016,002,2024_Jan_04_1747,MFTM_A_new1021,2021.2.3,59.97465471342169,
,,,,,,,,stim/Instruction_adaptive.png,conditions/adaptive.xlsx,test,-0.6,-0.6,-0.6,0.6,0.6,left,L,,,,,0,1,1,1,0,7,7,39,,,,,,,,,,,,,,,,,,,,,,,,,,,,,,,,,,,,,,,,,,,,124.17272599996068,None,left,1,0.8288266999879852,124.67292140005156,125.57503990002442,124.67292140005156,125.07431100006215,124.67292140005156,125.07431100006215,124.67292140005156,125.07431100006215,124.67292140005156,125.07431100006215,124.67292140005156,125.07431100006215,125.04065520002041,125.54078679997474,125.04065520002041,125.54078679997474,125.04065520002041,125.54078679997474,125.04065520002041,125.54078679997474,125.04065520002041,125.54078679997474,125.04065520002041,125.54078679997474,125.04065520002041,125.54078679997474,125.04065520002041,125.54078679997474,124.67292140005156,None,125.54078679997474,127.37728660006542,0.3900000000000001,127.39378789998591,None,128.14537689997815,None,,,,,,,[1.83125],4.410000000000004,0.75,11016,002,2024_Jan_04_1747,MFTM_A_new1021,2021.2.3,59.97465471342169,
,,,,,,,,stim/Instruction_adaptive.png,conditions/adaptive.xlsx,test,0.6,0.6,0.6,-0.6,-0.6,right,R,,,,,0,1,1,1,0,8,8,10,,,,,,,,,,,,,,,,,,,,,,,,,,,,,,,,,,,,,,,,,,,,128.64548549999017,None,right,1,1.4994238000363111,129.14684910001233,129.96491590002552,129.14684910001233,129.4640324000502,129.14684910001233,129.4640324000502,129.14684910001233,129.4640324000502,129.14684910001233,129.4640324000502,129.14684910001233,129.4640324000502,129.447342999978,129.94839310005773,129.447342999978,129.94839310005773,129.447342999978,129.94839310005773,129.447342999978,129.94839310005773,129.447342999978,129.94839310005773,129.447342999978,129.94839310005773,129.447342999978,129.94839310005773,129.447342999978,129.94839310005773,129.14684910001233,None,129.93069119995926,131.80011900002137,0.31000000000000005,131.8339430000633,None,132.5851660000626,None,,,,,,,[1.87111111],4.660000000000004,0.7777777777777778,11016,002,2024_Jan_04_1747,MFTM_A_new1021,2021.2.3,59.97465471342169,
,,,,,,,,stim/Instruction_adaptive.png,conditions/adaptive.xlsx,test,0.6,0.6,0.6,-0.6,-0.6,right,R,,,,,0,1,1,1,0,9,9,86,,,,,,,,,,,,,,,,,,,,,,,,,,,,,,,,,,,,,,,,,,,,133.08542070002295,None,right,1,1.4438008998986334,133.58600780006964,134.35388980002608,133.58600780006964,133.85381900006905,133.58600780006964,133.85381900006905,133.58600780006964,133.85381900006905,133.58600780006964,133.85381900006905,133.58600780006964,133.85381900006905,133.83719630003907,134.3379129000241,133.83719630003907,134.3379129000241,133.83719630003907,134.3379129000241,133.83719630003907,134.3379129000241,133.83719630003907,134.3379129000241,133.83719630003907,134.3379129000241,133.83719630003907,134.3379129000241,133.83719630003907,134.3379129000241,133.58600780006964,None,134.3379129000241,None,0.26,136.25721630000044,None,137.00822860002518,None,,,,,,,[1.908],4.850000000000004,0.8,11016,002,2024_Jan_04_1747,MFTM_A_new1021,2021.2.3,59.97465471342169,
,,,,,,,,stim/Instruction_adaptive.png,conditions/adaptive.xlsx,test,-0.6,-0.6,-0.6,0.6,0.6,left,L,,,,,0,1,1,1,0,10,10,29,,,,,,,,,,,,,,,,,,,,,,,,,,,,,,,,,,,,,,,,,,,,137.50933080003597,None,right,0,1.3811576999723911,138.00929309998173,138.76054300006945,138.00929309998173,138.26009330002125,138.00929309998173,138.26009330002125,138.00929309998173,138.26009330002125,138.00929309998173,138.26009330002125,138.00929309998173,138.26009330002125,138.24399430002086,138.7437492000172,138.24399430002086,138.7437492000172,138.24399430002086,138.7437492000172,138.24399430002086,138.7437492000172,138.24399430002086,138.7437492000172,138.24399430002086,138.7437492000172,138.24399430002086,138.7437492000172,138.24399430002086,138.7437492000172,138.00929309998173,None,138.7437492000172,140.6973360000411,0.25,140.7134614000097,None,141.46546560002025,None,,,,,,,[1.93909091],4.320000000000004,0.7272727272727273,11016,002,2024_Jan_04_1747,MFTM_A_new1021,2021.2.3,59.97465471342169,
,,,,,,,,stim/Instruction_adaptive.png,conditions/adaptive.xlsx,test,0.6,0.6,0.6,-0.6,-0.6,right,R,,,,,0,1,1,1,0,11,11,48,,,,,,,,,,,,,,,,,,,,,,,,,,,,,,,,,,,,,,,,,,,,141.9653276000172,None,right,1,1.4207979999482632,142.4660097999731,143.30047400004696,142.4660097999731,142.80002019996755,142.4660097999731,142.80002019996755,142.4660097999731,142.80002019996755,142.4660097999731,142.80002019996755,142.4660097999731,142.80002019996755,142.78309899999294,143.28400069999043,142.78309899999294,143.28400069999043,142.78309899999294,143.28400069999043,142.78309899999294,143.28400069999043,142.78309899999294,143.28400069999043,142.78309899999294,143.28400069999043,142.78309899999294,143.28400069999043,142.78309899999294,143.28400069999043,142.4660097999731,None,143.28400069999043,None,0.33000000000000007,145.2533052000217,None,146.00538970006164,None,,,,,,,[1.95833333],4.510000000000003,0.75,11016,002,2024_Jan_04_1747,MFTM_A_new1021,2021.2.3,59.97465471342169,
,,,,,,,,stim/Instruction_adaptive.png,conditions/adaptive.xlsx,test,0.6,0.6,0.6,-0.6,-0.6,right,R,,,,,0,1,1,1,0,12,12,32,,,,,,,,,,,,,,,,,,,,,,,,,,,,,,,,,,,,,,,,,,,,146.50585169997066,None,left,0,0.7347181999357417,147.00706600002013,147.80726530007087,147.00706600002013,147.3066281999927,147.00706600002013,147.3066281999927,147.00706600002013,147.3066281999927,147.00706600002013,147.3066281999927,147.00706600002013,147.3066281999927,147.27385370002594,147.77384669997264,147.27385370002594,147.77384669997264,147.27385370002594,147.77384669997264,147.27385370002594,147.77384669997264,147.27385370002594,147.77384669997264,147.27385370002594,147.77384669997264,147.27385370002594,147.77384669997264,147.27385370002594,147.77384669997264,147.00706600002013,None,147.77384669997264,149.760638799984,0.29000000000000004,149.7766166999936,None,150.52849259995855,None,,,,,,,[1.97769231],4.010000000000003,0.6923076923076923,11016,002,2024_Jan_04_1747,MFTM_A_new1021,2021.2.3,59.97465471342169,
,,,,,,,,stim/Instruction_adaptive.png,conditions/adaptive.xlsx,test,-0.6,-0.6,-0.6,0.6,0.6,left,L,,,,,0,1,1,1,0,13,13,17,,,,,,,,,,,,,,,,,,,,,,,,,,,,,,,,,,,,,,,,,,,,151.0295903000515,None,left,1,1.3884465999435633,151.5299437000649,152.4482893999666,151.5299437000649,151.9466514000669,151.5299437000649,151.9466514000669,151.5299437000649,151.9466514000669,151.5299437000649,151.9466514000669,151.5299437000649,151.9466514000669,151.92976880003698,152.43085780006368,151.92976880003698,152.43085780006368,151.92976880003698,152.43085780006368,151.92976880003698,152.43085780006368,151.92976880003698,152.43085780006368,151.92976880003698,152.43085780006368,151.92976880003698,152.43085780006368,151.92976880003698,152.43085780006368,151.5299437000649,None,152.43085780006368,154.41827420005575,0.41000000000000014,154.43375870003365,None,155.18496540002525,None,,,,,,,[1.98571429],4.2100000000000035,0.7142857142857143,11016,002,2024_Jan_04_1747,MFTM_A_new1021,2021.2.3,59.97465471342169,
,,,,,,,,stim/Instruction_adaptive.png,conditions/adaptive.xlsx,test,0.6,0.6,0.6,-0.6,-0.6,right,R,,,,,0,1,1,1,0,14,14,20,,,,,,,,,,,,,,,,,,,,,,,,,,,,,,,,,,,,,,,,,,,,155.6855671000667,None,left,0,1.8275757000083104,156.1862398000667,157.05419709999114,156.1862398000667,156.55352509999648,156.1862398000667,156.55352509999648,156.1862398000667,156.55352509999648,156.1862398000667,156.55352509999648,156.1862398000667,156.55352509999648,156.5367389000021,157.0382158999564,156.5367389000021,157.0382158999564,156.5367389000021,157.0382158999564,156.5367389000021,157.0382158999564,156.5367389000021,157.0382158999564,156.5367389000021,157.0382158999564,156.5367389000021,157.0382158999564,156.5367389000021,157.0382158999564,156.1862398000667,None,157.0382158999564,None,0.3600000000000001,159.05818210006692,None,159.81091640004888,None,,,,,,,[1.996],3.700000000000003,0.6666666666666666,11016,002,2024_Jan_04_1747,MFTM_A_new1021,2021.2.3,59.97465471342169,
,,,,,,,,stim/Instruction_adaptive.png,conditions/adaptive.xlsx,test,0.6,0.6,0.6,-0.6,-0.6,right,R,,,,,0,1,1,1,0,15,15,8,,,,,,,,,,,,,,,,,,,,,,,,,,,,,,,,,,,,,,,,,,,,160.30971319996752,None,right,1,1.5239957999438047,160.81041769997682,161.82868400006555,160.81041769997682,161.3277204000624,160.81041769997682,161.3277204000624,160.81041769997682,161.3277204000624,160.81041769997682,161.3277204000624,160.81041769997682,161.3277204000624,161.29501030000392,161.79549809999298,161.29501030000392,161.79549809999298,161.29501030000392,161.79549809999298,161.29501030000392,161.79549809999298,161.29501030000392,161.79549809999298,161.29501030000392,161.79549809999298,161.29501030000392,161.79549809999298,161.29501030000392,161.79549809999298,160.81041769997682,None,161.79549809999298,163.79806479997933,0.5100000000000002,163.81413690000772,None,164.5658671000274,None,,,,,,,[[1.99]],3.910000000000003,0.6875,11016,002,2024_Jan_04_1747,MFTM_A_new1021,2021.2.3,59.97465471342169,
,,,,,,,,stim/Instruction_adaptive.png,conditions/adaptive.xlsx,test,0.6,0.6,0.6,-0.6,-0.6,right,R,,,,,0,1,1,1,0,16,16,42,,,,,,,,,,,,,,,,,,,,,,,,,,,,,,,,,,,,,,,,,,,,165.0666898000054,None,right,1,1.3028502999804914,165.5669448999688,166.51887809997424,165.5669448999688,166.01823110005353,165.5669448999688,166.01823110005353,165.5669448999688,166.01823110005353,165.5669448999688,166.01823110005353,165.5669448999688,166.01823110005353,165.98449359997176,166.48540300002787,165.98449359997176,166.48540300002787,165.98449359997176,166.48540300002787,165.98449359997176,166.48540300002787,165.98449359997176,166.48540300002787,165.98449359997176,166.48540300002787,165.98449359997176,166.48540300002787,165.98449359997176,166.48540300002787,165.5669448999688,None,166.48540300002787,168.48835700005293,0.44000000000000017,168.5214933999814,None,169.27244510001037,None,,,,,,,[1.99941176],4.070000000000003,0.7058823529411765,11016,002,2024_Jan_04_1747,MFTM_A_new1021,2021.2.3,59.97465471342169,
,,,,,,,,stim/Instruction_adaptive.png,conditions/adaptive.xlsx,test,-0.6,-0.6,-0.6,0.6,0.6,left,L,,,,,0,1,1,1,0,17,17,77,,,,,,,,,,,,,,,,,,,,,,,,,,,,,,,,,,,,,,,,,,,,169.77314950001892,None,left,1,1.3879960000049323,170.27376420004293,171.17586940003093,170.27376420004293,170.67517080006655,170.27376420004293,170.67517080006655,170.27376420004293,170.67517080006655,170.27376420004293,170.67517080006655,170.27376420004293,170.67517080006655,170.6421608000528,171.14198479999322,170.6421608000528,171.14198479999322,170.6421608000528,171.14198479999322,170.6421608000528,171.14198479999322,170.6421608000528,171.14198479999322,170.6421608000528,171.14198479999322,170.6421608000528,171.14198479999322,170.6421608000528,171.14198479999322,170.27376420004293,None,171.14198479999322,173.16136310005095,0.3900000000000001,173.17817049997393,None,173.9302369999932,None,,,,,,,[2.00555556],4.200000000000003,0.7222222222222222,11016,002,2024_Jan_04_1747,MFTM_A_new1021,2021.2.3,59.97465471342169,
,,,,,,,,stim/Instruction_adaptive.png,conditions/adaptive.xlsx,test,-0.6,-0.6,-0.6,0.6,0.6,left,L,,,,,0,1,1,1,0,18,18,57,,,,,,,,,,,,,,,,,,,,,,,,,,,,,,,,,,,,,,,,,,,,174.43088320002425,None,right,0,2.0105914999730885,174.93125939997844,175.79894280002918,174.93125939997844,175.29858740000054,174.93125939997844,175.29858740000054,174.93125939997844,175.29858740000054,174.93125939997844,175.29858740000054,174.93125939997844,175.29858740000054,175.26460940006655,175.765241599991,175.26460940006655,175.765241599991,175.26460940006655,175.765241599991,175.26460940006655,175.765241599991,175.26460940006655,175.765241599991,175.26460940006655,175.765241599991,175.26460940006655,175.765241599991,175.26460940006655,175.765241599991,174.93125939997844,None,175.765241599991,177.7871465999633,0.3600000000000001,177.8194992999779,None,178.57019830006175,None,,,,,,,[2.01263158],3.840000000000003,0.6842105263157895,11016,002,2024_Jan_04_1747,MFTM_A_new1021,2021.2.3,59.97465471342169,
,,,,,,,,stim/Instruction_adaptive.png,conditions/adaptive.xlsx,test,-0.6,-0.6,-0.6,0.6,0.6,left,L,,,,,0,1,1,1,0,19,19,79,,,,,,,,,,,,,,,,,,,,,,,,,,,,,,,,,,,,,,,,,,,,179.0701253999723,None,left,1,1.6272175000049174,179.57151759997942,180.53895630000625,179.57151759997942,180.04029749997426,179.57151759997942,180.04029749997426,179.57151759997942,180.04029749997426,179.57151759997942,180.04029749997426,179.57151759997942,180.04029749997426,180.00484810001217,180.5058017000556,180.00484810001217,180.5058017000556,180.00484810001217,180.5058017000556,180.00484810001217,180.5058017000556,180.00484810001217,180.5058017000556,180.00484810001217,180.5058017000556,180.00484810001217,180.5058017000556,180.00484810001217,180.5058017000556,179.57151759997942,None,180.5058017000556,182.52594620001037,0.4600000000000002,182.5585169000551,None,183.30983729998115,None,,,,,,,[2.014],3.980000000000003,0.7,11016,002,2024_Jan_04_1747,MFTM_A_new1021,2021.2.3,59.97465471342169,
,,,,,,,,stim/Instruction_adaptive.png,conditions/adaptive.xlsx,test,0.6,0.6,0.6,-0.6,-0.6,right,R,,,,,0,1,1,1,0,20,20,52,,,,,,,,,,,,,,,,,,,,,,,,,,,,,,,,,,,,,,,,,,,,183.81146570004057,None,left,0,2.0059086000546813,184.31205559999216,185.24664470006246,184.31205559999216,184.74546330003068,184.31205559999216,184.74546330003068,184.31205559999216,184.74546330003068,184.31205559999216,184.74546330003068,184.31205559999216,184.74546330003068,184.7124181999825,185.21295309998095,184.7124181999825,185.21295309998095,184.7124181999825,185.21295309998095,184.7124181999825,185.21295309998095,184.7124181999825,185.21295309998095,184.7124181999825,185.21295309998095,184.7124181999825,185.21295309998095,184.7124181999825,185.21295309998095,184.31205559999216,None,185.21295309998095,187.2323413999984,0.42000000000000015,187.24962400004733,None,188.0007387000369,None,,,,,,,[2.01714286],3.6000000000000028,0.6666666666666666,11016,002,2024_Jan_04_1747,MFTM_A_new1021,2021.2.3,59.97465471342169,
,,,,,,,,stim/Instruction_adaptive.png,conditions/adaptive.xlsx,test,-0.6,-0.6,-0.6,0.6,0.6,left,L,,,,,0,1,1,1,0,21,21,59,,,,,,,,,,,,,,,,,,,,,,,,,,,,,,,,,,,,,,,,,,,,188.50156520004384,None,left,1,2.0612504000309855,189.001547700027,190.05372950003948,189.001547700027,189.55228820000775,189.001547700027,189.55228820000775,189.001547700027,189.55228820000775,189.001547700027,189.55228820000775,189.001547700027,189.55228820000775,189.51967579999473,190.02058650006074,189.51967579999473,190.02058650006074,189.51967579999473,190.02058650006074,189.51967579999473,190.02058650006074,189.51967579999473,190.02058650006074,189.51967579999473,190.02058650006074,189.51967579999473,190.02058650006074,189.51967579999473,190.02058650006074,189.001547700027,None,190.02058650006074,191.98968270001933,0.5400000000000003,192.0067265999969,None,192.75717650004663,None,,,,,,,[[1.96]],3.740000000000003,0.6818181818181818,11016,002,2024_Jan_04_1747,MFTM_A_new1021,2021.2.3,59.97465471342169,
,,,,,,,,stim/Instruction_adaptive.png,conditions/adaptive.xlsx,test,0.6,0.6,0.6,-0.6,-0.6,right,R,,,,,0,1,1,1,0,22,22,12,,,,,,,,,,,,,,,,,,,,,,,,,,,,,,,,,,,,,,,,,,,,193.25827610003762,None,right,1,1.1912789000198245,193.758624900016,194.7602116999915,193.758624900016,194.2599497999763,193.758624900016,194.2599497999763,193.758624900016,194.2599497999763,193.758624900016,194.2599497999763,193.758624900016,194.2599497999763,194.22608809999656,194.72693520004395,194.22608809999656,194.72693520004395,194.22608809999656,194.72693520004395,194.22608809999656,194.72693520004395,194.22608809999656,194.72693520004395,194.22608809999656,194.72693520004395,194.22608809999656,194.72693520004395,194.22608809999656,194.72693520004395,193.758624900016,None,194.72693520004395,196.74643850000575,0.4900000000000002,196.76313830004074,None,197.51446710003074,None,,,,,,,[[2.01]],3.8700000000000028,0.6956521739130435,11016,002,2024_Jan_04_1747,MFTM_A_new1021,2021.2.3,59.97465471342169,
,,,,,,,,stim/Instruction_adaptive.png,conditions/adaptive.xlsx,test,-0.6,-0.6,-0.6,0.6,0.6,left,L,,,,,0,1,1,1,0,23,23,75,,,,,,,,,,,,,,,,,,,,,,,,,,,,,,,,,,,,,,,,,,,,198.01542279997375,None,left,1,1.59385329997167,198.51634810003452,199.46772019995842,198.51634810003452,198.96633329999167,198.51634810003452,198.96633329999167,198.51634810003452,198.96633329999167,198.51634810003452,198.96633329999167,198.51634810003452,198.96633329999167,198.9496423000237,199.45120839995798,198.9496423000237,199.45120839995798,198.9496423000237,199.45120839995798,198.9496423000237,199.45120839995798,198.9496423000237,199.45120839995798,198.9496423000237,199.45120839995798,198.9496423000237,199.45120839995798,198.9496423000237,199.45120839995798,198.51634810003452,None,199.45120839995798,201.47096790000796,0.4500000000000002,201.48682320001535,None,202.238311800058,None,,,,,,,[2.01583333],3.980000000000003,0.7083333333333334,11016,002,2024_Jan_04_1747,MFTM_A_new1021,2021.2.3,59.97465471342169,
,,,,,,,,stim/Instruction_adaptive.png,conditions/adaptive.xlsx,test,-0.6,-0.6,-0.6,0.6,0.6,left,L,,,,,0,1,1,1,0,24,24,49,,,,,,,,,,,,,,,,,,,,,,,,,,,,,,,,,,,,,,,,,,,,202.73929449997377,None,left,1,1.8621475000400096,203.24016980000306,204.1744880999904,203.24016980000306,203.67318250006065,203.24016980000306,203.67318250006065,203.24016980000306,203.67318250006065,203.24016980000306,203.67318250006065,203.24016980000306,203.67318250006065,203.64037679997273,204.14125390001573,203.64037679997273,204.14125390001573,203.64037679997273,204.14125390001573,203.64037679997273,204.14125390001573,203.64037679997273,204.14125390001573,203.64037679997273,204.14125390001573,203.64037679997273,204.14125390001573,203.64037679997273,204.14125390001573,203.24016980000306,None,204.14125390001573,206.1607251999667,0.42000000000000015,206.19368320005015,None,206.94547170004807,None,,,,,,,[2.0184],4.070000000000003,0.72,11016,002,2024_Jan_04_1747,MFTM_A_new1021,2021.2.3,59.97465471342169,
,,,,,,,,stim/Instruction_adaptive.png,conditions/adaptive.xlsx,test,0.6,0.6,0.6,-0.6,-0.6,right,R,,,,,0,1,1,1,0,25,25,18,,,,,,,,,,,,,,,,,,,,,,,,,,,,,,,,,,,,,,,,,,,,207.44630329997744,None,right,1,2.5312176999868825,207.94705600000452,208.8476508000167,207.94705600000452,208.3472902000649,207.94705600000452,208.3472902000649,207.94705600000452,208.3472902000649,207.94705600000452,208.3472902000649,207.94705600000452,208.3472902000649,208.31416189996526,208.815419999999,208.31416189996526,208.815419999999,208.31416189996526,208.815419999999,208.31416189996526,208.815419999999,208.31416189996526,208.815419999999,208.31416189996526,208.815419999999,208.31416189996526,208.815419999999,208.31416189996526,208.815419999999,207.94705600000452,None,208.815419999999,210.8513840000378,0.3900000000000001,210.8672248000512,None,211.61910370003898,None,,,,,,,[2.02192308],4.160000000000004,0.7307692307692307,11016,002,2024_Jan_04_1747,MFTM_A_new1021,2021.2.3,59.97465471342169,
,,,,,,,,stim/Instruction_adaptive.png,conditions/adaptive.xlsx,test,-0.6,-0.6,-0.6,0.6,0.6,left,L,,,,,0,1,1,1,0,26,26,53,,,,,,,,,,,,,,,,,,,,,,,,,,,,,,,,,,,,,,,,,,,,212.11966600001324,None,right,0,2.202075899927877,212.61992129997816,213.5049916000571,212.61992129997816,213.00480670004617,212.61992129997816,213.00480670004617,212.61992129997816,213.00480670004617,212.61992129997816,213.00480670004617,212.61992129997816,213.00480670004617,212.97055399999954,213.47118810005486,212.97055399999954,213.47118810005486,212.97055399999954,213.47118810005486,212.97055399999954,213.47118810005486,212.97055399999954,213.47118810005486,212.97055399999954,213.47118810005486,212.97055399999954,213.47118810005486,212.97055399999954,213.47118810005486,212.61992129997816,None,213.47118810005486,215.50787470000796,0.3700000000000001,215.541815900011,None,216.29488070006482,None,,,,,,,[2.02592593],3.920000000000003,0.7037037037037037,11016,002,2024_Jan_04_1747,MFTM_A_new1021,2021.2.3,59.97465471342169,
,,,,,,,,stim/Instruction_adaptive.png,conditions/adaptive.xlsx,test,0.6,0.6,0.6,-0.6,-0.6,right,R,,,,,0,1,1,1,0,27,27,78,,,,,,,,,,,,,,,,,,,,,,,,,,,,,,,,,,,,,,,,,,,,216.79288409999572,None,right,1,2.1438958999933675,217.29445330007002,218.2284313000273,217.29445330007002,217.72768630005885,217.29445330007002,217.72768630005885,217.29445330007002,217.72768630005885,217.29445330007002,217.72768630005885,217.29445330007002,217.72768630005885,217.71113239997067,218.21173420001287,217.71113239997067,218.21173420001287,217.71113239997067,218.21173420001287,217.71113239997067,218.21173420001287,217.71113239997067,218.21173420001287,217.71113239997067,218.21173420001287,217.71113239997067,218.21173420001287,217.71113239997067,218.21173420001287,217.29445330007002,None,218.21173420001287,220.24859239999205,0.43000000000000016,220.28239970002323,None,221.0326977999648,None,,,,,,,[2.0275],4.0000000000000036,0.7142857142857143,11016,002,2024_Jan_04_1747,MFTM_A_new1021,2021.2.3,59.97465471342169,
,,,,,,,,stim/Instruction_adaptive.png,conditions/adaptive.xlsx,test,0.6,0.6,0.6,-0.6,-0.6,right,R,,,,,0,1,1,1,0,28,28,24,,,,,,,,,,,,,,,,,,,,,,,,,,,,,,,,,,,,,,,,,,,,221.53379520005547,None,left,0,1.8925609000725672,222.0343783000717,222.95242560002953,222.0343783000717,222.4518288000254,222.0343783000717,222.4518288000254,222.0343783000717,222.4518288000254,222.0343783000717,222.4518288000254,222.0343783000717,222.4518288000254,222.41793240001425,222.91869429999497,222.41793240001425,222.91869429999497,222.41793240001425,222.91869429999497,222.41793240001425,222.91869429999497,222.41793240001425,222.91869429999497,222.41793240001425,222.91869429999497,222.41793240001425,222.91869429999497,222.41793240001425,222.91869429999497,222.0343783000717,None,222.91869429999497,224.95493600005284,0.41000000000000014,224.9881311999634,None,225.7393299000105,None,,,,,,,[2.02965517],3.760000000000003,0.6896551724137931,11016,002,2024_Jan_04_1747,MFTM_A_new1021,2021.2.3,59.97465471342169,
,,,,,,,,stim/Instruction_adaptive.png,conditions/adaptive.xlsx,test,0.6,0.6,0.6,-0.6,-0.6,right,R,,,,,0,1,1,1,0,29,29,62,,,,,,,,,,,,,,,,,,,,,,,,,,,,,,,,,,,,,,,,,,,,226.24021149997134,None,right,1,1.9285698999883607,226.74137960001826,227.74303989997134,226.74137960001826,227.24152300006244,226.74137960001826,227.24152300006244,226.74137960001826,227.24152300006244,226.74137960001826,227.24152300006244,226.74137960001826,227.24152300006244,227.20905790000688,227.70905539998785,227.20905790000688,227.70905539998785,227.20905790000688,227.70905539998785,227.20905790000688,227.70905539998785,227.20905790000688,227.70905539998785,227.20905790000688,227.70905539998785,227.20905790000688,227.70905539998785,227.20905790000688,227.70905539998785,226.74137960001826,None,227.70905539998785,229.72875050001312,0.4900000000000002,229.74611229996663,None,230.49731710006017,None,,,,,,,[[2.01]],3.850000000000003,0.7,11016,002,2024_Jan_04_1747,MFTM_A_new1021,2021.2.3,59.97465471342169,
,,,,,,,,stim/Instruction_adaptive.png,conditions/adaptive.xlsx,test,-0.6,-0.6,-0.6,0.6,0.6,left,L,,,,,0,1,1,1,0,30,30,89,,,,,,,,,,,,,,,,,,,,,,,,,,,,,,,,,,,,,,,,,,,,230.99780889996327,None,left,1,2.243757599964738,231.49813500000164,232.46670410002116,231.49813500000164,231.9663868000498,231.49813500000164,231.9663868000498,231.49813500000164,231.9663868000498,231.49813500000164,231.9663868000498,231.49813500000164,231.9663868000498,231.94871040002909,232.44981859996915,231.94871040002909,232.44981859996915,231.94871040002909,232.44981859996915,231.94871040002909,232.44981859996915,231.94871040002909,232.44981859996915,231.94871040002909,232.44981859996915,231.94871040002909,232.44981859996915,231.94871040002909,232.44981859996915,231.49813500000164,None,232.44981859996915,234.4861675000284,0.4600000000000002,234.50248649995774,None,235.2535989000462,None,,,,,,,[2.02935484],3.9300000000000033,0.7096774193548387,11016,002,2024_Jan_04_1747,MFTM_A_new1021,2021.2.3,59.97465471342169,
,,,,,,,,stim/Instruction_adaptive.png,conditions/adaptive.xlsx,test,-0.6,-0.6,-0.6,0.6,0.6,left,L,,,,,0,1,1,1,0,31,31,51,,,,,,,,,,,,,,,,,,,,,,,,,,,,,,,,,,,,,,,,,,,,235.7545106000034,None,left,1,2.1274560000747442,236.25572290003765,237.18967079999857,236.25572290003765,236.68917869997676,236.25572290003765,236.68917869997676,236.25572290003765,236.68917869997676,236.25572290003765,236.68917869997676,236.25572290003765,236.68917869997676,236.672820399981,237.17290820006747,236.672820399981,237.17290820006747,236.672820399981,237.17290820006747,236.672820399981,237.17290820006747,236.672820399981,237.17290820006747,236.672820399981,237.17290820006747,236.672820399981,237.17290820006747,236.672820399981,237.17290820006747,236.25572290003765,None,237.17290820006747,239.2115877000615,0.43000000000000016,239.2258135000011,None,239.97723840002436,None,,,,,,,[2.030625],4.0000000000000036,0.71875,11016,002,2024_Jan_04_1747,MFTM_A_new1021,2021.2.3,59.97465471342169,
,,,,,,,,stim/Instruction_adaptive.png,conditions/adaptive.xlsx,test,0.6,0.6,0.6,-0.6,-0.6,right,R,,,,,0,1,1,1,0,32,32,58,,,,,,,,,,,,,,,,,,,,,,,,,,,,,,,,,,,,,,,,,,,,240.4783000999596,None,right,1,3.1233231000369415,240.9786850999808,241.8974471000256,240.9786850999808,241.39579249999952,240.9786850999808,241.39579249999952,240.9786850999808,241.39579249999952,240.9786850999808,241.39579249999952,240.9786850999808,241.39579249999952,241.37976749998052,241.8804681999609,241.37976749998052,241.8804681999609,241.37976749998052,241.8804681999609,241.37976749998052,241.8804681999609,241.37976749998052,241.8804681999609,241.37976749998052,241.8804681999609,241.37976749998052,241.8804681999609,241.37976749998052,241.8804681999609,240.9786850999808,None,241.8804681999609,244.11657519999426,0.41000000000000014,244.13441409997176,None,244.88444279995747,None,,,,,,,[2.03242424],4.070000000000003,0.7272727272727273,11016,002,2024_Jan_04_1747,MFTM_A_new1021,2021.2.3,59.97465471342169,
,,,,,,,,stim/Instruction_adaptive.png,conditions/adaptive.xlsx,test,0.6,0.6,0.6,-0.6,-0.6,right,R,,,,,0,1,1,1,0,33,33,70,,,,,,,,,,,,,,,,,,,,,,,,,,,,,,,,,,,,,,,,,,,,245.38600120006595,None,right,1,1.151948899962008,245.88640870002564,246.78730279998854,245.88640870002564,246.28653969999868,245.88640870002564,246.28653969999868,245.88640870002564,246.28653969999868,245.88640870002564,246.28653969999868,245.88640870002564,246.28653969999868,246.25305509997997,246.7538698000135,246.25305509997997,246.7538698000135,246.25305509997997,246.7538698000135,246.25305509997997,246.7538698000135,246.25305509997997,246.7538698000135,246.25305509997997,246.7538698000135,246.25305509997997,246.7538698000135,246.25305509997997,246.7538698000135,245.88640870002564,None,246.7538698000135,248.7902946000686,0.3900000000000001,248.82445409998763,None,249.5756265000673,None,,,,,,,[2.03470588],4.140000000000003,0.7352941176470589,11016,002,2024_Jan_04_1747,MFTM_A_new1021,2021.2.3,59.97465471342169,
,,,,,,,,stim/Instruction_adaptive.png,conditions/adaptive.xlsx,test,-0.6,-0.6,-0.6,0.6,0.6,left,L,,,,,0,1,1,1,0,34,34,37,,,,,,,,,,,,,,,,,,,,,,,,,,,,,,,,,,,,,,,,,,,,250.07550859998446,None,left,1,1.390190599951893,250.5765403000405,251.4607626000652,250.5765403000405,250.9606611999916,250.5765403000405,250.9606611999916,250.5765403000405,250.9606611999916,250.5765403000405,250.9606611999916,250.5765403000405,250.9606611999916,250.92730470001698,251.42737980000675,250.92730470001698,251.42737980000675,250.92730470001698,251.42737980000675,250.92730470001698,251.42737980000675,250.92730470001698,251.42737980000675,250.92730470001698,251.42737980000675,250.92730470001698,251.42737980000675,250.92730470001698,251.42737980000675,250.5765403000405,None,251.42737980000675,253.46411870000884,0.3700000000000001,253.4971142000286,None,254.24909379996825,None,,,,,,,[2.03742857],4.190000000000003,0.7428571428571429,11016,002,2024_Jan_04_1747,MFTM_A_new1021,2021.2.3,59.97465471342169,
,,,,,,,,stim/Instruction_adaptive.png,conditions/adaptive.xlsx,test,-0.6,-0.6,-0.6,0.6,0.6,left,L,,,,,0,1,1,1,0,35,35,13,,,,,,,,,,,,,,,,,,,,,,,,,,,,,,,,,,,,,,,,,,,,254.74964829999954,None,right,0,1.5640720000956208,255.24994859995786,256.1177689000033,255.24994859995786,255.61708910006564,255.24994859995786,255.61708910006564,255.24994859995786,255.61708910006564,255.24994859995786,255.61708910006564,255.24994859995786,255.61708910006564,255.6003994999919,256.10108789999504,255.6003994999919,256.10108789999504,255.6003994999919,256.10108789999504,255.6003994999919,256.10108789999504,255.6003994999919,256.10108789999504,255.6003994999919,256.10108789999504,255.6003994999919,256.10108789999504,255.6003994999919,256.10108789999504,255.24994859995786,None,256.10108789999504,None,0.3600000000000001,258.15416939998977,None,258.9052624000469,None,,,,,,,[2.04027778],4.030000000000003,0.7222222222222222,11016,002,2024_Jan_04_1747,MFTM_A_new1021,2021.2.3,59.97465471342169,
,,,,,,,,stim/Instruction_adaptive.png,conditions/adaptive.xlsx,test,0.6,0.6,0.6,-0.6,-0.6,right,R,,,,,0,1,1,1,0,36,36,98,,,,,,,,,,,,,,,,,,,,,,,,,,,,,,,,,,,,,,,,,,,,259.40664910001215,None,right,1,1.4824791999999434,259.9074692999711,260.80789220007136,259.9074692999711,260.3081569999922,259.9074692999711,260.3081569999922,259.9074692999711,260.3081569999922,259.9074692999711,260.3081569999922,259.9074692999711,260.3081569999922,260.29055370006245,260.7912831000285,260.29055370006245,260.7912831000285,260.29055370006245,260.7912831000285,260.29055370006245,260.7912831000285,260.29055370006245,260.7912831000285,260.29055370006245,260.7912831000285,260.29055370006245,260.7912831000285,260.29055370006245,260.7912831000285,259.9074692999711,None,260.7912831000285,262.8450367000187,0.40000000000000013,262.86116860003676,None,263.6132644000463,None,,,,,,,[2.04189189],4.090000000000003,0.7297297297297297,11016,002,2024_Jan_04_1747,MFTM_A_new1021,2021.2.3,59.97465471342169,
,,,,,,,,stim/Instruction_adaptive.png,conditions/adaptive.xlsx,test,0.6,0.6,0.6,-0.6,-0.6,right,R,,,,,0,1,1,1,0,37,37,60,,,,,,,,,,,,,,,,,,,,,,,,,,,,,,,,,,,,,,,,,,,,264.11357919999864,None,left,0,0.9924266000743955,264.6140137000475,265.5156436000252,264.6140137000475,265.0155781999929,264.6140137000475,265.0155781999929,264.6140137000475,265.0155781999929,264.6140137000475,265.0155781999929,264.6140137000475,265.0155781999929,264.9807753000641,265.48212729999796,264.9807753000641,265.48212729999796,264.9807753000641,265.48212729999796,264.9807753000641,265.48212729999796,264.9807753000641,265.48212729999796,264.9807753000641,265.48212729999796,264.9807753000641,265.48212729999796,264.9807753000641,265.48212729999796,264.6140137000475,None,265.48212729999796,267.5347815999994,0.3900000000000001,267.5519515000051,None,268.30316809995566,None,,,,,,,[2.04368421],3.910000000000003,0.7105263157894737,11016,002,2024_Jan_04_1747,MFTM_A_new1021,2021.2.3,59.97465471342169,
,,,,,,,,stim/Instruction_adaptive.png,conditions/adaptive.xlsx,test,0.6,0.6,0.6,-0.6,-0.6,right,R,,,,,0,1,1,1,0,38,38,74,,,,,,,,,,,,,,,,,,,,,,,,,,,,,,,,,,,,,,,,,,,,268.80373290006537,None,right,1,1.277331400080584,269.30465449998155,270.2557241000468,269.30465449998155,269.75474860006943,269.30465449998155,269.75474860006943,269.30465449998155,269.75474860006943,269.30465449998155,269.75474860006943,269.30465449998155,269.75474860006943,269.72190790006425,270.2222257000394,269.72190790006425,270.2222257000394,269.72190790006425,270.2222257000394,269.72190790006425,270.2222257000394,269.72190790006425,270.2222257000394,269.72190790006425,270.2222257000394,269.72190790006425,270.2222257000394,269.72190790006425,270.2222257000394,269.30465449998155,None,270.2222257000394,272.2750302000204,0.44000000000000017,272.3084194000112,None,273.05952889996115,None,,,,,,,[2.04410256],3.980000000000003,0.717948717948718,11016,002,2024_Jan_04_1747,MFTM_A_new1021,2021.2.3,59.97465471342169,
,,,,,,,,stim/Instruction_adaptive.png,conditions/adaptive.xlsx,test,0.6,0.6,0.6,-0.6,-0.6,right,R,,,,,0,1,1,1,0,39,39,88,,,,,,,,,,,,,,,,,,,,,,,,,,,,,,,,,,,,,,,,,,,,273.5611946999561,None,right,1,1.0728218000149354,274.06136230006814,274.99576660001185,274.06136230006814,274.49563230003696,274.06136230006814,274.49563230003696,274.06136230006814,274.49563230003696,274.06136230006814,274.49563230003696,274.06136230006814,274.49563230003696,274.4622946999734,274.9623139000032,274.4622946999734,274.9623139000032,274.4622946999734,274.9623139000032,274.4622946999734,274.9623139000032,274.4622946999734,274.9623139000032,274.4622946999734,274.9623139000032,274.4622946999734,274.9623139000032,274.4622946999734,274.9623139000032,274.06136230006814,None,274.9623139000032,277.01603359996807,0.42000000000000015,277.03209260001313,None,277.7836338999914,None,,,,,,,[2.045],4.030000000000003,0.725,11016,002,2024_Jan_04_1747,MFTM_A_new1021,2021.2.3,59.97465471342169,
,,,,,,,,stim/Instruction_adaptive.png,conditions/adaptive.xlsx,test,-0.6,-0.6,-0.6,0.6,0.6,left,L,,,,,0,1,1,1,0,40,40,23,,,,,,,,,,,,,,,,,,,,,,,,,,,,,,,,,,,,,,,,,,,,278.2845910000615,None,left,1,1.5894507000921294,278.7845296000596,279.6866007000208,278.7845296000596,279.18606830004137,278.7845296000596,279.18606830004137,278.7845296000596,279.18606830004137,278.7845296000596,279.18606830004137,278.7845296000596,279.18606830004137,279.1693339999765,279.67000140005257,279.1693339999765,279.67000140005257,279.1693339999765,279.67000140005257,279.1693339999765,279.67000140005257,279.1693339999765,279.67000140005257,279.1693339999765,279.67000140005257,279.1693339999765,279.67000140005257,279.1693339999765,279.67000140005257,278.7845296000596,None,279.67000140005257,281.72303830005694,0.40000000000000013,281.74000240000896,None,282.490685799974,None,,,,,,,[2.04634146],4.090000000000003,0.7317073170731707,11016,002,2024_Jan_04_1747,MFTM_A_new1021,2021.2.3,59.97465471342169,
,,,,,,,,stim/Instruction_adaptive.png,conditions/adaptive.xlsx,test,-0.6,-0.6,-0.6,0.6,0.6,left,L,,,,,0,1,1,1,0,41,41,85,,,,,,,,,,,,,,,,,,,,,,,,,,,,,,,,,,,,,,,,,,,,282.99199999996927,None,right,0,1.2814788999967277,283.4924212000333,284.39366719999816,283.4924212000333,283.89253010007087,283.4924212000333,283.89253010007087,283.4924212000333,283.89253010007087,283.4924212000333,283.89253010007087,283.4924212000333,283.89253010007087,283.85952960001305,284.35963510000147,283.85952960001305,284.35963510000147,283.85952960001305,284.35963510000147,283.85952960001305,284.35963510000147,283.85952960001305,284.35963510000147,283.85952960001305,284.35963510000147,283.85952960001305,284.35963510000147,283.85952960001305,284.35963510000147,283.4924212000333,None,284.35963510000147,286.4131721999729,0.3900000000000001,286.4291159999557,None,287.18107439996675,None,,,,,,,[2.04785714],3.9300000000000033,0.7142857142857143,11016,002,2024_Jan_04_1747,MFTM_A_new1021,2021.2.3,59.97465471342169,
,,,,,,,,stim/Instruction_adaptive.png,conditions/adaptive.xlsx,test,-0.6,-0.6,-0.6,0.6,0.6,left,L,,,,,0,1,1,1,0,42,42,5,,,,,,,,,,,,,,,,,,,,,,,,,,,,,,,,,,,,,,,,,,,,287.6818889999995,None,left,1,1.487206400022842,288.1827356000431,289.1174593999749,288.1827356000431,288.6166380000068,288.1827356000431,288.6166380000068,288.1827356000431,288.6166380000068,288.1827356000431,288.6166380000068,288.1827356000431,288.6166380000068,288.5992554000113,289.0999445000198,288.5992554000113,289.0999445000198,288.5992554000113,289.0999445000198,288.5992554000113,289.0999445000198,288.5992554000113,289.0999445000198,288.5992554000113,289.0999445000198,288.5992554000113,289.0999445000198,288.5992554000113,289.0999445000198,288.1827356000431,None,289.0999445000198,291.15347250003833,0.43000000000000016,291.16970670002047,None,291.9211456000339,None,,,,,,,[2.04837209],3.990000000000003,0.7209302325581395,11016,002,2024_Jan_04_1747,MFTM_A_new1021,2021.2.3,59.97465471342169,
,,,,,,,,stim/Instruction_adaptive.png,conditions/adaptive.xlsx,test,-0.6,-0.6,-0.6,0.6,0.6,left,L,,,,,0,1,1,1,0,43,43,31,,,,,,,,,,,,,,,,,,,,,,,,,,,,,,,,,,,,,,,,,,,,292.4223460999783,None,right,0,2.6510026999749243,292.9233232999686,293.84027260006405,292.9233232999686,293.33988109999336,292.9233232999686,293.33988109999336,292.9233232999686,293.33988109999336,292.9233232999686,293.33988109999336,292.9233232999686,293.33988109999336,293.3230261000572,293.8247316000052,293.3230261000572,293.8247316000052,293.3230261000572,293.8247316000052,293.3230261000572,293.8247316000052,293.3230261000572,293.8247316000052,293.3230261000572,293.8247316000052,293.3230261000572,293.8247316000052,293.3230261000572,293.8247316000052,292.9233232999686,None,293.8247316000052,295.8765532000689,0.41000000000000014,295.89385380002204,None,296.6448192000389,None,,,,,,,[2.04931818],3.8300000000000027,0.7045454545454546,11016,002,2024_Jan_04_1747,MFTM_A_new1021,2021.2.3,59.97465471342169,
,,,,,,,,stim/Instruction_adaptive.png,conditions/adaptive.xlsx,test,0.6,0.6,0.6,-0.6,-0.6,right,R,,,,,0,1,1,1,0,44,44,38,,,,,,,,,,,,,,,,,,,,,,,,,,,,,,,,,,,,,,,,,,,,297.1457730999682,None,right,1,1.376123599940911,297.6465846999781,298.6149001000449,297.6465846999781,298.1133647999959,297.6465846999781,298.1133647999959,297.6465846999781,298.1133647999959,297.6465846999781,298.1133647999959,297.6465846999781,298.1133647999959,298.0805749000283,298.5807362999767,298.0805749000283,298.5807362999767,298.0805749000283,298.5807362999767,298.0805749000283,298.5807362999767,298.0805749000283,298.5807362999767,298.0805749000283,298.5807362999767,298.0805749000283,298.5807362999767,298.0805749000283,298.5807362999767,297.6465846999781,None,298.5807362999767,300.6344996000407,0.4600000000000002,300.667898899992,None,301.41897610004526,None,,,,,,,[[2.04]],3.8900000000000032,0.7111111111111111,11016,002,2024_Jan_04_1747,MFTM_A_new1021,2021.2.3,59.97465471342169,
,,,,,,,,stim/Instruction_adaptive.png,conditions/adaptive.xlsx,test,0.6,0.6,0.6,-0.6,-0.6,right,R,,,,,0,1,1,1,0,45,45,0,,,,,,,,,,,,,,,,,,,,,,,,,,,,,,,,,,,,,,,,,,,,301.91893519996665,None,right,1,1.2667733000125736,302.4195939999772,303.3721679999726,302.4195939999772,302.870389000047,302.4195939999772,302.870389000047,302.4195939999772,302.870389000047,302.4195939999772,302.870389000047,302.4195939999772,302.870389000047,302.8368272000225,303.33883560006507,302.8368272000225,303.33883560006507,302.8368272000225,303.33883560006507,302.8368272000225,303.33883560006507,302.8368272000225,303.33883560006507,302.8368272000225,303.33883560006507,302.8368272000225,303.33883560006507,302.8368272000225,303.33883560006507,302.4195939999772,None,303.33883560006507,305.3919053999707,0.44000000000000017,305.42561200005,None,306.1753887999803,None,,,,,,,[2.04934783],3.940000000000003,0.717391304347826,11016,002,2024_Jan_04_1747,MFTM_A_new1021,2021.2.3,59.97465471342169,
,,,,,,,,stim/Instruction_adaptive.png,conditions/adaptive.xlsx,test,0.6,0.6,0.6,-0.6,-0.6,right,R,,,,,0,1,1,1,0,46,46,46,,,,,,,,,,,,,,,,,,,,,,,,,,,,,,,,,,,,,,,,,,,,306.6758737000637,None,right,1,2.0127623999724165,307.17719740001485,308.11141570005566,307.17719740001485,307.61137170006987,307.17719740001485,307.61137170006987,307.17719740001485,307.61137170006987,307.17719740001485,307.61137170006987,307.17719740001485,307.61137170006987,307.5947298000101,308.09524579998106,307.5947298000101,308.09524579998106,307.5947298000101,308.09524579998106,307.5947298000101,308.09524579998106,307.5947298000101,308.09524579998106,307.5947298000101,308.09524579998106,307.5947298000101,308.09524579998106,307.5947298000101,308.09524579998106,307.17719740001485,None,308.09524579998106,310.14826020004693,0.43000000000000016,310.1647259000456,None,310.9156168999616,None,,,,,,,[2.04978723],3.990000000000003,0.723404255319149,11016,002,2024_Jan_04_1747,MFTM_A_new1021,2021.2.3,59.97465471342169,
,,,,,,,,stim/Instruction_adaptive.png,conditions/adaptive.xlsx,test,0.6,0.6,0.6,-0.6,-0.6,right,R,,,,,0,1,1,1,0,47,47,34,,,,,,,,,,,,,,,,,,,,,,,,,,,,,,,,,,,,,,,,,,,,311.41721620003227,None,right,1,1.6729150000028312,311.9173517000163,312.83595580002293,311.9173517000163,312.3344894000329,311.9173517000163,312.3344894000329,311.9173517000163,312.3344894000329,311.9173517000163,312.3344894000329,311.9173517000163,312.3344894000329,312.317652800004,312.8186465000035,312.317652800004,312.8186465000035,312.317652800004,312.8186465000035,312.317652800004,312.8186465000035,312.317652800004,312.8186465000035,312.317652800004,312.8186465000035,312.317652800004,312.8186465000035,312.317652800004,312.8186465000035,311.9173517000163,None,312.8186465000035,314.8739414999727,0.41000000000000014,314.8879268000601,None,315.6392164999852,None,,,,,,,[2.050625],4.030000000000003,0.7291666666666666,11016,002,2024_Jan_04_1747,MFTM_A_new1021,2021.2.3,59.97465471342169,
,,,,,,,,stim/Instruction_adaptive.png,conditions/adaptive.xlsx,test,0.6,0.6,0.6,-0.6,-0.6,right,R,,,,,0,1,1,1,0,48,48,22,,,,,,,,,,,,,,,,,,,,,,,,,,,,,,,,,,,,,,,,,,,,316.14014000003226,None,right,1,1.1893548999214545,316.64059820002876,317.5421296999557,316.64059820002876,317.0414720000699,316.64059820002876,317.0414720000699,316.64059820002876,317.0414720000699,316.64059820002876,317.0414720000699,316.64059820002876,317.0414720000699,317.0252786000492,317.52608390001114,317.0252786000492,317.52608390001114,317.0252786000492,317.52608390001114,317.0252786000492,317.52608390001114,317.0252786000492,317.52608390001114,317.0252786000492,317.52608390001114,317.0252786000492,317.52608390001114,317.0252786000492,317.52608390001114,316.64059820002876,None,317.52608390001114,319.57914010004606,0.40000000000000013,319.595204000012,None,320.34658010001294,None,,,,,,,[2.05163265],4.080000000000004,0.7346938775510204,11016,002,2024_Jan_04_1747,MFTM_A_new1021,2021.2.3,59.97465471342169,
,,,,,,,,stim/Instruction_adaptive.png,conditions/adaptive.xlsx,test,0.6,0.6,0.6,-0.6,-0.6,right,R,,,,,0,1,1,1,0,49,49,30,,,,,,,,,,,,,,,,,,,,,,,,,,,,,,,,,,,,,,,,,,,,320.84726289997343,None,left,0,1.4429194999393076,321.34778189996723,322.2489854999585,321.34778189996723,321.74899660004303,321.34778189996723,321.74899660004303,321.34778189996723,321.74899660004303,321.34778189996723,321.74899660004303,321.34778189996723,321.74899660004303,321.7156202000333,322.2157789999619,321.7156202000333,322.2157789999619,321.7156202000333,322.2157789999619,321.7156202000333,322.2157789999619,321.7156202000333,322.2157789999619,321.7156202000333,322.2157789999619,321.7156202000333,322.2157789999619,321.7156202000333,322.2157789999619,321.34778189996723,None,322.2157789999619,324.26925690006465,0.3900000000000001,324.30184249999,None,325.05320690001827,None,,,,,,,[2.0528],3.950000000000003,0.72,11016,002,2024_Jan_04_1747,MFTM_A_new1021,2021.2.3,59.97465471342169,
,,,,,,,,stim/Instruction_adaptive.png,conditions/adaptive.xlsx,test,-0.6,-0.6,-0.6,0.6,0.6,left,L,,,,,0,1,1,1,0,50,50,93,,,,,,,,,,,,,,,,,,,,,,,,,,,,,,,,,,,,,,,,,,,,325.55388220003806,None,right,0,1.4234255000483245,326.0548185000662,326.989442900056,326.0548185000662,326.4890169999562,326.0548185000662,326.4890169999562,326.0548185000662,326.4890169999562,326.0548185000662,326.4890169999562,326.0548185000662,326.4890169999562,326.471932800021,326.97333070007153,326.471932800021,326.97333070007153,326.471932800021,326.97333070007153,326.471932800021,326.97333070007153,326.471932800021,326.97333070007153,326.471932800021,326.97333070007153,326.471932800021,326.97333070007153,326.471932800021,326.97333070007153,326.0548185000662,None,326.97333070007153,329.0257579999743,0.43000000000000016,329.0429524000501,None,329.7935699999798,None,,,,,,,[2.05313725],3.810000000000003,0.7058823529411765,11016,002,2024_Jan_04_1747,MFTM_A_new1021,2021.2.3,59.97465471342169,
,,,,,,,,stim/Instruction_adaptive.png,conditions/adaptive.xlsx,test,0.6,0.6,0.6,-0.6,-0.6,right,R,,,,,0,1,1,1,0,51,51,56,,,,,,,,,,,,,,,,,,,,,,,,,,,,,,,,,,,,,,,,,,,,330.2942444999935,None,left,0,1.8108501000097021,330.79515280004125,331.7638737000525,330.79515280004125,331.279152299976,330.79515280004125,331.279152299976,330.79515280004125,331.279152299976,330.79515280004125,331.279152299976,330.79515280004125,331.279152299976,331.2464904000517,331.7478284999961,331.2464904000517,331.7478284999961,331.2464904000517,331.7478284999961,331.2464904000517,331.7478284999961,331.2464904000517,331.7478284999961,331.2464904000517,331.7478284999961,331.2464904000517,331.7478284999961,331.2464904000517,331.7478284999961,330.79515280004125,None,331.7478284999961,333.78334239998367,0.4700000000000002,333.7994463000214,None,334.55103259999305,None,,,,,,,[[2.03]],3.6700000000000026,0.6923076923076923,11016,002,2024_Jan_04_1747,MFTM_A_new1021,2021.2.3,59.97465471342169,
,,,,,,,,stim/Instruction_adaptive.png,conditions/adaptive.xlsx,test,0.6,0.6,0.6,-0.6,-0.6,right,R,,,,,0,1,1,1,0,52,52,90,,,,,,,,,,,,,,,,,,,,,,,,,,,,,,,,,,,,,,,,,,,,335.05279890005477,None,right,1,1.1826903000473976,335.5521948999958,336.57098039996345,335.5521948999958,336.08696660003625,335.5521948999958,336.08696660003625,335.5521948999958,336.08696660003625,335.5521948999958,336.08696660003625,335.5521948999958,336.08696660003625,336.052962900023,336.5545258000493,336.052962900023,336.5545258000493,336.052962900023,336.5545258000493,336.052962900023,336.5545258000493,336.052962900023,336.5545258000493,336.052962900023,336.5545258000493,336.052962900023,336.5545258000493,336.052962900023,336.5545258000493,335.5521948999958,None,336.5545258000493,338.5419251000276,0.5200000000000002,338.57430219999515,None,339.3251566999825,None,,,,,,,[[1.98]],3.720000000000003,0.6981132075471698,11016,002,2024_Jan_04_1747,MFTM_A_new1021,2021.2.3,59.97465471342169,
,,,,,,,,stim/Instruction_adaptive.png,conditions/adaptive.xlsx,test,0.6,0.6,0.6,-0.6,-0.6,right,R,,,,,0,1,1,1,0,53,53,96,,,,,,,,,,,,,,,,,,,,,,,,,,,,,,,,,,,,,,,,,,,,339.82606780005153,None,right,1,1.200673699961044,340.3260172000155,341.3284552000696,340.3260172000155,340.8266250999877,340.3260172000155,340.8266250999877,340.3260172000155,340.8266250999877,340.3260172000155,340.8266250999877,340.3260172000155,340.8266250999877,340.8098613000475,341.31167349999305,340.8098613000475,341.31167349999305,340.8098613000475,341.31167349999305,340.8098613000475,341.31167349999305,340.8098613000475,341.31167349999305,340.8098613000475,341.31167349999305,340.8098613000475,341.31167349999305,340.8098613000475,341.31167349999305,340.3260172000155,None,341.31167349999305,343.3144291000208,0.5000000000000002,343.33044619997963,None,344.0820941000711,None,,,,,,,[[2.]],3.770000000000003,0.7037037037037037,11016,002,2024_Jan_04_1747,MFTM_A_new1021,2021.2.3,59.97465471342169,
,,,,,,,,stim/Instruction_adaptive.png,conditions/adaptive.xlsx,test,0.6,0.6,0.6,-0.6,-0.6,right,R,,,,,0,1,1,1,0,54,54,72,,,,,,,,,,,,,,,,,,,,,,,,,,,,,,,,,,,,,,,,,,,,344.58275090006646,None,right,1,1.5083420000737533,345.0828123000683,346.06759079999756,345.0828123000683,345.5677351000486,345.0828123000683,345.5677351000486,345.0828123000683,345.5677351000486,345.0828123000683,345.5677351000486,345.0828123000683,345.5677351000486,345.5510522000259,346.05108880007174,345.5510522000259,346.05108880007174,345.5510522000259,346.05108880007174,345.5510522000259,346.05108880007174,345.5510522000259,346.05108880007174,345.5510522000259,346.05108880007174,345.5510522000259,346.05108880007174,345.5510522000259,346.05108880007174,345.0828123000683,None,346.05108880007174,348.0705885000061,0.4800000000000002,348.0872967999894,None,348.83916370000225,None,,,,,,,[[2.02]],3.810000000000003,0.7090909090909091,11016,002,2024_Jan_04_1747,MFTM_A_new1021,2021.2.3,59.97465471342169,
,,,,,,,,stim/Instruction_adaptive.png,conditions/adaptive.xlsx,test,0.6,0.6,0.6,-0.6,-0.6,right,R,,,,,0,1,1,1,0,55,55,2,,,,,,,,,,,,,,,,,,,,,,,,,,,,,,,,,,,,,,,,,,,,349.34008140000515,None,right,1,1.4934323000488803,349.84079160005786,350.82471019995864,349.84079160005786,350.32474589999765,349.84079160005786,350.32474589999765,349.84079160005786,350.32474589999765,349.84079160005786,350.32474589999765,349.84079160005786,350.32474589999765,350.29054900002666,350.7915201999713,350.29054900002666,350.7915201999713,350.29054900002666,350.7915201999713,350.29054900002666,350.7915201999713,350.29054900002666,350.7915201999713,350.29054900002666,350.7915201999713,350.29054900002666,350.7915201999713,350.29054900002666,350.7915201999713,349.84079160005786,None,350.7915201999713,352.82850229996257,0.4700000000000002,352.8452326999977,None,353.5954380000476,None,,,,,,,[[2.03]],3.860000000000003,0.7142857142857143,11016,002,2024_Jan_04_1747,MFTM_A_new1021,2021.2.3,59.97465471342169,
,,,,,,,,stim/Instruction_adaptive.png,conditions/adaptive.xlsx,test,-0.6,-0.6,-0.6,0.6,0.6,left,L,,,,,0,1,1,1,0,56,56,91,,,,,,,,,,,,,,,,,,,,,,,,,,,,,,,,,,,,,,,,,,,,354.0963724000612,None,left,1,1.0338627999881282,354.59704839996994,355.5489466000581,354.59704839996994,355.04850899998564,354.59704839996994,355.04850899998564,354.59704839996994,355.04850899998564,354.59704839996994,355.04850899998564,354.59704839996994,355.04850899998564,355.0317612000508,355.53235910006333,355.0317612000508,355.53235910006333,355.0317612000508,355.53235910006333,355.0317612000508,355.53235910006333,355.0317612000508,355.53235910006333,355.0317612000508,355.53235910006333,355.0317612000508,355.53235910006333,355.0317612000508,355.53235910006333,354.59704839996994,None,355.53235910006333,357.58565659995656,0.4500000000000002,357.60153520002495,None,358.3525105000008,None,,,,,,,[2.04947368],3.900000000000003,0.7192982456140351,11016,002,2024_Jan_04_1747,MFTM_A_new1021,2021.2.3,59.97465471342169,
,,,,,,,,stim/Instruction_adaptive.png,conditions/adaptive.xlsx,test,-0.6,-0.6,-0.6,0.6,0.6,left,L,,,,,0,1,1,1,0,57,57,47,,,,,,,,,,,,,,,,,,,,,,,,,,,,,,,,,,,,,,,,,,,,358.8538585000206,None,right,0,1.9718923000618815,359.35410260001663,360.30557299999055,359.35410260001663,359.80547729996033,359.35410260001663,359.80547729996033,359.35410260001663,359.80547729996033,359.35410260001663,359.80547729996033,359.35410260001663,359.80547729996033,359.7739757000236,360.2894928000169,359.7739757000236,360.2894928000169,359.7739757000236,360.2894928000169,359.7739757000236,360.2894928000169,359.7739757000236,360.2894928000169,359.7739757000236,360.2894928000169,359.7739757000236,360.2894928000169,359.7739757000236,360.2894928000169,359.35410260001663,None,360.2727804000024,362.3253918000264,0.44000000000000017,362.35879870003555,None,363.1095275999978,None,,,,,,,[2.04965517],3.780000000000003,0.7068965517241379,11016,002,2024_Jan_04_1747,MFTM_A_new1021,2021.2.3,59.97465471342169,
,,,,,,,,stim/Instruction_adaptive.png,conditions/adaptive.xlsx,test,-0.6,-0.6,-0.6,0.6,0.6,left,L,,,,,0,1,1,1,0,58,58,45,,,,,,,,,,,,,,,,,,,,,,,,,,,,,,,,,,,,,,,,,,,,363.61038229998667,None,right,0,1.8463215999072418,364.11173680005595,365.0966584000271,364.11173680005595,364.59507170005236,364.11173680005595,364.59507170005236,364.11173680005595,364.59507170005236,364.11173680005595,364.59507170005236,364.11173680005595,364.59507170005236,364.5788187000435,365.07977579999715,364.5788187000435,365.07977579999715,364.5788187000435,365.07977579999715,364.5788187000435,365.07977579999715,364.5788187000435,365.07977579999715,364.5788187000435,365.07977579999715,364.5788187000435,365.07977579999715,364.5788187000435,365.07977579999715,364.11173680005595,None,365.07977579999715,367.099691899959,0.4800000000000002,367.1162365999771,None,367.86757600004785,None,,,,,,,[[2.02]],3.650000000000003,0.6949152542372882,11016,002,2024_Jan_04_1747,MFTM_A_new1021,2021.2.3,59.97465471342169,
,,,,,,,,stim/Instruction_adaptive.png,conditions/adaptive.xlsx,test,-0.6,-0.6,-0.6,0.6,0.6,left,L,,,,,0,1,1,1,0,59,59,67,,,,,,,,,,,,,,,,,,,,,,,,,,,,,,,,,,,,,,,,,,,,368.3673693999881,None,left,1,1.1863552000140771,368.8680549999699,369.88723120000213,368.8680549999699,369.4022364000557,368.8680549999699,369.4022364000557,368.8680549999699,369.4022364000557,368.8680549999699,369.4022364000557,368.8680549999699,369.4022364000557,369.3694881000556,369.8706009000307,369.3694881000556,369.8706009000307,369.3694881000556,369.8706009000307,369.3694881000556,369.8706009000307,369.3694881000556,369.8706009000307,369.3694881000556,369.8706009000307,369.3694881000556,369.8706009000307,369.3694881000556,369.8706009000307,368.8680549999699,None,369.8706009000307,371.85667480004486,0.5200000000000002,371.8903422000585,None,372.6410574000329,None,,,,,,,[[1.98]],3.690000000000003,0.7,11016,002,2024_Jan_04_1747,MFTM_A_new1021,2021.2.3,59.97465471342169,
,,,,,,,,stim/Instruction_adaptive.png,conditions/adaptive.xlsx,test,-0.6,-0.6,-0.6,0.6,0.6,left,L,,,,,0,1,1,1,0,60,60,15,,,,,,,,,,,,,,,,,,,,,,,,,,,,,,,,,,,,,,,,,,,,373.1415590000106,None,left,1,1.4581689999904484,373.64385970006697,374.66008179995697,373.64385970006697,374.1594097999623,373.64385970006697,374.1594097999623,373.64385970006697,374.1594097999623,373.64385970006697,374.1594097999623,373.64385970006697,374.1594097999623,374.1261094000656,374.62736699997913,374.1261094000656,374.62736699997913,374.1261094000656,374.62736699997913,374.1261094000656,374.62736699997913,374.1261094000656,374.62736699997913,374.1261094000656,374.62736699997913,374.1261094000656,374.62736699997913,374.1261094000656,374.62736699997913,373.64385970006697,None,374.62736699997913,376.63020000001416,0.5100000000000002,376.64634430001024,None,377.3982374999905,None,,,,,,,[[1.99]],3.740000000000003,0.7049180327868853,11016,002,2024_Jan_04_1747,MFTM_A_new1021,2021.2.3,59.97465471342169,
,,,,,,,,stim/Instruction_adaptive.png,conditions/adaptive.xlsx,test,-0.6,-0.6,-0.6,0.6,0.6,left,L,,,,,0,1,1,1,0,61,61,9,,,,,,,,,,,,,,,,,,,,,,,,,,,,,,,,,,,,,,,,,,,,377.8990941999946,None,left,1,1.7347427000058815,378.39960370003246,379.4017111000139,378.39960370003246,378.90040449996013,378.39960370003246,378.90040449996013,378.39960370003246,378.90040449996013,378.39960370003246,378.90040449996013,378.39960370003246,378.90040449996013,378.8669948000461,379.36725899996236,378.8669948000461,379.36725899996236,378.8669948000461,379.36725899996236,378.8669948000461,379.36725899996236,378.8669948000461,379.36725899996236,378.8669948000461,379.36725899996236,378.8669948000461,379.36725899996236,378.8669948000461,379.36725899996236,378.39960370003246,None,379.36725899996236,381.3875463999575,0.4900000000000002,381.4033090999583,None,382.15548249997664,None,,,,,,,[[2.01]],3.780000000000003,0.7096774193548387,11016,002,2024_Jan_04_1747,MFTM_A_new1021,2021.2.3,59.97465471342169,
,,,,,,,,stim/Instruction_adaptive.png,conditions/adaptive.xlsx,test,0.6,0.6,0.6,-0.6,-0.6,right,R,,,,,0,1,1,1,0,62,62,14,,,,,,,,,,,,,,,,,,,,,,,,,,,,,,,,,,,,,,,,,,,,382.6558585000457,None,left,0,1.9217398999026045,383.1563608000288,384.1416392000392,383.1563608000288,383.64004199998453,383.1563608000288,383.64004199998453,383.1563608000288,383.64004199998453,383.1563608000288,383.64004199998453,383.1563608000288,383.64004199998453,383.6232861999888,384.12443720002193,383.6232861999888,384.12443720002193,383.6232861999888,384.12443720002193,383.6232861999888,384.12443720002193,383.6232861999888,384.12443720002193,383.6232861999888,384.12443720002193,383.6232861999888,384.12443720002193,383.6232861999888,384.12443720002193,383.1563608000288,None,384.12443720002193,386.1441336000571,0.4800000000000002,386.1775489000138,None,386.92935019999277,None,,,,,,,[[2.02]],3.660000000000003,0.6984126984126984,11016,002,2024_Jan_04_1747,MFTM_A_new1021,2021.2.3,59.97465471342169,
,,,,,,,,stim/Instruction_adaptive.png,conditions/adaptive.xlsx,test,-0.6,-0.6,-0.6,0.6,0.6,left,L,,,,,0,1,1,1,0,63,63,43,,,,,,,,,,,,,,,,,,,,,,,,,,,,,,,,,,,,,,,,,,,,387.4291361999931,None,right,0,1.5481268999865279,387.9304438000545,388.9653393999906,387.9304438000545,388.4638883000007,387.9304438000545,388.4638883000007,387.9304438000545,388.4638883000007,387.9304438000545,388.4638883000007,387.9304438000545,388.4638883000007,388.4304873000365,388.93207750003785,388.4304873000365,388.93207750003785,388.4304873000365,388.93207750003785,388.4304873000365,388.93207750003785,388.4304873000365,388.93207750003785,388.4304873000365,388.93207750003785,388.4304873000365,388.93207750003785,388.4304873000365,388.93207750003785,387.9304438000545,None,388.93207750003785,390.91780609998386,0.5200000000000002,390.93403500004206,None,391.68525440001395,None,,,,,,,[[1.98]],3.530000000000003,0.6875,11016,002,2024_Jan_04_1747,MFTM_A_new1021,2021.2.3,59.97465471342169,
,,,,,,,,stim/Instruction_adaptive.png,conditions/adaptive.xlsx,test,-0.6,-0.6,-0.6,0.6,0.6,left,L,,,,,0,1,1,1,0,64,64,87,,,,,,,,,,,,,,,,,,,,,,,,,,,,,,,,,,,,,,,,,,,,392.18614830006845,None,right,0,1.6468988999258727,392.687160499976,393.7717205999652,392.687160499976,393.27116630005185,392.687160499976,393.27116630005185,392.687160499976,393.27116630005185,392.687160499976,393.27116630005185,392.687160499976,393.27116630005185,393.2380311000161,393.73847129999194,393.2380311000161,393.73847129999194,393.2380311000161,393.73847129999194,393.2380311000161,393.73847129999194,393.2380311000161,393.73847129999194,393.2380311000161,393.73847129999194,393.2380311000161,393.73847129999194,393.2380311000161,393.73847129999194,392.687160499976,None,393.73847129999194,395.6745904000709,0.5700000000000003,395.6911806999706,None,396.44240239996,None,,,,,,,[[1.93]],3.3900000000000023,0.676923076923077,11016,002,2024_Jan_04_1747,MFTM_A_new1021,2021.2.3,59.97465471342169,
,,,,,,,,stim/Instruction_adaptive.png,conditions/adaptive.xlsx,test,-0.6,-0.6,-0.6,0.6,0.6,left,L,,,,,0,1,1,1,0,65,65,11,,,,,,,,,,,,,,,,,,,,,,,,,,,,,,,,,,,,,,,,,,,,396.94312820001505,None,left,1,2.274803400039673,397.4437094000168,398.57887099997606,397.4437094000168,398.0782421999611,397.4437094000168,398.0782421999611,397.4437094000168,398.0782421999611,397.4437094000168,398.0782421999611,397.4437094000168,398.0782421999611,398.0615820999956,398.5621228000382,398.0615820999956,398.5621228000382,398.0615820999956,398.5621228000382,398.0615820999956,398.5621228000382,398.0615820999956,398.5621228000382,398.0615820999956,398.5621228000382,398.0615820999956,398.5621228000382,398.0615820999956,398.5621228000382,397.4437094000168,None,398.5621228000382,400.4317408000352,0.6300000000000003,400.4491599999601,None,401.2002369000111,None,,,,,,,[[1.87]],3.4400000000000026,0.6818181818181818,11016,002,2024_Jan_04_1747,MFTM_A_new1021,2021.2.3,59.97465471342169,
,,,,,,,,stim/Instruction_adaptive.png,conditions/adaptive.xlsx,test,-0.6,-0.6,-0.6,0.6,0.6,left,L,,,,,0,1,1,1,0,66,66,19,,,,,,,,,,,,,,,,,,,,,,,,,,,,,,,,,,,,,,,,,,,,401.700682100025,None,right,0,2.7972581000067294,402.2008842000505,403.31990929995663,402.2008842000505,402.81930019997526,402.2008842000505,402.81930019997526,402.2008842000505,402.81930019997526,402.2008842000505,402.81930019997526,402.2008842000505,402.81930019997526,402.80197799997404,403.3031220000703,402.80197799997404,403.3031220000703,402.80197799997404,403.3031220000703,402.80197799997404,403.3031220000703,402.80197799997404,403.3031220000703,402.80197799997404,403.3031220000703,402.80197799997404,403.3031220000703,402.80197799997404,403.3031220000703,402.2008842000505,None,403.28636100003496,405.189233000041,0.6100000000000003,405.22365170007106,None,405.9743651000317,None,,,,,,,[[1.89]],3.3000000000000025,0.6716417910447762,11016,002,2024_Jan_04_1747,MFTM_A_new1021,2021.2.3,59.97465471342169,
,,,,,,,,stim/Instruction_adaptive.png,conditions/adaptive.xlsx,test,-0.6,-0.6,-0.6,0.6,0.6,left,L,,,,,0,1,1,1,0,67,67,27,,,,,,,,,,,,,,,,,,,,,,,,,,,,,,,,,,,,,,,,,,,,406.4740278000245,None,left,1,1.967056700028479,406.9750705000479,408.16019129997585,406.9750705000479,407.6593452000525,406.9750705000479,407.6593452000525,406.9750705000479,407.6593452000525,406.9750705000479,407.6593452000525,406.9750705000479,407.6593452000525,407.6262790999608,408.1269764000317,407.6262790999608,408.1269764000317,407.6262790999608,408.1269764000317,407.6262790999608,408.1269764000317,407.6262790999608,408.1269764000317,407.6262790999608,408.1269764000317,407.6262790999608,408.1269764000317,407.6262790999608,408.1269764000317,406.9750705000479,None,408.1269764000317,409.96247400005814,0.6700000000000004,409.97930100001395,None,410.731286299997,None,,,,,,,[[1.83]],3.3500000000000023,0.6764705882352942,11016,002,2024_Jan_04_1747,MFTM_A_new1021,2021.2.3,59.97465471342169,
,,,,,,,,stim/Instruction_adaptive.png,conditions/adaptive.xlsx,test,0.6,0.6,0.6,-0.6,-0.6,right,R,,,,,0,1,1,1,0,68,68,84,,,,,,,,,,,,,,,,,,,,,,,,,,,,,,,,,,,,,,,,,,,,411.2312310000416,None,right,1,2.3460705999750644,411.73215940000955,412.88407060003374,411.73215940000955,412.38327079999726,411.73215940000955,412.38327079999726,411.73215940000955,412.38327079999726,411.73215940000955,412.38327079999726,411.73215940000955,412.38327079999726,412.3668079000199,412.8673969999654,412.3668079000199,412.8673969999654,412.3668079000199,412.8673969999654,412.3668079000199,412.8673969999654,412.3668079000199,412.8673969999654,412.3668079000199,412.8673969999654,412.3668079000199,412.8673969999654,412.3668079000199,412.8673969999654,411.73215940000955,None,412.8673969999654,414.72013020003214,0.6500000000000004,414.7367630000226,None,415.48791300004814,None,,,,,,,[[1.85]],3.4000000000000026,0.6811594202898551,11016,002,2024_Jan_04_1747,MFTM_A_new1021,2021.2.3,59.97465471342169,
,,,,,,,,stim/Instruction_adaptive.png,conditions/adaptive.xlsx,test,0.6,0.6,0.6,-0.6,-0.6,right,R,,,,,0,1,1,1,0,69,69,80,,,,,,,,,,,,,,,,,,,,,,,,,,,,,,,,,,,,,,,,,,,,415.98831300006714,None,right,1,1.9018623000010848,416.48869689996354,417.62379500002135,416.48869689996354,417.12306460004766,416.48869689996354,417.12306460004766,416.48869689996354,417.12306460004766,416.48869689996354,417.12306460004766,416.48869689996354,417.12306460004766,417.0896441000514,417.59037009999156,417.0896441000514,417.59037009999156,417.0896441000514,417.59037009999156,417.0896441000514,417.59037009999156,417.0896441000514,417.59037009999156,417.0896441000514,417.59037009999156,417.0896441000514,417.59037009999156,417.0896441000514,417.59037009999156,416.48869689996354,None,417.59037009999156,419.4782657000469,0.6200000000000003,419.493072799989,None,420.244418199989,None,,,,,,,[[1.88]],3.4400000000000026,0.6857142857142857,11016,002,2024_Jan_04_1747,MFTM_A_new1021,2021.2.3,59.97465471342169,
,,,,,,,,stim/Instruction_adaptive.png,conditions/adaptive.xlsx,test,0.6,0.6,0.6,-0.6,-0.6,right,R,,,,,0,1,1,1,0,70,70,76,,,,,,,,,,,,,,,,,,,,,,,,,,,,,,,,,,,,,,,,,,,,420.74579319998156,None,right,1,1.6724647999508306,421.24582449998707,422.3641135999933,421.24582449998707,421.86346430005506,421.24582449998707,421.86346430005506,421.24582449998707,421.86346430005506,421.24582449998707,421.86346430005506,421.24582449998707,421.86346430005506,421.84691820002627,422.3480932000093,421.84691820002627,422.3480932000093,421.84691820002627,422.3480932000093,421.84691820002627,422.3480932000093,421.84691820002627,422.3480932000093,421.84691820002627,422.3480932000093,421.84691820002627,422.3480932000093,421.84691820002627,422.3480932000093,421.24582449998707,None,422.3480932000093,None,0.6100000000000003,424.25030409998726,None,425.00172020005994,None,,,,,,,[[1.89]],3.4800000000000026,0.6901408450704225,11016,002,2024_Jan_04_1747,MFTM_A_new1021,2021.2.3,59.97465471342169,
,,,,,,,,stim/Instruction_adaptive.png,conditions/adaptive.xlsx,test,-0.6,-0.6,-0.6,0.6,0.6,left,L,,,,,0,1,1,1,0,71,71,25,,,,,,,,,,,,,,,,,,,,,,,,,,,,,,,,,,,,,,,,,,,,425.50207020004746,None,left,1,1.7390434000408277,426.00325980002526,427.105815500021,426.00325980002526,426.6036671999609,426.00325980002526,426.6036671999609,426.00325980002526,426.6036671999609,426.00325980002526,426.6036671999609,426.00325980002526,426.6036671999609,426.57112950005103,427.07190019998234,426.57112950005103,427.07190019998234,426.57112950005103,427.07190019998234,426.57112950005103,427.07190019998234,426.57112950005103,427.07190019998234,426.57112950005103,427.07190019998234,426.57112950005103,427.07190019998234,426.57112950005103,427.07190019998234,426.00325980002526,None,427.07190019998234,428.990590600064,0.5900000000000003,429.00795780005865,None,429.75892829999793,None,,,,,,,[[1.91]],3.5200000000000027,0.6944444444444444,11016,002,2024_Jan_04_1747,MFTM_A_new1021,2021.2.3,59.97465471342169,
,,,,,,,,stim/Instruction_adaptive.png,conditions/adaptive.xlsx,test,-0.6,-0.6,-0.6,0.6,0.6,left,L,,,,,0,1,1,1,0,72,72,61,,,,,,,,,,,,,,,,,,,,,,,,,,,,,,,,,,,,,,,,,,,,430.2596032000147,None,left,1,1.580873400089331,430.76149269996677,431.8448339999886,430.76149269996677,431.3448500999948,430.76149269996677,431.3448500999948,430.76149269996677,431.3448500999948,430.76149269996677,431.3448500999948,430.76149269996677,431.3448500999948,431.31147319998126,431.8113857000135,431.31147319998126,431.8113857000135,431.31147319998126,431.8113857000135,431.31147319998126,431.8113857000135,431.31147319998126,431.8113857000135,431.31147319998126,431.8113857000135,431.31147319998126,431.8113857000135,431.31147319998126,431.8113857000135,430.76149269996677,None,431.8113857000135,433.7476639000233,0.5700000000000003,433.7643751000287,None,434.51584170002025,None,,,,,,,[[1.93]],3.5600000000000027,0.6986301369863014,11016,002,2024_Jan_04_1747,MFTM_A_new1021,2021.2.3,59.97465471342169,
,,,,,,,,stim/Instruction_adaptive.png,conditions/adaptive.xlsx,test,-0.6,-0.6,-0.6,0.6,0.6,left,L,,,,,0,1,1,1,0,73,73,7,,,,,,,,,,,,,,,,,,,,,,,,,,,,,,,,,,,,,,,,,,,,435.0169193999609,None,left,1,1.1603717999532819,435.51775060000364,436.58574700006284,435.51775060000364,436.0844004000537,435.51775060000364,436.0844004000537,435.51775060000364,436.0844004000537,435.51775060000364,436.0844004000537,435.51775060000364,436.0844004000537,436.0510142999701,436.55275000003166,436.0510142999701,436.55275000003166,436.0510142999701,436.55275000003166,436.0510142999701,436.55275000003166,436.0510142999701,436.55275000003166,436.0510142999701,436.55275000003166,436.0510142999701,436.55275000003166,436.0510142999701,436.55275000003166,435.51775060000364,None,436.55275000003166,438.5054027000442,0.5600000000000003,438.5220098999562,None,439.27259680000134,None,,,,,,,[[1.94]],3.6000000000000028,0.7027027027027027,11016,002,2024_Jan_04_1747,MFTM_A_new1021,2021.2.3,59.97465471342169,
,,,,,,,,stim/Instruction_adaptive.png,conditions/adaptive.xlsx,test,0.6,0.6,0.6,-0.6,-0.6,right,R,,,,,0,1,1,1,0,74,74,94,,,,,,,,,,,,,,,,,,,,,,,,,,,,,,,,,,,,,,,,,,,,439.7732241000049,None,right,1,1.8681408000411466,440.274108099984,441.3263409000356,440.274108099984,440.8256315999897,440.274108099984,440.8256315999897,440.274108099984,440.8256315999897,440.274108099984,440.8256315999897,440.274108099984,440.8256315999897,440.7920739999972,441.2925507000182,440.7920739999972,441.2925507000182,440.7920739999972,441.2925507000182,440.7920739999972,441.2925507000182,440.7920739999972,441.2925507000182,440.7920739999972,441.2925507000182,440.7920739999972,441.2925507000182,440.7920739999972,441.2925507000182,440.274108099984,None,441.2925507000182,443.2616751999594,0.5400000000000003,443.2784234000137,None,444.0295214999933,None,,,,,,,[[1.96]],3.6300000000000026,0.7066666666666667,11016,002,2024_Jan_04_1747,MFTM_A_new1021,2021.2.3,59.97465471342169,
,,,,,,,,stim/Instruction_adaptive.png,conditions/adaptive.xlsx,test,-0.6,-0.6,-0.6,0.6,0.6,left,L,,,,,0,1,1,1,0,75,75,81,,,,,,,,,,,,,,,,,,,,,,,,,,,,,,,,,,,,,,,,,,,,444.5307883999776,None,left,1,1.0067552999826148,445.031893700012,446.06651430006605,445.031893700012,445.5655295000179,445.031893700012,445.5655295000179,445.031893700012,445.5655295000179,445.031893700012,445.5655295000179,445.031893700012,445.5655295000179,445.5485885000089,446.04951519996393,445.5485885000089,446.04951519996393,445.5485885000089,446.04951519996393,445.5485885000089,446.04951519996393,445.5485885000089,446.04951519996393,445.5485885000089,446.04951519996393,445.5485885000089,446.04951519996393,445.5485885000089,446.04951519996393,445.031893700012,None,446.04951519996393,448.01942969998345,0.5300000000000002,448.03657260001637,None,448.7872214000672,None,,,,,,,[[1.97]],3.6700000000000026,0.7105263157894737,11016,002,2024_Jan_04_1747,MFTM_A_new1021,2021.2.3,59.97465471342169,
,,,,,,,,stim/Instruction_adaptive.png,conditions/adaptive.xlsx,test,-0.6,-0.6,-0.6,0.6,0.6,left,L,,,,,0,1,1,1,0,76,76,1,,,,,,,,,,,,,,,,,,,,,,,,,,,,,,,,,,,,,,,,,,,,449.28867410006933,None,left,1,0.8741318000247702,449.78815889998805,450.8236651000334,449.78815889998805,450.3229932000395,449.78815889998805,450.3229932000395,449.78815889998805,450.3229932000395,449.78815889998805,450.3229932000395,449.78815889998805,450.3229932000395,450.289185200003,450.79035749996547,450.289185200003,450.79035749996547,450.289185200003,450.79035749996547,450.289185200003,450.79035749996547,450.289185200003,450.79035749996547,450.289185200003,450.79035749996547,450.289185200003,450.79035749996547,450.289185200003,450.79035749996547,449.78815889998805,None,450.79035749996547,452.7767802999588,0.5200000000000002,452.79258100001607,None,453.5444255999755,None,,,,,,,[[1.98]],3.700000000000003,0.7142857142857143,11016,002,2024_Jan_04_1747,MFTM_A_new1021,2021.2.3,59.97465471342169,
,,,,,,,,stim/Instruction_adaptive.png,conditions/adaptive.xlsx,test,-0.6,-0.6,-0.6,0.6,0.6,left,L,,,,,0,1,1,1,0,77,77,21,,,,,,,,,,,,,,,,,,,,,,,,,,,,,,,,,,,,,,,,,,,,454.0452035999624,None,right,0,1.3255926000420004,454.545831299969,455.5637369999895,454.545831299969,455.06302720005624,454.545831299969,455.06302720005624,454.545831299969,455.06302720005624,454.545831299969,455.06302720005624,454.545831299969,455.06302720005624,455.0296061000554,455.53020769997966,455.0296061000554,455.53020769997966,455.0296061000554,455.53020769997966,455.0296061000554,455.53020769997966,455.0296061000554,455.53020769997966,455.0296061000554,455.53020769997966,455.0296061000554,455.53020769997966,455.0296061000554,455.53020769997966,454.545831299969,None,455.53020769997966,457.53373500006273,0.5100000000000002,457.549832800054,None,458.3014312000014,None,,,,,,,[[1.99]],3.6000000000000028,0.7051282051282052,11016,002,2024_Jan_04_1747,MFTM_A_new1021,2021.2.3,59.97465471342169,
,,,,,,,,stim/Instruction_adaptive.png,conditions/adaptive.xlsx,test,-0.6,-0.6,-0.6,0.6,0.6,left,L,,,,,0,1,1,1,0,78,78,33,,,,,,,,,,,,,,,,,,,,,,,,,,,,,,,,,,,,,,,,,,,,458.801332400064,None,left,1,1.3761104999575764,459.3026981999865,460.3558587000007,459.3026981999865,459.85355670005083,459.3026981999865,459.85355670005083,459.3026981999865,459.85355670005083,459.3026981999865,459.85355670005083,459.3026981999865,459.85355670005083,459.82007200003136,460.32083109999076,459.82007200003136,460.32083109999076,459.82007200003136,460.32083109999076,459.82007200003136,460.32083109999076,459.82007200003136,460.32083109999076,459.82007200003136,460.32083109999076,459.82007200003136,460.32083109999076,459.82007200003136,460.32083109999076,459.3026981999865,None,460.32083109999076,462.28986779996194,0.5400000000000003,462.3075027000159,None,463.0592830000678,None,,,,,,,[[1.96]],3.640000000000003,0.7088607594936709,11016,002,2024_Jan_04_1747,MFTM_A_new1021,2021.2.3,59.97465471342169,
,,,,,,,,stim/Instruction_adaptive.png,conditions/adaptive.xlsx,test,0.6,0.6,0.6,-0.6,-0.6,right,R,,,,,0,1,1,1,0,79,79,64,,,,,,,,,,,,,,,,,,,,,,,,,,,,,,,,,,,,,,,,,,,,463.55928389995825,None,right,1,1.4755710000172257,464.05926300003193,465.09490020002704,464.05926300003193,464.5937444999581,464.05926300003193,464.5937444999581,464.05926300003193,464.5937444999581,464.05926300003193,464.5937444999581,464.05926300003193,464.5937444999581,464.57693029998336,465.0784994000569,464.57693029998336,465.0784994000569,464.57693029998336,465.0784994000569,464.57693029998336,465.0784994000569,464.57693029998336,465.0784994000569,464.57693029998336,465.0784994000569,464.57693029998336,465.0784994000569,464.57693029998336,465.0784994000569,464.05926300003193,None,465.0615165999625,467.04764600005,0.5300000000000002,467.06358890002593,None,467.8146917000413,None,,,,,,,[[1.97]],3.6700000000000026,0.7125,11016,002,2024_Jan_04_1747,MFTM_A_new1021,2021.2.3,59.97465471342169,
,,,,,,,,stim/Instruction_adaptive.png,conditions/adaptive.xlsx,test,0.6,0.6,0.6,-0.6,-0.6,right,R,,,,,0,1,1,1,0,80,80,54,,,,,,,,,,,,,,,,,,,,,,,,,,,,,,,,,,,,,,,,,,,,468.31563670001924,None,right,1,1.2053050000686198,468.81688549998216,469.85176450002473,468.81688549998216,469.3508510000538,468.81688549998216,469.3508510000538,468.81688549998216,469.3508510000538,468.81688549998216,469.3508510000538,468.81688549998216,469.3508510000538,469.31768239999656,469.818098400021,469.31768239999656,469.818098400021,469.31768239999656,469.818098400021,469.31768239999656,469.818098400021,469.31768239999656,469.818098400021,469.31768239999656,469.818098400021,469.31768239999656,469.818098400021,469.31768239999656,469.818098400021,468.81688549998216,None,469.818098400021,471.80418410000857,0.5200000000000002,471.8216198000591,None,472.5727250999771,None,,,,,,,[[1.98]],3.700000000000003,0.7160493827160493,11016,002,2024_Jan_04_1747,MFTM_A_new1021,2021.2.3,59.97465471342169,
,,,,,,,,stim/Instruction_adaptive.png,conditions/adaptive.xlsx,test,0.6,0.6,0.6,-0.6,-0.6,right,R,,,,,0,1,1,1,0,81,81,16,,,,,,,,,,,,,,,,,,,,,,,,,,,,,,,,,,,,,,,,,,,,473.072668000008,None,right,1,1.3846184000140056,473.5741567000514,474.5915740999626,473.5741567000514,474.090759600047,473.5741567000514,474.090759600047,473.5741567000514,474.090759600047,473.5741567000514,474.090759600047,473.5741567000514,474.090759600047,474.0573262000689,474.5582742000697,474.0573262000689,474.5582742000697,474.0573262000689,474.5582742000697,474.0573262000689,474.5582742000697,474.0573262000689,474.5582742000697,474.0573262000689,474.5582742000697,474.0573262000689,474.5582742000697,474.0573262000689,474.5582742000697,473.5741567000514,None,474.5582742000697,476.5611482000677,0.5100000000000002,476.5778615999734,None,477.329570800066,None,,,,,,,[[1.99]],3.730000000000003,0.7195121951219512,11016,002,2024_Jan_04_1747,MFTM_A_new1021,2021.2.3,59.97465471342169,
,,,,,,,,stim/Instruction_adaptive.png,conditions/adaptive.xlsx,test,-0.6,-0.6,-0.6,0.6,0.6,left,L,,,,,0,1,1,1,0,82,82,97,,,,,,,,,,,,,,,,,,,,,,,,,,,,,,,,,,,,,,,,,,,,477.83009189995937,None,right,0,1.6438779999734834,478.33037139999215,479.3323444999987,478.33037139999215,478.8316504000686,478.33037139999215,478.8316504000686,478.33037139999215,478.8316504000686,478.33037139999215,478.8316504000686,478.33037139999215,478.8316504000686,478.81437919999007,479.31592389999423,478.81437919999007,479.31592389999423,478.81437919999007,479.31592389999423,478.81437919999007,479.31592389999423,478.81437919999007,479.31592389999423,478.81437919999007,479.31592389999423,478.81437919999007,479.31592389999423,478.81437919999007,479.31592389999423,478.33037139999215,None,479.31592389999423,481.3187229000032,0.5000000000000002,481.35260189999826,None,482.1032765000127,None,,,,,,,[[2.]],3.640000000000003,0.7108433734939759,11016,002,2024_Jan_04_1747,MFTM_A_new1021,2021.2.3,59.97465471342169,
,,,,,,,,stim/Instruction_adaptive.png,conditions/adaptive.xlsx,test,0.6,0.6,0.6,-0.6,-0.6,right,R,,,,,0,1,1,1,0,83,83,36,,,,,,,,,,,,,,,,,,,,,,,,,,,,,,,,,,,,,,,,,,,,482.60466000007,None,right,1,1.3429326999466866,483.10420269996393,484.1396051000338,483.10420269996393,483.6388563000364,483.10420269996393,483.6388563000364,483.10420269996393,483.6388563000364,483.10420269996393,483.6388563000364,483.10420269996393,483.6388563000364,483.62163179996423,484.1222603999777,483.62163179996423,484.1222603999777,483.62163179996423,484.1222603999777,483.62163179996423,484.1222603999777,483.62163179996423,484.1222603999777,483.62163179996423,484.1222603999777,483.62163179996423,484.1222603999777,483.62163179996423,484.1222603999777,483.10420269996393,None,484.1222603999777,486.09178979997523,0.5300000000000002,486.1083096000366,None,486.85958499996923,None,,,,,,,[[1.97]],3.6700000000000026,0.7142857142857143,11016,002,2024_Jan_04_1747,MFTM_A_new1021,2021.2.3,59.97465471342169,
,,,,,,,,stim/Instruction_adaptive.png,conditions/adaptive.xlsx,test,0.6,0.6,0.6,-0.6,-0.6,right,R,,,,,0,1,1,1,0,84,84,6,,,,,,,,,,,,,,,,,,,,,,,,,,,,,,,,,,,,,,,,,,,,487.3609957000008,None,right,1,1.2890439999755472,487.8612309000455,488.8959851000691,487.8612309000455,488.396013700054,487.8612309000455,488.396013700054,487.8612309000455,488.396013700054,487.8612309000455,488.396013700054,487.8612309000455,488.396013700054,488.36204729997553,488.8630153000122,488.36204729997553,488.8630153000122,488.36204729997553,488.8630153000122,488.36204729997553,488.8630153000122,488.36204729997553,488.8630153000122,488.36204729997553,488.8630153000122,488.36204729997553,488.8630153000122,488.36204729997553,488.8630153000122,487.8612309000455,None,488.8630153000122,490.8500042000087,0.5200000000000002,490.8655342999846,None,491.61668029997963,None,,,,,,,[[1.98]],3.700000000000003,0.7176470588235294,11016,002,2024_Jan_04_1747,MFTM_A_new1021,2021.2.3,59.97465471342169,
,,,,,,,,stim/Instruction_adaptive.png,conditions/adaptive.xlsx,test,-0.6,-0.6,-0.6,0.6,0.6,left,L,,,,,0,1,1,1,0,85,85,3,,,,,,,,,,,,,,,,,,,,,,,,,,,,,,,,,,,,,,,,,,,,492.11881320003886,None,left,1,0.9960723000112921,492.6181757999584,493.63734290003777,492.6181757999584,493.1360719000222,492.6181757999584,493.1360719000222,492.6181757999584,493.1360719000222,492.6181757999584,493.1360719000222,492.6181757999584,493.1360719000222,493.11902640003245,493.6196381000336,493.11902640003245,493.6196381000336,493.11902640003245,493.6196381000336,493.11902640003245,493.6196381000336,493.11902640003245,493.6196381000336,493.11902640003245,493.6196381000336,493.11902640003245,493.6196381000336,493.11902640003245,493.6196381000336,492.6181757999584,None,493.6196381000336,None,0.5100000000000002,495.6227500999812,None,496.37446720001753,None,,,,,,,[[1.99]],3.730000000000003,0.7209302325581395,11016,002,2024_Jan_04_1747,MFTM_A_new1021,2021.2.3,59.97465471342169,
,,,,,,,,stim/Instruction_adaptive.png,conditions/adaptive.xlsx,test,0.6,0.6,0.6,-0.6,-0.6,right,R,,,,,0,1,1,1,0,86,86,40,,,,,,,,,,,,,,,,,,,,,,,,,,,,,,,,,,,,,,,,,,,,496.87522160005756,None,right,1,1.1512955999933183,497.3752655000426,498.37666319997516,497.3752655000426,497.8759552000556,497.3752655000426,497.8759552000556,497.3752655000426,497.8759552000556,497.3752655000426,497.8759552000556,497.3752655000426,497.8759552000556,497.8600135999732,498.3606559999753,497.8600135999732,498.3606559999753,497.8600135999732,498.3606559999753,497.8600135999732,498.3606559999753,497.8600135999732,498.3606559999753,497.8600135999732,498.3606559999753,497.8600135999732,498.3606559999753,497.8600135999732,498.3606559999753,497.3752655000426,None,498.3606559999753,500.3634545999812,0.5000000000000002,500.37996869999915,None,501.13111690001097,None,,,,,,,[[2.]],3.7500000000000027,0.7241379310344828,11016,002,2024_Jan_04_1747,MFTM_A_new1021,2021.2.3,59.97465471342169,
,,,,,,,,stim/Instruction_adaptive.png,conditions/adaptive.xlsx,test,0.6,0.6,0.6,-0.6,-0.6,right,R,,,,,0,1,1,1,0,87,87,4,,,,,,,,,,,,,,,,,,,,,,,,,,,,,,,,,,,,,,,,,,,,501.631623400026,None,right,1,1.3853856000350788,502.1331067000283,503.1348350000335,502.1331067000283,502.633229100029,502.1331067000283,502.633229100029,502.1331067000283,502.633229100029,502.1331067000283,502.633229100029,502.1331067000283,502.633229100029,502.6004287999822,503.10115460003726,502.6004287999822,503.10115460003726,502.6004287999822,503.10115460003726,502.6004287999822,503.10115460003726,502.6004287999822,503.10115460003726,502.6004287999822,503.10115460003726,502.6004287999822,503.10115460003726,502.6004287999822,503.10115460003726,502.1331067000283,None,503.10115460003726,505.12022509996314,0.4900000000000002,505.1375875000376,None,505.8886317999568,None,,,,,,,[[2.01]],3.780000000000003,0.7272727272727273,11016,002,2024_Jan_04_1747,MFTM_A_new1021,2021.2.3,59.97465471342169,
,,,,,,,,stim/Instruction_adaptive.png,conditions/adaptive.xlsx,test,-0.6,-0.6,-0.6,0.6,0.6,left,L,,,,,0,1,1,1,0,88,88,73,,,,,,,,,,,,,,,,,,,,,,,,,,,,,,,,,,,,,,,,,,,,506.3891495000571,None,left,1,1.3641245999606326,506.89011719997507,507.87489279999863,506.89011719997507,507.3742580000544,506.89011719997507,507.3742580000544,506.89011719997507,507.3742580000544,506.89011719997507,507.3742580000544,506.89011719997507,507.3742580000544,507.35735090007074,507.8581414000364,507.35735090007074,507.8581414000364,507.35735090007074,507.8581414000364,507.35735090007074,507.8581414000364,507.35735090007074,507.8581414000364,507.35735090007074,507.8581414000364,507.35735090007074,507.8581414000364,507.35735090007074,507.8581414000364,506.89011719997507,None,507.8581414000364,509.8783207000233,0.4800000000000002,509.8939357000636,None,510.6458188999677,None,,,,,,,[2.01764045],3.800000000000003,0.7303370786516854,11016,002,2024_Jan_04_1747,MFTM_A_new1021,2021.2.3,59.97465471342169,
,,,,,,,,stim/Instruction_adaptive.png,conditions/adaptive.xlsx,test,0.6,0.6,0.6,-0.6,-0.6,right,R,,,,,0,1,1,1,0,89,89,68,,,,,,,,,,,,,,,,,,,,,,,,,,,,,,,,,,,,,,,,,,,,511.14612879999913,None,right,1,1.0010551000013947,511.6464152999688,512.6320603999775,511.6464152999688,512.1313545999583,511.6464152999688,512.1313545999583,511.6464152999688,512.1313545999583,511.6464152999688,512.1313545999583,511.6464152999688,512.1313545999583,512.0976419000654,512.5978281999705,512.0976419000654,512.5978281999705,512.0976419000654,512.5978281999705,512.0976419000654,512.5978281999705,512.0976419000654,512.5978281999705,512.0976419000654,512.5978281999705,512.0976419000654,512.5978281999705,512.0976419000654,512.5978281999705,511.6464152999688,None,512.5978281999705,514.6175215999829,0.4700000000000002,514.6346578999655,None,515.3855841000332,None,,,,,,,[2.01777778],3.8300000000000027,0.7333333333333333,11016,002,2024_Jan_04_1747,MFTM_A_new1021,2021.2.3,59.97465471342169,
,,,,,,,,stim/Instruction_adaptive.png,conditions/adaptive.xlsx,test,-0.6,-0.6,-0.6,0.6,0.6,left,L,,,,,0,1,1,1,0,90,90,35,,,,,,,,,,,,,,,,,,,,,,,,,,,,,,,,,,,,,,,,,,,,515.8868439999642,None,left,1,1.0264280000701547,516.3878333000466,517.3558654000517,516.3878333000466,516.8542878000299,516.3878333000466,516.8542878000299,516.3878333000466,516.8542878000299,516.3878333000466,516.8542878000299,516.3878333000466,516.8542878000299,516.8379173000576,517.338177000056,516.8379173000576,517.338177000056,516.8379173000576,517.338177000056,516.8379173000576,517.338177000056,516.8379173000576,517.338177000056,516.8379173000576,517.338177000056,516.8379173000576,517.338177000056,516.8379173000576,517.338177000056,516.3878333000466,None,517.338177000056,519.3585410000524,0.4600000000000002,519.3745358999586,None,520.1258952000644,None,,,,,,,[2.01802198],3.850000000000003,0.7362637362637363,11016,002,2024_Jan_04_1747,MFTM_A_new1021,2021.2.3,59.97465471342169,
,,,,,,,,stim/Instruction_adaptive.png,conditions/adaptive.xlsx,test,0.6,0.6,0.6,-0.6,-0.6,right,R,,,,,0,1,1,1,0,91,91,92,,,,,,,,,,,,,,,,,,,,,,,,,,,,,,,,,,,,,,,,,,,,520.6263374000555,None,right,1,1.2310931999236345,521.127197499969,522.0953883000184,521.127197499969,521.5953269000165,521.127197499969,521.5953269000165,521.127197499969,521.5953269000165,521.127197499969,521.5953269000165,521.127197499969,521.5953269000165,521.5782318999991,522.079010299989,521.5782318999991,522.079010299989,521.5782318999991,522.079010299989,521.5782318999991,522.079010299989,521.5782318999991,522.079010299989,521.5782318999991,522.079010299989,521.5782318999991,522.079010299989,521.5782318999991,522.079010299989,521.127197499969,None,522.079010299989,524.1008283999981,0.4600000000000002,524.1326751000015,None,524.8833039000165,None,,,,,,,[2.01826087],3.880000000000003,0.7391304347826086,11016,002,2024_Jan_04_1747,MFTM_A_new1021,2021.2.3,59.97465471342169,
,,,,,,,,stim/Instruction_adaptive.png,conditions/adaptive.xlsx,test,-0.6,-0.6,-0.6,0.6,0.6,left,L,,,,,0,1,1,1,0,92,92,65,,,,,,,,,,,,,,,,,,,,,,,,,,,,,,,,,,,,,,,,,,,,525.3843346000649,None,left,1,0.8100234000012279,525.8842603999656,526.836995700025,525.8842603999656,526.3348073000088,525.8842603999656,526.3348073000088,525.8842603999656,526.3348073000088,525.8842603999656,526.3348073000088,525.8842603999656,526.3348073000088,526.3190404999768,526.81972150004,526.3190404999768,526.81972150004,526.3190404999768,526.81972150004,526.3190404999768,526.81972150004,526.3190404999768,526.81972150004,526.3190404999768,526.81972150004,526.3190404999768,526.81972150004,526.3190404999768,526.81972150004,525.8842603999656,None,526.81972150004,528.8386503000511,0.4500000000000002,528.8556862999685,None,529.6077178000705,None,,,,,,,[2.01860215],3.900000000000003,0.7419354838709677,11016,002,2024_Jan_04_1747,MFTM_A_new1021,2021.2.3,59.97465471342169,
,,,,,,,,stim/Instruction_adaptive.png,conditions/adaptive.xlsx,test,-0.6,-0.6,-0.6,0.6,0.6,left,L,,,,,0,1,1,1,0,93,93,95,,,,,,,,,,,,,,,,,,,,,,,,,,,,,,,,,,,,,,,,,,,,530.1078524000477,None,left,1,1.1260148000437766,530.6084989999654,531.5598751000362,530.6084989999654,531.0593002999667,530.6084989999654,531.0593002999667,530.6084989999654,531.0593002999667,530.6084989999654,531.0593002999667,530.6084989999654,531.0593002999667,531.025239199982,531.5263492000522,531.025239199982,531.5263492000522,531.025239199982,531.5263492000522,531.025239199982,531.5263492000522,531.025239199982,531.5263492000522,531.025239199982,531.5263492000522,531.025239199982,531.5263492000522,531.025239199982,531.5263492000522,530.6084989999654,None,531.5263492000522,533.546077499981,0.44000000000000017,533.5962696999777,None,534.3471661000513,None,,,,,,,[2.01904255],3.920000000000003,0.7446808510638298,11016,002,2024_Jan_04_1747,MFTM_A_new1021,2021.2.3,59.97465471342169,
