arrwidth1,arrwidth2,arrwidth3,arrwidth4,arrwidth5,keyb,type,orientation,instruction_image,block_filename,block_type,arrow11,arrow22,arrow33,arrow44,arrow55,keyb_3,orientation3,trials.thisRepN,trials.thisTrialN,trials.thisN,trials.thisIndex,trials_3.thisRepN,trials_3.thisTrialN,trials_3.thisN,trials_3.thisIndex,trials_2.thisRepN,trials_2.thisTrialN,trials_2.thisN,trials_2.thisIndex,welcome.started,welcome.stopped,key_resp.keys,key_resp.rt,key_resp.started,key_resp.stopped,instruction_example.started,instruction_example.stopped,key_resp_3.keys,key_resp_3.rt,key_resp_3.started,key_resp_3.stopped,instruction_task.started,instruction_task.stopped,key_resp_2.keys,key_resp_2.rt,key_resp_2.started,key_resp_2.stopped,text_2.started,text_2.stopped,A1.started,A1.stopped,A2.started,A2.stopped,A3.started,A3.stopped,A4.started,A4.stopped,A5.started,A5.stopped,key_resp_4.keys,key_resp_4.corr,key_resp_4.rt,key_resp_4.started,key_resp_4.stopped,fb.started,fb.stopped,instruction_block.started,instruction_block.stopped,key_resp_8.keys,key_resp_8.rt,key_resp_8.started,key_resp_8.stopped,text_8.started,text_8.stopped,key_resp_9.keys,key_resp_9.corr,key_resp_9.rt,text_5.started,text_5.stopped,A11_3.started,A11_3.stopped,A22_2.started,A22_2.stopped,A33_2.started,A33_2.stopped,A44_2.started,A44_2.stopped,A55_2.started,A55_2.stopped,M1_3.started,M1_3.stopped,M2_2.started,M2_2.stopped,M3_2.started,M3_2.stopped,M4_2.started,M4_2.stopped,M5_2.started,M5_2.stopped,M6_2.started,M6_2.stopped,M7_2.started,M7_2.stopped,M8_2.started,M8_2.stopped,key_resp_9.started,key_resp_9.stopped,fixation.started,fixation.stopped,ET,fb_3.started,fb_3.stopped,text_9.started,text_9.stopped,fb_4.started,fb_4.stopped,text_7.started,text_7.stopped,endtext.started,endtext.stopped,fixation_ITI,CCC,Acc,participant,session,date,expName,psychopyVersion,frameRate,
,,,,,,,,,,,,,,,,,,,,,,,,,,,,,,14.878642700030468,None,space,19.439919500029646,14.878642700030468,None,,,,,,,,,,,,,,,,,,,,,,,,,,,,,,,,,,,,,,,,,,,,,,,,,,,,,,,,,,,,,,,,,,,,,,,,,,,,,,,,,,,,,,,,,11010,002,2024_Jan_02_0933,MFTM_A_new1021,2021.2.3,60.14719220222056,
,,,,,,,,,,,,,,,,,,,,,,,,,,,,,,,,,,,,34.34166900004493,None,space,9.50477579998551,34.34166900004493,None,,,,,,,,,,,,,,,,,,,,,,,,,,,,,,,,,,,,,,,,,,,,,,,,,,,,,,,,,,,,,,,,,,,,,,,,,,,,,,,,,,,11010,002,2024_Jan_02_0933,MFTM_A_new1021,2021.2.3,60.14719220222056,
,,,,,,,,,,,,,,,,,,,,,,,,,,,,,,,,,,,,,,,,,,43.87231420003809,None,space,0.9101770000415854,43.87231420003809,None,,,,,,,,,,,,,,,,,,,,,,,,,,,,,,,,,,,,,,,,,,,,,,,,,,,,,,,,,,,,,,,,,,,,,,,,,,,,,11010,002,2024_Jan_02_0933,MFTM_A_new1021,2021.2.3,60.14719220222056,
-0.6,-0.6,-0.6,0.6,0.6,left,3:2,L,,,,,,,,,,,0,0,0,1,,,,,,,,,,,,,,,,,,,,,,,,,,,44.84035800001584,None,44.84035800001584,None,44.84035800001584,None,44.84035800001584,None,44.84035800001584,None,44.84035800001584,None,left,1,1.7581906999694183,44.84035800001584,None,46.659362600010354,None,,,,,,,,,,,,,,,,,,,,,,,,,,,,,,,,,,,,,,,,,,,,,,,,,,,,,,,,,,11010,002,2024_Jan_02_0933,MFTM_A_new1021,2021.2.3,60.14719220222056,
0.6,0.6,0.6,-0.6,-0.6,right,3:2,R,,,,,,,,,,,0,1,1,0,,,,,,,,,,,,,,,,,,,,,,,,,,,47.411042500054464,None,47.411042500054464,None,47.411042500054464,None,47.411042500054464,None,47.411042500054464,None,47.411042500054464,None,right,1,1.3397661000490189,47.411042500054464,None,48.779169300047215,None,,,,,,,,,,,,,,,,,,,,,,,,,,,,,,,,,,,,,,,,,,,,,,,,,,,,,,,,,,11010,002,2024_Jan_02_0933,MFTM_A_new1021,2021.2.3,60.14719220222056,
0.6,0.6,0.6,-0.6,-0.6,right,3:2,R,,,,,,,,,,,1,0,2,0,,,,,,,,,,,,,,,,,,,,,,,,,,,49.52990610001143,None,49.52990610001143,None,49.52990610001143,None,49.52990610001143,None,49.52990610001143,None,49.52990610001143,None,right,1,1.1969134000246413,49.52990610001143,None,50.749261200020555,None,,,,,,,,,,,,,,,,,,,,,,,,,,,,,,,,,,,,,,,,,,,,,,,,,,,,,,,,,,11010,002,2024_Jan_02_0933,MFTM_A_new1021,2021.2.3,60.14719220222056,
-0.6,-0.6,-0.6,0.6,0.6,left,3:2,L,,,,,,,,,,,1,1,3,1,,,,,,,,,,,,,,,,,,,,,,,,,,,51.50004220003029,None,51.50004220003029,None,51.50004220003029,None,51.50004220003029,None,51.50004220003029,None,51.50004220003029,None,left,1,0.8916778999846429,51.50004220003029,None,52.418448300042655,None,,,,,,,,,,,,,,,,,,,,,,,,,,,,,,,,,,,,,,,,,,,,,,,,,,,,,,,,,,11010,002,2024_Jan_02_0933,MFTM_A_new1021,2021.2.3,60.14719220222056,
,,,,,,,,stim/Instruction_mask.png,conditions/adaptive.xlsx,practice,0.6,0.6,0.6,-0.6,-0.6,right,R,,,,,0,0,0,0,0,0,0,64,,,,,,,,,,,,,,,,,,,,,,,,,,,,,,,,,,,,,,53.469966600008775,None,space,2.32087529997807,53.469966600008775,None,55.95601660001557,None,right,1,2.7711611000122502,56.32424450002145,None,56.32424450002145,59.32922380004311,56.32424450002145,59.32922380004311,56.32424450002145,59.32922380004311,56.32424450002145,59.32922380004311,56.32424450002145,59.32922380004311,59.31228510005167,59.8126793000265,59.31228510005167,59.8126793000265,59.31228510005167,59.8126793000265,59.31228510005167,59.8126793000265,59.31228510005167,59.8126793000265,59.31228510005167,59.8126793000265,59.31228510005167,59.8126793000265,59.31228510005167,59.8126793000265,56.32424450002145,None,59.8126793000265,59.8126793000265,3,59.828407799999695,None,60.58045840001432,None,,,,,,,,,,11010,002,2024_Jan_02_0933,MFTM_A_new1021,2021.2.3,60.14719220222056,
,,,,,,,,stim/Instruction_mask.png,conditions/adaptive.xlsx,practice,0.6,0.6,0.6,-0.6,-0.6,right,R,,,,,0,0,0,0,0,1,1,26,,,,,,,,,,,,,,,,,,,,,,,,,,,,,,,,,,,,,,,,,,,,61.080980200029444,None,right,1,1.4566446000244468,61.581978900008835,63.58490690001054,61.581978900008835,63.0841448000283,61.581978900008835,63.0841448000283,61.581978900008835,63.0841448000283,61.581978900008835,63.0841448000283,61.581978900008835,63.0841448000283,63.0667827000143,63.5681475000456,63.0667827000143,63.5681475000456,63.0667827000143,63.5681475000456,63.0667827000143,63.5681475000456,63.0667827000143,63.5681475000456,63.0667827000143,63.5681475000456,63.0667827000143,63.5681475000456,63.0667827000143,63.5681475000456,61.581978900008835,None,63.5681475000456,65.07040960004088,1.5,65.08718060003594,None,65.83813910000026,None,,,,,,,,,,11010,002,2024_Jan_02_0933,MFTM_A_new1021,2021.2.3,60.14719220222056,
,,,,,,,,stim/Instruction_mask.png,conditions/adaptive.xlsx,practice,0.6,0.6,0.6,-0.6,-0.6,right,R,,,,,0,0,0,0,0,2,2,86,,,,,,,,,,,,,,,,,,,,,,,,,,,,,,,,,,,,,,,,,,,,66.33893930003978,None,right,1,1.1023798999958672,66.84012600005371,68.14102770003956,66.84012600005371,67.64095160004217,66.84012600005371,67.64095160004217,66.84012600005371,67.64095160004217,66.84012600005371,67.64095160004217,66.84012600005371,67.64095160004217,67.62418150005396,68.12535119999666,67.62418150005396,68.12535119999666,67.62418150005396,68.12535119999666,67.62418150005396,68.12535119999666,67.62418150005396,68.12535119999666,67.62418150005396,68.12535119999666,67.62418150005396,68.12535119999666,67.62418150005396,68.12535119999666,66.84012600005371,None,68.12535119999666,70.32865570002468,0.8,70.34485829999903,None,71.09602009999799,None,,,,,,,,,,11010,002,2024_Jan_02_0933,MFTM_A_new1021,2021.2.3,60.14719220222056,
,,,,,,,,stim/Instruction_mask.png,conditions/adaptive.xlsx,practice,-0.6,-0.6,-0.6,0.6,0.6,left,L,,,,,0,0,0,0,0,3,3,45,,,,,,,,,,,,,,,,,,,,,,,,,,,,,,,,,,,,,,,,,,,,71.59711750003044,None,left,1,1.2053751000203192,72.09758910001256,72.84870730002876,72.09758910001256,72.34836140001426,72.09758910001256,72.34836140001426,72.09758910001256,72.34836140001426,72.09758910001256,72.34836140001426,72.09758910001256,72.34836140001426,72.33152420003898,72.83202600001823,72.33152420003898,72.83202600001823,72.33152420003898,72.83202600001823,72.33152420003898,72.83202600001823,72.33152420003898,72.83202600001823,72.33152420003898,72.83202600001823,72.33152420003898,72.83202600001823,72.33152420003898,72.83202600001823,72.09758910001256,None,72.83202600001823,75.5884319000179,3,75.60171380004613,None,76.35394870000891,None,,,,,,,,,,11010,002,2024_Jan_02_0933,MFTM_A_new1021,2021.2.3,60.14719220222056,
,,,,,,,,stim/Instruction_mask.png,conditions/adaptive.xlsx,practice,,,,,,,,,,,,0,0,0,0,,,,,,,,,,,,,,,,,,,,,,,,,,,,,,,,,,,,,,,,,,,,,,,,,,,,,,,,,,,,,,,,,,,,,,,,,,,,,,,,,,,,,,,,,,76.90374170005089,77.9054159000516,77.87270930001978,77.87270930001978,77.87270930001978,None,,,,11010,002,2024_Jan_02_0933,MFTM_A_new1021,2021.2.3,60.14719220222056,
,,,,,,,,stim/Instruction_adaptive.png,conditions/adaptive.xlsx,test,0.6,0.6,0.6,-0.6,-0.6,right,R,,,,,0,1,1,1,0,0,0,24,,,,,,,,,,,,,,,,,,,,,,,,,,,,,,,,,,,,,,81.05980310001178,None,space,2.2276867000036873,81.05980310001178,None,83.34839710005326,None,right,1,1.9431868999963626,83.831774100021,None,83.831774100021,86.83628010004759,83.831774100021,86.83628010004759,83.831774100021,86.83628010004759,83.831774100021,86.83628010004759,83.831774100021,86.83628010004759,86.81939980003517,87.32003510004142,86.81939980003517,87.32003510004142,86.81939980003517,87.32003510004142,86.81939980003517,87.32003510004142,86.81939980003517,87.32003510004142,86.81939980003517,87.32003510004142,86.81939980003517,87.32003510004142,86.81939980003517,87.32003510004142,83.831774100021,None,87.32003510004142,87.32003510004142,3,87.37056200002553,None,88.10416380001698,None,,,,,,,0,6.000000000000005,1.0,11010,002,2024_Jan_02_0933,MFTM_A_new1021,2021.2.3,60.14719220222056,
,,,,,,,,stim/Instruction_adaptive.png,conditions/adaptive.xlsx,test,-0.6,-0.6,-0.6,0.6,0.6,left,L,,,,,0,1,1,1,0,1,1,79,,,,,,,,,,,,,,,,,,,,,,,,,,,,,,,,,,,,,,,,,,,,88.6045050000539,None,right,0,1.1485732000437565,89.10618410003372,89.85751620004885,89.10618410003372,89.35641870001564,89.10618410003372,89.35641870001564,89.10618410003372,89.35641870001564,89.10618410003372,89.35641870001564,89.10618410003372,89.35641870001564,89.3396629000199,89.84066350001376,89.3396629000199,89.84066350001376,89.3396629000199,89.84066350001376,89.3396629000199,89.84066350001376,89.3396629000199,89.84066350001376,89.3396629000199,89.84066350001376,89.3396629000199,89.84066350001376,89.3396629000199,89.84066350001376,89.10618410003372,None,89.84066350001376,90.72514000005322,0.25,90.75896550004836,None,91.509514400037,None,,,,,,,[0.875],2.570000000000002,0.5,11010,002,2024_Jan_02_0933,MFTM_A_new1021,2021.2.3,60.14719220222056,
,,,,,,,,stim/Instruction_adaptive.png,conditions/adaptive.xlsx,test,-0.6,-0.6,-0.6,0.6,0.6,left,L,,,,,0,1,1,1,0,2,2,85,,,,,,,,,,,,,,,,,,,,,,,,,,,,,,,,,,,,,,,,,,,,92.01027720002457,None,left,1,1.544932599994354,92.49366940004984,94.11336730001494,92.49366940004984,93.61253520002356,92.49366940004984,93.61253520002356,92.49366940004984,93.61253520002356,92.49366940004984,93.61253520002356,92.49366940004984,93.61253520002356,93.5790329000447,94.08043190004537,93.5790329000447,94.08043190004537,93.5790329000447,94.08043190004537,93.5790329000447,94.08043190004537,93.5790329000447,94.08043190004537,93.5790329000447,94.08043190004537,93.5790329000447,94.08043190004537,93.5790329000447,94.08043190004537,92.49366940004984,None,94.08043190004537,95.1307722000056,1.1100000000000008,95.18202530004783,None,95.93323429999873,None,,,,,,,[1.04666667],3.3800000000000026,0.6666666666666666,11010,002,2024_Jan_02_0933,MFTM_A_new1021,2021.2.3,60.14719220222056,
,,,,,,,,stim/Instruction_adaptive.png,conditions/adaptive.xlsx,test,-0.6,-0.6,-0.6,0.6,0.6,left,L,,,,,0,1,1,1,0,3,3,19,,,,,,,,,,,,,,,,,,,,,,,,,,,,,,,,,,,,,,,,,,,,96.43368980003288,None,left,1,0.96073280001292,96.93411550001474,98.06944720004685,96.93411550001474,97.56878030003281,96.93411550001474,97.56878030003281,96.93411550001474,97.56878030003281,96.93411550001474,97.56878030003281,96.93411550001474,97.56878030003281,97.55196850001812,98.05263990000822,97.55196850001812,98.05263990000822,97.55196850001812,98.05263990000822,97.55196850001812,98.05263990000822,97.55196850001812,98.05263990000822,97.55196850001812,98.05263990000822,97.55196850001812,98.05263990000822,97.55196850001812,98.05263990000822,96.93411550001474,None,98.05263990000822,99.30404910002835,0.6300000000000003,99.32113680004841,None,100.07234410004457,None,,,,,,,[1.2525],3.940000000000003,0.75,11010,002,2024_Jan_02_0933,MFTM_A_new1021,2021.2.3,60.14719220222056,
,,,,,,,,stim/Instruction_adaptive.png,conditions/adaptive.xlsx,test,0.6,0.6,0.6,-0.6,-0.6,right,R,,,,,0,1,1,1,0,4,4,54,,,,,,,,,,,,,,,,,,,,,,,,,,,,,,,,,,,,,,,,,,,,100.57302790001268,None,right,1,1.1179970999946818,101.07301780005218,102.00816020002821,101.07301780005218,101.50766440003645,101.07301780005218,101.50766440003645,101.07301780005218,101.50766440003645,101.07301780005218,101.50766440003645,101.07301780005218,101.50766440003645,101.49027960002422,101.99097740004072,101.49027960002422,101.99097740004072,101.49027960002422,101.99097740004072,101.49027960002422,101.99097740004072,101.49027960002422,101.99097740004072,101.49027960002422,101.99097740004072,101.49027960002422,101.99097740004072,101.49027960002422,101.99097740004072,101.07301780005218,None,101.99097740004072,103.41062630002853,0.43000000000000016,103.4263766000513,None,104.17751940002199,None,,,,,,,[1.416],4.370000000000004,0.8,11010,002,2024_Jan_02_0933,MFTM_A_new1021,2021.2.3,60.14719220222056,
,,,,,,,,stim/Instruction_adaptive.png,conditions/adaptive.xlsx,test,0.6,0.6,0.6,-0.6,-0.6,right,R,,,,,0,1,1,1,0,5,5,22,,,,,,,,,,,,,,,,,,,,,,,,,,,,,,,,,,,,,,,,,,,,104.67900699999882,None,left,0,0.8995739999809302,105.17911399999866,106.01476520003052,105.17911399999866,105.5136623000144,105.17911399999866,105.5136623000144,105.17911399999866,105.5136623000144,105.17911399999866,105.5136623000144,105.17911399999866,105.5136623000144,105.47949350002455,105.98084620002192,105.47949350002455,105.98084620002192,105.47949350002455,105.98084620002192,105.47949350002455,105.98084620002192,105.47949350002455,105.98084620002192,105.47949350002455,105.98084620002192,105.47949350002455,105.98084620002192,105.47949350002455,105.98084620002192,105.17911399999866,None,105.98084620002192,107.53335220000008,0.32000000000000006,107.56769570003962,None,108.31826790003106,None,,,,,,,[1.54333333],3.5400000000000027,0.6666666666666666,11010,002,2024_Jan_02_0933,MFTM_A_new1021,2021.2.3,60.14719220222056,
,,,,,,,,stim/Instruction_adaptive.png,conditions/adaptive.xlsx,test,-0.6,-0.6,-0.6,0.6,0.6,left,L,,,,,0,1,1,1,0,6,6,7,,,,,,,,,,,,,,,,,,,,,,,,,,,,,,,,,,,,,,,,,,,,108.81869660003576,None,right,0,0.9839963999693282,109.31896960001905,110.38702610001201,109.31896960001905,109.9029849000508,109.31896960001905,109.9029849000508,109.31896960001905,109.9029849000508,109.31896960001905,109.9029849000508,109.31896960001905,109.9029849000508,109.86996660003206,110.3737227000529,109.86996660003206,110.3737227000529,109.86996660003206,110.3737227000529,109.86996660003206,110.3737227000529,109.86996660003206,110.3737227000529,109.86996660003206,110.3737227000529,109.86996660003206,110.3737227000529,109.86996660003206,110.3737227000529,109.31896960001905,None,110.3737227000529,111.97340880002594,0.5700000000000003,111.98913130001165,None,112.74022830004105,None,,,,,,,[1.59857143],2.650000000000002,0.5714285714285714,11010,002,2024_Jan_02_0933,MFTM_A_new1021,2021.2.3,60.14719220222056,
,,,,,,,,stim/Instruction_adaptive.png,conditions/adaptive.xlsx,test,-0.6,-0.6,-0.6,0.6,0.6,left,L,,,,,0,1,1,1,0,7,7,41,,,,,,,,,,,,,,,,,,,,,,,,,,,,,,,,,,,,,,,,,,,,113.24140790000092,None,left,1,1.27204500004882,113.74259730003541,115.29477930004941,113.74259730003541,114.79408500000136,113.74259730003541,114.79408500000136,113.74259730003541,114.79408500000136,113.74259730003541,114.79408500000136,113.74259730003541,114.79408500000136,114.77724520000629,115.27889090002282,114.77724520000629,115.27889090002282,114.77724520000629,115.27889090002282,114.77724520000629,115.27889090002282,114.77724520000629,115.27889090002282,114.77724520000629,115.27889090002282,114.77724520000629,115.27889090002282,114.77724520000629,115.27889090002282,113.74259730003541,None,115.27889090002282,116.73041320004268,1.0500000000000007,116.74617340002442,None,117.49855300004128,None,,,,,,,[[1.45]],3.0200000000000022,0.625,11010,002,2024_Jan_02_0933,MFTM_A_new1021,2021.2.3,60.14719220222056,
,,,,,,,,stim/Instruction_adaptive.png,conditions/adaptive.xlsx,test,0.6,0.6,0.6,-0.6,-0.6,right,R,,,,,0,1,1,1,0,8,8,36,,,,,,,,,,,,,,,,,,,,,,,,,,,,,,,,,,,,,,,,,,,,117.99796930002049,None,left,0,1.0434032999910414,118.49941510002827,119.81735900003696,118.49941510002827,119.31783760001417,118.49941510002827,119.31783760001417,118.49941510002827,119.31783760001417,118.49941510002827,119.31783760001417,118.49941510002827,119.31783760001417,119.28417220001575,119.78499030001694,119.28417220001575,119.78499030001694,119.28417220001575,119.78499030001694,119.28417220001575,119.78499030001694,119.28417220001575,119.78499030001694,119.28417220001575,119.78499030001694,119.28417220001575,119.78499030001694,119.28417220001575,119.78499030001694,118.49941510002827,None,119.78499030001694,121.38716280000517,0.8100000000000005,121.40337549999822,None,122.1549300000188,None,,,,,,,[1.59222222],2.2200000000000015,0.5555555555555556,11010,002,2024_Jan_02_0933,MFTM_A_new1021,2021.2.3,60.14719220222056,
,,,,,,,,stim/Instruction_adaptive.png,conditions/adaptive.xlsx,test,0.6,0.6,0.6,-0.6,-0.6,right,R,,,,,0,1,1,1,0,9,9,68,,,,,,,,,,,,,,,,,,,,,,,,,,,,,,,,,,,,,,,,,,,,122.6549300000188,None,left,0,2.1058715999824926,123.15663650003262,125.07603500003461,123.15663650003262,124.57526500005042,123.15663650003262,124.57526500005042,123.15663650003262,124.57526500005042,123.15663650003262,124.57526500005042,123.15663650003262,124.57526500005042,124.54190860001836,125.0425940999994,124.54190860001836,125.0425940999994,124.54190860001836,125.0425940999994,124.54190860001836,125.0425940999994,124.54190860001836,125.0425940999994,124.54190860001836,125.0425940999994,124.54190860001836,125.0425940999994,124.54190860001836,125.0425940999994,123.15663650003262,None,125.0425940999994,126.14424170000711,1.410000000000001,126.1600111000007,None,126.91204880003352,None,,,,,,,[[1.09]],1.0100000000000005,0.5,11010,002,2024_Jan_02_0933,MFTM_A_new1021,2021.2.3,60.14719220222056,
,,,,,,,,stim/Instruction_adaptive.png,conditions/adaptive.xlsx,test,0.6,0.6,0.6,-0.6,-0.6,right,R,,,,,0,1,1,1,0,10,10,18,,,,,,,,,,,,,,,,,,,,,,,,,,,,,,,,,,,,,,,,,,,,127.41202360001625,None,right,1,1.3747221999801695,127.91273930005264,None,127.91273930005264,130.91792650002753,127.91273930005264,130.91792650002753,127.91273930005264,130.91792650002753,127.91273930005264,130.91792650002753,127.91273930005264,130.91792650002753,130.90190230001463,131.40215200005332,130.90190230001463,131.40215200005332,130.90190230001463,131.40215200005332,130.90190230001463,131.40215200005332,130.90190230001463,131.40215200005332,130.90190230001463,131.40215200005332,130.90190230001463,131.40215200005332,130.90190230001463,131.40215200005332,127.91273930005264,None,131.40215200005332,131.40215200005332,3.0000000000000027,131.436417000019,None,132.1864198000403,None,,,,,,,0,1.610000000000001,0.5454545454545454,11010,002,2024_Jan_02_0933,MFTM_A_new1021,2021.2.3,60.14719220222056,
,,,,,,,,stim/Instruction_adaptive.png,conditions/adaptive.xlsx,test,0.6,0.6,0.6,-0.6,-0.6,right,R,,,,,0,1,1,1,0,11,11,94,,,,,,,,,,,,,,,,,,,,,,,,,,,,,,,,,,,,,,,,,,,,132.68720850005047,None,right,1,1.194517600000836,133.18805720005184,135.8591921000043,133.18805720005184,135.3577639000141,133.18805720005184,135.3577639000141,133.18805720005184,135.3577639000141,133.18805720005184,135.3577639000141,133.18805720005184,135.3577639000141,135.32447220000904,135.82442540000193,135.32447220000904,135.82442540000193,135.32447220000904,135.82442540000193,135.32447220000904,135.82442540000193,135.32447220000904,135.82442540000193,135.32447220000904,135.82442540000193,135.32447220000904,135.82442540000193,135.32447220000904,135.82442540000193,133.18805720005184,None,135.82442540000193,136.17629880004097,2.160000000000002,136.1917170000379,None,136.94277460000012,None,,,,,,,[[0.34]],1.9400000000000013,0.5833333333333334,11010,002,2024_Jan_02_0933,MFTM_A_new1021,2021.2.3,60.14719220222056,
,,,,,,,,stim/Instruction_adaptive.png,conditions/adaptive.xlsx,test,-0.6,-0.6,-0.6,0.6,0.6,left,L,,,,,0,1,1,1,0,12,12,93,,,,,,,,,,,,,,,,,,,,,,,,,,,,,,,,,,,,,,,,,,,,137.44366800005082,None,left,1,1.2773719999822788,137.9452005000203,140.16480130003765,137.9452005000203,139.66439430002356,137.9452005000203,139.66439430002356,137.9452005000203,139.66439430002356,137.9452005000203,139.66439430002356,137.9452005000203,139.66439430002356,139.6308232000447,140.13165320002008,139.6308232000447,140.13165320002008,139.6308232000447,140.13165320002008,139.6308232000447,140.13165320002008,139.6308232000447,140.13165320002008,139.6308232000447,140.13165320002008,139.6308232000447,140.13165320002008,139.6308232000447,140.13165320002008,137.9452005000203,None,140.13165320002008,140.9328763000085,1.7100000000000013,140.94894210004713,None,141.7007900000317,None,,,,,,,[[0.79]],2.1800000000000015,0.6153846153846154,11010,002,2024_Jan_02_0933,MFTM_A_new1021,2021.2.3,60.14719220222056,
,,,,,,,,stim/Instruction_adaptive.png,conditions/adaptive.xlsx,test,-0.6,-0.6,-0.6,0.6,0.6,left,L,,,,,0,1,1,1,0,13,13,67,,,,,,,,,,,,,,,,,,,,,,,,,,,,,,,,,,,,,,,,,,,,142.20144319999963,None,left,1,1.89655770000536,142.7020730000222,144.65542350005126,142.7020730000222,144.15375940001104,142.7020730000222,144.15375940001104,142.7020730000222,144.15375940001104,142.7020730000222,144.15375940001104,142.7020730000222,144.15375940001104,144.13730410003336,144.6384494000231,144.13730410003336,144.6384494000231,144.13730410003336,144.6384494000231,144.13730410003336,144.6384494000231,144.13730410003336,144.6384494000231,144.13730410003336,144.6384494000231,144.13730410003336,144.6384494000231,144.13730410003336,144.6384494000231,142.7020730000222,None,144.6384494000231,145.68922300002305,1.450000000000001,145.70640570000978,None,146.45779520005453,None,,,,,,,[[1.05]],2.3600000000000017,0.6428571428571429,11010,002,2024_Jan_02_0933,MFTM_A_new1021,2021.2.3,60.14719220222056,
,,,,,,,,stim/Instruction_adaptive.png,conditions/adaptive.xlsx,test,-0.6,-0.6,-0.6,0.6,0.6,left,L,,,,,0,1,1,1,0,14,14,27,,,,,,,,,,,,,,,,,,,,,,,,,,,,,,,,,,,,,,,,,,,,146.9586204000516,None,left,1,1.19569840002805,147.45893800002523,149.24554440000793,147.45893800002523,148.7437381000491,147.45893800002523,148.7437381000491,147.45893800002523,148.7437381000491,147.45893800002523,148.7437381000491,147.45893800002523,148.7437381000491,148.7269030000316,149.2286070000264,148.7269030000316,149.2286070000264,148.7269030000316,149.2286070000264,148.7269030000316,149.2286070000264,148.7269030000316,149.2286070000264,148.7269030000316,149.2286070000264,148.7269030000316,149.2286070000264,148.7269030000316,149.2286070000264,147.45893800002523,None,149.2286070000264,None,1.280000000000001,150.46248250000644,None,151.21520950004924,None,,,,,,,[[1.22]],2.520000000000002,0.6666666666666666,11010,002,2024_Jan_02_0933,MFTM_A_new1021,2021.2.3,60.14719220222056,
,,,,,,,,stim/Instruction_adaptive.png,conditions/adaptive.xlsx,test,-0.6,-0.6,-0.6,0.6,0.6,left,L,,,,,0,1,1,1,0,15,15,13,,,,,,,,,,,,,,,,,,,,,,,,,,,,,,,,,,,,,,,,,,,,151.71560019999743,None,left,1,1.014388399955351,152.21621650003362,153.86862360005034,152.21621650003362,153.36776819999795,152.21621650003362,153.36776819999795,152.21621650003362,153.36776819999795,152.21621650003362,153.36776819999795,152.21621650003362,153.36776819999795,153.3511307000299,153.85188380000181,153.3511307000299,153.85188380000181,153.3511307000299,153.85188380000181,153.3511307000299,153.85188380000181,153.3511307000299,153.85188380000181,153.3511307000299,153.85188380000181,153.3511307000299,153.85188380000181,153.3511307000299,153.85188380000181,152.21621650003362,None,153.85188380000181,155.08727120002732,1.1500000000000008,155.1045606000116,None,155.85409600002458,None,,,,,,,[1.229375],2.660000000000002,0.6875,11010,002,2024_Jan_02_0933,MFTM_A_new1021,2021.2.3,60.14719220222056,
,,,,,,,,stim/Instruction_adaptive.png,conditions/adaptive.xlsx,test,-0.6,-0.6,-0.6,0.6,0.6,left,L,,,,,0,1,1,1,0,16,16,77,,,,,,,,,,,,,,,,,,,,,,,,,,,,,,,,,,,,,,,,,,,,156.3554424000322,None,left,1,1.4624076000181958,156.85620860004565,158.4086150000221,156.85620860004565,157.90789620002033,156.85620860004565,157.90789620002033,156.85620860004565,157.90789620002033,156.85620860004565,157.90789620002033,156.85620860004565,157.90789620002033,157.87497679999797,158.37573470000643,157.87497679999797,158.37573470000643,157.87497679999797,158.37573470000643,157.87497679999797,158.37573470000643,157.87497679999797,158.37573470000643,157.87497679999797,158.37573470000643,157.87497679999797,158.37573470000643,157.87497679999797,158.37573470000643,156.85620860004565,None,158.37573470000643,159.6272571000154,1.0400000000000007,159.6431895000278,None,160.39510500000324,None,,,,,,,[1.24294118],2.780000000000002,0.7058823529411765,11010,002,2024_Jan_02_0933,MFTM_A_new1021,2021.2.3,60.14719220222056,
,,,,,,,,stim/Instruction_adaptive.png,conditions/adaptive.xlsx,test,-0.6,-0.6,-0.6,0.6,0.6,left,L,,,,,0,1,1,1,0,17,17,17,,,,,,,,,,,,,,,,,,,,,,,,,,,,,,,,,,,,,,,,,,,,160.89575700002024,None,right,0,1.443007999972906,161.39654149999842,162.86534650000976,161.39654149999842,162.36387120001018,161.39654149999842,162.36387120001018,161.39654149999842,162.36387120001018,161.39654149999842,162.36387120001018,161.39654149999842,162.36387120001018,162.3472974000033,162.84860130003653,162.3472974000033,162.84860130003653,162.3472974000033,162.84860130003653,162.3472974000033,162.84860130003653,162.3472974000033,162.84860130003653,162.3472974000033,162.84860130003653,162.3472974000033,162.84860130003653,162.3472974000033,162.84860130003653,161.39654149999842,None,162.84860130003653,None,0.9600000000000006,164.11665640003048,None,164.86830560001545,None,,,,,,,[1.25944444],2.4600000000000017,0.6666666666666666,11010,002,2024_Jan_02_0933,MFTM_A_new1021,2021.2.3,60.14719220222056,
,,,,,,,,stim/Instruction_adaptive.png,conditions/adaptive.xlsx,test,-0.6,-0.6,-0.6,0.6,0.6,left,L,,,,,0,1,1,1,0,18,18,73,,,,,,,,,,,,,,,,,,,,,,,,,,,,,,,,,,,,,,,,,,,,165.36853060004069,None,left,1,1.1207538000307977,165.86983810004313,167.5725831000018,165.86983810004313,167.07172320003156,165.86983810004313,167.07172320003156,165.86983810004313,167.07172320003156,165.86983810004313,167.07172320003156,165.86983810004313,167.07172320003156,167.0547429000144,167.55575870000757,167.0547429000144,167.55575870000757,167.0547429000144,167.55575870000757,167.0547429000144,167.55575870000757,167.0547429000144,167.55575870000757,167.0547429000144,167.55575870000757,167.0547429000144,167.55575870000757,167.0547429000144,167.55575870000757,165.86983810004313,None,167.55575870000757,168.82349700003397,1.2000000000000008,168.83991780003998,None,169.59250040003099,None,,,,,,,[1.26157895],2.580000000000002,0.6842105263157895,11010,002,2024_Jan_02_0933,MFTM_A_new1021,2021.2.3,60.14719220222056,
,,,,,,,,stim/Instruction_adaptive.png,conditions/adaptive.xlsx,test,0.6,0.6,0.6,-0.6,-0.6,right,R,,,,,0,1,1,1,0,19,19,90,,,,,,,,,,,,,,,,,,,,,,,,,,,,,,,,,,,,,,,,,,,,170.09288180002477,None,right,1,1.4052766000386328,170.59344120003516,172.19551000004867,170.59344120003516,171.6949808000354,170.59344120003516,171.6949808000354,170.59344120003516,171.6949808000354,170.59344120003516,171.6949808000354,170.59344120003516,171.6949808000354,171.67825810000068,172.17907350003952,171.67825810000068,172.17907350003952,171.67825810000068,172.17907350003952,171.67825810000068,172.17907350003952,171.67825810000068,172.17907350003952,171.67825810000068,172.17907350003952,171.67825810000068,172.17907350003952,171.67825810000068,172.17907350003952,170.59344120003516,None,172.17907350003952,173.4479430000065,1.1000000000000008,173.48157500004163,None,174.23175760003505,None,,,,,,,[1.2685],2.680000000000002,0.7,11010,002,2024_Jan_02_0933,MFTM_A_new1021,2021.2.3,60.14719220222056,
,,,,,,,,stim/Instruction_adaptive.png,conditions/adaptive.xlsx,test,-0.6,-0.6,-0.6,0.6,0.6,left,L,,,,,0,1,1,1,0,20,20,95,,,,,,,,,,,,,,,,,,,,,,,,,,,,,,,,,,,,,,,,,,,,174.73305780004011,None,left,1,1.373046799970325,175.23371880000923,176.76936320000095,175.23371880000923,176.2682229000493,175.23371880000923,176.2682229000493,175.23371880000923,176.2682229000493,175.23371880000923,176.2682229000493,175.23371880000923,176.2682229000493,176.25250850000884,176.75170790002448,176.25250850000884,176.75170790002448,176.25250850000884,176.75170790002448,176.25250850000884,176.75170790002448,176.25250850000884,176.75170790002448,176.25250850000884,176.75170790002448,176.25250850000884,176.75170790002448,176.25250850000884,176.75170790002448,175.23371880000923,None,176.73563930002274,178.02118730003713,1.0300000000000007,178.07229390001157,None,178.82145879999734,None,,,,,,,[1.27809524],2.780000000000002,0.7142857142857143,11010,002,2024_Jan_02_0933,MFTM_A_new1021,2021.2.3,60.14719220222056,
,,,,,,,,stim/Instruction_adaptive.png,conditions/adaptive.xlsx,test,-0.6,-0.6,-0.6,0.6,0.6,left,L,,,,,0,1,1,1,0,21,21,55,,,,,,,,,,,,,,,,,,,,,,,,,,,,,,,,,,,,,,,,,,,,179.3230379000306,None,right,0,1.4072213000035845,179.82382879999932,181.29266650002683,179.82382879999932,180.7918617000105,179.82382879999932,180.7918617000105,179.82382879999932,180.7918617000105,179.82382879999932,180.7918617000105,179.82382879999932,180.7918617000105,180.7586122000357,181.2591933000367,180.7586122000357,181.2591933000367,180.7586122000357,181.2591933000367,180.7586122000357,181.2591933000367,180.7586122000357,181.2591933000367,180.7586122000357,181.2591933000367,180.7586122000357,181.2591933000367,180.7586122000357,181.2591933000367,179.82382879999932,None,181.2591933000367,182.5612555000116,0.9600000000000006,182.5951280000154,None,183.345306000032,None,,,,,,,[1.29],2.520000000000002,0.6818181818181818,11010,002,2024_Jan_02_0933,MFTM_A_new1021,2021.2.3,60.14719220222056,
,,,,,,,,stim/Instruction_adaptive.png,conditions/adaptive.xlsx,test,0.6,0.6,0.6,-0.6,-0.6,right,R,,,,,0,1,1,1,0,22,22,72,,,,,,,,,,,,,,,,,,,,,,,,,,,,,,,,,,,,,,,,,,,,183.84652930003358,None,right,1,1.211884199990891,184.34713940002257,185.99944810004672,184.34713940002257,185.49897480005166,184.34713940002257,185.49897480005166,184.34713940002257,185.49897480005166,184.34713940002257,185.49897480005166,184.34713940002257,185.49897480005166,185.48154130001785,185.9829543000087,185.48154130001785,185.9829543000087,185.48154130001785,185.9829543000087,185.48154130001785,185.9829543000087,185.48154130001785,185.9829543000087,185.48154130001785,185.9829543000087,185.48154130001785,185.9829543000087,185.48154130001785,185.9829543000087,184.34713940002257,None,185.9829543000087,187.28496860002633,1.1500000000000008,187.31879840005422,None,188.06970570003614,None,,,,,,,[1.2926087],2.610000000000002,0.6956521739130435,11010,002,2024_Jan_02_0933,MFTM_A_new1021,2021.2.3,60.14719220222056,
,,,,,,,,stim/Instruction_adaptive.png,conditions/adaptive.xlsx,test,0.6,0.6,0.6,-0.6,-0.6,right,R,,,,,0,1,1,1,0,23,23,40,,,,,,,,,,,,,,,,,,,,,,,,,,,,,,,,,,,,,,,,,,,,188.5701948000351,None,right,1,1.384373200009577,189.07077490002848,190.65624500002014,189.07077490002848,190.15568550000899,189.07077490002848,190.15568550000899,189.07077490002848,190.15568550000899,189.07077490002848,190.15568550000899,189.07077490002848,190.15568550000899,190.13829890004126,190.64024330000393,190.13829890004126,190.64024330000393,190.13829890004126,190.64024330000393,190.13829890004126,190.64024330000393,190.13829890004126,190.64024330000393,190.13829890004126,190.64024330000393,190.13829890004126,190.64024330000393,190.13829890004126,190.64024330000393,189.07077490002848,None,190.64024330000393,191.94171890005236,1.0800000000000007,191.97602660005214,None,192.72589260002133,None,,,,,,,[1.29791667],2.700000000000002,0.7083333333333334,11010,002,2024_Jan_02_0933,MFTM_A_new1021,2021.2.3,60.14719220222056,
,,,,,,,,stim/Instruction_adaptive.png,conditions/adaptive.xlsx,test,0.6,0.6,0.6,-0.6,-0.6,right,R,,,,,0,1,1,1,0,24,24,84,,,,,,,,,,,,,,,,,,,,,,,,,,,,,,,,,,,,,,,,,,,,193.22735150001245,None,right,1,1.4950705000082962,193.7275783000514,195.24625950003974,193.7275783000514,194.74636010004906,193.7275783000514,194.74636010004906,193.7275783000514,194.74636010004906,193.7275783000514,194.74636010004906,193.7275783000514,194.74636010004906,194.7126301000244,195.21330310002668,194.7126301000244,195.21330310002668,194.7126301000244,195.21330310002668,194.7126301000244,195.21330310002668,194.7126301000244,195.21330310002668,194.7126301000244,195.21330310002668,194.7126301000244,195.21330310002668,194.7126301000244,195.21330310002668,193.7275783000514,None,195.21330310002668,196.5322096000309,1.0100000000000007,196.5662342000287,None,197.3168277000077,None,,,,,,,[1.3056],2.780000000000002,0.72,11010,002,2024_Jan_02_0933,MFTM_A_new1021,2021.2.3,60.14719220222056,
,,,,,,,,stim/Instruction_adaptive.png,conditions/adaptive.xlsx,test,0.6,0.6,0.6,-0.6,-0.6,right,R,,,,,0,1,1,1,0,25,25,92,,,,,,,,,,,,,,,,,,,,,,,,,,,,,,,,,,,,,,,,,,,,197.81725960003678,None,right,1,1.2248981000157073,198.31800590001512,199.78623960004188,198.31800590001512,199.2864051000215,198.31800590001512,199.2864051000215,198.31800590001512,199.2864051000215,198.31800590001512,199.2864051000215,198.31800590001512,199.2864051000215,199.25244380004006,199.75329680001596,199.25244380004006,199.75329680001596,199.25244380004006,199.75329680001596,199.25244380004006,199.75329680001596,199.25244380004006,199.75329680001596,199.25244380004006,199.75329680001596,199.25244380004006,199.75329680001596,199.25244380004006,199.75329680001596,198.31800590001512,None,199.75329680001596,201.07128020003438,0.9600000000000006,201.10491700004786,None,201.8565399000072,None,,,,,,,[1.31461538],2.8500000000000023,0.7307692307692307,11010,002,2024_Jan_02_0933,MFTM_A_new1021,2021.2.3,60.14719220222056,
,,,,,,,,stim/Instruction_adaptive.png,conditions/adaptive.xlsx,test,0.6,0.6,0.6,-0.6,-0.6,right,R,,,,,0,1,1,1,0,26,26,78,,,,,,,,,,,,,,,,,,,,,,,,,,,,,,,,,,,,,,,,,,,,202.35725780000212,None,right,1,1.1011898000142537,202.85792320000473,204.27707320003537,202.85792320000473,203.77565080003114,202.85792320000473,203.77565080003114,202.85792320000473,203.77565080003114,202.85792320000473,203.77565080003114,202.85792320000473,203.77565080003114,203.74242100003175,204.2434250000515,203.74242100003175,204.2434250000515,203.74242100003175,204.2434250000515,203.74242100003175,204.2434250000515,203.74242100003175,204.2434250000515,203.74242100003175,204.2434250000515,203.74242100003175,204.2434250000515,203.74242100003175,204.2434250000515,202.85792320000473,None,204.2434250000515,205.5791457000305,0.9100000000000006,205.61254580004606,None,206.363521900028,None,,,,,,,[1.32481481],2.920000000000002,0.7407407407407407,11010,002,2024_Jan_02_0933,MFTM_A_new1021,2021.2.3,60.14719220222056,
,,,,,,,,stim/Instruction_adaptive.png,conditions/adaptive.xlsx,test,-0.6,-0.6,-0.6,0.6,0.6,left,L,,,,,0,1,1,1,0,27,27,59,,,,,,,,,,,,,,,,,,,,,,,,,,,,,,,,,,,,,,,,,,,,206.86396149999928,None,left,1,1.3718318999744952,207.3639589000377,208.74948240001686,207.3639589000377,208.24895040004048,207.3639589000377,208.24895040004048,207.3639589000377,208.24895040004048,207.3639589000377,208.24895040004048,207.3639589000377,208.24895040004048,208.21584720001556,208.71584370004712,208.21584720001556,208.71584370004712,208.21584720001556,208.71584370004712,208.21584720001556,208.71584370004712,208.21584720001556,208.71584370004712,208.21584720001556,208.71584370004712,208.21584720001556,208.71584370004712,208.21584720001556,208.71584370004712,207.3639589000377,None,208.71584370004712,210.0521357000107,0.8700000000000006,210.0677734000492,None,210.8189638000331,None,,,,,,,[1.33571429],2.980000000000002,0.75,11010,002,2024_Jan_02_0933,MFTM_A_new1021,2021.2.3,60.14719220222056,
,,,,,,,,stim/Instruction_adaptive.png,conditions/adaptive.xlsx,test,0.6,0.6,0.6,-0.6,-0.6,right,R,,,,,0,1,1,1,0,28,28,56,,,,,,,,,,,,,,,,,,,,,,,,,,,,,,,,,,,,,,,,,,,,211.3198145000497,None,right,1,1.1206721999915317,211.82185050001135,213.15567140001804,211.82185050001135,212.65494100004435,211.82185050001135,212.65494100004435,211.82185050001135,212.65494100004435,211.82185050001135,212.65494100004435,211.82185050001135,212.65494100004435,212.63848449999932,213.13898590003373,212.63848449999932,213.13898590003373,212.63848449999932,213.13898590003373,212.63848449999932,213.13898590003373,212.63848449999932,213.13898590003373,212.63848449999932,213.13898590003373,212.63848449999932,213.13898590003373,212.63848449999932,213.13898590003373,211.82185050001135,None,213.13898590003373,214.49184640002204,0.8300000000000005,214.50811690004775,None,215.25923440000042,None,,,,,,,[1.34724138],3.0500000000000025,0.7586206896551724,11010,002,2024_Jan_02_0933,MFTM_A_new1021,2021.2.3,60.14719220222056,
,,,,,,,,stim/Instruction_adaptive.png,conditions/adaptive.xlsx,test,-0.6,-0.6,-0.6,0.6,0.6,left,L,,,,,0,1,1,1,0,29,29,57,,,,,,,,,,,,,,,,,,,,,,,,,,,,,,,,,,,,,,,,,,,,215.7603175000404,None,left,1,1.1372563999611884,216.26139900001,217.56266060000053,216.26139900001,217.06231510004727,216.26139900001,217.06231510004727,216.26139900001,217.06231510004727,216.26139900001,217.06231510004727,216.26139900001,217.06231510004727,217.02888280001935,217.52876410004683,217.02888280001935,217.52876410004683,217.02888280001935,217.52876410004683,217.02888280001935,217.52876410004683,217.02888280001935,217.52876410004683,217.02888280001935,217.52876410004683,217.02888280001935,217.52876410004683,217.02888280001935,217.52876410004683,216.26139900001,None,217.52876410004683,218.8976999000297,0.7900000000000005,218.91432300000452,None,219.6662837000331,None,,,,,,,[1.35933333],3.1000000000000023,0.7666666666666667,11010,002,2024_Jan_02_0933,MFTM_A_new1021,2021.2.3,60.14719220222056,
,,,,,,,,stim/Instruction_adaptive.png,conditions/adaptive.xlsx,test,0.6,0.6,0.6,-0.6,-0.6,right,R,,,,,0,1,1,1,0,30,30,34,,,,,,,,,,,,,,,,,,,,,,,,,,,,,,,,,,,,,,,,,,,,220.16663100000005,None,left,0,0.8603609999991022,220.66761260002386,221.9533175000106,220.66761260002386,221.45213690004312,220.66761260002386,221.45213690004312,220.66761260002386,221.45213690004312,220.66761260002386,221.45213690004312,220.66761260002386,221.45213690004312,221.41937720001442,221.9196479000384,221.41937720001442,221.9196479000384,221.41937720001442,221.9196479000384,221.41937720001442,221.9196479000384,221.41937720001442,221.9196479000384,221.41937720001442,221.9196479000384,221.41937720001442,221.9196479000384,221.41937720001442,221.9196479000384,220.66761260002386,None,221.9196479000384,223.3049708000035,0.7700000000000005,223.32060450001154,None,224.07223089999752,None,,,,,,,[1.37129032],2.940000000000002,0.7419354838709677,11010,002,2024_Jan_02_0933,MFTM_A_new1021,2021.2.3,60.14719220222056,
,,,,,,,,stim/Instruction_adaptive.png,conditions/adaptive.xlsx,test,0.6,0.6,0.6,-0.6,-0.6,right,R,,,,,0,1,1,1,0,31,31,74,,,,,,,,,,,,,,,,,,,,,,,,,,,,,,,,,,,,,,,,,,,,224.57313120004255,None,right,1,1.1496417000307702,225.07336640002904,226.44226050004363,225.07336640002904,225.94256620004307,225.07336640002904,225.94256620004307,225.07336640002904,225.94256620004307,225.07336640002904,225.94256620004307,225.07336640002904,225.94256620004307,225.92560800001957,226.4261241000495,225.92560800001957,226.4261241000495,225.92560800001957,226.4261241000495,225.92560800001957,226.4261241000495,225.92560800001957,226.4261241000495,225.92560800001957,226.4261241000495,225.92560800001957,226.4261241000495,225.92560800001957,226.4261241000495,225.07336640002904,None,226.4261241000495,227.8118413000484,0.8600000000000005,227.8272562000202,None,228.57903449999867,None,,,,,,,[1.3796875],3.000000000000002,0.75,11010,002,2024_Jan_02_0933,MFTM_A_new1021,2021.2.3,60.14719220222056,
,,,,,,,,stim/Instruction_adaptive.png,conditions/adaptive.xlsx,test,-0.6,-0.6,-0.6,0.6,0.6,left,L,,,,,0,1,1,1,0,32,32,71,,,,,,,,,,,,,,,,,,,,,,,,,,,,,,,,,,,,,,,,,,,,229.08012330002384,None,right,0,1.4980205000028946,229.581072400033,230.91632100002607,229.581072400033,230.4160860000411,229.581072400033,230.4160860000411,229.581072400033,230.4160860000411,229.581072400033,230.4160860000411,229.581072400033,230.4160860000411,230.38224560004892,230.88288530003047,230.38224560004892,230.88288530003047,230.38224560004892,230.88288530003047,230.38224560004892,230.88288530003047,230.38224560004892,230.88288530003047,230.38224560004892,230.88288530003047,230.38224560004892,230.88288530003047,230.38224560004892,230.88288530003047,229.581072400033,None,230.88288530003047,232.28493290004553,0.8200000000000005,232.3006061000051,None,233.05495570000494,None,,,,,,,[1.38878788],2.840000000000002,0.7272727272727273,11010,002,2024_Jan_02_0933,MFTM_A_new1021,2021.2.3,60.14719220222056,
,,,,,,,,stim/Instruction_adaptive.png,conditions/adaptive.xlsx,test,0.6,0.6,0.6,-0.6,-0.6,right,R,,,,,0,1,1,1,0,33,33,8,,,,,,,,,,,,,,,,,,,,,,,,,,,,,,,,,,,,,,,,,,,,233.56941540003754,None,right,1,1.0880951000144705,234.07058020000113,235.48975060001248,234.07058020000113,235.00478080002358,234.07058020000113,235.00478080002358,234.07058020000113,235.00478080002358,234.07058020000113,235.00478080002358,234.07058020000113,235.00478080002358,234.97217360005016,235.4730446000467,234.97217360005016,235.4730446000467,234.97217360005016,235.4730446000467,234.97217360005016,235.4730446000467,234.97217360005016,235.4730446000467,234.97217360005016,235.4730446000467,234.97217360005016,235.4730446000467,234.97217360005016,235.4730446000467,234.07058020000113,None,235.4730446000467,236.8750362000428,0.9200000000000006,236.89137060003122,None,237.64286360004917,None,,,,,,,[1.39441176],2.8900000000000023,0.7352941176470589,11010,002,2024_Jan_02_0933,MFTM_A_new1021,2021.2.3,60.14719220222056,
,,,,,,,,stim/Instruction_adaptive.png,conditions/adaptive.xlsx,test,-0.6,-0.6,-0.6,0.6,0.6,left,L,,,,,0,1,1,1,0,34,34,47,,,,,,,,,,,,,,,,,,,,,,,,,,,,,,,,,,,,,,,,,,,,238.14342220005346,None,left,1,1.7465705000213347,238.64470220002113,240.0466266000294,238.64470220002113,239.5460228000302,238.64470220002113,239.5460228000302,238.64470220002113,239.5460228000302,238.64470220002113,239.5460228000302,238.64470220002113,239.5460228000302,239.51205810002284,240.0126874000416,239.51205810002284,240.0126874000416,239.51205810002284,240.0126874000416,239.51205810002284,240.0126874000416,239.51205810002284,240.0126874000416,239.51205810002284,240.0126874000416,239.51205810002284,240.0126874000416,239.51205810002284,240.0126874000416,238.64470220002113,None,240.0126874000416,241.41503860004013,0.8900000000000006,241.46566850005183,None,242.2162417000509,None,,,,,,,[1.40057143],2.950000000000002,0.7428571428571429,11010,002,2024_Jan_02_0933,MFTM_A_new1021,2021.2.3,60.14719220222056,
,,,,,,,,stim/Instruction_adaptive.png,conditions/adaptive.xlsx,test,0.6,0.6,0.6,-0.6,-0.6,right,R,,,,,0,1,1,1,0,35,35,96,,,,,,,,,,,,,,,,,,,,,,,,,,,,,,,,,,,,,,,,,,,,242.7168911000481,None,left,0,1.5346944999764673,243.20030770002631,244.55319290002808,243.20030770002631,244.05212210002355,243.20030770002631,244.05212210002355,243.20030770002631,244.05212210002355,243.20030770002631,244.05212210002355,243.20030770002631,244.05212210002355,244.0359970999998,244.5363935000496,244.0359970999998,244.5363935000496,244.0359970999998,244.5363935000496,244.0359970999998,244.5363935000496,244.0359970999998,244.5363935000496,244.0359970999998,244.5363935000496,244.0359970999998,244.5363935000496,244.0359970999998,244.5363935000496,243.20030770002631,None,244.5363935000496,245.95515610004077,0.8500000000000005,245.9890377999982,None,246.74007390002953,None,,,,,,,[1.4075],2.790000000000002,0.7222222222222222,11010,002,2024_Jan_02_0933,MFTM_A_new1021,2021.2.3,60.14719220222056,
,,,,,,,,stim/Instruction_adaptive.png,conditions/adaptive.xlsx,test,-0.6,-0.6,-0.6,0.6,0.6,left,L,,,,,0,1,1,1,0,36,36,97,,,,,,,,,,,,,,,,,,,,,,,,,,,,,,,,,,,,,,,,,,,,247.2404768000124,None,left,1,1.3299141000024974,247.7410732000135,249.19605590001447,247.7410732000135,248.6924106000224,247.7410732000135,248.6924106000224,247.7410732000135,248.6924106000224,247.7410732000135,248.6924106000224,247.7410732000135,248.6924106000224,248.67597060004482,249.1758392000338,248.67597060004482,249.1758392000338,248.67597060004482,249.1758392000338,248.67597060004482,249.1758392000338,248.67597060004482,249.1758392000338,248.67597060004482,249.1758392000338,248.67597060004482,249.1758392000338,248.67597060004482,249.1758392000338,247.7410732000135,None,249.1758392000338,250.5957144999993,0.9500000000000006,250.62871190003352,None,251.3798188000219,None,,,,,,,[1.41135135],2.8500000000000023,0.7297297297297297,11010,002,2024_Jan_02_0933,MFTM_A_new1021,2021.2.3,60.14719220222056,
,,,,,,,,stim/Instruction_adaptive.png,conditions/adaptive.xlsx,test,0.6,0.6,0.6,-0.6,-0.6,right,R,,,,,0,1,1,1,0,37,37,70,,,,,,,,,,,,,,,,,,,,,,,,,,,,,,,,,,,,,,,,,,,,251.88104200002272,None,left,0,1.393251000030432,252.38138790003723,253.80009010003414,252.38138790003723,253.299418300041,252.38138790003723,253.299418300041,252.38138790003723,253.299418300041,252.38138790003723,253.299418300041,252.38138790003723,253.299418300041,253.26612220000243,253.76598470000317,253.26612220000243,253.76598470000317,253.26612220000243,253.76598470000317,253.26612220000243,253.76598470000317,253.26612220000243,253.76598470000317,253.26612220000243,253.76598470000317,253.26612220000243,253.76598470000317,253.26612220000243,253.76598470000317,252.38138790003723,None,253.76598470000317,255.1846377000329,0.9100000000000006,255.21807620004984,None,255.97000240004854,None,,,,,,,[1.41605263],2.690000000000002,0.7105263157894737,11010,002,2024_Jan_02_0933,MFTM_A_new1021,2021.2.3,60.14719220222056,
,,,,,,,,stim/Instruction_adaptive.png,conditions/adaptive.xlsx,test,0.6,0.6,0.6,-0.6,-0.6,right,R,,,,,0,1,1,1,0,38,38,58,,,,,,,,,,,,,,,,,,,,,,,,,,,,,,,,,,,,,,,,,,,,256.4711857000366,None,right,1,1.059589699958451,256.9715429000207,258.4907810000004,256.9715429000207,258.00637100002496,256.9715429000207,258.00637100002496,256.9715429000207,258.00637100002496,256.9715429000207,258.00637100002496,256.9715429000207,258.00637100002496,257.972794900008,258.4739421000122,257.972794900008,258.4739421000122,257.972794900008,258.4739421000122,257.972794900008,258.4739421000122,257.972794900008,258.4739421000122,257.972794900008,258.4739421000122,257.972794900008,258.4739421000122,257.972794900008,258.4739421000122,256.9715429000207,None,258.4739421000122,259.8925452000112,1.0200000000000007,259.9267098000273,None,260.67604990000837,None,,,,,,,[1.41769231],2.7500000000000018,0.717948717948718,11010,002,2024_Jan_02_0933,MFTM_A_new1021,2021.2.3,60.14719220222056,
,,,,,,,,stim/Instruction_adaptive.png,conditions/adaptive.xlsx,test,-0.6,-0.6,-0.6,0.6,0.6,left,L,,,,,0,1,1,1,0,39,39,49,,,,,,,,,,,,,,,,,,,,,,,,,,,,,,,,,,,,,,,,,,,,261.1783202000079,None,left,1,1.1768938999739476,261.6786296000355,263.1641099000117,261.6786296000355,262.66332740004873,261.6786296000355,262.66332740004873,261.6786296000355,262.66332740004873,261.6786296000355,262.66332740004873,261.6786296000355,262.66332740004873,262.64687260001665,263.1472368000541,262.64687260001665,263.1472368000541,262.64687260001665,263.1472368000541,262.64687260001665,263.1472368000541,262.64687260001665,263.1472368000541,262.64687260001665,263.1472368000541,262.64687260001665,263.1472368000541,262.64687260001665,263.1472368000541,261.6786296000355,None,263.13053150003543,264.5493070000084,0.9800000000000006,264.58207040000707,None,265.3339176000445,None,,,,,,,[1.42025],2.800000000000002,0.725,11010,002,2024_Jan_02_0933,MFTM_A_new1021,2021.2.3,60.14719220222056,
,,,,,,,,stim/Instruction_adaptive.png,conditions/adaptive.xlsx,test,-0.6,-0.6,-0.6,0.6,0.6,left,L,,,,,0,1,1,1,0,40,40,45,,,,,,,,,,,,,,,,,,,,,,,,,,,,,,,,,,,,,,,,,,,,265.83517520001624,None,left,1,1.2232833000016399,266.33545100002084,267.787317600043,266.33545100002084,267.2872481000377,266.33545100002084,267.2872481000377,266.33545100002084,267.2872481000377,266.33545100002084,267.2872481000377,266.33545100002084,267.2872481000377,267.2534370000358,267.7542977000121,267.2534370000358,267.7542977000121,267.2534370000358,267.7542977000121,267.2534370000358,267.7542977000121,267.2534370000358,267.7542977000121,267.2534370000358,267.7542977000121,267.2534370000358,267.7542977000121,267.2534370000358,267.7542977000121,266.33545100002084,None,267.7542977000121,269.18935960001545,0.9400000000000006,269.20624870003667,None,269.95744720002403,None,,,,,,,[1.42365854],2.8500000000000023,0.7317073170731707,11010,002,2024_Jan_02_0933,MFTM_A_new1021,2021.2.3,60.14719220222056,
,,,,,,,,stim/Instruction_adaptive.png,conditions/adaptive.xlsx,test,0.6,0.6,0.6,-0.6,-0.6,right,R,,,,,0,1,1,1,0,41,41,86,,,,,,,,,,,,,,,,,,,,,,,,,,,,,,,,,,,,,,,,,,,,270.4581207000301,None,right,1,1.0880182000109926,270.95878060004907,272.3777101000305,270.95878060004907,271.87687880004523,270.95878060004907,271.87687880004523,270.95878060004907,271.87687880004523,270.95878060004907,271.87687880004523,270.95878060004907,271.87687880004523,271.8600443000323,272.3610128000146,271.8600443000323,272.3610128000146,271.8600443000323,272.3610128000146,271.8600443000323,272.3610128000146,271.8600443000323,272.3610128000146,271.8600443000323,272.3610128000146,271.8600443000323,272.3610128000146,271.8600443000323,272.3610128000146,270.95878060004907,None,272.3610128000146,None,0.9100000000000006,273.79603500000667,None,274.54752200003713,None,,,,,,,[1.42761905],2.900000000000002,0.7380952380952381,11010,002,2024_Jan_02_0933,MFTM_A_new1021,2021.2.3,60.14719220222056,
,,,,,,,,stim/Instruction_adaptive.png,conditions/adaptive.xlsx,test,-0.6,-0.6,-0.6,0.6,0.6,left,L,,,,,0,1,1,1,0,42,42,43,,,,,,,,,,,,,,,,,,,,,,,,,,,,,,,,,,,,,,,,,,,,275.04829040000914,None,right,0,1.4497072999947704,275.54967249999754,276.9344057000126,275.54967249999754,276.43383920000633,275.54967249999754,276.43383920000633,275.54967249999754,276.43383920000633,275.54967249999754,276.43383920000633,275.54967249999754,276.43383920000633,276.41698210005416,276.91780930000823,276.41698210005416,276.91780930000823,276.41698210005416,276.91780930000823,276.41698210005416,276.91780930000823,276.41698210005416,276.91780930000823,276.41698210005416,276.91780930000823,276.41698210005416,276.91780930000823,276.41698210005416,276.91780930000823,275.54967249999754,None,276.91780930000823,278.35315979999723,0.8800000000000006,278.386763800052,None,279.13789760001237,None,,,,,,,[1.43209302],2.760000000000002,0.7209302325581395,11010,002,2024_Jan_02_0933,MFTM_A_new1021,2021.2.3,60.14719220222056,
,,,,,,,,stim/Instruction_adaptive.png,conditions/adaptive.xlsx,test,-0.6,-0.6,-0.6,0.6,0.6,left,L,,,,,0,1,1,1,0,43,43,39,,,,,,,,,,,,,,,,,,,,,,,,,,,,,,,,,,,,,,,,,,,,279.6384703000076,None,left,1,1.3884129999787547,280.1384972000378,281.62479680002434,280.1384972000378,281.12403250002535,280.1384972000378,281.12403250002535,280.1384972000378,281.12403250002535,280.1384972000378,281.12403250002535,280.1384972000378,281.12403250002535,281.0904680000385,281.59059440001147,281.0904680000385,281.59059440001147,281.0904680000385,281.59059440001147,281.0904680000385,281.59059440001147,281.0904680000385,281.59059440001147,281.0904680000385,281.59059440001147,281.0904680000385,281.59059440001147,281.0904680000385,281.59059440001147,280.1384972000378,None,281.59059440001147,283.02671080001164,0.9700000000000006,283.0431372000021,None,283.79455670004245,None,,,,,,,[1.43431818],2.8100000000000023,0.7272727272727273,11010,002,2024_Jan_02_0933,MFTM_A_new1021,2021.2.3,60.14719220222056,
,,,,,,,,stim/Instruction_adaptive.png,conditions/adaptive.xlsx,test,0.6,0.6,0.6,-0.6,-0.6,right,R,,,,,0,1,1,1,0,44,44,16,,,,,,,,,,,,,,,,,,,,,,,,,,,,,,,,,,,,,,,,,,,,284.2948658000096,None,right,1,1.2355219000019133,284.7956160000176,286.24730210000416,284.7956160000176,285.7478678000043,284.7956160000176,285.7478678000043,284.7956160000176,285.7478678000043,284.7956160000176,285.7478678000043,284.7956160000176,285.7478678000043,285.7141093000537,286.2148153000162,285.7141093000537,286.2148153000162,285.7141093000537,286.2148153000162,285.7141093000537,286.2148153000162,285.7141093000537,286.2148153000162,285.7141093000537,286.2148153000162,285.7141093000537,286.2148153000162,285.7141093000537,286.2148153000162,284.7956160000176,None,286.2148153000162,287.66690750001,0.9400000000000006,287.6837648000219,None,288.4351003000047,None,,,,,,,[1.43711111],2.8500000000000023,0.7333333333333333,11010,002,2024_Jan_02_0933,MFTM_A_new1021,2021.2.3,60.14719220222056,
,,,,,,,,stim/Instruction_adaptive.png,conditions/adaptive.xlsx,test,0.6,0.6,0.6,-0.6,-0.6,right,R,,,,,0,1,1,1,0,45,45,60,,,,,,,,,,,,,,,,,,,,,,,,,,,,,,,,,,,,,,,,,,,,288.9349774000002,None,right,1,0.9946858999901451,289.4360674000345,290.85488830000395,289.4360674000345,290.35427000001073,289.4360674000345,290.35427000001073,289.4360674000345,290.35427000001073,289.4360674000345,290.35427000001073,289.4360674000345,290.35427000001073,290.337602100044,290.83739270002116,290.337602100044,290.83739270002116,290.337602100044,290.83739270002116,290.337602100044,290.83739270002116,290.337602100044,290.83739270002116,290.337602100044,290.83739270002116,290.337602100044,290.83739270002116,290.337602100044,290.83739270002116,289.4360674000345,None,290.83739270002116,None,0.9100000000000006,292.28951000003144,None,293.0415554000065,None,,,,,,,[1.44043478],2.900000000000002,0.7391304347826086,11010,002,2024_Jan_02_0933,MFTM_A_new1021,2021.2.3,60.14719220222056,
,,,,,,,,stim/Instruction_adaptive.png,conditions/adaptive.xlsx,test,0.6,0.6,0.6,-0.6,-0.6,right,R,,,,,0,1,1,1,0,46,46,82,,,,,,,,,,,,,,,,,,,,,,,,,,,,,,,,,,,,,,,,,,,,293.5422959999996,None,left,0,1.4279974999953993,294.04280950000975,295.42892750003375,294.04280950000975,294.928369500034,294.04280950000975,294.928369500034,294.04280950000975,294.928369500034,294.04280950000975,294.928369500034,294.04280950000975,294.928369500034,294.91143790003844,295.4118564000237,294.91143790003844,295.4118564000237,294.91143790003844,295.4118564000237,294.91143790003844,295.4118564000237,294.91143790003844,295.4118564000237,294.91143790003844,295.4118564000237,294.91143790003844,295.4118564000237,294.91143790003844,295.4118564000237,294.04280950000975,None,295.4118564000237,296.8632794000441,0.8800000000000006,296.88070270000026,None,297.63180590001866,None,,,,,,,[1.44425532],2.7700000000000022,0.723404255319149,11010,002,2024_Jan_02_0933,MFTM_A_new1021,2021.2.3,60.14719220222056,
,,,,,,,,stim/Instruction_adaptive.png,conditions/adaptive.xlsx,test,-0.6,-0.6,-0.6,0.6,0.6,left,L,,,,,0,1,1,1,0,47,47,3,,,,,,,,,,,,,,,,,,,,,,,,,,,,,,,,,,,,,,,,,,,,298.13257070002146,None,right,0,1.7434494000044651,298.63284010003554,300.10176030005096,298.63284010003554,299.60086720000254,298.63284010003554,299.60086720000254,298.63284010003554,299.60086720000254,298.63284010003554,299.60086720000254,298.63284010003554,299.60086720000254,299.5676556000253,300.06847080000443,299.5676556000253,300.06847080000443,299.5676556000253,300.06847080000443,299.5676556000253,300.06847080000443,299.5676556000253,300.06847080000443,299.5676556000253,300.06847080000443,299.5676556000253,300.06847080000443,299.5676556000253,300.06847080000443,298.63284010003554,None,300.06847080000443,301.5199732000474,0.9600000000000006,301.55352470005164,None,302.3052591000451,None,,,,,,,[1.44625],2.650000000000002,0.7083333333333334,11010,002,2024_Jan_02_0933,MFTM_A_new1021,2021.2.3,60.14719220222056,
,,,,,,,,stim/Instruction_adaptive.png,conditions/adaptive.xlsx,test,0.6,0.6,0.6,-0.6,-0.6,right,R,,,,,0,1,1,1,0,48,48,44,,,,,,,,,,,,,,,,,,,,,,,,,,,,,,,,,,,,,,,,,,,,302.8061444000341,None,right,1,1.332331100013107,303.30677300004754,304.85873500001617,303.30677300004754,304.3577138000401,303.30677300004754,304.3577138000401,303.30677300004754,304.3577138000401,303.30677300004754,304.3577138000401,303.30677300004754,304.3577138000401,304.34164570004214,304.84195380000165,304.34164570004214,304.84195380000165,304.34164570004214,304.84195380000165,304.34164570004214,304.84195380000165,304.34164570004214,304.84195380000165,304.34164570004214,304.84195380000165,304.34164570004214,304.84195380000165,304.34164570004214,304.84195380000165,303.30677300004754,None,304.84195380000165,306.29499450000003,1.0500000000000007,306.32847420003964,None,307.07952250004746,None,,,,,,,[1.44632653],2.690000000000002,0.7142857142857143,11010,002,2024_Jan_02_0933,MFTM_A_new1021,2021.2.3,60.14719220222056,
,,,,,,,,stim/Instruction_adaptive.png,conditions/adaptive.xlsx,test,0.6,0.6,0.6,-0.6,-0.6,right,R,,,,,0,1,1,1,0,49,49,88,,,,,,,,,,,,,,,,,,,,,,,,,,,,,,,,,,,,,,,,,,,,307.57979760004673,None,left,0,1.278483400004916,308.0803542000358,309.6153201000416,308.0803542000358,309.11457500001416,308.0803542000358,309.11457500001416,308.0803542000358,309.11457500001416,308.0803542000358,309.11457500001416,308.0803542000358,309.11457500001416,309.0812398000271,309.582115600002,309.0812398000271,309.582115600002,309.0812398000271,309.582115600002,309.0812398000271,309.582115600002,309.0812398000271,309.582115600002,309.0812398000271,309.582115600002,309.0812398000271,309.582115600002,309.0812398000271,309.582115600002,308.0803542000358,None,309.582115600002,311.03731780004455,1.0200000000000007,311.06824079999933,None,311.81946400000015,None,,,,,,,[1.447],2.560000000000002,0.7,11010,002,2024_Jan_02_0933,MFTM_A_new1021,2021.2.3,60.14719220222056,
,,,,,,,,stim/Instruction_adaptive.png,conditions/adaptive.xlsx,test,-0.6,-0.6,-0.6,0.6,0.6,left,L,,,,,0,1,1,1,0,50,50,29,,,,,,,,,,,,,,,,,,,,,,,,,,,,,,,,,,,,,,,,,,,,312.32077210000716,None,left,1,1.5943410000181757,312.82103710004594,314.4393098000437,312.82103710004594,313.9562822000007,312.82103710004594,313.9562822000007,312.82103710004594,313.9562822000007,312.82103710004594,313.9562822000007,312.82103710004594,313.9562822000007,313.9226649000193,314.42343030002667,313.9226649000193,314.42343030002667,313.9226649000193,314.42343030002667,313.9226649000193,314.42343030002667,313.9226649000193,314.42343030002667,313.9226649000193,314.42343030002667,313.9226649000193,314.42343030002667,313.9226649000193,314.42343030002667,312.82103710004594,None,314.42343030002667,315.8083218000247,1.1200000000000008,315.842360700015,None,316.593522900017,None,,,,,,,[[1.38]],2.610000000000002,0.7058823529411765,11010,002,2024_Jan_02_0933,MFTM_A_new1021,2021.2.3,60.14719220222056,
,,,,,,,,stim/Instruction_adaptive.png,conditions/adaptive.xlsx,test,-0.6,-0.6,-0.6,0.6,0.6,left,L,,,,,0,1,1,1,0,51,51,99,,,,,,,,,,,,,,,,,,,,,,,,,,,,,,,,,,,,,,,,,,,,317.0939483999973,None,left,1,1.4533699000021443,317.57769900001585,319.1629456000519,317.57769900001585,318.6629000000539,317.57769900001585,318.6629000000539,317.57769900001585,318.6629000000539,317.57769900001585,318.6629000000539,317.57769900001585,318.6629000000539,318.6461423000437,319.14604230003897,318.6461423000437,319.14604230003897,318.6461423000437,319.14604230003897,318.6461423000437,319.14604230003897,318.6461423000437,319.14604230003897,318.6461423000437,319.14604230003897,318.6461423000437,319.14604230003897,318.6461423000437,319.14604230003897,317.57769900001585,None,319.14604230003897,320.5655167000368,1.0800000000000007,320.5819705000031,None,321.3336560000316,None,,,,,,,[[1.42]],2.650000000000002,0.7115384615384616,11010,002,2024_Jan_02_0933,MFTM_A_new1021,2021.2.3,60.14719220222056,
,,,,,,,,stim/Instruction_adaptive.png,conditions/adaptive.xlsx,test,0.6,0.6,0.6,-0.6,-0.6,right,R,,,,,0,1,1,1,0,52,52,66,,,,,,,,,,,,,,,,,,,,,,,,,,,,,,,,,,,,,,,,,,,,321.8343846000498,None,right,1,1.5209027000237256,322.3341697000433,323.8869687000406,322.3341697000433,323.3870546000544,322.3341697000433,323.3870546000544,322.3341697000433,323.3870546000544,322.3341697000433,323.3870546000544,322.3341697000433,323.3870546000544,323.3690598999965,323.8699695999967,323.3690598999965,323.8699695999967,323.3690598999965,323.8699695999967,323.3690598999965,323.8699695999967,323.3690598999965,323.8699695999967,323.3690598999965,323.8699695999967,323.3690598999965,323.8699695999967,323.3690598999965,323.8699695999967,322.3341697000433,None,323.8699695999967,325.32296430005226,1.0500000000000007,325.35712910001166,None,326.1081024000305,None,,,,,,,[1.44528302],2.690000000000002,0.7169811320754716,11010,002,2024_Jan_02_0933,MFTM_A_new1021,2021.2.3,60.14719220222056,
,,,,,,,,stim/Instruction_adaptive.png,conditions/adaptive.xlsx,test,0.6,0.6,0.6,-0.6,-0.6,right,R,,,,,0,1,1,1,0,53,53,64,,,,,,,,,,,,,,,,,,,,,,,,,,,,,,,,,,,,,,,,,,,,326.608721000026,None,right,1,1.171110299997963,327.1080514000496,328.62679520004895,327.1080514000496,328.1261152000516,327.1080514000496,328.1261152000516,327.1080514000496,328.1261152000516,327.1080514000496,328.1261152000516,327.1080514000496,328.1261152000516,328.1109106000513,328.61075160000473,328.1109106000513,328.61075160000473,328.1109106000513,328.61075160000473,328.1109106000513,328.61075160000473,328.1109106000513,328.61075160000473,328.1109106000513,328.61075160000473,328.1109106000513,328.61075160000473,328.1109106000513,328.61075160000473,327.1080514000496,None,328.61075160000473,330.0635408000089,1.0200000000000007,330.0788049999974,None,330.8310176000232,None,,,,,,,[1.44592593],2.730000000000002,0.7222222222222222,11010,002,2024_Jan_02_0933,MFTM_A_new1021,2021.2.3,60.14719220222056,
,,,,,,,,stim/Instruction_adaptive.png,conditions/adaptive.xlsx,test,0.6,0.6,0.6,-0.6,-0.6,right,R,,,,,0,1,1,1,0,54,54,50,,,,,,,,,,,,,,,,,,,,,,,,,,,,,,,,,,,,,,,,,,,,331.3315542000346,None,left,0,1.5189665000070818,331.8324087000219,333.3345763000543,331.8324087000219,332.83393300004536,331.8324087000219,332.83393300004536,331.8324087000219,332.83393300004536,331.8324087000219,332.83393300004536,331.8324087000219,332.83393300004536,332.8005733000464,333.3012144000386,332.8005733000464,333.3012144000386,332.8005733000464,333.3012144000386,332.8005733000464,333.3012144000386,332.8005733000464,333.3012144000386,332.8005733000464,333.3012144000386,332.8005733000464,333.3012144000386,332.8005733000464,333.3012144000386,331.8324087000219,None,333.3012144000386,334.75305260001915,0.9900000000000007,334.78679020004347,None,335.5378884000238,None,,,,,,,[1.44709091],2.620000000000002,0.7090909090909091,11010,002,2024_Jan_02_0933,MFTM_A_new1021,2021.2.3,60.14719220222056,
,,,,,,,,stim/Instruction_adaptive.png,conditions/adaptive.xlsx,test,-0.6,-0.6,-0.6,0.6,0.6,left,L,,,,,0,1,1,1,0,55,55,69,,,,,,,,,,,,,,,,,,,,,,,,,,,,,,,,,,,,,,,,,,,,336.0383296000073,None,left,1,1.4756909999996424,336.5395482000313,338.1243560000439,336.5395482000313,337.6243770000292,336.5395482000313,337.6243770000292,336.5395482000313,337.6243770000292,336.5395482000313,337.6243770000292,336.5395482000313,337.6243770000292,337.5902939000516,338.09166900004493,337.5902939000516,338.09166900004493,337.5902939000516,338.09166900004493,337.5902939000516,338.09166900004493,337.5902939000516,338.09166900004493,337.5902939000516,338.09166900004493,337.5902939000516,338.09166900004493,337.5902939000516,338.09166900004493,336.5395482000313,None,338.09166900004493,339.5273598000058,1.0700000000000007,339.54316380003,None,340.2945035000448,None,,,,,,,[[1.43]],2.660000000000002,0.7142857142857143,11010,002,2024_Jan_02_0933,MFTM_A_new1021,2021.2.3,60.14719220222056,
,,,,,,,,stim/Instruction_adaptive.png,conditions/adaptive.xlsx,test,0.6,0.6,0.6,-0.6,-0.6,right,R,,,,,0,1,1,1,0,56,56,48,,,,,,,,,,,,,,,,,,,,,,,,,,,,,,,,,,,,,,,,,,,,340.79622030002065,None,right,1,1.038553700025659,341.2964479000075,342.8486681000213,341.2964479000075,342.3473104000441,341.2964479000075,342.3473104000441,341.2964479000075,342.3473104000441,341.2964479000075,342.3473104000441,341.2964479000075,342.3473104000441,342.3165457000141,342.83126480004285,342.3165457000141,342.83126480004285,342.3165457000141,342.83126480004285,342.3165457000141,342.83126480004285,342.3165457000141,342.83126480004285,342.3165457000141,342.83126480004285,342.3165457000141,342.83126480004285,342.3165457000141,342.83126480004285,341.2964479000075,None,342.8145543000428,344.26740150002297,1.0400000000000007,344.283949100005,None,345.03495200001635,None,,,,,,,[1.44701754],2.690000000000002,0.7192982456140351,11010,002,2024_Jan_02_0933,MFTM_A_new1021,2021.2.3,60.14719220222056,
,,,,,,,,stim/Instruction_adaptive.png,conditions/adaptive.xlsx,test,-0.6,-0.6,-0.6,0.6,0.6,left,L,,,,,0,1,1,1,0,57,57,21,,,,,,,,,,,,,,,,,,,,,,,,,,,,,,,,,,,,,,,,,,,,345.53620550001506,None,right,0,1.218844699964393,346.0368690000032,347.57274470000993,346.0368690000032,347.0716450000182,346.0368690000032,347.0716450000182,346.0368690000032,347.0716450000182,346.0368690000032,347.0716450000182,346.0368690000032,347.0716450000182,347.0380912999972,347.5387023000512,347.0380912999972,347.5387023000512,347.0380912999972,347.5387023000512,347.0380912999972,347.5387023000512,347.0380912999972,347.5387023000512,347.0380912999972,347.5387023000512,347.0380912999972,347.5387023000512,347.0380912999972,347.5387023000512,346.0368690000032,None,347.5387023000512,348.99119490000885,1.0200000000000007,349.0067986000213,None,349.75826440000674,None,,,,,,,[1.44758621],2.580000000000002,0.7068965517241379,11010,002,2024_Jan_02_0933,MFTM_A_new1021,2021.2.3,60.14719220222056,
,,,,,,,,stim/Instruction_adaptive.png,conditions/adaptive.xlsx,test,-0.6,-0.6,-0.6,0.6,0.6,left,L,,,,,0,1,1,1,0,58,58,89,,,,,,,,,,,,,,,,,,,,,,,,,,,,,,,,,,,,,,,,,,,,350.26016270002583,None,left,1,1.0866129000205547,350.76045580004575,352.3627943000174,350.76045580004575,351.86140360002173,350.76045580004575,351.86140360002173,350.76045580004575,351.86140360002173,350.76045580004575,351.86140360002173,350.76045580004575,351.86140360002173,351.8453839000431,352.34657080000034,351.8453839000431,352.34657080000034,351.8453839000431,352.34657080000034,351.8453839000431,352.34657080000034,351.8453839000431,352.34657080000034,351.8453839000431,352.34657080000034,351.8453839000431,352.34657080000034,351.8453839000431,352.34657080000034,350.76045580004575,None,352.34657080000034,353.7476166000124,1.1000000000000008,353.7638538000174,None,354.516083399998,None,,,,,,,[[1.4]],2.620000000000002,0.711864406779661,11010,002,2024_Jan_02_0933,MFTM_A_new1021,2021.2.3,60.14719220222056,
,,,,,,,,stim/Instruction_adaptive.png,conditions/adaptive.xlsx,test,0.6,0.6,0.6,-0.6,-0.6,right,R,,,,,0,1,1,1,0,59,59,32,,,,,,,,,,,,,,,,,,,,,,,,,,,,,,,,,,,,,,,,,,,,355.0167931000469,None,right,1,1.58663279999746,355.51674849999836,357.0866488000029,355.51674849999836,356.5857202000334,355.51674849999836,356.5857202000334,355.51674849999836,356.5857202000334,355.51674849999836,356.5857202000334,355.51674849999836,356.5857202000334,356.56966140004806,357.06989770004293,356.56966140004806,357.06989770004293,356.56966140004806,357.06989770004293,356.56966140004806,357.06989770004293,356.56966140004806,357.06989770004293,356.56966140004806,357.06989770004293,356.56966140004806,357.06989770004293,356.56966140004806,357.06989770004293,355.51674849999836,None,357.06989770004293,358.50513710000087,1.0700000000000007,358.53914100001566,None,359.28889450000133,None,,,,,,,[[1.43]],2.660000000000002,0.7166666666666667,11010,002,2024_Jan_02_0933,MFTM_A_new1021,2021.2.3,60.14719220222056,
,,,,,,,,stim/Instruction_adaptive.png,conditions/adaptive.xlsx,test,0.6,0.6,0.6,-0.6,-0.6,right,R,,,,,0,1,1,1,0,60,60,4,,,,,,,,,,,,,,,,,,,,,,,,,,,,,,,,,,,,,,,,,,,,359.7903197000269,None,right,1,1.8765088000218384,360.2912395000458,361.8436960000545,360.2912395000458,361.3427239000448,360.2912395000458,361.3427239000448,360.2912395000458,361.3427239000448,360.2912395000458,361.3427239000448,360.2912395000458,361.3427239000448,361.30973410001025,361.81026420003036,361.30973410001025,361.81026420003036,361.30973410001025,361.81026420003036,361.30973410001025,361.81026420003036,361.30973410001025,361.81026420003036,361.30973410001025,361.81026420003036,361.30973410001025,361.81026420003036,361.30973410001025,361.81026420003036,360.2912395000458,None,361.81026420003036,363.26236260001315,1.0400000000000007,363.2785021000309,None,364.02967090002494,None,,,,,,,[1.44672131],2.690000000000002,0.7213114754098361,11010,002,2024_Jan_02_0933,MFTM_A_new1021,2021.2.3,60.14719220222056,
,,,,,,,,stim/Instruction_adaptive.png,conditions/adaptive.xlsx,test,-0.6,-0.6,-0.6,0.6,0.6,left,L,,,,,0,1,1,1,0,61,61,1,,,,,,,,,,,,,,,,,,,,,,,,,,,,,,,,,,,,,,,,,,,,364.53088330000173,None,left,1,1.5997533000190742,365.03144880000036,366.55068450002,365.03144880000036,366.0667192999972,365.03144880000036,366.0667192999972,365.03144880000036,366.0667192999972,365.03144880000036,366.0667192999972,365.03144880000036,366.0667192999972,366.03313799999887,366.5336978000123,366.03313799999887,366.5336978000123,366.03313799999887,366.5336978000123,366.03313799999887,366.5336978000123,366.03313799999887,366.5336978000123,366.03313799999887,366.5336978000123,366.03313799999887,366.5336978000123,366.03313799999887,366.5336978000123,365.03144880000036,None,366.5336978000123,367.9859620000352,1.0200000000000007,368.0025153000024,None,368.75394210004015,None,,,,,,,[1.44725806],2.730000000000002,0.7258064516129032,11010,002,2024_Jan_02_0933,MFTM_A_new1021,2021.2.3,60.14719220222056,
,,,,,,,,stim/Instruction_adaptive.png,conditions/adaptive.xlsx,test,-0.6,-0.6,-0.6,0.6,0.6,left,L,,,,,0,1,1,1,0,62,62,35,,,,,,,,,,,,,,,,,,,,,,,,,,,,,,,,,,,,,,,,,,,,369.25375240005087,None,right,0,1.5085656000301242,369.75520710001,371.25747890002094,369.75520710001,370.75666360004107,369.75520710001,370.75666360004107,369.75520710001,370.75666360004107,369.75520710001,370.75666360004107,369.75520710001,370.75666360004107,370.7230415000231,371.2247921000235,370.7230415000231,371.2247921000235,370.7230415000231,371.2247921000235,370.7230415000231,371.2247921000235,370.7230415000231,371.2247921000235,370.7230415000231,371.2247921000235,370.7230415000231,371.2247921000235,370.7230415000231,371.2247921000235,369.75520710001,None,371.2247921000235,372.6766142999986,0.9900000000000007,372.7101182000479,None,373.46012520004297,None,,,,,,,[1.44825397],2.6300000000000017,0.7142857142857143,11010,002,2024_Jan_02_0933,MFTM_A_new1021,2021.2.3,60.14719220222056,
,,,,,,,,stim/Instruction_adaptive.png,conditions/adaptive.xlsx,test,-0.6,-0.6,-0.6,0.6,0.6,left,L,,,,,0,1,1,1,0,63,63,31,,,,,,,,,,,,,,,,,,,,,,,,,,,,,,,,,,,,,,,,,,,,373.96127990004607,None,left,1,1.3045629999833182,374.462305699999,376.0316965000238,374.462305699999,375.5304736000253,374.462305699999,375.5304736000253,374.462305699999,375.5304736000253,374.462305699999,375.5304736000253,374.462305699999,375.5304736000253,375.49688380002044,375.997961200017,375.49688380002044,375.997961200017,375.49688380002044,375.997961200017,375.49688380002044,375.997961200017,375.49688380002044,375.997961200017,375.49688380002044,375.997961200017,375.49688380002044,375.997961200017,375.49688380002044,375.997961200017,374.462305699999,None,375.997961200017,377.4491562000476,1.0600000000000007,377.4668013000046,None,378.2182708000182,None,,,,,,,[[1.44]],2.660000000000002,0.71875,11010,002,2024_Jan_02_0933,MFTM_A_new1021,2021.2.3,60.14719220222056,
,,,,,,,,stim/Instruction_adaptive.png,conditions/adaptive.xlsx,test,0.6,0.6,0.6,-0.6,-0.6,right,R,,,,,0,1,1,1,0,64,64,52,,,,,,,,,,,,,,,,,,,,,,,,,,,,,,,,,,,,,,,,,,,,378.71842930000275,None,left,0,1.4596703999559395,379.2203120000195,380.7717270000139,379.2203120000195,380.2707928000018,379.2203120000195,380.2707928000018,379.2203120000195,380.2707928000018,379.2203120000195,380.2707928000018,379.2203120000195,380.2707928000018,380.23770730005344,380.7375664000283,380.23770730005344,380.7375664000283,380.23770730005344,380.7375664000283,380.23770730005344,380.7375664000283,380.23770730005344,380.7375664000283,380.23770730005344,380.7375664000283,380.23770730005344,380.7375664000283,380.23770730005344,380.7375664000283,379.2203120000195,None,380.7375664000283,382.1903773000231,1.0400000000000007,382.2409345000051,None,382.99125620000996,None,,,,,,,[1.44830769],2.560000000000002,0.7076923076923077,11010,002,2024_Jan_02_0933,MFTM_A_new1021,2021.2.3,60.14719220222056,
,,,,,,,,stim/Instruction_adaptive.png,conditions/adaptive.xlsx,test,-0.6,-0.6,-0.6,0.6,0.6,left,L,,,,,0,1,1,1,0,65,65,25,,,,,,,,,,,,,,,,,,,,,,,,,,,,,,,,,,,,,,,,,,,,383.49240210000426,None,right,0,1.6778447999968193,383.9930968999979,385.628491200041,383.9930968999979,385.12783760001184,383.9930968999979,385.12783760001184,383.9930968999979,385.12783760001184,383.9930968999979,385.12783760001184,383.9930968999979,385.12783760001184,385.09460890002083,385.59463830001187,385.09460890002083,385.59463830001187,385.09460890002083,385.59463830001187,385.09460890002083,385.59463830001187,385.09460890002083,385.59463830001187,385.09460890002083,385.59463830001187,385.09460890002083,385.59463830001187,385.09460890002083,385.59463830001187,383.9930968999979,None,385.59463830001187,386.9808573000482,1.1200000000000008,386.9968932000338,None,387.74892670003464,None,,,,,,,[[1.38]],2.4600000000000017,0.696969696969697,11010,002,2024_Jan_02_0933,MFTM_A_new1021,2021.2.3,60.14719220222056,
,,,,,,,,stim/Instruction_adaptive.png,conditions/adaptive.xlsx,test,-0.6,-0.6,-0.6,0.6,0.6,left,L,,,,,0,1,1,1,0,66,66,61,,,,,,,,,,,,,,,,,,,,,,,,,,,,,,,,,,,,,,,,,,,,388.2493640000466,None,left,1,1.505024800018873,388.7499837000505,390.45270500000333,388.7499837000505,389.9514694000245,388.7499837000505,389.9514694000245,388.7499837000505,389.9514694000245,388.7499837000505,389.9514694000245,388.7499837000505,389.9514694000245,389.9357699000393,390.4352778000175,389.9357699000393,390.4352778000175,389.9357699000393,390.4352778000175,389.9357699000393,390.4352778000175,389.9357699000393,390.4352778000175,389.9357699000393,390.4352778000175,389.9357699000393,390.4352778000175,389.9357699000393,390.4352778000175,388.7499837000505,None,390.4352778000175,391.7379759000032,1.2000000000000008,391.7538053000462,None,392.50586800003657,None,,,,,,,[[1.3]],2.490000000000002,0.7014925373134329,11010,002,2024_Jan_02_0933,MFTM_A_new1021,2021.2.3,60.14719220222056,
,,,,,,,,stim/Instruction_adaptive.png,conditions/adaptive.xlsx,test,0.6,0.6,0.6,-0.6,-0.6,right,R,,,,,0,1,1,1,0,67,67,98,,,,,,,,,,,,,,,,,,,,,,,,,,,,,,,,,,,,,,,,,,,,393.0063965000445,None,right,1,1.3161440000403672,393.50710370001616,395.19297870004084,393.50710370001616,394.69184490002226,393.50710370001616,394.69184490002226,393.50710370001616,394.69184490002226,393.50710370001616,394.69184490002226,393.50710370001616,394.69184490002226,394.658855900052,395.15923869999824,394.658855900052,395.15923869999824,394.658855900052,395.15923869999824,394.658855900052,395.15923869999824,394.658855900052,395.15923869999824,394.658855900052,395.15923869999824,394.658855900052,395.15923869999824,394.658855900052,395.15923869999824,393.50710370001616,None,395.15923869999824,396.4949989000452,1.1700000000000008,396.51059499999974,None,397.2628276000032,None,,,,,,,[[1.33]],2.530000000000002,0.7058823529411765,11010,002,2024_Jan_02_0933,MFTM_A_new1021,2021.2.3,60.14719220222056,
,,,,,,,,stim/Instruction_adaptive.png,conditions/adaptive.xlsx,test,-0.6,-0.6,-0.6,0.6,0.6,left,L,,,,,0,1,1,1,0,68,68,15,,,,,,,,,,,,,,,,,,,,,,,,,,,,,,,,,,,,,,,,,,,,397.7631467000465,None,left,1,1.2867647999664769,398.2642804000061,399.91633239999646,398.2642804000061,399.4151901000296,398.2642804000061,399.4151901000296,398.2642804000061,399.4151901000296,398.2642804000061,399.4151901000296,398.2642804000061,399.4151901000296,399.38185230002273,399.88377790001687,399.38185230002273,399.88377790001687,399.38185230002273,399.88377790001687,399.38185230002273,399.88377790001687,399.38185230002273,399.88377790001687,399.38185230002273,399.88377790001687,399.38185230002273,399.88377790001687,399.38185230002273,399.88377790001687,398.2642804000061,None,399.88377790001687,401.25211960001616,1.1400000000000008,401.26872700004606,None,402.0197834999999,None,,,,,,,[[1.36]],2.560000000000002,0.7101449275362319,11010,002,2024_Jan_02_0933,MFTM_A_new1021,2021.2.3,60.14719220222056,
,,,,,,,,stim/Instruction_adaptive.png,conditions/adaptive.xlsx,test,-0.6,-0.6,-0.6,0.6,0.6,left,L,,,,,0,1,1,1,0,69,69,83,,,,,,,,,,,,,,,,,,,,,,,,,,,,,,,,,,,,,,,,,,,,402.5205776000512,None,left,1,0.9061265999916941,403.0209750000504,404.65690600004746,403.0209750000504,404.1586279000039,403.0209750000504,404.1586279000039,403.0209750000504,404.1586279000039,403.0209750000504,404.1586279000039,403.0209750000504,404.1586279000039,404.1225300000515,404.6226352000376,404.1225300000515,404.6226352000376,404.1225300000515,404.6226352000376,404.1225300000515,404.6226352000376,404.1225300000515,404.6226352000376,404.1225300000515,404.6226352000376,404.1225300000515,404.6226352000376,404.1225300000515,404.6226352000376,403.0209750000504,None,404.6226352000376,406.00901520001935,1.1200000000000008,406.02551800000947,None,406.7769098000135,None,,,,,,,[[1.38]],2.600000000000002,0.7142857142857143,11010,002,2024_Jan_02_0933,MFTM_A_new1021,2021.2.3,60.14719220222056,
,,,,,,,,stim/Instruction_adaptive.png,conditions/adaptive.xlsx,test,0.6,0.6,0.6,-0.6,-0.6,right,R,,,,,0,1,1,1,0,70,70,42,,,,,,,,,,,,,,,,,,,,,,,,,,,,,,,,,,,,,,,,,,,,407.2770447000512,None,left,0,1.3094313000328839,407.7781667000381,409.3798374000471,407.7781667000381,408.8797448000405,407.7781667000381,408.8797448000405,407.7781667000381,408.8797448000405,407.7781667000381,408.8797448000405,407.7781667000381,408.8797448000405,408.84637540002586,409.34698650002247,408.84637540002586,409.34698650002247,408.84637540002586,409.34698650002247,408.84637540002586,409.34698650002247,408.84637540002586,409.34698650002247,408.84637540002586,409.34698650002247,408.84637540002586,409.34698650002247,408.84637540002586,409.34698650002247,407.7781667000381,None,409.34698650002247,410.7653821000131,1.0900000000000007,410.78184550005244,None,411.5341226000455,None,,,,,,,[[1.41]],2.5000000000000018,0.704225352112676,11010,002,2024_Jan_02_0933,MFTM_A_new1021,2021.2.3,60.14719220222056,
,,,,,,,,stim/Instruction_adaptive.png,conditions/adaptive.xlsx,test,0.6,0.6,0.6,-0.6,-0.6,right,R,,,,,0,1,1,1,0,71,71,20,,,,,,,,,,,,,,,,,,,,,,,,,,,,,,,,,,,,,,,,,,,,412.03462700004457,None,left,0,1.7118628000025637,412.5351834000321,414.20407210005214,412.5351834000321,413.7037917000125,412.5351834000321,413.7037917000125,412.5351834000321,413.7037917000125,412.5351834000321,413.7037917000125,412.5351834000321,413.7037917000125,413.68709469999885,414.18744609999703,413.68709469999885,414.18744609999703,413.68709469999885,414.18744609999703,413.68709469999885,414.18744609999703,413.68709469999885,414.18744609999703,413.68709469999885,414.18744609999703,413.68709469999885,414.18744609999703,413.68709469999885,414.18744609999703,412.5351834000321,None,414.18744609999703,None,1.1600000000000008,415.539650300052,None,416.29088070004946,None,,,,,,,[[1.34]],2.4000000000000017,0.6944444444444444,11010,002,2024_Jan_02_0933,MFTM_A_new1021,2021.2.3,60.14719220222056,
,,,,,,,,stim/Instruction_adaptive.png,conditions/adaptive.xlsx,test,-0.6,-0.6,-0.6,0.6,0.6,left,L,,,,,0,1,1,1,0,72,72,87,,,,,,,,,,,,,,,,,,,,,,,,,,,,,,,,,,,,,,,,,,,,416.791655500012,None,left,1,1.6669244000222534,417.2923406000482,419.0444174000295,417.2923406000482,418.54431530000875,417.2923406000482,418.54431530000875,417.2923406000482,418.54431530000875,417.2923406000482,418.54431530000875,417.2923406000482,418.54431530000875,418.5276108000544,419.02806860004785,418.5276108000544,419.02806860004785,418.5276108000544,419.02806860004785,418.5276108000544,419.02806860004785,418.5276108000544,419.02806860004785,418.5276108000544,419.02806860004785,418.5276108000544,419.02806860004785,418.5276108000544,419.02806860004785,417.2923406000482,None,419.02806860004785,420.2801147000282,1.2500000000000009,420.29643820005003,None,421.0475381000433,None,,,,,,,[[1.25]],2.4300000000000015,0.6986301369863014,11010,002,2024_Jan_02_0933,MFTM_A_new1021,2021.2.3,60.14719220222056,
,,,,,,,,stim/Instruction_adaptive.png,conditions/adaptive.xlsx,test,-0.6,-0.6,-0.6,0.6,0.6,left,L,,,,,0,1,1,1,0,73,73,53,,,,,,,,,,,,,,,,,,,,,,,,,,,,,,,,,,,,,,,,,,,,421.5487753000343,None,left,1,0.870494199974928,422.048609999998,423.76864940003725,422.048609999998,423.268074600026,422.048609999998,423.268074600026,422.048609999998,423.268074600026,422.048609999998,423.268074600026,422.048609999998,423.268074600026,423.2512514000409,423.75189680000767,423.2512514000409,423.75189680000767,423.2512514000409,423.75189680000767,423.2512514000409,423.75189680000767,423.2512514000409,423.75189680000767,423.2512514000409,423.75189680000767,423.2512514000409,423.75189680000767,423.2512514000409,423.75189680000767,422.048609999998,None,423.75189680000767,425.0372056000051,1.2200000000000009,425.05343280005036,None,425.80500819999725,None,,,,,,,[[1.28]],2.4700000000000015,0.7027027027027027,11010,002,2024_Jan_02_0933,MFTM_A_new1021,2021.2.3,60.14719220222056,
,,,,,,,,stim/Instruction_adaptive.png,conditions/adaptive.xlsx,test,0.6,0.6,0.6,-0.6,-0.6,right,R,,,,,0,1,1,1,0,74,74,28,,,,,,,,,,,,,,,,,,,,,,,,,,,,,,,,,,,,,,,,,,,,426.30559650005307,None,right,1,1.6166984000010416,426.8066411000327,428.5089856000268,426.8066411000327,428.0082352000172,426.8066411000327,428.0082352000172,426.8066411000327,428.0082352000172,426.8066411000327,428.0082352000172,426.8066411000327,428.0082352000172,427.9741243000026,428.47592540003825,427.9741243000026,428.47592540003825,427.9741243000026,428.47592540003825,427.9741243000026,428.47592540003825,427.9741243000026,428.47592540003825,427.9741243000026,428.47592540003825,427.9741243000026,428.47592540003825,427.9741243000026,428.47592540003825,426.8066411000327,None,428.47592540003825,429.7938955000136,1.1900000000000008,429.8108393000439,None,430.5612271000282,None,,,,,,,[[1.31]],2.5000000000000018,0.7066666666666667,11010,002,2024_Jan_02_0933,MFTM_A_new1021,2021.2.3,60.14719220222056,
,,,,,,,,stim/Instruction_adaptive.png,conditions/adaptive.xlsx,test,-0.6,-0.6,-0.6,0.6,0.6,left,L,,,,,0,1,1,1,0,75,75,51,,,,,,,,,,,,,,,,,,,,,,,,,,,,,,,,,,,,,,,,,,,,431.0631916000275,None,left,1,1.4360889000236057,431.5635538000497,433.23289240000304,431.5635538000497,432.7319034000393,431.5635538000497,432.7319034000393,431.5635538000497,432.7319034000393,431.5635538000497,432.7319034000393,431.5635538000497,432.7319034000393,432.69892470003106,433.19937200000277,432.69892470003106,433.19937200000277,432.69892470003106,433.19937200000277,432.69892470003106,433.19937200000277,432.69892470003106,433.19937200000277,432.69892470003106,433.19937200000277,432.69892470003106,433.19937200000277,432.69892470003106,433.19937200000277,431.5635538000497,None,433.19937200000277,434.5519034000463,1.1600000000000008,434.5676450000028,None,435.3187852000119,None,,,,,,,[[1.34]],2.530000000000002,0.7105263157894737,11010,002,2024_Jan_02_0933,MFTM_A_new1021,2021.2.3,60.14719220222056,
,,,,,,,,stim/Instruction_adaptive.png,conditions/adaptive.xlsx,test,-0.6,-0.6,-0.6,0.6,0.6,left,L,,,,,0,1,1,1,0,76,76,23,,,,,,,,,,,,,,,,,,,,,,,,,,,,,,,,,,,,,,,,,,,,435.82022410002537,None,left,1,2.046340299944859,436.32065130001865,437.97344420000445,436.32065130001865,437.4727297000354,436.32065130001865,437.4727297000354,436.32065130001865,437.4727297000354,436.32065130001865,437.4727297000354,436.32065130001865,437.4727297000354,437.4390206000535,437.93981160002295,437.4390206000535,437.93981160002295,437.4390206000535,437.93981160002295,437.4390206000535,437.93981160002295,437.4390206000535,437.93981160002295,437.4390206000535,437.93981160002295,437.4390206000535,437.93981160002295,437.4390206000535,437.93981160002295,436.32065130001865,None,437.93981160002295,439.30786250001984,1.1400000000000008,439.3240169000346,None,440.0761193000362,None,,,,,,,[[1.36]],2.560000000000002,0.7142857142857143,11010,002,2024_Jan_02_0933,MFTM_A_new1021,2021.2.3,60.14719220222056,
,,,,,,,,stim/Instruction_adaptive.png,conditions/adaptive.xlsx,test,0.6,0.6,0.6,-0.6,-0.6,right,R,,,,,0,1,1,1,0,77,77,26,,,,,,,,,,,,,,,,,,,,,,,,,,,,,,,,,,,,,,,,,,,,440.5762857000227,None,right,1,1.3300765000167303,441.07702530000824,442.69678759999806,441.07702530000824,442.1960626000073,441.07702530000824,442.1960626000073,441.07702530000824,442.1960626000073,441.07702530000824,442.1960626000073,441.07702530000824,442.1960626000073,442.1793116000481,442.67978000000585,442.1793116000481,442.67978000000585,442.1793116000481,442.67978000000585,442.1793116000481,442.67978000000585,442.1793116000481,442.67978000000585,442.1793116000481,442.67978000000585,442.1793116000481,442.67978000000585,442.1793116000481,442.67978000000585,441.07702530000824,None,442.67978000000585,444.065176300006,1.1200000000000008,444.0818820000277,None,444.83318820002023,None,,,,,,,[[1.38]],2.5900000000000016,0.717948717948718,11010,002,2024_Jan_02_0933,MFTM_A_new1021,2021.2.3,60.14719220222056,
,,,,,,,,stim/Instruction_adaptive.png,conditions/adaptive.xlsx,test,-0.6,-0.6,-0.6,0.6,0.6,left,L,,,,,0,1,1,1,0,78,78,33,,,,,,,,,,,,,,,,,,,,,,,,,,,,,,,,,,,,,,,,,,,,445.3340584000107,None,left,1,1.4445476999972016,445.8344656000263,447.4370555000496,445.8344656000263,446.936350300035,445.8344656000263,446.936350300035,445.8344656000263,446.936350300035,445.8344656000263,446.936350300035,445.8344656000263,446.936350300035,446.9029518000316,447.40350190002937,446.9029518000316,447.40350190002937,446.9029518000316,447.40350190002937,446.9029518000316,447.40350190002937,446.9029518000316,447.40350190002937,446.9029518000316,447.40350190002937,446.9029518000316,447.40350190002937,446.9029518000316,447.40350190002937,445.8344656000263,None,447.40350190002937,448.8226561000338,1.0900000000000007,448.8384257000289,None,449.58987260004506,None,,,,,,,[[1.41]],2.620000000000002,0.7215189873417721,11010,002,2024_Jan_02_0933,MFTM_A_new1021,2021.2.3,60.14719220222056,
,,,,,,,,stim/Instruction_adaptive.png,conditions/adaptive.xlsx,test,-0.6,-0.6,-0.6,0.6,0.6,left,L,,,,,0,1,1,1,0,79,79,81,,,,,,,,,,,,,,,,,,,,,,,,,,,,,,,,,,,,,,,,,,,,450.09094970003935,None,left,1,1.1356035000062548,450.591954500007,452.1773877000087,450.591954500007,451.6765965000377,450.591954500007,451.6765965000377,450.591954500007,451.6765965000377,450.591954500007,451.6765965000377,450.591954500007,451.6765965000377,451.64252240001224,452.14325610001106,451.64252240001224,452.14325610001106,451.64252240001224,452.14325610001106,451.64252240001224,452.14325610001106,451.64252240001224,452.14325610001106,451.64252240001224,452.14325610001106,451.64252240001224,452.14325610001106,451.64252240001224,452.14325610001106,450.591954500007,None,452.14325610001106,453.57958360004704,1.0700000000000007,453.6133663000073,None,454.36393600003794,None,,,,,,,[1.43],2.650000000000002,0.725,11010,002,2024_Jan_02_0933,MFTM_A_new1021,2021.2.3,60.14719220222056,
,,,,,,,,stim/Instruction_adaptive.png,conditions/adaptive.xlsx,test,0.6,0.6,0.6,-0.6,-0.6,right,R,,,,,0,1,1,1,0,80,80,38,,,,,,,,,,,,,,,,,,,,,,,,,,,,,,,,,,,,,,,,,,,,454.8648342000088,None,right,1,1.1056602000026032,455.3655076000141,456.9180101000238,455.3655076000141,456.4170017000288,455.3655076000141,456.4170017000288,455.3655076000141,456.4170017000288,455.3655076000141,456.4170017000288,455.3655076000141,456.4170017000288,456.40019260003464,456.9012275999994,456.40019260003464,456.9012275999994,456.40019260003464,456.9012275999994,456.40019260003464,456.9012275999994,456.40019260003464,456.9012275999994,456.40019260003464,456.9012275999994,456.40019260003464,456.9012275999994,456.40019260003464,456.9012275999994,455.3655076000141,None,456.9012275999994,458.3365698000416,1.0500000000000007,458.3532170000253,None,459.10444820002886,None,,,,,,,[1.43024691],2.6700000000000017,0.7283950617283951,11010,002,2024_Jan_02_0933,MFTM_A_new1021,2021.2.3,60.14719220222056,
,,,,,,,,stim/Instruction_adaptive.png,conditions/adaptive.xlsx,test,0.6,0.6,0.6,-0.6,-0.6,right,R,,,,,0,1,1,1,0,81,81,62,,,,,,,,,,,,,,,,,,,,,,,,,,,,,,,,,,,,,,,,,,,,459.60439390002284,None,left,0,1.3894780999980867,460.1057806000463,461.64077680004993,460.1057806000463,461.139850400039,460.1057806000463,461.139850400039,460.1057806000463,461.139850400039,460.1057806000463,461.139850400039,460.1057806000463,461.139850400039,461.12407210003585,461.62449529999867,461.12407210003585,461.62449529999867,461.12407210003585,461.62449529999867,461.12407210003585,461.62449529999867,461.12407210003585,461.62449529999867,461.12407210003585,461.62449529999867,461.12407210003585,461.62449529999867,461.12407210003585,461.62449529999867,460.1057806000463,None,461.62449529999867,463.05990540003404,1.0300000000000007,463.0758580000256,None,463.8273463000078,None,,,,,,,[1.43073171],2.5900000000000016,0.7195121951219512,11010,002,2024_Jan_02_0933,MFTM_A_new1021,2021.2.3,60.14719220222056,
,,,,,,,,stim/Instruction_adaptive.png,conditions/adaptive.xlsx,test,-0.6,-0.6,-0.6,0.6,0.6,left,L,,,,,0,1,1,1,0,82,82,9,,,,,,,,,,,,,,,,,,,,,,,,,,,,,,,,,,,,,,,,,,,,464.3280350000132,None,right,0,1.617753200000152,464.8298825000529,466.431959700014,464.8298825000529,465.9307056000107,464.8298825000529,465.9307056000107,464.8298825000529,465.9307056000107,464.8298825000529,465.9307056000107,464.8298825000529,465.9307056000107,465.8981871000142,466.39828010002384,465.8981871000142,466.39828010002384,465.8981871000142,466.39828010002384,465.8981871000142,466.39828010002384,465.8981871000142,466.39828010002384,465.8981871000142,466.39828010002384,465.8981871000142,466.39828010002384,465.8981871000142,466.39828010002384,464.8298825000529,None,466.39828010002384,467.81700610002736,1.0900000000000007,467.83290590002434,None,468.5852048000088,None,,,,,,,[[1.41]],2.5100000000000016,0.7108433734939759,11010,002,2024_Jan_02_0933,MFTM_A_new1021,2021.2.3,60.14719220222056,
,,,,,,,,stim/Instruction_adaptive.png,conditions/adaptive.xlsx,test,0.6,0.6,0.6,-0.6,-0.6,right,R,,,,,0,1,1,1,0,83,83,12,,,,,,,,,,,,,,,,,,,,,,,,,,,,,,,,,,,,,,,,,,,,469.085735700035,None,right,1,1.1413769000209868,469.58582610002486,471.2394121999969,469.58582610002486,470.73820770002203,469.58582610002486,470.73820770002203,469.58582610002486,470.73820770002203,469.58582610002486,470.73820770002203,469.58582610002486,470.73820770002203,470.7215566000086,471.22272520000115,470.7215566000086,471.22272520000115,470.7215566000086,471.22272520000115,470.7215566000086,471.22272520000115,470.7215566000086,471.22272520000115,470.7215566000086,471.22272520000115,470.7215566000086,471.22272520000115,470.7215566000086,471.22272520000115,469.58582610002486,None,471.22272520000115,472.5742532000295,1.1500000000000008,472.59072410000954,None,473.3414293000242,None,,,,,,,[[1.35]],2.540000000000002,0.7142857142857143,11010,002,2024_Jan_02_0933,MFTM_A_new1021,2021.2.3,60.14719220222056,
,,,,,,,,stim/Instruction_adaptive.png,conditions/adaptive.xlsx,test,0.6,0.6,0.6,-0.6,-0.6,right,R,,,,,0,1,1,1,0,84,84,80,,,,,,,,,,,,,,,,,,,,,,,,,,,,,,,,,,,,,,,,,,,,473.84284590004245,None,left,0,1.496630500012543,474.3424695000285,475.97945750004146,474.3424695000285,475.47853280004347,474.3424695000285,475.47853280004347,474.3424695000285,475.47853280004347,474.3424695000285,475.47853280004347,474.3424695000285,475.47853280004347,475.46237490000203,475.96271970000817,475.46237490000203,475.96271970000817,475.46237490000203,475.96271970000817,475.46237490000203,475.96271970000817,475.46237490000203,475.96271970000817,475.46237490000203,475.96271970000817,475.46237490000203,475.96271970000817,475.46237490000203,475.96271970000817,474.3424695000285,None,475.96271970000817,None,1.1300000000000008,477.3471104000346,None,478.09902820002753,None,,,,,,,[[1.37]],2.4600000000000017,0.7058823529411765,11010,002,2024_Jan_02_0933,MFTM_A_new1021,2021.2.3,60.14719220222056,
,,,,,,,,stim/Instruction_adaptive.png,conditions/adaptive.xlsx,test,0.6,0.6,0.6,-0.6,-0.6,right,R,,,,,0,1,1,1,0,85,85,2,,,,,,,,,,,,,,,,,,,,,,,,,,,,,,,,,,,,,,,,,,,,478.59989950002637,None,right,1,1.1541289999731816,479.1010471000336,480.80313060001936,479.1010471000336,480.3023585000192,479.1010471000336,480.3023585000192,479.1010471000336,480.3023585000192,479.1010471000336,480.3023585000192,479.1010471000336,480.3023585000192,480.2849917000276,480.78690100001404,480.2849917000276,480.78690100001404,480.2849917000276,480.78690100001404,480.2849917000276,480.78690100001404,480.2849917000276,480.78690100001404,480.2849917000276,480.78690100001404,480.2849917000276,480.78690100001404,480.2849917000276,480.78690100001404,479.1010471000336,None,480.78690100001404,482.08833320002304,1.2000000000000008,482.1222999000456,None,482.87335390003864,None,,,,,,,[[1.3]],2.490000000000002,0.7093023255813954,11010,002,2024_Jan_02_0933,MFTM_A_new1021,2021.2.3,60.14719220222056,
,,,,,,,,stim/Instruction_adaptive.png,conditions/adaptive.xlsx,test,0.6,0.6,0.6,-0.6,-0.6,right,R,,,,,0,1,1,1,0,86,86,76,,,,,,,,,,,,,,,,,,,,,,,,,,,,,,,,,,,,,,,,,,,,483.3735547000542,None,left,0,1.509795000019949,483.87404210004024,485.5428955000243,483.87404210004024,485.05859359999886,483.87404210004024,485.05859359999886,483.87404210004024,485.05859359999886,483.87404210004024,485.05859359999886,483.87404210004024,485.05859359999886,485.02622620004695,485.52686260000337,485.02622620004695,485.52686260000337,485.02622620004695,485.52686260000337,485.02622620004695,485.52686260000337,485.02622620004695,485.52686260000337,485.02622620004695,485.52686260000337,485.02622620004695,485.52686260000337,485.02622620004695,485.52686260000337,483.87404210004024,None,485.52686260000337,486.86226250004256,1.1700000000000008,486.8965147000272,None,487.6467737000203,None,,,,,,,[[1.33]],2.410000000000002,0.7011494252873564,11010,002,2024_Jan_02_0933,MFTM_A_new1021,2021.2.3,60.14719220222056,
,,,,,,,,stim/Instruction_adaptive.png,conditions/adaptive.xlsx,test,0.6,0.6,0.6,-0.6,-0.6,right,R,,,,,0,1,1,1,0,87,87,6,,,,,,,,,,,,,,,,,,,,,,,,,,,,,,,,,,,,,,,,,,,,488.1475379000185,None,right,1,1.5996132000000216,488.6478134000208,490.40120500000194,488.6478134000208,489.89999100001296,488.6478134000208,489.89999100001296,488.6478134000208,489.89999100001296,488.6478134000208,489.89999100001296,488.6478134000208,489.89999100001296,489.86652810004307,490.3674396999995,489.86652810004307,490.3674396999995,489.86652810004307,490.3674396999995,489.86652810004307,490.3674396999995,489.86652810004307,490.3674396999995,489.86652810004307,490.3674396999995,489.86652810004307,490.3674396999995,489.86652810004307,490.3674396999995,488.6478134000208,None,490.3674396999995,491.63568290002877,1.2400000000000009,491.65166319999844,None,492.40394720004406,None,,,,,,,[[1.26]],2.4400000000000017,0.7045454545454546,11010,002,2024_Jan_02_0933,MFTM_A_new1021,2021.2.3,60.14719220222056,
,,,,,,,,stim/Instruction_adaptive.png,conditions/adaptive.xlsx,test,-0.6,-0.6,-0.6,0.6,0.6,left,L,,,,,0,1,1,1,0,88,88,65,,,,,,,,,,,,,,,,,,,,,,,,,,,,,,,,,,,,,,,,,,,,492.90448900003685,None,left,1,1.2669205999700353,493.4044689000002,495.12431890005246,493.4044689000002,494.6228308000136,493.4044689000002,494.6228308000136,493.4044689000002,494.6228308000136,493.4044689000002,494.6228308000136,493.4044689000002,494.6228308000136,494.5903848000453,495.09086870000465,494.5903848000453,495.09086870000465,494.5903848000453,495.09086870000465,494.5903848000453,495.09086870000465,494.5903848000453,495.09086870000465,494.5903848000453,495.09086870000465,494.5903848000453,495.09086870000465,494.5903848000453,495.09086870000465,493.4044689000002,None,495.09086870000465,496.39292130002286,1.2100000000000009,496.4087133000139,None,497.1598973000073,None,,,,,,,[[1.29]],2.4600000000000017,0.7078651685393258,11010,002,2024_Jan_02_0933,MFTM_A_new1021,2021.2.3,60.14719220222056,
,,,,,,,,stim/Instruction_adaptive.png,conditions/adaptive.xlsx,test,-0.6,-0.6,-0.6,0.6,0.6,left,L,,,,,0,1,1,1,0,89,89,63,,,,,,,,,,,,,,,,,,,,,,,,,,,,,,,,,,,,,,,,,,,,497.66083860001527,None,right,0,2.260826999961864,498.16215139999986,499.8645306000253,498.16215139999986,499.3641487000277,498.16215139999986,499.3641487000277,498.16215139999986,499.3641487000277,498.16215139999986,499.3641487000277,498.16215139999986,499.3641487000277,499.3474322000402,499.8482109000324,499.3474322000402,499.8482109000324,499.3474322000402,499.8482109000324,499.3474322000402,499.8482109000324,499.3474322000402,499.8482109000324,499.3474322000402,499.8482109000324,499.3474322000402,499.8482109000324,499.3474322000402,499.8482109000324,498.16215139999986,None,499.8482109000324,501.149733200029,1.2000000000000008,501.1656278000446,None,501.9176740000257,None,,,,,,,[[1.3]],2.3800000000000017,0.7,11010,002,2024_Jan_02_0933,MFTM_A_new1021,2021.2.3,60.14719220222056,
,,,,,,,,stim/Instruction_adaptive.png,conditions/adaptive.xlsx,test,0.6,0.6,0.6,-0.6,-0.6,right,R,,,,,0,1,1,1,0,90,90,0,,,,,,,,,,,,,,,,,,,,,,,,,,,,,,,,,,,,,,,,,,,,502.4185387000325,None,left,0,1.7277351000229828,502.91927130002296,504.68874670000514,502.91927130002296,504.18704530003015,502.91927130002296,504.18704530003015,502.91927130002296,504.18704530003015,502.91927130002296,504.18704530003015,502.91927130002296,504.18704530003015,504.15370380005334,504.6545075000031,504.15370380005334,504.6545075000031,504.15370380005334,504.6545075000031,504.15370380005334,504.6545075000031,504.15370380005334,504.6545075000031,504.15370380005334,504.6545075000031,504.15370380005334,504.6545075000031,504.15370380005334,504.6545075000031,502.91927130002296,None,504.6545075000031,505.9068272000295,1.260000000000001,505.9412901000469,None,506.6911318000057,None,,,,,,,[[1.24]],2.3000000000000016,0.6923076923076923,11010,002,2024_Jan_02_0933,MFTM_A_new1021,2021.2.3,60.14719220222056,
,,,,,,,,stim/Instruction_adaptive.png,conditions/adaptive.xlsx,test,-0.6,-0.6,-0.6,0.6,0.6,left,L,,,,,0,1,1,1,0,91,91,91,,,,,,,,,,,,,,,,,,,,,,,,,,,,,,,,,,,,,,,,,,,,507.1920383000397,None,left,1,1.4187827999703586,507.69285890000174,509.5453110000235,507.69285890000174,509.04513830004726,507.69285890000174,509.04513830004726,507.69285890000174,509.04513830004726,507.69285890000174,509.04513830004726,507.69285890000174,509.04513830004726,509.0116735000047,509.512107400049,509.0116735000047,509.512107400049,509.0116735000047,509.512107400049,509.0116735000047,509.512107400049,509.0116735000047,509.512107400049,509.0116735000047,509.512107400049,509.0116735000047,509.512107400049,509.0116735000047,509.512107400049,507.69285890000174,None,509.512107400049,510.68056450004224,1.340000000000001,510.6965195000521,None,511.4483924000524,None,,,,,,,[[1.16]],2.330000000000002,0.6956521739130435,11010,002,2024_Jan_02_0933,MFTM_A_new1021,2021.2.3,60.14719220222056,
,,,,,,,,stim/Instruction_adaptive.png,conditions/adaptive.xlsx,test,-0.6,-0.6,-0.6,0.6,0.6,left,L,,,,,0,1,1,1,0,92,92,75,,,,,,,,,,,,,,,,,,,,,,,,,,,,,,,,,,,,,,,,,,,,511.94933790003415,None,left,1,1.221156499988865,512.4500230000122,514.2693449000362,512.4500230000122,513.7687161000213,512.4500230000122,513.7687161000213,512.4500230000122,513.7687161000213,512.4500230000122,513.7687161000213,512.4500230000122,513.7687161000213,513.7351479000063,514.2356948000379,513.7351479000063,514.2356948000379,513.7351479000063,514.2356948000379,513.7351479000063,514.2356948000379,513.7351479000063,514.2356948000379,513.7351479000063,514.2356948000379,513.7351479000063,514.2356948000379,513.7351479000063,514.2356948000379,512.4500230000122,None,514.2356948000379,515.4379344000481,1.310000000000001,515.4538336000405,None,516.2047803000314,None,,,,,,,[[1.19]],2.3500000000000014,0.6989247311827957,11010,002,2024_Jan_02_0933,MFTM_A_new1021,2021.2.3,60.14719220222056,
