arrwidth1,arrwidth2,arrwidth3,arrwidth4,arrwidth5,keyb,type,orientation,instruction_image,block_filename,block_type,arrow11,arrow22,arrow33,arrow44,arrow55,keyb_3,orientation3,trials.thisRepN,trials.thisTrialN,trials.thisN,trials.thisIndex,trials_3.thisRepN,trials_3.thisTrialN,trials_3.thisN,trials_3.thisIndex,trials_2.thisRepN,trials_2.thisTrialN,trials_2.thisN,trials_2.thisIndex,welcome.started,welcome.stopped,key_resp.keys,key_resp.rt,key_resp.started,key_resp.stopped,instruction_example.started,instruction_example.stopped,key_resp_3.keys,key_resp_3.rt,key_resp_3.started,key_resp_3.stopped,instruction_task.started,instruction_task.stopped,key_resp_2.keys,key_resp_2.rt,key_resp_2.started,key_resp_2.stopped,text_2.started,text_2.stopped,A1.started,A1.stopped,A2.started,A2.stopped,A3.started,A3.stopped,A4.started,A4.stopped,A5.started,A5.stopped,key_resp_4.keys,key_resp_4.corr,key_resp_4.rt,key_resp_4.started,key_resp_4.stopped,fb.started,fb.stopped,instruction_block.started,instruction_block.stopped,key_resp_8.keys,key_resp_8.rt,key_resp_8.started,key_resp_8.stopped,text_8.started,text_8.stopped,key_resp_9.keys,key_resp_9.corr,key_resp_9.rt,text_5.started,text_5.stopped,A11_3.started,A11_3.stopped,A22_2.started,A22_2.stopped,A33_2.started,A33_2.stopped,A44_2.started,A44_2.stopped,A55_2.started,A55_2.stopped,M1_3.started,M1_3.stopped,M2_2.started,M2_2.stopped,M3_2.started,M3_2.stopped,M4_2.started,M4_2.stopped,M5_2.started,M5_2.stopped,M6_2.started,M6_2.stopped,M7_2.started,M7_2.stopped,M8_2.started,M8_2.stopped,key_resp_9.started,key_resp_9.stopped,fixation.started,fixation.stopped,ET,fb_3.started,fb_3.stopped,text_9.started,text_9.stopped,fb_4.started,fb_4.stopped,text_7.started,text_7.stopped,endtext.started,endtext.stopped,fixation_ITI,CCC,Acc,participant,session,date,expName,psychopyVersion,frameRate,
,,,,,,,,,,,,,,,,,,,,,,,,,,,,,,15.962868700036779,None,space,1.1737606000388041,15.962868700036779,None,,,,,,,,,,,,,,,,,,,,,,,,,,,,,,,,,,,,,,,,,,,,,,,,,,,,,,,,,,,,,,,,,,,,,,,,,,,,,,,,,,,,,,,,,11014,002,2024_Jan_04_1602,MFTM_A_new1021,2021.2.3,60.06594041599482,
,,,,,,,,,,,,,,,,,,,,,,,,,,,,,,,,,,,,17.16504029999487,None,space,4.2595651999581605,17.16504029999487,None,,,,,,,,,,,,,,,,,,,,,,,,,,,,,,,,,,,,,,,,,,,,,,,,,,,,,,,,,,,,,,,,,,,,,,,,,,,,,,,,,,,11014,002,2024_Jan_04_1602,MFTM_A_new1021,2021.2.3,60.06594041599482,
,,,,,,,,,,,,,,,,,,,,,,,,,,,,,,,,,,,,,,,,,,21.455562000046484,None,space,3.265374300070107,21.455562000046484,None,,,,,,,,,,,,,,,,,,,,,,,,,,,,,,,,,,,,,,,,,,,,,,,,,,,,,,,,,,,,,,,,,,,,,,,,,,,,,11014,002,2024_Jan_04_1602,MFTM_A_new1021,2021.2.3,60.06594041599482,
-0.6,-0.6,-0.6,0.6,0.6,left,3:2,L,,,,,,,,,,,0,0,0,1,,,,,,,,,,,,,,,,,,,,,,,,,,,24.759941500029527,None,24.759941500029527,None,24.759941500029527,None,24.759941500029527,None,24.759941500029527,None,24.759941500029527,None,left,1,3.144427699968219,24.759941500029527,None,27.94732140004635,None,,,,,,,,,,,,,,,,,,,,,,,,,,,,,,,,,,,,,,,,,,,,,,,,,,,,,,,,,,11014,002,2024_Jan_04_1602,MFTM_A_new1021,2021.2.3,60.06594041599482,
0.6,0.6,0.6,-0.6,-0.6,right,3:2,R,,,,,,,,,,,0,1,1,0,,,,,,,,,,,,,,,,,,,,,,,,,,,28.698811799986288,None,28.698811799986288,None,28.698811799986288,None,28.698811799986288,None,28.698811799986288,None,28.698811799986288,None,right,1,2.7497962000779808,28.698811799986288,None,31.46918250003364,None,,,,,,,,,,,,,,,,,,,,,,,,,,,,,,,,,,,,,,,,,,,,,,,,,,,,,,,,,,11014,002,2024_Jan_04_1602,MFTM_A_new1021,2021.2.3,60.06594041599482,
-0.6,-0.6,-0.6,0.6,0.6,left,3:2,L,,,,,,,,,,,1,0,2,1,,,,,,,,,,,,,,,,,,,,,,,,,,,32.220288799959235,None,32.220288799959235,None,32.220288799959235,None,32.220288799959235,None,32.220288799959235,None,32.220288799959235,None,left,1,1.5082767999265343,32.220288799959235,None,33.75596169999335,None,,,,,,,,,,,,,,,,,,,,,,,,,,,,,,,,,,,,,,,,,,,,,,,,,,,,,,,,,,11014,002,2024_Jan_04_1602,MFTM_A_new1021,2021.2.3,60.06594041599482,
0.6,0.6,0.6,-0.6,-0.6,right,3:2,R,,,,,,,,,,,1,1,3,0,,,,,,,,,,,,,,,,,,,,,,,,,,,34.506970199989155,None,34.506970199989155,None,34.506970199989155,None,34.506970199989155,None,34.506970199989155,None,34.506970199989155,None,right,1,1.4457517000846565,34.506970199989155,None,35.97626919997856,None,,,,,,,,,,,,,,,,,,,,,,,,,,,,,,,,,,,,,,,,,,,,,,,,,,,,,,,,,,11014,002,2024_Jan_04_1602,MFTM_A_new1021,2021.2.3,60.06594041599482,
,,,,,,,,stim/Instruction_mask.png,conditions/adaptive.xlsx,practice,0.6,0.6,0.6,-0.6,-0.6,right,R,,,,,0,0,0,0,0,0,0,52,,,,,,,,,,,,,,,,,,,,,,,,,,,,,,,,,,,,,,36.96066229999997,None,space,3.752685199957341,36.96066229999997,None,40.816873500007205,None,right,1,1.3970762999961153,41.251447299961,None,41.251447299961,44.25481449998915,41.251447299961,44.25481449998915,41.251447299961,44.25481449998915,41.251447299961,44.25481449998915,41.251447299961,44.25481449998915,44.23813439998776,44.73917059996165,44.23813439998776,44.73917059996165,44.23813439998776,44.73917059996165,44.23813439998776,44.73917059996165,44.23813439998776,44.73917059996165,44.23813439998776,44.73917059996165,44.23813439998776,44.73917059996165,44.23813439998776,44.73917059996165,41.251447299961,None,44.73917059996165,44.73917059996165,3,44.75562259997241,None,45.50690769997891,None,,,,,,,,,,11014,002,2024_Jan_04_1602,MFTM_A_new1021,2021.2.3,60.06594041599482,
,,,,,,,,stim/Instruction_mask.png,conditions/adaptive.xlsx,practice,0.6,0.6,0.6,-0.6,-0.6,right,R,,,,,0,0,0,0,0,1,1,70,,,,,,,,,,,,,,,,,,,,,,,,,,,,,,,,,,,,,,,,,,,,46.00744149996899,None,right,1,1.740281599923037,46.50819029996637,48.511220999993384,46.50819029996637,48.010346699971706,46.50819029996637,48.010346699971706,46.50819029996637,48.010346699971706,46.50819029996637,48.010346699971706,46.50819029996637,48.010346699971706,47.994344000006095,48.49444320006296,47.994344000006095,48.49444320006296,47.994344000006095,48.49444320006296,47.994344000006095,48.49444320006296,47.994344000006095,48.49444320006296,47.994344000006095,48.49444320006296,47.994344000006095,48.49444320006296,47.994344000006095,48.49444320006296,46.50819029996637,None,48.49444320006296,49.99673330003861,1.5,50.01316910004243,None,50.7655104000587,None,,,,,,,,,,11014,002,2024_Jan_04_1602,MFTM_A_new1021,2021.2.3,60.06594041599482,
,,,,,,,,stim/Instruction_mask.png,conditions/adaptive.xlsx,practice,-0.6,-0.6,-0.6,0.6,0.6,left,L,,,,,0,0,0,0,0,2,2,3,,,,,,,,,,,,,,,,,,,,,,,,,,,,,,,,,,,,,,,,,,,,51.265911699971184,None,left,1,1.5465746999252588,51.76589599996805,53.068111400003545,51.76589599996805,52.56767390004825,51.76589599996805,52.56767390004825,51.76589599996805,52.56767390004825,51.76589599996805,52.56767390004825,51.76589599996805,52.56767390004825,52.55143320001662,53.052010599989444,52.55143320001662,53.052010599989444,52.55143320001662,53.052010599989444,52.55143320001662,53.052010599989444,52.55143320001662,53.052010599989444,52.55143320001662,53.052010599989444,52.55143320001662,53.052010599989444,52.55143320001662,53.052010599989444,51.76589599996805,None,53.052010599989444,55.25504970003385,0.8,55.27143700001761,None,56.02230069995858,None,,,,,,,,,,11014,002,2024_Jan_04_1602,MFTM_A_new1021,2021.2.3,60.06594041599482,
,,,,,,,,stim/Instruction_mask.png,conditions/adaptive.xlsx,practice,-0.6,-0.6,-0.6,0.6,0.6,left,L,,,,,0,0,0,0,0,3,3,23,,,,,,,,,,,,,,,,,,,,,,,,,,,,,,,,,,,,,,,,,,,,56.52345179999247,None,left,1,1.1367840999737382,57.02374380000401,57.776167800067924,57.02374380000401,57.27473699999973,57.02374380000401,57.27473699999973,57.02374380000401,57.27473699999973,57.02374380000401,57.27473699999973,57.02374380000401,57.27473699999973,57.25745859998278,57.75886509998236,57.25745859998278,57.75886509998236,57.25745859998278,57.75886509998236,57.25745859998278,57.75886509998236,57.25745859998278,57.75886509998236,57.25745859998278,57.75886509998236,57.25745859998278,57.75886509998236,57.25745859998278,57.75886509998236,57.02374380000401,None,57.75886509998236,60.51233419997152,3,60.528930100030266,None,61.280074700014666,None,,,,,,,,,,11014,002,2024_Jan_04_1602,MFTM_A_new1021,2021.2.3,60.06594041599482,
,,,,,,,,stim/Instruction_mask.png,conditions/adaptive.xlsx,practice,,,,,,,,,,,,0,0,0,0,,,,,,,,,,,,,,,,,,,,,,,,,,,,,,,,,,,,,,,,,,,,,,,,,,,,,,,,,,,,,,,,,,,,,,,,,,,,,,,,,,,,,,,,,,61.79743070004042,62.79947500000708,62.76679020002484,62.76679020002484,62.76679020002484,None,,,,11014,002,2024_Jan_04_1602,MFTM_A_new1021,2021.2.3,60.06594041599482,
,,,,,,,,stim/Instruction_adaptive.png,conditions/adaptive.xlsx,test,-0.6,-0.6,-0.6,0.6,0.6,left,L,,,,,0,1,1,1,0,0,0,37,,,,,,,,,,,,,,,,,,,,,,,,,,,,,,,,,,,,,,65.92018410004675,None,space,2.936519799986854,65.92018410004675,None,68.89085119997617,None,left,1,2.417339500039816,69.39204529998824,None,69.39204529998824,72.39740120002534,69.39204529998824,72.39740120002534,69.39204529998824,72.39740120002534,69.39204529998824,72.39740120002534,69.39204529998824,72.39740120002534,72.36357270006556,72.86442420003004,72.36357270006556,72.86442420003004,72.36357270006556,72.86442420003004,72.36357270006556,72.86442420003004,72.36357270006556,72.86442420003004,72.36357270006556,72.86442420003004,72.36357270006556,72.86442420003004,72.36357270006556,72.86442420003004,69.39204529998824,None,72.86442420003004,72.86442420003004,3,72.89731689996552,None,73.64845009997953,None,,,,,,,0,6.000000000000005,1.0,11014,002,2024_Jan_04_1602,MFTM_A_new1021,2021.2.3,60.06594041599482,
,,,,,,,,stim/Instruction_adaptive.png,conditions/adaptive.xlsx,test,-0.6,-0.6,-0.6,0.6,0.6,left,L,,,,,0,1,1,1,0,1,1,29,,,,,,,,,,,,,,,,,,,,,,,,,,,,,,,,,,,,,,,,,,,,74.15006070001982,None,right,0,0.990811700001359,74.64990900002886,75.40144120005425,74.64990900002886,74.90083130006678,74.64990900002886,74.90083130006678,74.64990900002886,74.90083130006678,74.64990900002886,74.90083130006678,74.64990900002886,74.90083130006678,74.8841121000005,75.38464329997078,74.8841121000005,75.38464329997078,74.8841121000005,75.38464329997078,74.8841121000005,75.38464329997078,74.8841121000005,75.38464329997078,74.8841121000005,75.38464329997078,74.8841121000005,75.38464329997078,74.8841121000005,75.38464329997078,74.64990900002886,None,75.38464329997078,76.26893530006055,0.25,76.2849489999935,None,77.03691420005634,None,,,,,,,[0.875],2.570000000000002,0.5,11014,002,2024_Jan_04_1602,MFTM_A_new1021,2021.2.3,60.06594041599482,
,,,,,,,,stim/Instruction_adaptive.png,conditions/adaptive.xlsx,test,-0.6,-0.6,-0.6,0.6,0.6,left,L,,,,,0,1,1,1,0,2,2,41,,,,,,,,,,,,,,,,,,,,,,,,,,,,,,,,,,,,,,,,,,,,77.53747960005421,None,left,1,1.266579500050284,78.03825250000227,79.65779560001101,78.03825250000227,79.15689159999602,78.03825250000227,79.15689159999602,78.03825250000227,79.15689159999602,78.03825250000227,79.15689159999602,78.03825250000227,79.15689159999602,79.13986480003223,79.64067420002539,79.13986480003223,79.64067420002539,79.13986480003223,79.64067420002539,79.13986480003223,79.64067420002539,79.13986480003223,79.64067420002539,79.13986480003223,79.64067420002539,79.13986480003223,79.64067420002539,79.13986480003223,79.64067420002539,78.03825250000227,None,79.62434330000542,80.67544070002623,1.1100000000000008,80.7089352000039,None,81.46077250002418,None,,,,,,,[1.04666667],3.3800000000000026,0.6666666666666666,11014,002,2024_Jan_04_1602,MFTM_A_new1021,2021.2.3,60.06594041599482,
,,,,,,,,stim/Instruction_adaptive.png,conditions/adaptive.xlsx,test,0.6,0.6,0.6,-0.6,-0.6,right,R,,,,,0,1,1,1,0,3,3,12,,,,,,,,,,,,,,,,,,,,,,,,,,,,,,,,,,,,,,,,,,,,81.96070850000251,None,left,0,1.3794081000378355,82.46117360005155,83.59634639997967,82.46117360005155,83.09567720000632,82.46117360005155,83.09567720000632,82.46117360005155,83.09567720000632,82.46117360005155,83.09567720000632,82.46117360005155,83.09567720000632,83.07904029998463,83.57961180002894,83.07904029998463,83.57961180002894,83.07904029998463,83.57961180002894,83.07904029998463,83.57961180002894,83.07904029998463,83.57961180002894,83.07904029998463,83.57961180002894,83.07904029998463,83.57961180002894,83.07904029998463,83.57961180002894,82.46117360005155,None,83.57961180002894,84.83234830002766,0.6300000000000003,84.84802759997547,None,85.59924949996639,None,,,,,,,[1.2525],2.1700000000000017,0.5,11014,002,2024_Jan_04_1602,MFTM_A_new1021,2021.2.3,60.06594041599482,
,,,,,,,,stim/Instruction_adaptive.png,conditions/adaptive.xlsx,test,-0.6,-0.6,-0.6,0.6,0.6,left,L,,,,,0,1,1,1,0,4,4,19,,,,,,,,,,,,,,,,,,,,,,,,,,,,,,,,,,,,,,,,,,,,86.1001839999808,None,left,1,2.0236488999798894,86.6009500999935,88.5704504000023,86.6009500999935,88.07062899996527,86.6009500999935,88.07062899996527,86.6009500999935,88.07062899996527,86.6009500999935,88.07062899996527,86.6009500999935,88.07062899996527,88.05299220001325,88.55370429996401,88.05299220001325,88.55370429996401,88.05299220001325,88.55370429996401,88.05299220001325,88.55370429996401,88.05299220001325,88.55370429996401,88.05299220001325,88.55370429996401,88.05299220001325,88.55370429996401,88.05299220001325,88.55370429996401,86.6009500999935,None,88.55370429996401,None,1.460000000000001,89.60543390002567,None,90.35641540004872,None,,,,,,,[[1.04]],2.690000000000002,0.6,11014,002,2024_Jan_04_1602,MFTM_A_new1021,2021.2.3,60.06594041599482,
,,,,,,,,stim/Instruction_adaptive.png,conditions/adaptive.xlsx,test,0.6,0.6,0.6,-0.6,-0.6,right,R,,,,,0,1,1,1,0,5,5,38,,,,,,,,,,,,,,,,,,,,,,,,,,,,,,,,,,,,,,,,,,,,90.85730510007124,None,right,1,1.7466745000565425,91.3580146000022,92.87751819996629,91.3580146000022,92.39266450004652,91.3580146000022,92.39266450004652,91.3580146000022,92.39266450004652,91.3580146000022,92.39266450004652,91.3580146000022,92.39266450004652,92.3596463999711,92.86078370001633,92.3596463999711,92.86078370001633,92.3596463999711,92.86078370001633,92.3596463999711,92.86078370001633,92.3596463999711,92.86078370001633,92.3596463999711,92.86078370001633,92.3596463999711,92.86078370001633,92.3596463999711,92.86078370001633,91.3580146000022,None,92.86078370001633,94.12868419999722,1.0200000000000007,94.14560070005246,None,94.89655209996272,None,,,,,,,[1.255],3.0400000000000023,0.6666666666666666,11014,002,2024_Jan_04_1602,MFTM_A_new1021,2021.2.3,60.06594041599482,
,,,,,,,,stim/Instruction_adaptive.png,conditions/adaptive.xlsx,test,-0.6,-0.6,-0.6,0.6,0.6,left,L,,,,,0,1,1,1,0,6,6,49,,,,,,,,,,,,,,,,,,,,,,,,,,,,,,,,,,,,,,,,,,,,95.39710940001532,None,left,1,1.3508892999961972,95.89788609999232,97.19996540003922,95.89788609999232,96.69920639996417,95.89788609999232,96.69920639996417,95.89788609999232,96.69920639996417,95.89788609999232,96.69920639996417,95.89788609999232,96.69920639996417,96.68253340001684,97.18313360004686,96.68253340001684,97.18313360004686,96.68253340001684,97.18313360004686,96.68253340001684,97.18313360004686,96.68253340001684,97.18313360004686,96.68253340001684,97.18313360004686,96.68253340001684,97.18313360004686,96.68253340001684,97.18313360004686,95.89788609999232,None,97.18313360004686,98.5017727999948,0.8000000000000005,98.51863489998505,None,99.2698482000269,None,,,,,,,[1.31857143],3.3200000000000025,0.7142857142857143,11014,002,2024_Jan_04_1602,MFTM_A_new1021,2021.2.3,60.06594041599482,
,,,,,,,,stim/Instruction_adaptive.png,conditions/adaptive.xlsx,test,0.6,0.6,0.6,-0.6,-0.6,right,R,,,,,0,1,1,1,0,7,7,30,,,,,,,,,,,,,,,,,,,,,,,,,,,,,,,,,,,,,,,,,,,,99.77134840004146,None,right,1,1.4171098000369966,100.27164910000283,101.43962489999831,100.27164910000283,100.93957980000414,100.27164910000283,100.93957980000414,100.27164910000283,100.93957980000414,100.27164910000283,100.93957980000414,100.27164910000283,100.93957980000414,100.9221873000497,101.4227605999913,100.9221873000497,101.4227605999913,100.9221873000497,101.4227605999913,100.9221873000497,101.4227605999913,100.9221873000497,101.4227605999913,100.9221873000497,101.4227605999913,100.9221873000497,101.4227605999913,100.9221873000497,101.4227605999913,100.27164910000283,None,101.40637229999993,102.79207349999342,0.6600000000000004,102.82500559999608,None,103.57605649996549,None,,,,,,,[1.38375],3.5400000000000027,0.75,11014,002,2024_Jan_04_1602,MFTM_A_new1021,2021.2.3,60.06594041599482,
,,,,,,,,stim/Instruction_adaptive.png,conditions/adaptive.xlsx,test,0.6,0.6,0.6,-0.6,-0.6,right,R,,,,,0,1,1,1,0,8,8,78,,,,,,,,,,,,,,,,,,,,,,,,,,,,,,,,,,,,,,,,,,,,104.07688559999224,None,left,0,1.0551861999556422,104.57746900001075,105.64577489998192,104.57746900001075,105.1618865999626,104.57746900001075,105.1618865999626,104.57746900001075,105.1618865999626,104.57746900001075,105.1618865999626,104.57746900001075,105.1618865999626,105.12832450005226,105.62979699997231,105.12832450005226,105.62979699997231,105.12832450005226,105.62979699997231,105.12832450005226,105.62979699997231,105.12832450005226,105.62979699997231,105.12832450005226,105.62979699997231,105.12832450005226,105.62979699997231,105.12832450005226,105.62979699997231,104.57746900001075,None,105.62979699997231,107.0812423999887,0.5700000000000003,107.09805360005703,None,107.84905590000562,None,,,,,,,[1.44444444],3.0100000000000025,0.6666666666666666,11014,002,2024_Jan_04_1602,MFTM_A_new1021,2021.2.3,60.06594041599482,
,,,,,,,,stim/Instruction_adaptive.png,conditions/adaptive.xlsx,test,-0.6,-0.6,-0.6,0.6,0.6,left,L,,,,,0,1,1,1,0,9,9,3,,,,,,,,,,,,,,,,,,,,,,,,,,,,,,,,,,,,,,,,,,,,108.35055410000496,None,left,1,1.7491495999274775,108.85183289996348,110.185590100009,108.85183289996348,109.68498859996907,108.85183289996348,109.68498859996907,108.85183289996348,109.68498859996907,108.85183289996348,109.68498859996907,108.85183289996348,109.68498859996907,109.65162729995791,110.15252050000709,109.65162729995791,110.15252050000709,109.65162729995791,110.15252050000709,109.65162729995791,110.15252050000709,109.65162729995791,110.15252050000709,109.65162729995791,110.15252050000709,109.65162729995791,110.15252050000709,109.65162729995791,110.15252050000709,108.85183289996348,None,110.15252050000709,111.62196759996004,0.8200000000000005,111.65459379996173,None,112.40573150001,None,,,,,,,[1.468],3.2100000000000026,0.7,11014,002,2024_Jan_04_1602,MFTM_A_new1021,2021.2.3,60.06594041599482,
,,,,,,,,stim/Instruction_adaptive.png,conditions/adaptive.xlsx,test,-0.6,-0.6,-0.6,0.6,0.6,left,L,,,,,0,1,1,1,0,10,10,83,,,,,,,,,,,,,,,,,,,,,,,,,,,,,,,,,,,,,,,,,,,,112.90662380005233,None,right,0,1.7132442999863997,113.40736980002839,114.62562439998146,113.40736980002839,114.12540949997492,113.40736980002839,114.12540949997492,113.40736980002839,114.12540949997492,113.40736980002839,114.12540949997492,113.40736980002839,114.12540949997492,114.09194079996087,114.59225029998925,114.09194079996087,114.59225029998925,114.09194079996087,114.59225029998925,114.09194079996087,114.59225029998925,114.09194079996087,114.59225029998925,114.09194079996087,114.59225029998925,114.09194079996087,114.59225029998925,114.09194079996087,114.59225029998925,113.40736980002839,None,114.59225029998925,116.09575340000447,0.7100000000000004,116.12801250000484,None,116.87913590006065,None,,,,,,,[1.49727273],2.7100000000000017,0.6363636363636364,11014,002,2024_Jan_04_1602,MFTM_A_new1021,2021.2.3,60.06594041599482,
,,,,,,,,stim/Instruction_adaptive.png,conditions/adaptive.xlsx,test,0.6,0.6,0.6,-0.6,-0.6,right,R,,,,,0,1,1,1,0,11,11,14,,,,,,,,,,,,,,,,,,,,,,,,,,,,,,,,,,,,,,,,,,,,117.38109449995682,None,right,1,2.4640402999939397,117.88055560004432,119.40012800006662,117.88055560004432,118.89879850007128,117.88055560004432,118.89879850007128,117.88055560004432,118.89879850007128,117.88055560004432,118.89879850007128,117.88055560004432,118.89879850007128,118.86575740005355,119.36631640000269,118.86575740005355,119.36631640000269,118.86575740005355,119.36631640000269,118.86575740005355,119.36631640000269,118.86575740005355,119.36631640000269,118.86575740005355,119.36631640000269,118.86575740005355,119.36631640000269,118.86575740005355,119.36631640000269,117.88055560004432,None,119.36631640000269,120.86831240006723,1.0100000000000007,120.88500450004358,None,121.63678699999582,None,,,,,,,[[1.49]],2.910000000000002,0.6666666666666666,11014,002,2024_Jan_04_1602,MFTM_A_new1021,2021.2.3,60.06594041599482,
,,,,,,,,stim/Instruction_adaptive.png,conditions/adaptive.xlsx,test,-0.6,-0.6,-0.6,0.6,0.6,left,L,,,,,0,1,1,1,0,12,12,57,,,,,,,,,,,,,,,,,,,,,,,,,,,,,,,,,,,,,,,,,,,,122.13796830002684,None,right,0,2.0915925999870524,122.63757689995691,124.02305710001383,122.63757689995691,123.52277529996354,122.63757689995691,123.52277529996354,122.63757689995691,123.52277529996354,122.63757689995691,123.52277529996354,122.63757689995691,123.52277529996354,123.50634620001074,124.00697640003636,123.50634620001074,124.00697640003636,123.50634620001074,124.00697640003636,123.50634620001074,124.00697640003636,123.50634620001074,124.00697640003636,123.50634620001074,124.00697640003636,123.50634620001074,124.00697640003636,123.50634620001074,124.00697640003636,122.63757689995691,None,124.00697640003636,None,0.8800000000000006,125.52578420005739,None,126.27702220005449,None,,,,,,,[1.50615385],2.410000000000002,0.6153846153846154,11014,002,2024_Jan_04_1602,MFTM_A_new1021,2021.2.3,60.06594041599482,
,,,,,,,,stim/Instruction_adaptive.png,conditions/adaptive.xlsx,test,-0.6,-0.6,-0.6,0.6,0.6,left,L,,,,,0,1,1,1,0,13,13,93,,,,,,,,,,,,,,,,,,,,,,,,,,,,,,,,,,,,,,,,,,,,126.7775109000504,None,left,1,2.2268694000085816,127.27778939995915,129.030562800006,127.27778939995915,128.53035450004973,127.27778939995915,128.53035450004973,127.27778939995915,128.53035450004973,127.27778939995915,128.53035450004973,127.27778939995915,128.53035450004973,128.49640639999416,128.99774979997892,128.49640639999416,128.99774979997892,128.49640639999416,128.99774979997892,128.49640639999416,128.99774979997892,128.49640639999416,128.99774979997892,128.49640639999416,128.99774979997892,128.49640639999416,128.99774979997892,128.49640639999416,128.99774979997892,127.27778939995915,None,128.99774979997892,130.26704649999738,1.2400000000000009,130.28259089996573,None,131.03387869999278,None,,,,,,,[[1.26]],2.600000000000002,0.6428571428571429,11014,002,2024_Jan_04_1602,MFTM_A_new1021,2021.2.3,60.06594041599482,
,,,,,,,,stim/Instruction_adaptive.png,conditions/adaptive.xlsx,test,-0.6,-0.6,-0.6,0.6,0.6,left,L,,,,,0,1,1,1,0,14,14,39,,,,,,,,,,,,,,,,,,,,,,,,,,,,,,,,,,,,,,,,,,,,131.53441389999352,None,right,0,2.2618349000113085,132.03484249999747,133.63760460005142,132.03484249999747,133.13656470004935,132.03484249999747,133.13656470004935,132.03484249999747,133.13656470004935,132.03484249999747,133.13656470004935,132.03484249999747,133.13656470004935,133.10312400001567,133.60450350004248,133.10312400001567,133.60450350004248,133.10312400001567,133.60450350004248,133.10312400001567,133.60450350004248,133.10312400001567,133.60450350004248,133.10312400001567,133.60450350004248,133.10312400001567,133.60450350004248,133.10312400001567,133.60450350004248,132.03484249999747,None,133.60450350004248,135.02273910003714,1.0900000000000007,135.03929520002566,None,135.79087550006807,None,,,,,,,[[1.41]],2.1000000000000014,0.6,11014,002,2024_Jan_04_1602,MFTM_A_new1021,2021.2.3,60.06594041599482,
,,,,,,,,stim/Instruction_adaptive.png,conditions/adaptive.xlsx,test,0.6,0.6,0.6,-0.6,-0.6,right,R,,,,,0,1,1,1,0,15,15,96,,,,,,,,,,,,,,,,,,,,,,,,,,,,,,,,,,,,,,,,,,,,136.29179579997435,None,right,1,1.9840438000392169,136.7927781000035,138.8295806000242,136.7927781000035,138.3279536999762,136.7927781000035,138.3279536999762,136.7927781000035,138.3279536999762,136.7927781000035,138.3279536999762,136.7927781000035,138.3279536999762,138.31086970004253,138.81246799998917,138.31086970004253,138.81246799998917,138.31086970004253,138.81246799998917,138.31086970004253,138.81246799998917,138.31086970004253,138.81246799998917,138.31086970004253,138.81246799998917,138.31086970004253,138.81246799998917,138.31086970004253,138.81246799998917,136.7927781000035,None,138.81246799998917,None,1.5300000000000011,139.7963599000359,None,140.54820179997478,None,,,,,,,[[0.97]],2.3000000000000016,0.625,11014,002,2024_Jan_04_1602,MFTM_A_new1021,2021.2.3,60.06594041599482,
,,,,,,,,stim/Instruction_adaptive.png,conditions/adaptive.xlsx,test,0.6,0.6,0.6,-0.6,-0.6,right,R,,,,,0,1,1,1,0,16,16,10,,,,,,,,,,,,,,,,,,,,,,,,,,,,,,,,,,,,,,,,,,,,141.04813460004516,None,right,1,2.2117125000804663,141.5488754999824,143.40185899997596,141.5488754999824,142.90120530000422,141.5488754999824,142.90120530000422,141.5488754999824,142.90120530000422,141.5488754999824,142.90120530000422,141.5488754999824,142.90120530000422,142.86745380004868,143.36829480004963,142.86745380004868,143.36829480004963,142.86745380004868,143.36829480004963,142.86745380004868,143.36829480004963,142.86745380004868,143.36829480004963,142.86745380004868,143.36829480004963,142.86745380004868,143.36829480004963,142.86745380004868,143.36829480004963,141.5488754999824,None,143.36829480004963,144.53777220007032,1.340000000000001,144.55350270005874,None,145.30546529998537,None,,,,,,,[[1.16]],2.4600000000000017,0.6470588235294118,11014,002,2024_Jan_04_1602,MFTM_A_new1021,2021.2.3,60.06594041599482,
,,,,,,,,stim/Instruction_adaptive.png,conditions/adaptive.xlsx,test,0.6,0.6,0.6,-0.6,-0.6,right,R,,,,,0,1,1,1,0,17,17,22,,,,,,,,,,,,,,,,,,,,,,,,,,,,,,,,,,,,,,,,,,,,145.80528289999347,None,right,1,2.0225963999982923,146.30600360000972,148.00862560002133,146.30600360000972,147.50796740001533,146.30600360000972,147.50796740001533,146.30600360000972,147.50796740001533,146.30600360000972,147.50796740001533,146.30600360000972,147.50796740001533,147.49138769996352,147.9917653000448,147.49138769996352,147.9917653000448,147.49138769996352,147.9917653000448,147.49138769996352,147.9917653000448,147.49138769996352,147.9917653000448,147.49138769996352,147.9917653000448,147.49138769996352,147.9917653000448,147.49138769996352,147.9917653000448,146.30600360000972,None,147.9917653000448,149.2949348000111,1.2000000000000008,149.3108967000153,None,150.0616617000196,None,,,,,,,[[1.3]],2.600000000000002,0.6666666666666666,11014,002,2024_Jan_04_1602,MFTM_A_new1021,2021.2.3,60.06594041599482,
,,,,,,,,stim/Instruction_adaptive.png,conditions/adaptive.xlsx,test,-0.6,-0.6,-0.6,0.6,0.6,left,L,,,,,0,1,1,1,0,18,18,7,,,,,,,,,,,,,,,,,,,,,,,,,,,,,,,,,,,,,,,,,,,,150.56221140001435,None,right,0,2.2736513999989256,151.06312589999288,152.6656642999733,151.06312589999288,152.16485950001515,151.06312589999288,152.16485950001515,151.06312589999288,152.16485950001515,151.06312589999288,152.16485950001515,151.06312589999288,152.16485950001515,152.13147859997116,152.63292410003487,152.13147859997116,152.63292410003487,152.13147859997116,152.63292410003487,152.13147859997116,152.63292410003487,152.13147859997116,152.63292410003487,152.13147859997116,152.63292410003487,152.13147859997116,152.63292410003487,152.13147859997116,152.63292410003487,151.06312589999288,None,152.63292410003487,154.05085340002552,1.0900000000000007,154.06761779997032,None,154.81906360003632,None,,,,,,,[[1.41]],2.2300000000000013,0.631578947368421,11014,002,2024_Jan_04_1602,MFTM_A_new1021,2021.2.3,60.06594041599482,
,,,,,,,,stim/Instruction_adaptive.png,conditions/adaptive.xlsx,test,0.6,0.6,0.6,-0.6,-0.6,right,R,,,,,0,1,1,1,0,19,19,26,,,,,,,,,,,,,,,,,,,,,,,,,,,,,,,,,,,,,,,,,,,,155.3194308000384,None,right,1,1.7956665999954566,155.8209865000099,157.72309380001388,155.8209865000099,157.22215879999567,155.8209865000099,157.22215879999567,155.8209865000099,157.22215879999567,155.8209865000099,157.22215879999567,155.8209865000099,157.22215879999567,157.20558399998117,157.70664410002064,157.20558399998117,157.70664410002064,157.20558399998117,157.70664410002064,157.20558399998117,157.70664410002064,157.20558399998117,157.70664410002064,157.20558399998117,157.70664410002064,157.20558399998117,157.70664410002064,157.20558399998117,157.70664410002064,155.8209865000099,None,157.70664410002064,158.8085415000096,1.400000000000001,158.824534400017,None,159.57594670006074,None,,,,,,,[[1.1]],2.370000000000002,0.65,11014,002,2024_Jan_04_1602,MFTM_A_new1021,2021.2.3,60.06594041599482,
,,,,,,,,stim/Instruction_adaptive.png,conditions/adaptive.xlsx,test,-0.6,-0.6,-0.6,0.6,0.6,left,L,,,,,0,1,1,1,0,20,20,31,,,,,,,,,,,,,,,,,,,,,,,,,,,,,,,,,,,,,,,,,,,,160.07670830003917,None,left,1,1.6873351000249386,160.5772288000444,162.34669709997252,160.5772288000444,161.8632766000228,160.5772288000444,161.8632766000228,160.5772288000444,161.8632766000228,160.5772288000444,161.8632766000228,160.5772288000444,161.8632766000228,161.82917949999683,162.32997139997315,161.82917949999683,162.32997139997315,161.82917949999683,162.32997139997315,161.82917949999683,162.32997139997315,161.82917949999683,162.32997139997315,161.82917949999683,162.32997139997315,161.82917949999683,162.32997139997315,161.82917949999683,162.32997139997315,160.5772288000444,None,162.32997139997315,163.56473920005374,1.270000000000001,163.58144350000657,None,164.33275629999116,None,,,,,,,[[1.23]],2.490000000000002,0.6666666666666666,11014,002,2024_Jan_04_1602,MFTM_A_new1021,2021.2.3,60.06594041599482,
,,,,,,,,stim/Instruction_adaptive.png,conditions/adaptive.xlsx,test,0.6,0.6,0.6,-0.6,-0.6,right,R,,,,,0,1,1,1,0,21,21,74,,,,,,,,,,,,,,,,,,,,,,,,,,,,,,,,,,,,,,,,,,,,164.83351929998025,None,right,1,1.362342600012198,165.33432500006165,167.00411940005142,165.33432500006165,166.52050570002757,165.33432500006165,166.52050570002757,165.33432500006165,166.52050570002757,165.33432500006165,166.52050570002757,165.33432500006165,166.52050570002757,166.48642339999788,166.98684719996527,166.48642339999788,166.98684719996527,166.48642339999788,166.98684719996527,166.48642339999788,166.98684719996527,166.48642339999788,166.98684719996527,166.48642339999788,166.98684719996527,166.48642339999788,166.98684719996527,166.48642339999788,166.98684719996527,165.33432500006165,None,166.98684719996527,168.32445299997926,1.1700000000000008,168.3384892999893,None,169.09039240004495,None,,,,,,,[[1.33]],2.600000000000002,0.6818181818181818,11014,002,2024_Jan_04_1602,MFTM_A_new1021,2021.2.3,60.06594041599482,
,,,,,,,,stim/Instruction_adaptive.png,conditions/adaptive.xlsx,test,0.6,0.6,0.6,-0.6,-0.6,right,R,,,,,0,1,1,1,0,22,22,86,,,,,,,,,,,,,,,,,,,,,,,,,,,,,,,,,,,,,,,,,,,,169.5913850000361,None,right,1,1.645369500038214,170.09130940004252,171.6936044000322,170.09130940004252,171.19330310006626,170.09130940004252,171.19330310006626,170.09130940004252,171.19330310006626,170.09130940004252,171.19330310006626,170.09130940004252,171.19330310006626,171.15957480005454,171.66027200000826,171.15957480005454,171.66027200000826,171.15957480005454,171.66027200000826,171.15957480005454,171.66027200000826,171.15957480005454,171.66027200000826,171.15957480005454,171.66027200000826,171.15957480005454,171.66027200000826,171.15957480005454,171.66027200000826,170.09130940004252,None,171.66027200000826,173.0623884999659,1.0900000000000007,173.07907059998251,None,173.83019660005812,None,,,,,,,[1.39826087],2.690000000000002,0.6956521739130435,11014,002,2024_Jan_04_1602,MFTM_A_new1021,2021.2.3,60.06594041599482,
,,,,,,,,stim/Instruction_adaptive.png,conditions/adaptive.xlsx,test,-0.6,-0.6,-0.6,0.6,0.6,left,L,,,,,0,1,1,1,0,23,23,67,,,,,,,,,,,,,,,,,,,,,,,,,,,,,,,,,,,,,,,,,,,,174.33100580004975,None,right,0,1.8017221000045538,174.83159620000515,176.35074140003417,174.83159620000515,175.86753519997,174.83159620000515,175.86753519997,174.83159620000515,175.86753519997,174.83159620000515,175.86753519997,174.83159620000515,175.86753519997,175.8330614999868,176.33449440007098,175.8330614999868,176.33449440007098,175.8330614999868,176.33449440007098,175.8330614999868,176.33449440007098,175.8330614999868,176.33449440007098,175.8330614999868,176.33449440007098,175.8330614999868,176.33449440007098,175.8330614999868,176.33449440007098,174.83159620000515,None,176.33449440007098,177.73593289998826,1.0200000000000007,177.75264920003247,None,178.5037484000204,None,,,,,,,[1.40166667],2.4300000000000015,0.6666666666666666,11014,002,2024_Jan_04_1602,MFTM_A_new1021,2021.2.3,60.06594041599482,
,,,,,,,,stim/Instruction_adaptive.png,conditions/adaptive.xlsx,test,0.6,0.6,0.6,-0.6,-0.6,right,R,,,,,0,1,1,1,0,24,24,0,,,,,,,,,,,,,,,,,,,,,,,,,,,,,,,,,,,,,,,,,,,,179.00448540004436,None,right,1,1.5038132999325171,179.5049748000456,181.22513270005584,179.5049748000456,180.7404825000558,179.5049748000456,180.7404825000558,179.5049748000456,180.7404825000558,179.5049748000456,180.7404825000558,179.5049748000456,180.7404825000558,180.7069353000261,181.20779700006824,180.7069353000261,181.20779700006824,180.7069353000261,181.20779700006824,180.7069353000261,181.20779700006824,180.7069353000261,181.20779700006824,180.7069353000261,181.20779700006824,180.7069353000261,181.20779700006824,180.7069353000261,181.20779700006824,179.5049748000456,None,181.20779700006824,182.49280520004686,1.2200000000000009,182.50952089997008,None,183.2610311000608,None,,,,,,,[[1.28]],2.530000000000002,0.68,11014,002,2024_Jan_04_1602,MFTM_A_new1021,2021.2.3,60.06594041599482,
,,,,,,,,stim/Instruction_adaptive.png,conditions/adaptive.xlsx,test,0.6,0.6,0.6,-0.6,-0.6,right,R,,,,,0,1,1,1,0,25,25,8,,,,,,,,,,,,,,,,,,,,,,,,,,,,,,,,,,,,,,,,,,,,183.76247780001722,None,right,1,1.450459299958311,184.262236700044,185.91545410000253,184.262236700044,185.41511970001739,184.262236700044,185.41511970001739,184.262236700044,185.41511970001739,184.262236700044,185.41511970001739,184.262236700044,185.41511970001739,185.38058990007266,185.88253479998093,185.38058990007266,185.88253479998093,185.38058990007266,185.88253479998093,185.38058990007266,185.88253479998093,185.38058990007266,185.88253479998093,185.38058990007266,185.88253479998093,185.38058990007266,185.88253479998093,185.38058990007266,185.88253479998093,184.262236700044,None,185.88253479998093,187.25002549996134,1.1400000000000008,187.26669129997026,None,188.0181080000475,None,,,,,,,[[1.36]],2.610000000000002,0.6923076923076923,11014,002,2024_Jan_04_1602,MFTM_A_new1021,2021.2.3,60.06594041599482,
,,,,,,,,stim/Instruction_adaptive.png,conditions/adaptive.xlsx,test,0.6,0.6,0.6,-0.6,-0.6,right,R,,,,,0,1,1,1,0,26,26,32,,,,,,,,,,,,,,,,,,,,,,,,,,,,,,,,,,,,,,,,,,,,188.51844839996193,None,right,1,1.5980923000024632,189.01940230000764,190.6049919000361,189.01940230000764,190.1043719999725,189.01940230000764,190.1043719999725,189.01940230000764,190.1043719999725,189.01940230000764,190.1043719999725,189.01940230000764,190.1043719999725,190.08752130006906,190.58871310006361,190.08752130006906,190.58871310006361,190.08752130006906,190.58871310006361,190.08752130006906,190.58871310006361,190.08752130006906,190.58871310006361,190.08752130006906,190.58871310006361,190.08752130006906,190.58871310006361,190.08752130006906,190.58871310006361,189.01940230000764,None,190.58871310006361,191.99115740007255,1.0800000000000007,192.00696629995946,None,192.7588875000365,None,,,,,,,[1.3962963],2.690000000000002,0.7037037037037037,11014,002,2024_Jan_04_1602,MFTM_A_new1021,2021.2.3,60.06594041599482,
,,,,,,,,stim/Instruction_adaptive.png,conditions/adaptive.xlsx,test,0.6,0.6,0.6,-0.6,-0.6,right,R,,,,,0,1,1,1,0,27,27,66,,,,,,,,,,,,,,,,,,,,,,,,,,,,,,,,,,,,,,,,,,,,193.25979579996783,None,right,1,1.5929232999915257,193.75976939999964,195.2785347000463,193.75976939999964,194.79459359997418,193.75976939999964,194.79459359997418,193.75976939999964,194.79459359997418,193.75976939999964,194.79459359997418,193.75976939999964,194.79459359997418,194.76129579998087,195.2624644000316,194.76129579998087,195.2624644000316,194.76129579998087,195.2624644000316,194.76129579998087,195.2624644000316,194.76129579998087,195.2624644000316,194.76129579998087,195.2624644000316,194.76129579998087,195.2624644000316,194.76129579998087,195.2624644000316,193.75976939999964,None,195.2624644000316,196.66476329998113,1.0200000000000007,196.6810589999659,None,197.4320802000584,None,,,,,,,[1.39928571],2.760000000000002,0.7142857142857143,11014,002,2024_Jan_04_1602,MFTM_A_new1021,2021.2.3,60.06594041599482,
,,,,,,,,stim/Instruction_adaptive.png,conditions/adaptive.xlsx,test,0.6,0.6,0.6,-0.6,-0.6,right,R,,,,,0,1,1,1,0,28,28,94,,,,,,,,,,,,,,,,,,,,,,,,,,,,,,,,,,,,,,,,,,,,197.93311680003535,None,right,1,1.5834679999388754,198.43324120005127,199.91999029996805,198.43324120005127,199.4192047000397,198.43324120005127,199.4192047000397,198.43324120005127,199.4192047000397,198.43324120005127,199.4192047000397,198.43324120005127,199.4192047000397,199.38484670000616,199.88535980007146,199.38484670000616,199.88535980007146,199.38484670000616,199.88535980007146,199.38484670000616,199.88535980007146,199.38484670000616,199.88535980007146,199.38484670000616,199.88535980007146,199.38484670000616,199.88535980007146,199.38484670000616,199.88535980007146,198.43324120005127,None,199.88535980007146,201.28813870006707,0.9700000000000006,201.32090379996225,None,202.071980800014,None,,,,,,,[1.4037931],2.830000000000002,0.7241379310344828,11014,002,2024_Jan_04_1602,MFTM_A_new1021,2021.2.3,60.06594041599482,
,,,,,,,,stim/Instruction_adaptive.png,conditions/adaptive.xlsx,test,0.6,0.6,0.6,-0.6,-0.6,right,R,,,,,0,1,1,1,0,29,29,58,,,,,,,,,,,,,,,,,,,,,,,,,,,,,,,,,,,,,,,,,,,,202.57372780004516,None,right,1,1.8952035000547767,203.07345769996755,204.50890400004573,203.07345769996755,204.0085160000017,203.07345769996755,204.0085160000017,203.07345769996755,204.0085160000017,203.07345769996755,204.0085160000017,203.07345769996755,204.0085160000017,203.99245260003954,204.49222650006413,203.99245260003954,204.49222650006413,203.99245260003954,204.49222650006413,203.99245260003954,204.49222650006413,203.99245260003954,204.49222650006413,203.99245260003954,204.49222650006413,203.99245260003954,204.49222650006413,203.99245260003954,204.49222650006413,203.07345769996755,None,204.49222650006413,205.91174480004702,0.9300000000000006,205.9275978000369,None,206.67887880001217,None,,,,,,,[1.40933333],2.8900000000000023,0.7333333333333333,11014,002,2024_Jan_04_1602,MFTM_A_new1021,2021.2.3,60.06594041599482,
,,,,,,,,stim/Instruction_adaptive.png,conditions/adaptive.xlsx,test,-0.6,-0.6,-0.6,0.6,0.6,left,L,,,,,0,1,1,1,0,30,30,17,,,,,,,,,,,,,,,,,,,,,,,,,,,,,,,,,,,,,,,,,,,,207.17954310006462,None,right,0,1.88839730003383,207.68032959999982,209.08342699997593,207.68032959999982,208.58231880003586,207.68032959999982,208.58231880003586,207.68032959999982,208.58231880003586,207.68032959999982,208.58231880003586,207.68032959999982,208.58231880003586,208.54832579998765,209.04956610000227,208.54832579998765,209.04956610000227,208.54832579998765,209.04956610000227,208.54832579998765,209.04956610000227,208.54832579998765,209.04956610000227,208.54832579998765,209.04956610000227,208.54832579998765,209.04956610000227,208.54832579998765,209.04956610000227,207.68032959999982,None,209.04956610000227,210.46843580005225,0.8900000000000006,210.48439940006938,None,211.23548759997357,None,,,,,,,[1.41580645],2.720000000000002,0.7096774193548387,11014,002,2024_Jan_04_1602,MFTM_A_new1021,2021.2.3,60.06594041599482,
,,,,,,,,stim/Instruction_adaptive.png,conditions/adaptive.xlsx,test,-0.6,-0.6,-0.6,0.6,0.6,left,L,,,,,0,1,1,1,0,31,31,45,,,,,,,,,,,,,,,,,,,,,,,,,,,,,,,,,,,,,,,,,,,,211.73637840000447,None,left,1,1.3073851999361068,212.23750930000097,213.74015430000145,212.23750930000097,213.23850470001344,212.23750930000097,213.23850470001344,212.23750930000097,213.23850470001344,212.23750930000097,213.23850470001344,212.23750930000097,213.23850470001344,213.22188409999944,213.72273759997915,213.22188409999944,213.72273759997915,213.22188409999944,213.72273759997915,213.22188409999944,213.72273759997915,213.22188409999944,213.72273759997915,213.22188409999944,213.72273759997915,213.22188409999944,213.72273759997915,213.22188409999944,213.72273759997915,212.23750930000097,None,213.72273759997915,215.14164300006814,1.0000000000000007,215.1580214999849,None,215.90910809999332,None,,,,,,,[1.4184375],2.780000000000002,0.71875,11014,002,2024_Jan_04_1602,MFTM_A_new1021,2021.2.3,60.06594041599482,
,,,,,,,,stim/Instruction_adaptive.png,conditions/adaptive.xlsx,test,0.6,0.6,0.6,-0.6,-0.6,right,R,,,,,0,1,1,1,0,32,32,84,,,,,,,,,,,,,,,,,,,,,,,,,,,,,,,,,,,,,,,,,,,,216.4098939000396,None,right,1,1.3142606999026611,216.91066509997472,218.3796140999766,216.91066509997472,217.8787518000463,216.91066509997472,217.8787518000463,216.91066509997472,217.8787518000463,216.91066509997472,217.8787518000463,216.91066509997472,217.8787518000463,217.84523940004874,218.3468136000447,217.84523940004874,218.3468136000447,217.84523940004874,218.3468136000447,217.84523940004874,218.3468136000447,217.84523940004874,218.3468136000447,217.84523940004874,218.3468136000447,217.84523940004874,218.3468136000447,217.84523940004874,218.3468136000447,216.91066509997472,None,218.3468136000447,219.7819571000291,0.9600000000000006,219.79826810001396,None,220.54975740006194,None,,,,,,,[1.42212121],2.840000000000002,0.7272727272727273,11014,002,2024_Jan_04_1602,MFTM_A_new1021,2021.2.3,60.06594041599482,
,,,,,,,,stim/Instruction_adaptive.png,conditions/adaptive.xlsx,test,-0.6,-0.6,-0.6,0.6,0.6,left,L,,,,,0,1,1,1,0,33,33,9,,,,,,,,,,,,,,,,,,,,,,,,,,,,,,,,,,,,,,,,,,,,221.05054620001465,None,left,1,1.3299738999921829,221.55104709998704,222.98631820001174,221.55104709998704,222.4856839000713,221.55104709998704,222.4856839000713,221.55104709998704,222.4856839000713,221.55104709998704,222.4856839000713,221.55104709998704,222.4856839000713,222.4522003000602,222.953006500029,222.4522003000602,222.953006500029,222.4522003000602,222.953006500029,222.4522003000602,222.953006500029,222.4522003000602,222.953006500029,222.4522003000602,222.953006500029,222.4522003000602,222.953006500029,222.4522003000602,222.953006500029,221.55104709998704,None,222.953006500029,224.38887120003346,0.9200000000000006,224.4052233999828,None,225.1569223999977,None,,,,,,,[1.42676471],2.8900000000000023,0.7352941176470589,11014,002,2024_Jan_04_1602,MFTM_A_new1021,2021.2.3,60.06594041599482,
,,,,,,,,stim/Instruction_adaptive.png,conditions/adaptive.xlsx,test,0.6,0.6,0.6,-0.6,-0.6,right,R,,,,,0,1,1,1,0,34,34,18,,,,,,,,,,,,,,,,,,,,,,,,,,,,,,,,,,,,,,,,,,,,225.65711939998437,None,left,0,1.6430369999725372,226.15767290000804,227.56076879997272,226.15767290000804,227.0590265999781,226.15767290000804,227.0590265999781,226.15767290000804,227.0590265999781,226.15767290000804,227.0590265999781,226.15767290000804,227.0590265999781,227.02554369997233,227.52698660001624,227.02554369997233,227.52698660001624,227.02554369997233,227.52698660001624,227.02554369997233,227.52698660001624,227.02554369997233,227.52698660001624,227.02554369997233,227.52698660001624,227.02554369997233,227.52698660001624,227.02554369997233,227.52698660001624,226.15767290000804,None,227.52698660001624,228.9626653000014,0.8900000000000006,228.9793045000406,None,229.7297298000194,None,,,,,,,[1.432],2.740000000000002,0.7142857142857143,11014,002,2024_Jan_04_1602,MFTM_A_new1021,2021.2.3,60.06594041599482,
,,,,,,,,stim/Instruction_adaptive.png,conditions/adaptive.xlsx,test,-0.6,-0.6,-0.6,0.6,0.6,left,L,,,,,0,1,1,1,0,35,35,65,,,,,,,,,,,,,,,,,,,,,,,,,,,,,,,,,,,,,,,,,,,,230.23035219998565,None,right,0,2.0216128000756726,230.73128720000386,232.21677120006643,230.73128720000386,231.7159599000588,230.73128720000386,231.7159599000588,230.73128720000386,231.7159599000588,230.73128720000386,231.7159599000588,230.73128720000386,231.7159599000588,231.69924510002602,232.19998490007129,231.69924510002602,232.19998490007129,231.69924510002602,232.19998490007129,231.69924510002602,232.19998490007129,231.69924510002602,232.19998490007129,231.69924510002602,232.19998490007129,231.69924510002602,232.19998490007129,231.69924510002602,232.19998490007129,230.73128720000386,None,232.19998490007129,233.6364978000056,0.9800000000000006,233.65234550007153,None,234.40327060001437,None,,,,,,,[1.43444444],2.570000000000002,0.6944444444444444,11014,002,2024_Jan_04_1602,MFTM_A_new1021,2021.2.3,60.06594041599482,
,,,,,,,,stim/Instruction_adaptive.png,conditions/adaptive.xlsx,test,0.6,0.6,0.6,-0.6,-0.6,right,R,,,,,0,1,1,1,0,36,36,2,,,,,,,,,,,,,,,,,,,,,,,,,,,,,,,,,,,,,,,,,,,,234.9039303000318,None,right,1,1.2993725000414997,235.4055301999906,237.0238825000124,235.4055301999906,236.52316109999083,235.4055301999906,236.52316109999083,235.4055301999906,236.52316109999083,235.4055301999906,236.52316109999083,235.4055301999906,236.52316109999083,236.50730519997887,237.00785920000635,236.50730519997887,237.00785920000635,236.50730519997887,237.00785920000635,236.50730519997887,237.00785920000635,236.50730519997887,237.00785920000635,236.50730519997887,237.00785920000635,236.50730519997887,237.00785920000635,236.50730519997887,237.00785920000635,235.4055301999906,None,236.9909733000677,238.3928022000473,1.1100000000000008,238.4091607000446,None,239.16027130000293,None,,,,,,,[[1.39]],2.6300000000000017,0.7027027027027027,11014,002,2024_Jan_04_1602,MFTM_A_new1021,2021.2.3,60.06594041599482,
,,,,,,,,stim/Instruction_adaptive.png,conditions/adaptive.xlsx,test,0.6,0.6,0.6,-0.6,-0.6,right,R,,,,,0,1,1,1,0,37,37,64,,,,,,,,,,,,,,,,,,,,,,,,,,,,,,,,,,,,,,,,,,,,239.66230580001138,None,right,1,1.3265321999788284,240.16222489997745,241.73066040000413,240.16222489997745,241.23055069998372,240.16222489997745,241.23055069998372,240.16222489997745,241.23055069998372,240.16222489997745,241.23055069998372,240.16222489997745,241.23055069998372,241.19686959998216,241.69749040005263,241.19686959998216,241.69749040005263,241.19686959998216,241.69749040005263,241.19686959998216,241.69749040005263,241.19686959998216,241.69749040005263,241.19686959998216,241.69749040005263,241.19686959998216,241.69749040005263,241.19686959998216,241.69749040005263,240.16222489997745,None,241.69749040005263,243.13288950000424,1.0600000000000007,243.16615229996387,None,243.9185307000298,None,,,,,,,[1.43342105],2.680000000000002,0.7105263157894737,11014,002,2024_Jan_04_1602,MFTM_A_new1021,2021.2.3,60.06594041599482,
,,,,,,,,stim/Instruction_adaptive.png,conditions/adaptive.xlsx,test,0.6,0.6,0.6,-0.6,-0.6,right,R,,,,,0,1,1,1,0,38,38,42,,,,,,,,,,,,,,,,,,,,,,,,,,,,,,,,,,,,,,,,,,,,244.41927600000054,None,right,1,1.5217460000421852,244.91914010001346,246.45499930006918,244.91914010001346,245.95391529996414,244.91914010001346,245.95391529996414,244.91914010001346,245.95391529996414,244.91914010001346,245.95391529996414,244.91914010001346,245.95391529996414,245.93806770001538,246.43783020006958,245.93806770001538,246.43783020006958,245.93806770001538,246.43783020006958,245.93806770001538,246.43783020006958,245.93806770001538,246.43783020006958,245.93806770001538,246.43783020006958,245.93806770001538,246.43783020006958,245.93806770001538,246.43783020006958,244.91914010001346,None,246.43783020006958,247.8738883000333,1.0300000000000007,247.8903065000195,None,248.64124220004305,None,,,,,,,[1.43435897],2.740000000000002,0.717948717948718,11014,002,2024_Jan_04_1602,MFTM_A_new1021,2021.2.3,60.06594041599482,
,,,,,,,,stim/Instruction_adaptive.png,conditions/adaptive.xlsx,test,-0.6,-0.6,-0.6,0.6,0.6,left,L,,,,,0,1,1,1,0,39,39,61,,,,,,,,,,,,,,,,,,,,,,,,,,,,,,,,,,,,,,,,,,,,249.14193659997545,None,left,1,1.3663280999753624,249.64253059995826,251.12880369997583,249.64253059995826,250.62740780005697,249.64253059995826,250.62740780005697,249.64253059995826,250.62740780005697,249.64253059995826,250.62740780005697,249.64253059995826,250.62740780005697,250.6106839000713,251.11276339995675,250.6106839000713,251.11276339995675,250.6106839000713,251.11276339995675,250.6106839000713,251.11276339995675,250.6106839000713,251.11276339995675,250.6106839000713,251.11276339995675,250.6106839000713,251.11276339995675,250.6106839000713,251.11276339995675,249.64253059995826,None,251.11276339995675,None,0.9800000000000006,252.56362949998584,None,253.31501719995867,None,,,,,,,[1.4365],2.790000000000002,0.725,11014,002,2024_Jan_04_1602,MFTM_A_new1021,2021.2.3,60.06594041599482,
,,,,,,,,stim/Instruction_adaptive.png,conditions/adaptive.xlsx,test,-0.6,-0.6,-0.6,0.6,0.6,left,L,,,,,0,1,1,1,0,40,40,21,,,,,,,,,,,,,,,,,,,,,,,,,,,,,,,,,,,,,,,,,,,,253.8159192999592,None,right,0,1.652979200007394,254.31611580005847,255.76831660000607,254.31611580005847,255.26732189999893,254.31611580005847,255.26732189999893,254.31611580005847,255.26732189999893,254.31611580005847,255.26732189999893,254.31611580005847,255.26732189999893,255.25083220005035,255.75171550002415,255.25083220005035,255.75171550002415,255.25083220005035,255.75171550002415,255.25083220005035,255.75171550002415,255.25083220005035,255.75171550002415,255.25083220005035,255.75171550002415,255.25083220005035,255.75171550002415,255.25083220005035,255.75171550002415,254.31611580005847,None,255.75171550002415,257.20375019998755,0.9500000000000006,257.22047689999454,None,257.9716550000012,None,,,,,,,[1.43926829],2.640000000000002,0.7073170731707317,11014,002,2024_Jan_04_1602,MFTM_A_new1021,2021.2.3,60.06594041599482,
,,,,,,,,stim/Instruction_adaptive.png,conditions/adaptive.xlsx,test,0.6,0.6,0.6,-0.6,-0.6,right,R,,,,,0,1,1,1,0,41,41,28,,,,,,,,,,,,,,,,,,,,,,,,,,,,,,,,,,,,,,,,,,,,258.4722423000494,None,right,1,1.4999779999488965,258.97297979996074,260.5425233000424,258.97297979996074,260.04161700000986,258.97297979996074,260.04161700000986,258.97297979996074,260.04161700000986,258.97297979996074,260.04161700000986,258.97297979996074,260.04161700000986,260.0082314000465,260.51027520000935,260.0082314000465,260.51027520000935,260.0082314000465,260.51027520000935,260.0082314000465,260.51027520000935,260.0082314000465,260.51027520000935,260.0082314000465,260.51027520000935,260.0082314000465,260.51027520000935,260.0082314000465,260.51027520000935,258.97297979996074,None,260.51027520000935,261.96091130003333,1.0600000000000007,261.9774494000012,None,262.72874319995753,None,,,,,,,[1.43928571],2.690000000000002,0.7142857142857143,11014,002,2024_Jan_04_1602,MFTM_A_new1021,2021.2.3,60.06594041599482,
,,,,,,,,stim/Instruction_adaptive.png,conditions/adaptive.xlsx,test,0.6,0.6,0.6,-0.6,-0.6,right,R,,,,,0,1,1,1,0,42,42,54,,,,,,,,,,,,,,,,,,,,,,,,,,,,,,,,,,,,,,,,,,,,263.22957339999266,None,right,1,1.6146845000330359,263.7300911999773,265.2494825000176,263.7300911999773,264.7650038000429,263.7300911999773,264.7650038000429,263.7300911999773,264.7650038000429,263.7300911999773,264.7650038000429,263.7300911999773,264.7650038000429,264.7315747999819,265.2323206999572,264.7315747999819,265.2323206999572,264.7315747999819,265.2323206999572,264.7315747999819,265.2323206999572,264.7315747999819,265.2323206999572,264.7315747999819,265.2323206999572,264.7315747999819,265.2323206999572,264.7315747999819,265.2323206999572,263.7300911999773,None,265.2323206999572,266.68559460004326,1.0200000000000007,266.70162680000067,None,267.4522166000679,None,,,,,,,[1.44023256],2.740000000000002,0.7209302325581395,11014,002,2024_Jan_04_1602,MFTM_A_new1021,2021.2.3,60.06594041599482,
,,,,,,,,stim/Instruction_adaptive.png,conditions/adaptive.xlsx,test,-0.6,-0.6,-0.6,0.6,0.6,left,L,,,,,0,1,1,1,0,43,43,51,,,,,,,,,,,,,,,,,,,,,,,,,,,,,,,,,,,,,,,,,,,,267.95311170001514,None,right,0,2.243139399914071,268.45366640004795,269.94025220000185,268.45366640004795,269.43842969997786,268.45366640004795,269.43842969997786,268.45366640004795,269.43842969997786,268.45366640004795,269.43842969997786,268.45366640004795,269.43842969997786,269.4219066000078,269.9231976000592,269.4219066000078,269.9231976000592,269.4219066000078,269.9231976000592,269.4219066000078,269.9231976000592,269.4219066000078,269.9231976000592,269.4219066000078,269.9231976000592,269.4219066000078,269.9231976000592,269.4219066000078,269.9231976000592,268.45366640004795,None,269.9231976000592,None,0.9800000000000006,271.3747938000597,None,272.126603599987,None,,,,,,,[1.44204545],2.600000000000002,0.7045454545454546,11014,002,2024_Jan_04_1602,MFTM_A_new1021,2021.2.3,60.06594041599482,
,,,,,,,,stim/Instruction_adaptive.png,conditions/adaptive.xlsx,test,-0.6,-0.6,-0.6,0.6,0.6,left,L,,,,,0,1,1,1,0,44,44,81,,,,,,,,,,,,,,,,,,,,,,,,,,,,,,,,,,,,,,,,,,,,272.62748470006045,None,left,1,2.5131706999382004,273.127678400022,274.73013100004755,273.127678400022,274.2290939000668,273.127678400022,274.2290939000668,273.127678400022,274.2290939000668,273.127678400022,274.2290939000668,273.127678400022,274.2290939000668,274.19607100007124,274.6968652000651,274.19607100007124,274.6968652000651,274.19607100007124,274.6968652000651,274.19607100007124,274.6968652000651,274.19607100007124,274.6968652000651,274.19607100007124,274.6968652000651,274.19607100007124,274.6968652000651,274.19607100007124,274.6968652000651,273.127678400022,None,274.6968652000651,276.116025299998,1.0900000000000007,276.13173620007,None,276.8828459000215,None,,,,,,,[[1.41]],2.650000000000002,0.7111111111111111,11014,002,2024_Jan_04_1602,MFTM_A_new1021,2021.2.3,60.06594041599482,
,,,,,,,,stim/Instruction_adaptive.png,conditions/adaptive.xlsx,test,-0.6,-0.6,-0.6,0.6,0.6,left,L,,,,,0,1,1,1,0,45,45,5,,,,,,,,,,,,,,,,,,,,,,,,,,,,,,,,,,,,,,,,,,,,277.3836967999814,None,left,1,2.4122452000156045,277.8845100000035,279.43671100004576,277.8845100000035,278.9357993999729,277.8845100000035,278.9357993999729,277.8845100000035,278.9357993999729,277.8845100000035,278.9357993999729,277.8845100000035,278.9357993999729,278.9191240000073,279.41998130001593,278.9191240000073,279.41998130001593,278.9191240000073,279.41998130001593,278.9191240000073,279.41998130001593,278.9191240000073,279.41998130001593,278.9191240000073,279.41998130001593,278.9191240000073,279.41998130001593,278.9191240000073,279.41998130001593,277.8845100000035,None,279.41998130001593,280.8721625000471,1.0500000000000007,280.88931979995687,None,281.64027660002466,None,,,,,,,[1.44152174],2.700000000000002,0.717391304347826,11014,002,2024_Jan_04_1602,MFTM_A_new1021,2021.2.3,60.06594041599482,
,,,,,,,,stim/Instruction_adaptive.png,conditions/adaptive.xlsx,test,0.6,0.6,0.6,-0.6,-0.6,right,R,,,,,0,1,1,1,0,46,46,48,,,,,,,,,,,,,,,,,,,,,,,,,,,,,,,,,,,,,,,,,,,,282.140614700038,None,right,1,1.9195394000271335,282.64128280000295,284.16036930005066,282.64128280000295,283.6610622999724,282.64128280000295,283.6610622999724,282.64128280000295,283.6610622999724,282.64128280000295,283.6610622999724,282.64128280000295,283.6610622999724,283.6272052000277,284.1276249999646,283.6272052000277,284.1276249999646,283.6272052000277,284.1276249999646,283.6272052000277,284.1276249999646,283.6272052000277,284.1276249999646,283.6272052000277,284.1276249999646,283.6272052000277,284.1276249999646,283.6272052000277,284.1276249999646,282.64128280000295,None,284.1276249999646,285.5798287000507,1.0100000000000007,285.5961665000068,None,286.3468751000473,None,,,,,,,[1.44255319],2.740000000000002,0.723404255319149,11014,002,2024_Jan_04_1602,MFTM_A_new1021,2021.2.3,60.06594041599482,
,,,,,,,,stim/Instruction_adaptive.png,conditions/adaptive.xlsx,test,0.6,0.6,0.6,-0.6,-0.6,right,R,,,,,0,1,1,1,0,47,47,34,,,,,,,,,,,,,,,,,,,,,,,,,,,,,,,,,,,,,,,,,,,,286.84779949998483,None,right,1,1.876708299969323,287.3483558000298,288.83443859999534,287.3483558000298,288.3331130000297,287.3483558000298,288.3331130000297,287.3483558000298,288.3331130000297,287.3483558000298,288.3331130000297,287.3483558000298,288.3331130000297,288.31743579998147,288.8179033000488,288.31743579998147,288.8179033000488,288.31743579998147,288.8179033000488,288.31743579998147,288.8179033000488,288.31743579998147,288.8179033000488,288.31743579998147,288.8179033000488,288.31743579998147,288.8179033000488,288.31743579998147,288.8179033000488,287.3483558000298,None,288.8179033000488,290.2693963999627,0.9800000000000006,290.2868443999905,None,291.0372204000596,None,,,,,,,[1.44416667],2.780000000000002,0.7291666666666666,11014,002,2024_Jan_04_1602,MFTM_A_new1021,2021.2.3,60.06594041599482,
,,,,,,,,stim/Instruction_adaptive.png,conditions/adaptive.xlsx,test,-0.6,-0.6,-0.6,0.6,0.6,left,L,,,,,0,1,1,1,0,48,48,85,,,,,,,,,,,,,,,,,,,,,,,,,,,,,,,,,,,,,,,,,,,,291.538708099979,None,left,1,1.746127999969758,292.038762900047,293.5081227000337,292.038762900047,293.00682820007205,292.038762900047,293.00682820007205,292.038762900047,293.00682820007205,292.038762900047,293.00682820007205,292.038762900047,293.00682820007205,292.9734216000652,293.4747776000295,292.9734216000652,293.4747776000295,292.9734216000652,293.4747776000295,292.9734216000652,293.4747776000295,292.9734216000652,293.4747776000295,292.9734216000652,293.4747776000295,292.9734216000652,293.4747776000295,292.9734216000652,293.4747776000295,292.038762900047,None,293.4747776000295,294.92664189997595,0.9600000000000006,294.9596332999645,None,295.710823200061,None,,,,,,,[1.44612245],2.820000000000002,0.7346938775510204,11014,002,2024_Jan_04_1602,MFTM_A_new1021,2021.2.3,60.06594041599482,
,,,,,,,,stim/Instruction_adaptive.png,conditions/adaptive.xlsx,test,0.6,0.6,0.6,-0.6,-0.6,right,R,,,,,0,1,1,1,0,49,49,90,,,,,,,,,,,,,,,,,,,,,,,,,,,,,,,,,,,,,,,,,,,,296.2117246000562,None,None,0,0,296.71204080001917,298.14791840000544,296.71204080001917,297.6468039000174,296.71204080001917,297.6468039000174,296.71204080001917,297.6468039000174,296.71204080001917,297.6468039000174,296.71204080001917,297.6468039000174,297.6307231000392,298.13173759996425,297.6307231000392,298.13173759996425,297.6307231000392,298.13173759996425,297.6307231000392,298.13173759996425,297.6307231000392,298.13173759996425,297.6307231000392,298.13173759996425,297.6307231000392,298.13173759996425,297.6307231000392,298.13173759996425,296.71204080001917,None,298.13173759996425,300.2013600000646,0.9300000000000006,300.21683559997473,None,300.969866600004,None,,,,,,,[[2.07]],2.7100000000000017,0.72,11014,002,2024_Jan_04_1602,MFTM_A_new1021,2021.2.3,60.06594041599482,
,,,,,,,,stim/Instruction_adaptive.png,conditions/adaptive.xlsx,test,-0.6,-0.6,-0.6,0.6,0.6,left,L,,,,,0,1,1,1,0,50,50,91,,,,,,,,,,,,,,,,,,,,,,,,,,,,,,,,,,,,,,,,,,,,301.46939380001277,None,left,1,1.3107307000318542,301.9701270000078,303.4889055000385,301.9701270000078,302.9889081000583,301.9701270000078,302.9889081000583,301.9701270000078,302.9889081000583,301.9701270000078,302.9889081000583,301.9701270000078,302.9889081000583,302.97265899996273,303.472409900045,302.97265899996273,303.472409900045,302.97265899996273,303.472409900045,302.97265899996273,303.472409900045,302.97265899996273,303.472409900045,302.97265899996273,303.472409900045,302.97265899996273,303.472409900045,302.97265899996273,303.472409900045,301.9701270000078,None,303.472409900045,304.92449480004143,1.0100000000000007,304.9416874999879,None,305.692367700045,None,,,,,,,[1.44941176],2.7500000000000018,0.7254901960784313,11014,002,2024_Jan_04_1602,MFTM_A_new1021,2021.2.3,60.06594041599482,
,,,,,,,,stim/Instruction_adaptive.png,conditions/adaptive.xlsx,test,-0.6,-0.6,-0.6,0.6,0.6,left,L,,,,,0,1,1,1,0,51,51,15,,,,,,,,,,,,,,,,,,,,,,,,,,,,,,,,,,,,,,,,,,,,306.19313699996565,None,left,1,0.9071689000120386,306.6937786999624,308.1800493999617,306.6937786999624,307.67859430005774,306.6937786999624,307.67859430005774,306.6937786999624,307.67859430005774,306.6937786999624,307.67859430005774,306.6937786999624,307.67859430005774,307.66196769999806,308.1626053999644,307.66196769999806,308.1626053999644,307.66196769999806,308.1626053999644,307.66196769999806,308.1626053999644,307.66196769999806,308.1626053999644,307.66196769999806,308.1626053999644,307.66196769999806,308.1626053999644,307.66196769999806,308.1626053999644,306.6937786999624,None,308.1626053999644,309.6152428999776,0.9800000000000006,309.6313983000582,None,310.3832924000453,None,,,,,,,[1.45076923],2.790000000000002,0.7307692307692307,11014,002,2024_Jan_04_1602,MFTM_A_new1021,2021.2.3,60.06594041599482,
,,,,,,,,stim/Instruction_adaptive.png,conditions/adaptive.xlsx,test,0.6,0.6,0.6,-0.6,-0.6,right,R,,,,,0,1,1,1,0,52,52,56,,,,,,,,,,,,,,,,,,,,,,,,,,,,,,,,,,,,,,,,,,,,310.88321050000377,None,left,0,1.8732921000337228,311.38378929998726,312.8362223999575,311.38378929998726,312.33546239999123,311.38378929998726,312.33546239999123,311.38378929998726,312.33546239999123,311.38378929998726,312.33546239999123,311.38378929998726,312.33546239999123,312.31994259997737,312.8199564999668,312.31994259997737,312.8199564999668,312.31994259997737,312.8199564999668,312.31994259997737,312.8199564999668,312.31994259997737,312.8199564999668,312.31994259997737,312.8199564999668,312.31994259997737,312.8199564999668,312.31994259997737,312.8199564999668,311.38378929998726,None,312.8199564999668,314.2714536000276,0.9500000000000006,314.2883756000083,None,315.0394251999678,None,,,,,,,[1.45264151],2.680000000000002,0.7169811320754716,11014,002,2024_Jan_04_1602,MFTM_A_new1021,2021.2.3,60.06594041599482,
,,,,,,,,stim/Instruction_adaptive.png,conditions/adaptive.xlsx,test,0.6,0.6,0.6,-0.6,-0.6,right,R,,,,,0,1,1,1,0,53,53,62,,,,,,,,,,,,,,,,,,,,,,,,,,,,,,,,,,,,,,,,,,,,315.5408363000024,None,right,1,1.5040717999218032,316.04083129996434,317.57658680004533,316.04083129996434,317.07565660006367,316.04083129996434,317.07565660006367,316.04083129996434,317.07565660006367,316.04083129996434,317.07565660006367,316.04083129996434,317.07565660006367,317.0590988000622,317.5598394999979,317.0590988000622,317.5598394999979,317.0590988000622,317.5598394999979,317.0590988000622,317.5598394999979,317.0590988000622,317.5598394999979,317.0590988000622,317.5598394999979,317.0590988000622,317.5598394999979,317.0590988000622,317.5598394999979,316.04083129996434,None,317.5598394999979,319.0125410000328,1.0300000000000007,319.0287034000503,None,319.7798343000468,None,,,,,,,[1.45296296],2.720000000000002,0.7222222222222222,11014,002,2024_Jan_04_1602,MFTM_A_new1021,2021.2.3,60.06594041599482,
,,,,,,,,stim/Instruction_adaptive.png,conditions/adaptive.xlsx,test,-0.6,-0.6,-0.6,0.6,0.6,left,L,,,,,0,1,1,1,0,54,54,77,,,,,,,,,,,,,,,,,,,,,,,,,,,,,,,,,,,,,,,,,,,,320.28091850003693,None,right,0,1.5547554000513628,320.7822421999881,322.28389850002714,320.7822421999881,321.78274840000086,320.7822421999881,321.78274840000086,320.7822421999881,321.78274840000086,320.7822421999881,321.78274840000086,320.7822421999881,321.78274840000086,321.7663384999614,322.2668656000169,321.7663384999614,322.2668656000169,321.7663384999614,322.2668656000169,321.7663384999614,322.2668656000169,321.7663384999614,322.2668656000169,321.7663384999614,322.2668656000169,321.7663384999614,322.2668656000169,321.7663384999614,322.2668656000169,320.7822421999881,None,322.2668656000169,None,1.0000000000000007,323.73555990005843,None,324.48678230005316,None,,,,,,,[1.45381818],2.600000000000002,0.7090909090909091,11014,002,2024_Jan_04_1602,MFTM_A_new1021,2021.2.3,60.06594041599482,
,,,,,,,,stim/Instruction_adaptive.png,conditions/adaptive.xlsx,test,0.6,0.6,0.6,-0.6,-0.6,right,R,,,,,0,1,1,1,0,55,55,88,,,,,,,,,,,,,,,,,,,,,,,,,,,,,,,,,,,,,,,,,,,,324.98838360002264,None,right,1,1.4406187999993563,325.488577799988,327.09066560002975,325.488577799988,326.5900520000141,325.488577799988,326.5900520000141,325.488577799988,326.5900520000141,325.488577799988,326.5900520000141,325.488577799988,326.5900520000141,326.55708269996103,327.0575971000362,326.55708269996103,327.0575971000362,326.55708269996103,327.0575971000362,326.55708269996103,327.0575971000362,326.55708269996103,327.0575971000362,326.55708269996103,327.0575971000362,326.55708269996103,327.0575971000362,326.55708269996103,327.0575971000362,325.488577799988,None,327.0575971000362,328.4759892000584,1.0900000000000007,328.4927991000004,None,329.2439626000123,None,,,,,,,[[1.41]],2.640000000000002,0.7142857142857143,11014,002,2024_Jan_04_1602,MFTM_A_new1021,2021.2.3,60.06594041599482,
,,,,,,,,stim/Instruction_adaptive.png,conditions/adaptive.xlsx,test,-0.6,-0.6,-0.6,0.6,0.6,left,L,,,,,0,1,1,1,0,56,56,95,,,,,,,,,,,,,,,,,,,,,,,,,,,,,,,,,,,,,,,,,,,,329.7455523000099,None,right,0,1.5547866999404505,330.24591669999063,331.8141587000573,330.24591669999063,331.31420849997085,330.24591669999063,331.31420849997085,330.24591669999063,331.31420849997085,330.24591669999063,331.31420849997085,330.24591669999063,331.31420849997085,331.28087759995833,331.780762600014,331.28087759995833,331.780762600014,331.28087759995833,331.780762600014,331.28087759995833,331.780762600014,331.28087759995833,331.780762600014,331.28087759995833,331.780762600014,331.28087759995833,331.780762600014,331.28087759995833,331.780762600014,330.24591669999063,None,331.780762600014,333.23462610004935,1.0600000000000007,333.24951110000256,None,334.0009047000203,None,,,,,,,[[1.44]],2.530000000000002,0.7017543859649122,11014,002,2024_Jan_04_1602,MFTM_A_new1021,2021.2.3,60.06594041599482,
,,,,,,,,stim/Instruction_adaptive.png,conditions/adaptive.xlsx,test,0.6,0.6,0.6,-0.6,-0.6,right,R,,,,,0,1,1,1,0,57,57,16,,,,,,,,,,,,,,,,,,,,,,,,,,,,,,,,,,,,,,,,,,,,334.50153410003986,None,right,1,1.8144725000020117,335.00277160003316,336.65487970004324,335.00277160003316,336.15381599997636,335.00277160003316,336.15381599997636,335.00277160003316,336.15381599997636,335.00277160003316,336.15381599997636,335.00277160003316,336.15381599997636,336.1207185999956,336.6214622000698,336.1207185999956,336.6214622000698,336.1207185999956,336.6214622000698,336.1207185999956,336.6214622000698,336.1207185999956,336.6214622000698,336.1207185999956,336.6214622000698,336.1207185999956,336.6214622000698,336.1207185999956,336.6214622000698,335.00277160003316,None,336.6214622000698,337.99082589999307,1.1400000000000008,338.0065694999648,None,338.75888890004717,None,,,,,,,[[1.36]],2.570000000000002,0.7068965517241379,11014,002,2024_Jan_04_1602,MFTM_A_new1021,2021.2.3,60.06594041599482,
,,,,,,,,stim/Instruction_adaptive.png,conditions/adaptive.xlsx,test,-0.6,-0.6,-0.6,0.6,0.6,left,L,,,,,0,1,1,1,0,58,58,33,,,,,,,,,,,,,,,,,,,,,,,,,,,,,,,,,,,,,,,,,,,,339.2585352000315,None,left,1,1.4254601000575349,339.7598890999798,341.37914490001276,339.7598890999798,340.87841510004364,339.7598890999798,340.87841510004364,339.7598890999798,340.87841510004364,339.7598890999798,340.87841510004364,339.7598890999798,340.87841510004364,340.8613740999717,341.3617390000727,340.8613740999717,341.3617390000727,340.8613740999717,341.3617390000727,340.8613740999717,341.3617390000727,340.8613740999717,341.3617390000727,340.8613740999717,341.3617390000727,340.8613740999717,341.3617390000727,340.8613740999717,341.3617390000727,339.7598890999798,None,341.3464314000448,342.7479098000331,1.1100000000000008,342.7636453000596,None,343.5147865000181,None,,,,,,,[[1.39]],2.610000000000002,0.711864406779661,11014,002,2024_Jan_04_1602,MFTM_A_new1021,2021.2.3,60.06594041599482,
,,,,,,,,stim/Instruction_adaptive.png,conditions/adaptive.xlsx,test,0.6,0.6,0.6,-0.6,-0.6,right,R,,,,,0,1,1,1,0,59,59,60,,,,,,,,,,,,,,,,,,,,,,,,,,,,,,,,,,,,,,,,,,,,344.0159781000111,None,left,0,1.6205385000212118,344.516478799982,346.10264459997416,344.516478799982,345.6014792000642,344.516478799982,345.6014792000642,344.516478799982,345.6014792000642,344.516478799982,345.6014792000642,344.516478799982,345.6014792000642,345.58521339995787,346.086464800057,345.58521339995787,346.086464800057,345.58521339995787,346.086464800057,345.58521339995787,346.086464800057,345.58521339995787,346.086464800057,345.58521339995787,346.086464800057,345.58521339995787,346.086464800057,345.58521339995787,346.086464800057,344.516478799982,None,346.086464800057,347.5045837999787,1.0800000000000007,347.52078260004055,None,348.27298050001264,None,,,,,,,[[1.42]],2.490000000000002,0.7,11014,002,2024_Jan_04_1602,MFTM_A_new1021,2021.2.3,60.06594041599482,
,,,,,,,,stim/Instruction_adaptive.png,conditions/adaptive.xlsx,test,-0.6,-0.6,-0.6,0.6,0.6,left,L,,,,,0,1,1,1,0,60,60,55,,,,,,,,,,,,,,,,,,,,,,,,,,,,,,,,,,,,,,,,,,,,348.7732851000037,None,left,1,1.423256199923344,349.2735966000473,350.9426330999704,349.2735966000473,350.45854340004735,349.2735966000473,350.45854340004735,349.2735966000473,350.45854340004735,349.2735966000473,350.45854340004735,349.2735966000473,350.45854340004735,350.4252155000577,350.92602070001885,350.4252155000577,350.92602070001885,350.4252155000577,350.92602070001885,350.4252155000577,350.92602070001885,350.4252155000577,350.92602070001885,350.4252155000577,350.92602070001885,350.4252155000577,350.92602070001885,350.4252155000577,350.92602070001885,349.2735966000473,None,350.92602070001885,352.26196569995955,1.1700000000000008,352.2781102999579,None,353.02957410004456,None,,,,,,,[[1.33]],2.530000000000002,0.7049180327868853,11014,002,2024_Jan_04_1602,MFTM_A_new1021,2021.2.3,60.06594041599482,
,,,,,,,,stim/Instruction_adaptive.png,conditions/adaptive.xlsx,test,-0.6,-0.6,-0.6,0.6,0.6,left,L,,,,,0,1,1,1,0,61,61,43,,,,,,,,,,,,,,,,,,,,,,,,,,,,,,,,,,,,,,,,,,,,353.52987450000364,None,left,1,1.394346799934283,354.0305170000065,355.68423839996103,354.0305170000065,355.18230620003305,354.0305170000065,355.18230620003305,354.0305170000065,355.18230620003305,354.0305170000065,355.18230620003305,354.0305170000065,355.18230620003305,355.14893290004693,355.6496320000151,355.14893290004693,355.6496320000151,355.14893290004693,355.6496320000151,355.14893290004693,355.6496320000151,355.14893290004693,355.6496320000151,355.14893290004693,355.6496320000151,355.14893290004693,355.6496320000151,355.14893290004693,355.6496320000151,354.0305170000065,None,355.6496320000151,357.01941569999326,1.1400000000000008,357.0349584000651,None,357.7861391999759,None,,,,,,,[[1.36]],2.570000000000002,0.7096774193548387,11014,002,2024_Jan_04_1602,MFTM_A_new1021,2021.2.3,60.06594041599482,
,,,,,,,,stim/Instruction_adaptive.png,conditions/adaptive.xlsx,test,-0.6,-0.6,-0.6,0.6,0.6,left,L,,,,,0,1,1,1,0,62,62,97,,,,,,,,,,,,,,,,,,,,,,,,,,,,,,,,,,,,,,,,,,,,358.28700400004163,None,left,1,1.9175703000510111,358.7875323999906,360.40663670003414,358.7875323999906,359.9058820999926,358.7875323999906,359.9058820999926,358.7875323999906,359.9058820999926,358.7875323999906,359.9058820999926,358.7875323999906,359.9058820999926,359.88925680005923,360.39087750006,359.88925680005923,360.39087750006,359.88925680005923,360.39087750006,359.88925680005923,360.39087750006,359.88925680005923,360.39087750006,359.88925680005923,360.39087750006,359.88925680005923,360.39087750006,359.88925680005923,360.39087750006,358.7875323999906,None,360.39087750006,None,1.1100000000000008,361.7920666000573,None,362.54308299999684,None,,,,,,,[[1.39]],2.610000000000002,0.7142857142857143,11014,002,2024_Jan_04_1602,MFTM_A_new1021,2021.2.3,60.06594041599482,
,,,,,,,,stim/Instruction_adaptive.png,conditions/adaptive.xlsx,test,0.6,0.6,0.6,-0.6,-0.6,right,R,,,,,0,1,1,1,0,63,63,92,,,,,,,,,,,,,,,,,,,,,,,,,,,,,,,,,,,,,,,,,,,,363.0445442000637,None,right,1,1.6405011999886483,363.5445908000693,365.13058730005287,363.5445908000693,364.62948830006644,363.5445908000693,364.62948830006644,363.5445908000693,364.62948830006644,363.5445908000693,364.62948830006644,363.5445908000693,364.62948830006644,364.6127876000246,365.1144491999876,364.6127876000246,365.1144491999876,364.6127876000246,365.1144491999876,364.6127876000246,365.1144491999876,364.6127876000246,365.1144491999876,364.6127876000246,365.1144491999876,364.6127876000246,365.1144491999876,364.6127876000246,365.1144491999876,363.5445908000693,None,365.1144491999876,None,1.0800000000000007,366.5496498000575,None,367.3009010000387,None,,,,,,,[[1.42]],2.640000000000002,0.71875,11014,002,2024_Jan_04_1602,MFTM_A_new1021,2021.2.3,60.06594041599482,
,,,,,,,,stim/Instruction_adaptive.png,conditions/adaptive.xlsx,test,0.6,0.6,0.6,-0.6,-0.6,right,R,,,,,0,1,1,1,0,64,64,68,,,,,,,,,,,,,,,,,,,,,,,,,,,,,,,,,,,,,,,,,,,,367.8023060000269,None,right,1,1.7951166999991983,368.30178370000795,369.8701016000705,368.30178370000795,369.3698542000493,368.30178370000795,369.3698542000493,368.30178370000795,369.3698542000493,368.30178370000795,369.3698542000493,368.30178370000795,369.3698542000493,369.3365756999701,369.8374669000041,369.3365756999701,369.8374669000041,369.3365756999701,369.8374669000041,369.3365756999701,369.8374669000041,369.3365756999701,369.8374669000041,369.3365756999701,369.8374669000041,369.3365756999701,369.8374669000041,369.3365756999701,369.8374669000041,368.30178370000795,None,369.8374669000041,371.28937440004665,1.0600000000000007,371.306256400072,None,372.058167799958,None,,,,,,,[[1.44]],2.6700000000000017,0.7230769230769231,11014,002,2024_Jan_04_1602,MFTM_A_new1021,2021.2.3,60.06594041599482,
,,,,,,,,stim/Instruction_adaptive.png,conditions/adaptive.xlsx,test,-0.6,-0.6,-0.6,0.6,0.6,left,L,,,,,0,1,1,1,0,65,65,87,,,,,,,,,,,,,,,,,,,,,,,,,,,,,,,,,,,,,,,,,,,,372.5580806999933,None,left,1,1.2311834000283852,373.0587067999877,374.5949555999832,373.0587067999877,374.0937207000097,373.0587067999877,374.0937207000097,373.0587067999877,374.0937207000097,373.0587067999877,374.0937207000097,373.0587067999877,374.0937207000097,374.0772396000102,374.5779533999739,374.0772396000102,374.5779533999739,374.0772396000102,374.5779533999739,374.0772396000102,374.5779533999739,374.0772396000102,374.5779533999739,374.0772396000102,374.5779533999739,374.0772396000102,374.5779533999739,374.0772396000102,374.5779533999739,373.0587067999877,None,374.5779533999739,376.02979940001387,1.0300000000000007,376.04677909996826,None,376.79764820006676,None,,,,,,,[1.44530303],2.700000000000002,0.7272727272727273,11014,002,2024_Jan_04_1602,MFTM_A_new1021,2021.2.3,60.06594041599482,
,,,,,,,,stim/Instruction_adaptive.png,conditions/adaptive.xlsx,test,0.6,0.6,0.6,-0.6,-0.6,right,R,,,,,0,1,1,1,0,66,66,98,,,,,,,,,,,,,,,,,,,,,,,,,,,,,,,,,,,,,,,,,,,,377.29866139998194,None,right,1,1.2742962999036536,377.7989422000246,379.31869690003805,377.7989422000246,378.8180204000091,377.7989422000246,378.8180204000091,377.7989422000246,378.8180204000091,377.7989422000246,378.8180204000091,377.7989422000246,378.8180204000091,378.78425530006643,379.28592070005834,378.78425530006643,379.28592070005834,378.78425530006643,379.28592070005834,378.78425530006643,379.28592070005834,378.78425530006643,379.28592070005834,378.78425530006643,379.28592070005834,378.78425530006643,379.28592070005834,378.78425530006643,379.28592070005834,377.7989422000246,None,379.28592070005834,380.7367891999893,1.0100000000000007,380.7702500000596,None,381.52183280000463,None,,,,,,,[1.44597015],2.730000000000002,0.7313432835820896,11014,002,2024_Jan_04_1602,MFTM_A_new1021,2021.2.3,60.06594041599482,
,,,,,,,,stim/Instruction_adaptive.png,conditions/adaptive.xlsx,test,-0.6,-0.6,-0.6,0.6,0.6,left,L,,,,,0,1,1,1,0,67,67,35,,,,,,,,,,,,,,,,,,,,,,,,,,,,,,,,,,,,,,,,,,,,382.02307590004057,None,left,1,1.4378691000165418,382.5230389999924,384.02609549998306,382.5230389999924,383.52417890005745,382.5230389999924,383.52417890005745,382.5230389999924,383.52417890005745,382.5230389999924,383.52417890005745,382.5230389999924,383.52417890005745,383.4906641000416,383.99153930007014,383.4906641000416,383.99153930007014,383.4906641000416,383.99153930007014,383.4906641000416,383.99153930007014,383.4906641000416,383.99153930007014,383.4906641000416,383.99153930007014,383.4906641000416,383.99153930007014,383.4906641000416,383.99153930007014,382.5230389999924,None,383.99153930007014,385.44411649997346,0.9900000000000007,385.46057180000935,None,386.2115047000116,None,,,,,,,[1.44691176],2.760000000000002,0.7352941176470589,11014,002,2024_Jan_04_1602,MFTM_A_new1021,2021.2.3,60.06594041599482,
,,,,,,,,stim/Instruction_adaptive.png,conditions/adaptive.xlsx,test,0.6,0.6,0.6,-0.6,-0.6,right,R,,,,,0,1,1,1,0,68,68,72,,,,,,,,,,,,,,,,,,,,,,,,,,,,,,,,,,,,,,,,,,,,386.71297870005947,None,right,1,1.171381999971345,387.2136316000251,388.69858269998804,387.2136316000251,388.1978472999763,387.2136316000251,388.1978472999763,387.2136316000251,388.1978472999763,387.2136316000251,388.1978472999763,387.2136316000251,388.1978472999763,388.16451669996604,388.6651742999675,388.16451669996604,388.6651742999675,388.16451669996604,388.6651742999675,388.16451669996604,388.6651742999675,388.16451669996604,388.6651742999675,388.16451669996604,388.6651742999675,388.16451669996604,388.6651742999675,388.16451669996604,388.6651742999675,387.2136316000251,None,388.6651742999675,390.1173006000463,0.9700000000000006,390.1341379999649,None,390.8852305000182,None,,,,,,,[1.44811594],2.790000000000002,0.7391304347826086,11014,002,2024_Jan_04_1602,MFTM_A_new1021,2021.2.3,60.06594041599482,
,,,,,,,,stim/Instruction_adaptive.png,conditions/adaptive.xlsx,test,-0.6,-0.6,-0.6,0.6,0.6,left,L,,,,,0,1,1,1,0,69,69,1,,,,,,,,,,,,,,,,,,,,,,,,,,,,,,,,,,,,,,,,,,,,391.3865922000259,None,left,1,2.322347000008449,391.8866940999869,393.3389319999842,391.8866940999869,392.8382561999606,391.8866940999869,392.8382561999606,391.8866940999869,392.8382561999606,391.8866940999869,392.8382561999606,391.8866940999869,392.8382561999606,392.8214242999675,393.32214179995935,392.8214242999675,393.32214179995935,392.8214242999675,393.32214179995935,392.8214242999675,393.32214179995935,392.8214242999675,393.32214179995935,392.8214242999675,393.32214179995935,392.8214242999675,393.32214179995935,392.8214242999675,393.32214179995935,391.8866940999869,None,393.32214179995935,394.7750745000085,0.9500000000000006,394.79096040001605,None,395.54225870000664,None,,,,,,,[1.44957143],2.820000000000002,0.7428571428571429,11014,002,2024_Jan_04_1602,MFTM_A_new1021,2021.2.3,60.06594041599482,
,,,,,,,,stim/Instruction_adaptive.png,conditions/adaptive.xlsx,test,-0.6,-0.6,-0.6,0.6,0.6,left,L,,,,,0,1,1,1,0,70,70,59,,,,,,,,,,,,,,,,,,,,,,,,,,,,,,,,,,,,,,,,,,,,396.0428211999824,None,left,1,1.337630300084129,396.54346299997997,397.97959020000417,396.54346299997997,397.47853590000886,396.54346299997997,397.47853590000886,396.54346299997997,397.47853590000886,396.54346299997997,397.47853590000886,396.54346299997997,397.47853590000886,397.46148429997265,397.9622311000712,397.46148429997265,397.9622311000712,397.46148429997265,397.9622311000712,397.46148429997265,397.9622311000712,397.46148429997265,397.9622311000712,397.46148429997265,397.9622311000712,397.46148429997265,397.9622311000712,397.46148429997265,397.9622311000712,396.54346299997997,None,397.9622311000712,399.4144490000326,0.9300000000000006,399.4308749999618,None,400.18305960006546,None,,,,,,,[1.45126761],2.8500000000000023,0.7464788732394366,11014,002,2024_Jan_04_1602,MFTM_A_new1021,2021.2.3,60.06594041599482,
,,,,,,,,stim/Instruction_adaptive.png,conditions/adaptive.xlsx,test,-0.6,-0.6,-0.6,0.6,0.6,left,L,,,,,0,1,1,1,0,71,71,71,,,,,,,,,,,,,,,,,,,,,,,,,,,,,,,,,,,,,,,,,,,,400.68361690000165,None,left,1,1.1691651999717578,401.18372269999236,402.6029400000116,401.18372269999236,402.10189070005435,401.18372269999236,402.10189070005435,401.18372269999236,402.10189070005435,401.18372269999236,402.10189070005435,401.18372269999236,402.10189070005435,402.0850761999609,402.5869733999716,402.0850761999609,402.5869733999716,402.0850761999609,402.5869733999716,402.0850761999609,402.5869733999716,402.0850761999609,402.5869733999716,402.0850761999609,402.5869733999716,402.0850761999609,402.5869733999716,402.0850761999609,402.5869733999716,401.18372269999236,None,402.5869733999716,None,0.9100000000000006,404.05488890002016,None,404.80587000004016,None,,,,,,,[1.45319444],2.870000000000002,0.75,11014,002,2024_Jan_04_1602,MFTM_A_new1021,2021.2.3,60.06594041599482,
,,,,,,,,stim/Instruction_adaptive.png,conditions/adaptive.xlsx,test,-0.6,-0.6,-0.6,0.6,0.6,left,L,,,,,0,1,1,1,0,72,72,27,,,,,,,,,,,,,,,,,,,,,,,,,,,,,,,,,,,,,,,,,,,,405.3073707000585,None,left,1,1.0982543000718579,405.8073742999695,407.20997800002806,405.8073742999695,406.70866010000464,405.8073742999695,406.70866010000464,405.8073742999695,406.70866010000464,405.8073742999695,406.70866010000464,405.8073742999695,406.70866010000464,406.69190289999824,407.19303399999626,406.69190289999824,407.19303399999626,406.69190289999824,407.19303399999626,406.69190289999824,407.19303399999626,406.69190289999824,407.19303399999626,406.69190289999824,407.19303399999626,406.69190289999824,407.19303399999626,406.69190289999824,407.19303399999626,405.8073742999695,None,407.19303399999626,None,0.9000000000000006,408.6614180000033,None,409.4126889000181,None,,,,,,,[1.45520548],2.900000000000002,0.7534246575342466,11014,002,2024_Jan_04_1602,MFTM_A_new1021,2021.2.3,60.06594041599482,
,,,,,,,,stim/Instruction_adaptive.png,conditions/adaptive.xlsx,test,-0.6,-0.6,-0.6,0.6,0.6,left,L,,,,,0,1,1,1,0,73,73,79,,,,,,,,,,,,,,,,,,,,,,,,,,,,,,,,,,,,,,,,,,,,409.9134484999813,None,left,1,1.3949097000295296,410.41421840002295,411.7997037000023,410.41421840002295,411.2988469999982,410.41421840002295,411.2988469999982,410.41421840002295,411.2988469999982,410.41421840002295,411.2988469999982,410.41421840002295,411.2988469999982,411.28291349997744,411.783142899978,411.28291349997744,411.783142899978,411.28291349997744,411.783142899978,411.28291349997744,411.783142899978,411.28291349997744,411.783142899978,411.28291349997744,411.783142899978,411.28291349997744,411.783142899978,411.28291349997744,411.783142899978,410.41421840002295,None,411.783142899978,None,0.8800000000000006,413.25166529999115,None,414.003594800015,None,,,,,,,[1.45743243],2.920000000000002,0.7567567567567568,11014,002,2024_Jan_04_1602,MFTM_A_new1021,2021.2.3,60.06594041599482,
,,,,,,,,stim/Instruction_adaptive.png,conditions/adaptive.xlsx,test,0.6,0.6,0.6,-0.6,-0.6,right,R,,,,,0,1,1,1,0,74,74,24,,,,,,,,,,,,,,,,,,,,,,,,,,,,,,,,,,,,,,,,,,,,414.5042032999918,None,right,1,2.2373165000462905,415.0042303999653,416.38959100004286,415.0042303999653,415.8896928000031,415.0042303999653,415.8896928000031,415.0042303999653,415.8896928000031,415.0042303999653,415.8896928000031,415.0042303999653,415.8896928000031,415.85549300001003,416.3564037999604,415.85549300001003,416.3564037999604,415.85549300001003,416.3564037999604,415.85549300001003,416.3564037999604,415.85549300001003,416.3564037999604,415.85549300001003,416.3564037999604,415.85549300001003,416.3564037999604,415.85549300001003,416.3564037999604,415.0042303999653,None,416.3564037999604,417.8258779000025,0.8700000000000006,417.8420474999584,None,418.5937334999908,None,,,,,,,[1.45973333],2.950000000000002,0.76,11014,002,2024_Jan_04_1602,MFTM_A_new1021,2021.2.3,60.06594041599482,
,,,,,,,,stim/Instruction_adaptive.png,conditions/adaptive.xlsx,test,-0.6,-0.6,-0.6,0.6,0.6,left,L,,,,,0,1,1,1,0,75,75,69,,,,,,,,,,,,,,,,,,,,,,,,,,,,,,,,,,,,,,,,,,,,419.09417210007086,None,right,0,1.7266654999693856,419.5944197999779,420.9462898999918,419.5944197999779,420.44630559999496,419.5944197999779,420.44630559999496,419.5944197999779,420.44630559999496,419.5944197999779,420.44630559999496,419.5944197999779,420.44630559999496,420.4290467000101,420.93040219997056,420.4290467000101,420.93040219997056,420.4290467000101,420.93040219997056,420.4290467000101,420.93040219997056,420.4290467000101,420.93040219997056,420.4290467000101,420.93040219997056,420.4290467000101,420.93040219997056,420.4290467000101,420.93040219997056,419.5944197999779,None,420.93040219997056,422.3984769000672,0.8500000000000005,422.4152807999635,None,423.1664079000475,None,,,,,,,[1.46223684],2.880000000000002,0.75,11014,002,2024_Jan_04_1602,MFTM_A_new1021,2021.2.3,60.06594041599482,
,,,,,,,,stim/Instruction_adaptive.png,conditions/adaptive.xlsx,test,0.6,0.6,0.6,-0.6,-0.6,right,R,,,,,0,1,1,1,0,76,76,50,,,,,,,,,,,,,,,,,,,,,,,,,,,,,,,,,,,,,,,,,,,,423.66733009996824,None,right,1,1.5851950999349356,424.168497000006,425.57122769998387,424.168497000006,425.0691657999996,424.168497000006,425.0691657999996,424.168497000006,425.0691657999996,424.168497000006,425.0691657999996,424.168497000006,425.0691657999996,425.0357203000458,425.53649580001365,425.0357203000458,425.53649580001365,425.0357203000458,425.53649580001365,425.0357203000458,425.53649580001365,425.0357203000458,425.53649580001365,425.0357203000458,425.53649580001365,425.0357203000458,425.53649580001365,425.0357203000458,425.53649580001365,424.168497000006,None,425.53649580001365,427.0052735999925,0.8900000000000006,427.02207750000525,None,427.77364230004605,None,,,,,,,[1.46415584],2.900000000000002,0.7532467532467533,11014,002,2024_Jan_04_1602,MFTM_A_new1021,2021.2.3,60.06594041599482,
,,,,,,,,stim/Instruction_adaptive.png,conditions/adaptive.xlsx,test,0.6,0.6,0.6,-0.6,-0.6,right,R,,,,,0,1,1,1,0,77,77,80,,,,,,,,,,,,,,,,,,,,,,,,,,,,,,,,,,,,,,,,,,,,428.27393310004845,None,right,1,1.314198499894701,428.7753386000404,430.16005830001086,428.7753386000404,429.66020240006037,428.7753386000404,429.66020240006037,428.7753386000404,429.66020240006037,428.7753386000404,429.66020240006037,428.7753386000404,429.66020240006037,429.6424452000065,430.1447907000547,429.6424452000065,430.1447907000547,429.6424452000065,430.1447907000547,429.6424452000065,430.1447907000547,429.6424452000065,430.1447907000547,429.6424452000065,430.1447907000547,429.6424452000065,430.1447907000547,429.6424452000065,430.1447907000547,428.7753386000404,None,430.1447907000547,431.6122480999911,0.8800000000000006,431.62956040003337,None,432.38026550004724,None,,,,,,,[1.46615385],2.920000000000002,0.7564102564102564,11014,002,2024_Jan_04_1602,MFTM_A_new1021,2021.2.3,60.06594041599482,
,,,,,,,,stim/Instruction_adaptive.png,conditions/adaptive.xlsx,test,-0.6,-0.6,-0.6,0.6,0.6,left,L,,,,,0,1,1,1,0,78,78,63,,,,,,,,,,,,,,,,,,,,,,,,,,,,,,,,,,,,,,,,,,,,432.88080340006854,None,left,1,1.05150279996451,433.3816710000392,434.7512361999834,433.3816710000392,434.26684349996503,433.3816710000392,434.26684349996503,433.3816710000392,434.26684349996503,433.3816710000392,434.26684349996503,433.3816710000392,434.26684349996503,434.2328048000345,434.7342381000053,434.2328048000345,434.7342381000053,434.2328048000345,434.7342381000053,434.2328048000345,434.7342381000053,434.2328048000345,434.7342381000053,434.2328048000345,434.7342381000053,434.2328048000345,434.7342381000053,434.2328048000345,434.7342381000053,433.3816710000392,None,434.7342381000053,436.20239860005677,0.8700000000000006,436.2189691000385,None,436.97027429996524,None,,,,,,,[1.46822785],2.950000000000002,0.759493670886076,11014,002,2024_Jan_04_1602,MFTM_A_new1021,2021.2.3,60.06594041599482,
,,,,,,,,stim/Instruction_adaptive.png,conditions/adaptive.xlsx,test,-0.6,-0.6,-0.6,0.6,0.6,left,L,,,,,0,1,1,1,0,79,79,23,,,,,,,,,,,,,,,,,,,,,,,,,,,,,,,,,,,,,,,,,,,,437.47146440006327,None,left,1,1.0442170000169426,437.97286099998746,439.32358690002,437.97286099998746,438.82354570005555,437.97286099998746,438.82354570005555,437.97286099998746,438.82354570005555,437.97286099998746,438.82354570005555,437.97286099998746,438.82354570005555,438.80655330000445,439.3070114000002,438.80655330000445,439.3070114000002,438.80655330000445,439.3070114000002,438.80655330000445,439.3070114000002,438.80655330000445,439.3070114000002,438.80655330000445,439.3070114000002,438.80655330000445,439.3070114000002,438.80655330000445,439.3070114000002,437.97286099998746,None,439.3070114000002,None,0.8500000000000005,440.7929022000171,None,441.5439467000542,None,,,,,,,[1.4705],2.9700000000000024,0.7625,11014,002,2024_Jan_04_1602,MFTM_A_new1021,2021.2.3,60.06594041599482,
,,,,,,,,stim/Instruction_adaptive.png,conditions/adaptive.xlsx,test,-0.6,-0.6,-0.6,0.6,0.6,left,L,,,,,0,1,1,1,0,80,80,89,,,,,,,,,,,,,,,,,,,,,,,,,,,,,,,,,,,,,,,,,,,,442.04443560005166,None,right,0,1.3123131000902504,442.5449038000079,443.8971152000595,442.5449038000079,443.3962811999954,442.5449038000079,443.3962811999954,442.5449038000079,443.3962811999954,442.5449038000079,443.3962811999954,442.5449038000079,443.3962811999954,443.3629316999577,443.8635789999971,443.3629316999577,443.8635789999971,443.3629316999577,443.8635789999971,443.3629316999577,443.8635789999971,443.3629316999577,443.8635789999971,443.3629316999577,443.8635789999971,443.3629316999577,443.8635789999971,443.3629316999577,443.8635789999971,442.5449038000079,None,443.8635789999971,445.34920820000116,0.8400000000000005,445.36620110005606,None,446.1177674999926,None,,,,,,,[1.47283951],2.900000000000002,0.7530864197530864,11014,002,2024_Jan_04_1602,MFTM_A_new1021,2021.2.3,60.06594041599482,
,,,,,,,,stim/Instruction_adaptive.png,conditions/adaptive.xlsx,test,-0.6,-0.6,-0.6,0.6,0.6,left,L,,,,,0,1,1,1,0,81,81,47,,,,,,,,,,,,,,,,,,,,,,,,,,,,,,,,,,,,,,,,,,,,446.61778820003383,None,left,1,1.56197899999097,447.1191581999883,448.5039650000399,447.1191581999883,448.0033348000143,447.1191581999883,448.0033348000143,447.1191581999883,448.0033348000143,447.1191581999883,448.0033348000143,447.1191581999883,448.0033348000143,447.9871412999928,448.4872442999622,447.9871412999928,448.4872442999622,447.9871412999928,448.4872442999622,447.9871412999928,448.4872442999622,447.9871412999928,448.4872442999622,447.9871412999928,448.4872442999622,447.9871412999928,448.4872442999622,447.9871412999928,448.4872442999622,447.1191581999883,None,448.4872442999622,None,0.8800000000000006,449.97265100001823,None,450.72449100005906,None,,,,,,,[1.47463415],2.9300000000000024,0.7560975609756098,11014,002,2024_Jan_04_1602,MFTM_A_new1021,2021.2.3,60.06594041599482,
,,,,,,,,stim/Instruction_adaptive.png,conditions/adaptive.xlsx,test,0.6,0.6,0.6,-0.6,-0.6,right,R,,,,,0,1,1,1,0,82,82,52,,,,,,,,,,,,,,,,,,,,,,,,,,,,,,,,,,,,,,,,,,,,451.2247933000326,None,left,0,1.1079729000339285,451.72537850006483,453.09400909999385,451.72537850006483,452.59402439999394,451.72537850006483,452.59402439999394,451.72537850006483,452.59402439999394,451.72537850006483,452.59402439999394,451.72537850006483,452.59402439999394,452.5775899,453.07736400002614,452.5775899,453.07736400002614,452.5775899,453.07736400002614,452.5775899,453.07736400002614,452.5775899,453.07736400002614,452.5775899,453.07736400002614,452.5775899,453.07736400002614,452.5775899,453.07736400002614,451.72537850006483,None,453.07736400002614,None,0.8600000000000005,454.5628618999617,None,455.31399759999476,None,,,,,,,[1.47662651],2.860000000000002,0.7469879518072289,11014,002,2024_Jan_04_1602,MFTM_A_new1021,2021.2.3,60.06594041599482,
,,,,,,,,stim/Instruction_adaptive.png,conditions/adaptive.xlsx,test,0.6,0.6,0.6,-0.6,-0.6,right,R,,,,,0,1,1,1,0,83,83,20,,,,,,,,,,,,,,,,,,,,,,,,,,,,,,,,,,,,,,,,,,,,455.8154450999573,None,right,1,1.0615745999384671,456.31544010003563,457.73417670000345,456.31544010003563,457.23468480003066,456.31544010003563,457.23468480003066,456.31544010003563,457.23468480003066,456.31544010003563,457.23468480003066,456.31544010003563,457.23468480003066,457.20000950002577,457.7021533000516,457.20000950002577,457.7021533000516,457.20000950002577,457.7021533000516,457.20000950002577,457.7021533000516,457.20000950002577,457.7021533000516,457.20000950002577,457.7021533000516,457.20000950002577,457.7021533000516,457.20000950002577,457.7021533000516,456.31544010003563,None,457.7021533000516,459.1864680000581,0.9100000000000006,459.2030984000303,None,459.9544134000316,None,,,,,,,[1.47797619],2.880000000000002,0.75,11014,002,2024_Jan_04_1602,MFTM_A_new1021,2021.2.3,60.06594041599482,
,,,,,,,,stim/Instruction_adaptive.png,conditions/adaptive.xlsx,test,-0.6,-0.6,-0.6,0.6,0.6,left,L,,,,,0,1,1,1,0,84,84,11,,,,,,,,,,,,,,,,,,,,,,,,,,,,,,,,,,,,,,,,,,,,460.4557886000257,None,right,0,1.6774871000088751,460.9556411000667,462.35758810001425,460.9556411000667,461.8574359000195,460.9556411000667,461.8574359000195,460.9556411000667,461.8574359000195,460.9556411000667,461.8574359000195,460.9556411000667,461.8574359000195,461.8236875999719,462.32505720003974,461.8236875999719,462.32505720003974,461.8236875999719,462.32505720003974,461.8236875999719,462.32505720003974,461.8236875999719,462.32505720003974,461.8236875999719,462.32505720003974,461.8236875999719,462.32505720003974,461.8236875999719,462.32505720003974,460.9556411000667,None,462.32505720003974,463.8103461000137,0.8900000000000006,463.8263792999787,None,464.5776493999874,None,,,,,,,[1.47952941],2.820000000000002,0.7411764705882353,11014,002,2024_Jan_04_1602,MFTM_A_new1021,2021.2.3,60.06594041599482,
,,,,,,,,stim/Instruction_adaptive.png,conditions/adaptive.xlsx,test,-0.6,-0.6,-0.6,0.6,0.6,left,L,,,,,0,1,1,1,0,85,85,73,,,,,,,,,,,,,,,,,,,,,,,,,,,,,,,,,,,,,,,,,,,,465.0787860000273,None,right,0,1.1256997999735177,465.57922730001155,467.0149277000455,465.57922730001155,466.5139495000476,465.57922730001155,466.5139495000476,465.57922730001155,466.5139495000476,465.57922730001155,466.5139495000476,465.57922730001155,466.5139495000476,466.4973900000332,466.9981837000232,466.4973900000332,466.9981837000232,466.4973900000332,466.9981837000232,466.4973900000332,466.9981837000232,466.4973900000332,466.9981837000232,466.4973900000332,466.9981837000232,466.4973900000332,466.9981837000232,466.4973900000332,466.9981837000232,465.57922730001155,None,466.9981837000232,468.484185700072,0.9300000000000006,468.50017580005806,None,469.2524830000475,None,,,,,,,[1.4805814],2.7500000000000018,0.7325581395348837,11014,002,2024_Jan_04_1602,MFTM_A_new1021,2021.2.3,60.06594041599482,
,,,,,,,,stim/Instruction_adaptive.png,conditions/adaptive.xlsx,test,-0.6,-0.6,-0.6,0.6,0.6,left,L,,,,,0,1,1,1,0,86,86,53,,,,,,,,,,,,,,,,,,,,,,,,,,,,,,,,,,,,,,,,,,,,469.7524298999924,None,left,1,1.7879355000331998,470.2531144999666,471.7396740000695,470.2531144999666,471.2379134000512,470.2531144999666,471.2379134000512,470.2531144999666,471.2379134000512,470.2531144999666,471.2379134000512,470.2531144999666,471.2379134000512,471.2214617000427,471.7214963999577,471.2214617000427,471.7214963999577,471.2214617000427,471.7214963999577,471.2214617000427,471.7214963999577,471.2214617000427,471.7214963999577,471.2214617000427,471.7214963999577,471.2214617000427,471.7214963999577,471.2214617000427,471.7214963999577,470.2531144999666,None,471.7214963999577,473.2083438000409,0.9800000000000006,473.2236520999577,None,473.9759452000726,None,,,,,,,[1.48103448],2.7700000000000022,0.735632183908046,11014,002,2024_Jan_04_1602,MFTM_A_new1021,2021.2.3,60.06594041599482,
,,,,,,,,stim/Instruction_adaptive.png,conditions/adaptive.xlsx,test,0.6,0.6,0.6,-0.6,-0.6,right,R,,,,,0,1,1,1,0,87,87,6,,,,,,,,,,,,,,,,,,,,,,,,,,,,,,,,,,,,,,,,,,,,474.47658390004653,None,left,0,1.8247827999293804,474.9764601000352,476.44527849997394,474.9764601000352,475.9448696000036,474.9764601000352,475.9448696000036,474.9764601000352,475.9448696000036,474.9764601000352,475.9448696000036,474.9764601000352,475.9448696000036,475.9111208000686,476.412406599964,475.9111208000686,476.412406599964,475.9111208000686,476.412406599964,475.9111208000686,476.412406599964,475.9111208000686,476.412406599964,475.9111208000686,476.412406599964,475.9111208000686,476.412406599964,475.9111208000686,476.412406599964,474.9764601000352,None,476.4286902999738,477.9152378999861,0.9600000000000006,477.9486819000449,None,478.69949570007157,None,,,,,,,[1.48170455],2.700000000000002,0.7272727272727273,11014,002,2024_Jan_04_1602,MFTM_A_new1021,2021.2.3,60.06594041599482,
,,,,,,,,stim/Instruction_adaptive.png,conditions/adaptive.xlsx,test,0.6,0.6,0.6,-0.6,-0.6,right,R,,,,,0,1,1,1,0,88,88,76,,,,,,,,,,,,,,,,,,,,,,,,,,,,,,,,,,,,,,,,,,,,479.19967110001016,None,right,1,1.2210315000265837,479.70021240005735,481.2190457000397,479.70021240005735,480.71816749998834,479.70021240005735,480.71816749998834,479.70021240005735,480.71816749998834,479.70021240005735,480.71816749998834,479.70021240005735,480.71816749998834,480.6854058000026,481.18564280006103,480.6854058000026,481.18564280006103,480.6854058000026,481.18564280006103,480.6854058000026,481.18564280006103,480.6854058000026,481.18564280006103,480.6854058000026,481.18564280006103,480.6854058000026,481.18564280006103,480.6854058000026,481.18564280006103,479.70021240005735,None,481.18564280006103,482.6731917000143,1.0100000000000007,482.7043548000511,None,483.4558235000586,None,,,,,,,[1.48179775],2.730000000000002,0.7303370786516854,11014,002,2024_Jan_04_1602,MFTM_A_new1021,2021.2.3,60.06594041599482,
,,,,,,,,stim/Instruction_adaptive.png,conditions/adaptive.xlsx,test,0.6,0.6,0.6,-0.6,-0.6,right,R,,,,,0,1,1,1,0,89,89,36,,,,,,,,,,,,,,,,,,,,,,,,,,,,,,,,,,,,,,,,,,,,483.9565379000269,None,right,1,1.4962919000536203,484.45723419997375,485.96013949997723,484.45723419997375,485.4594658999704,484.45723419997375,485.4594658999704,484.45723419997375,485.4594658999704,484.45723419997375,485.4594658999704,484.45723419997375,485.4594658999704,485.4266149000032,485.92663160001393,485.4266149000032,485.92663160001393,485.4266149000032,485.92663160001393,485.4266149000032,485.92663160001393,485.4266149000032,485.92663160001393,485.4266149000032,485.92663160001393,485.4266149000032,485.92663160001393,485.4266149000032,485.92663160001393,484.45723419997375,None,485.92663160001393,487.411940400023,0.9900000000000007,487.4287103000097,None,488.1793718000408,None,,,,,,,[1.48211111],2.7500000000000018,0.7333333333333333,11014,002,2024_Jan_04_1602,MFTM_A_new1021,2021.2.3,60.06594041599482,
,,,,,,,,stim/Instruction_adaptive.png,conditions/adaptive.xlsx,test,0.6,0.6,0.6,-0.6,-0.6,right,R,,,,,0,1,1,1,0,90,90,4,,,,,,,,,,,,,,,,,,,,,,,,,,,,,,,,,,,,,,,,,,,,488.6809920000378,None,right,1,1.2362368000904098,489.1809599000262,490.6663506999612,489.1809599000262,490.1659566999879,489.1809599000262,490.1659566999879,489.1809599000262,490.1659566999879,489.1809599000262,490.1659566999879,489.1809599000262,490.1659566999879,490.1488346999977,490.6497589000501,490.1488346999977,490.6497589000501,490.1488346999977,490.6497589000501,490.1488346999977,490.6497589000501,490.1488346999977,490.6497589000501,490.1488346999977,490.6497589000501,490.1488346999977,490.6497589000501,490.1488346999977,490.6497589000501,489.1809599000262,None,490.6497589000501,492.1355327999918,0.9800000000000006,492.15187770000193,None,492.90326210006606,None,,,,,,,[1.48252747],2.7700000000000022,0.7362637362637363,11014,002,2024_Jan_04_1602,MFTM_A_new1021,2021.2.3,60.06594041599482,
,,,,,,,,stim/Instruction_adaptive.png,conditions/adaptive.xlsx,test,0.6,0.6,0.6,-0.6,-0.6,right,R,,,,,0,1,1,1,0,91,91,70,,,,,,,,,,,,,,,,,,,,,,,,,,,,,,,,,,,,,,,,,,,,493.40516560000833,None,right,1,0.9848203000146896,493.90439659997355,495.37421340006404,493.90439659997355,494.8733609999763,493.90439659997355,494.8733609999763,493.90439659997355,494.8733609999763,493.90439659997355,494.8733609999763,493.90439659997355,494.8733609999763,494.8394008000614,495.34070339996833,494.8394008000614,495.34070339996833,494.8394008000614,495.34070339996833,494.8394008000614,495.34070339996833,494.8394008000614,495.34070339996833,494.8394008000614,495.34070339996833,494.8394008000614,495.34070339996833,494.8394008000614,495.34070339996833,493.90439659997355,None,495.34070339996833,496.8261342999758,0.9600000000000006,496.85886619996745,None,497.61086380004417,None,,,,,,,[1.48315217],2.790000000000002,0.7391304347826086,11014,002,2024_Jan_04_1602,MFTM_A_new1021,2021.2.3,60.06594041599482,
,,,,,,,,stim/Instruction_adaptive.png,conditions/adaptive.xlsx,test,-0.6,-0.6,-0.6,0.6,0.6,left,L,,,,,0,1,1,1,0,92,92,13,,,,,,,,,,,,,,,,,,,,,,,,,,,,,,,,,,,,,,,,,,,,498.11152979999315,None,right,0,1.9498945000814274,498.61157199996524,500.06364159996156,498.61157199996524,499.56282540003303,498.61157199996524,499.56282540003303,498.61157199996524,499.56282540003303,498.61157199996524,499.56282540003303,498.61157199996524,499.56282540003303,499.54670419998,500.0469804999884,499.54670419998,500.0469804999884,499.54670419998,500.0469804999884,499.54670419998,500.0469804999884,499.54670419998,500.0469804999884,499.54670419998,500.0469804999884,499.54670419998,500.0469804999884,499.54670419998,500.0469804999884,498.61157199996524,None,500.0469804999884,501.53304600005504,0.9500000000000006,501.54871600004844,None,502.30038969998714,None,,,,,,,[1.48387097],2.730000000000002,0.7311827956989247,11014,002,2024_Jan_04_1602,MFTM_A_new1021,2021.2.3,60.06594041599482,
,,,,,,,,stim/Instruction_adaptive.png,conditions/adaptive.xlsx,test,0.6,0.6,0.6,-0.6,-0.6,right,R,,,,,0,1,1,1,0,93,93,40,,,,,,,,,,,,,,,,,,,,,,,,,,,,,,,,,,,,,,,,,,,,502.8012156999903,None,right,1,1.3873037999728695,503.30187450000085,504.80405839998275,503.30187450000085,504.3033497000579,503.30187450000085,504.3033497000579,503.30187450000085,504.3033497000579,503.30187450000085,504.3033497000579,503.30187450000085,504.3033497000579,504.26997250004206,504.7705806000158,504.26997250004206,504.7705806000158,504.26997250004206,504.7705806000158,504.26997250004206,504.7705806000158,504.26997250004206,504.7705806000158,504.26997250004206,504.7705806000158,504.26997250004206,504.7705806000158,504.26997250004206,504.7705806000158,503.30187450000085,None,504.7705806000158,506.2562584000407,0.9900000000000007,506.2900879000081,None,507.04138569999486,None,,,,,,,[1.48414894],2.7500000000000018,0.7340425531914894,11014,002,2024_Jan_04_1602,MFTM_A_new1021,2021.2.3,60.06594041599482,
