arrwidth1,arrwidth2,arrwidth3,arrwidth4,arrwidth5,keyb,type,orientation,instruction_image,block_filename,block_type,arrow11,arrow22,arrow33,arrow44,arrow55,keyb_3,orientation3,trials.thisRepN,trials.thisTrialN,trials.thisN,trials.thisIndex,trials_3.thisRepN,trials_3.thisTrialN,trials_3.thisN,trials_3.thisIndex,trials_2.thisRepN,trials_2.thisTrialN,trials_2.thisN,trials_2.thisIndex,welcome.started,welcome.stopped,key_resp.keys,key_resp.rt,key_resp.started,key_resp.stopped,instruction_example.started,instruction_example.stopped,key_resp_3.keys,key_resp_3.rt,key_resp_3.started,key_resp_3.stopped,instruction_task.started,instruction_task.stopped,key_resp_2.keys,key_resp_2.rt,key_resp_2.started,key_resp_2.stopped,text_2.started,text_2.stopped,A1.started,A1.stopped,A2.started,A2.stopped,A3.started,A3.stopped,A4.started,A4.stopped,A5.started,A5.stopped,key_resp_4.keys,key_resp_4.corr,key_resp_4.rt,key_resp_4.started,key_resp_4.stopped,fb.started,fb.stopped,instruction_block.started,instruction_block.stopped,key_resp_8.keys,key_resp_8.rt,key_resp_8.started,key_resp_8.stopped,text_8.started,text_8.stopped,key_resp_9.keys,key_resp_9.corr,key_resp_9.rt,text_5.started,text_5.stopped,A11_3.started,A11_3.stopped,A22_2.started,A22_2.stopped,A33_2.started,A33_2.stopped,A44_2.started,A44_2.stopped,A55_2.started,A55_2.stopped,M1_3.started,M1_3.stopped,M2_2.started,M2_2.stopped,M3_2.started,M3_2.stopped,M4_2.started,M4_2.stopped,M5_2.started,M5_2.stopped,M6_2.started,M6_2.stopped,M7_2.started,M7_2.stopped,M8_2.started,M8_2.stopped,key_resp_9.started,key_resp_9.stopped,fixation.started,fixation.stopped,ET,fb_3.started,fb_3.stopped,text_9.started,text_9.stopped,fb_4.started,fb_4.stopped,text_7.started,text_7.stopped,endtext.started,endtext.stopped,fixation_ITI,CCC,Acc,participant,session,date,expName,psychopyVersion,frameRate,
,,,,,,,,,,,,,,,,,,,,,,,,,,,,,,18.022439699969254,None,return,3.275922900007572,18.022439699969254,None,,,,,,,,,,,,,,,,,,,,,,,,,,,,,,,,,,,,,,,,,,,,,,,,,,,,,,,,,,,,,,,,,,,,,,,,,,,,,,,,,,,,,,,,,11012,001,2024_Jan_02_1107,MFTM_A_new1021,2021.2.3,59.80750357232887,
,,,,,,,,,,,,,,,,,,,,,,,,,,,,,,,,,,,,21.327223100000992,None,right,28.378606700047385,21.327223100000992,None,,,,,,,,,,,,,,,,,,,,,,,,,,,,,,,,,,,,,,,,,,,,,,,,,,,,,,,,,,,,,,,,,,,,,,,,,,,,,,,,,,,11012,001,2024_Jan_02_1107,MFTM_A_new1021,2021.2.3,59.80750357232887,
,,,,,,,,,,,,,,,,,,,,,,,,,,,,,,,,,,,,,,,,,,49.73581759998342,None,right,9.186821599956602,49.73581759998342,None,,,,,,,,,,,,,,,,,,,,,,,,,,,,,,,,,,,,,,,,,,,,,,,,,,,,,,,,,,,,,,,,,,,,,,,,,,,,,11012,001,2024_Jan_02_1107,MFTM_A_new1021,2021.2.3,59.80750357232887,
-0.6,-0.6,-0.6,0.6,0.6,left,3:2,L,,,,,,,,,,,0,0,0,1,,,,,,,,,,,,,,,,,,,,,,,,,,,58.968052199983504,None,58.968052199983504,None,58.968052199983504,None,58.968052199983504,None,58.968052199983504,None,58.968052199983504,None,right,0,2.2347533999709412,58.968052199983504,None,61.23797740001464,None,,,,,,,,,,,,,,,,,,,,,,,,,,,,,,,,,,,,,,,,,,,,,,,,,,,,,,,,,,11012,001,2024_Jan_02_1107,MFTM_A_new1021,2021.2.3,59.80750357232887,
0.6,0.6,0.6,-0.6,-0.6,right,3:2,R,,,,,,,,,,,0,1,1,0,,,,,,,,,,,,,,,,,,,,,,,,,,,61.98822629998904,None,61.98822629998904,None,61.98822629998904,None,61.98822629998904,None,61.98822629998904,None,61.98822629998904,None,right,1,7.637878599984106,61.98822629998904,None,69.64880399999674,None,,,,,,,,,,,,,,,,,,,,,,,,,,,,,,,,,,,,,,,,,,,,,,,,,,,,,,,,,,11012,001,2024_Jan_02_1107,MFTM_A_new1021,2021.2.3,59.80750357232887,
-0.6,-0.6,-0.6,0.6,0.6,left,3:2,L,,,,,,,,,,,1,0,2,1,,,,,,,,,,,,,,,,,,,,,,,,,,,70.39996800001245,None,70.39996800001245,None,70.39996800001245,None,70.39996800001245,None,70.39996800001245,None,70.39996800001245,None,left,1,2.2818877999670804,70.39996800001245,None,72.70331269997405,None,,,,,,,,,,,,,,,,,,,,,,,,,,,,,,,,,,,,,,,,,,,,,,,,,,,,,,,,,,11012,001,2024_Jan_02_1107,MFTM_A_new1021,2021.2.3,59.80750357232887,
0.6,0.6,0.6,-0.6,-0.6,right,3:2,R,,,,,,,,,,,1,1,3,0,,,,,,,,,,,,,,,,,,,,,,,,,,,73.45517319999635,None,73.45517319999635,None,73.45517319999635,None,73.45517319999635,None,73.45517319999635,None,73.45517319999635,None,right,1,2.098930999985896,73.45517319999635,None,75.57421599997906,None,,,,,,,,,,,,,,,,,,,,,,,,,,,,,,,,,,,,,,,,,,,,,,,,,,,,,,,,,,11012,001,2024_Jan_02_1107,MFTM_A_new1021,2021.2.3,59.80750357232887,
,,,,,,,,stim/Instruction_mask.png,conditions/adaptive.xlsx,practice,0.6,0.6,0.6,-0.6,-0.6,right,R,,,,,0,0,0,0,0,0,0,60,,,,,,,,,,,,,,,,,,,,,,,,,,,,,,,,,,,,,,76.54147669998929,None,right,67.39772250002716,76.54147669998929,None,144.04294660000596,None,right,1,2.822365499974694,144.47642909997376,None,144.47642909997376,147.48128209996503,144.47642909997376,147.48128209996503,144.47642909997376,147.48128209996503,144.47642909997376,147.48128209996503,144.47642909997376,147.48128209996503,147.46545580000384,147.96596780000255,147.46545580000384,147.96596780000255,147.46545580000384,147.96596780000255,147.46545580000384,147.96596780000255,147.46545580000384,147.96596780000255,147.46545580000384,147.96596780000255,147.46545580000384,147.96596780000255,147.46545580000384,147.96596780000255,144.47642909997376,None,147.96596780000255,147.96596780000255,3,147.98146340000676,None,148.73252089996822,None,,,,,,,,,,11012,001,2024_Jan_02_1107,MFTM_A_new1021,2021.2.3,59.80750357232887,
,,,,,,,,stim/Instruction_mask.png,conditions/adaptive.xlsx,practice,0.6,0.6,0.6,-0.6,-0.6,right,R,,,,,0,0,0,0,0,1,1,8,,,,,,,,,,,,,,,,,,,,,,,,,,,,,,,,,,,,,,,,,,,,149.2335674999631,None,right,1,1.8838176000281237,149.73473649995867,151.7378747999901,149.73473649995867,151.23675039998489,149.73473649995867,151.23675039998489,149.73473649995867,151.23675039998489,149.73473649995867,151.23675039998489,149.73473649995867,151.23675039998489,151.22039579995908,151.7204456999898,151.22039579995908,151.7204456999898,151.22039579995908,151.7204456999898,151.22039579995908,151.7204456999898,151.22039579995908,151.7204456999898,151.22039579995908,151.7204456999898,151.22039579995908,151.7204456999898,151.22039579995908,151.7204456999898,149.73473649995867,None,151.7204456999898,153.22348139999667,1.5,153.24032230000012,None,153.99128640000708,None,,,,,,,,,,11012,001,2024_Jan_02_1107,MFTM_A_new1021,2021.2.3,59.80750357232887,
,,,,,,,,stim/Instruction_mask.png,conditions/adaptive.xlsx,practice,-0.6,-0.6,-0.6,0.6,0.6,left,L,,,,,0,0,0,0,0,2,2,19,,,,,,,,,,,,,,,,,,,,,,,,,,,,,,,,,,,,,,,,,,,,154.49123400001554,None,left,1,2.0253131999634206,154.9928210999933,156.29463899997063,154.9928210999933,155.79373129998567,154.9928210999933,155.79373129998567,154.9928210999933,155.79373129998567,154.9928210999933,155.79373129998567,154.9928210999933,155.79373129998567,155.77651100000367,156.27853469998809,155.77651100000367,156.27853469998809,155.77651100000367,156.27853469998809,155.77651100000367,156.27853469998809,155.77651100000367,156.27853469998809,155.77651100000367,156.27853469998809,155.77651100000367,156.27853469998809,155.77651100000367,156.27853469998809,154.9928210999933,None,156.27853469998809,158.4813725000131,0.8,158.49832959997002,None,159.2495368999662,None,,,,,,,,,,11012,001,2024_Jan_02_1107,MFTM_A_new1021,2021.2.3,59.80750357232887,
,,,,,,,,stim/Instruction_mask.png,conditions/adaptive.xlsx,practice,0.6,0.6,0.6,-0.6,-0.6,right,R,,,,,0,0,0,0,0,3,3,66,,,,,,,,,,,,,,,,,,,,,,,,,,,,,,,,,,,,,,,,,,,,159.74973189999582,None,left,0,1.2722068000002764,160.2503789999755,161.00171979999868,160.2503789999755,160.50114269996993,160.2503789999755,160.50114269996993,160.2503789999755,160.50114269996993,160.2503789999755,160.50114269996993,160.2503789999755,160.50114269996993,160.4833895000047,160.98514669999713,160.4833895000047,160.98514669999713,160.4833895000047,160.98514669999713,160.4833895000047,160.98514669999713,160.4833895000047,160.98514669999713,160.4833895000047,160.98514669999713,160.4833895000047,160.98514669999713,160.4833895000047,160.98514669999713,160.2503789999755,None,160.98514669999713,163.73902340000495,3,163.7557237999863,None,164.50687869999092,None,,,,,,,,,,11012,001,2024_Jan_02_1107,MFTM_A_new1021,2021.2.3,59.80750357232887,
,,,,,,,,stim/Instruction_mask.png,conditions/adaptive.xlsx,practice,,,,,,,,,,,,0,0,0,0,,,,,,,,,,,,,,,,,,,,,,,,,,,,,,,,,,,,,,,,,,,,,,,,,,,,,,,,,,,,,,,,,,,,,,,,,,,,,,,,,,,,,,,,,,165.0236881999881,166.02608729997883,165.9924941000063,165.9924941000063,165.9924941000063,None,,,,11012,001,2024_Jan_02_1107,MFTM_A_new1021,2021.2.3,59.80750357232887,
,,,,,,,,stim/Instruction_adaptive.png,conditions/adaptive.xlsx,test,0.6,0.6,0.6,-0.6,-0.6,right,R,,,,,0,1,1,1,0,0,0,74,,,,,,,,,,,,,,,,,,,,,,,,,,,,,,,,,,,,,,169.12978519999888,None,right,40.3446148999501,169.12978519999888,None,209.5054500999977,None,right,1,2.036592299991753,210.00662629998988,None,210.00662629998988,213.01284749998013,210.00662629998988,213.01284749998013,210.00662629998988,213.01284749998013,210.00662629998988,213.01284749998013,210.00662629998988,213.01284749998013,212.99450709996745,213.49636869999813,212.99450709996745,213.49636869999813,212.99450709996745,213.49636869999813,212.99450709996745,213.49636869999813,212.99450709996745,213.49636869999813,212.99450709996745,213.49636869999813,212.99450709996745,213.49636869999813,212.99450709996745,213.49636869999813,210.00662629998988,None,213.49636869999813,213.49636869999813,3,213.51311100000748,None,214.26321979996283,None,,,,,,,0,6.000000000000005,1.0,11012,001,2024_Jan_02_1107,MFTM_A_new1021,2021.2.3,59.80750357232887,
,,,,,,,,stim/Instruction_adaptive.png,conditions/adaptive.xlsx,test,-0.6,-0.6,-0.6,0.6,0.6,left,L,,,,,0,1,1,1,0,1,1,75,,,,,,,,,,,,,,,,,,,,,,,,,,,,,,,,,,,,,,,,,,,,214.76381330000004,None,left,1,1.170221600041259,215.2646904999856,216.01652269996703,215.2646904999856,215.51628149999306,215.2646904999856,215.51628149999306,215.2646904999856,215.51628149999306,215.2646904999856,215.51628149999306,215.2646904999856,215.51628149999306,215.49824719998287,216.0001965999836,215.49824719998287,216.0001965999836,215.49824719998287,216.0001965999836,215.49824719998287,216.0001965999836,215.49824719998287,216.0001965999836,215.49824719998287,216.0001965999836,215.49824719998287,216.0001965999836,215.49824719998287,216.0001965999836,215.2646904999856,None,216.0001965999836,216.88446659996407,0.25,216.90036779997172,None,217.6515359999612,None,,,,,,,[0.875],6.000000000000005,1.0,11012,001,2024_Jan_02_1107,MFTM_A_new1021,2021.2.3,59.80750357232887,
,,,,,,,,stim/Instruction_adaptive.png,conditions/adaptive.xlsx,test,0.6,0.6,0.6,-0.6,-0.6,right,R,,,,,0,1,1,1,0,2,2,88,,,,,,,,,,,,,,,,,,,,,,,,,,,,,,,,,,,,,,,,,,,,218.1529784000013,None,right,1,0.9735693000257015,218.6529661999666,219.40415339998435,218.6529661999666,218.90420719998656,218.6529661999666,218.90420719998656,218.6529661999666,218.90420719998656,218.6529661999666,218.90420719998656,218.6529661999666,218.90420719998656,218.88732499995967,219.38827659998788,218.88732499995967,219.38827659998788,218.88732499995967,219.38827659998788,218.88732499995967,219.38827659998788,218.88732499995967,219.38827659998788,218.88732499995967,219.38827659998788,218.88732499995967,219.38827659998788,218.88732499995967,219.38827659998788,218.6529661999666,None,219.38827659998788,220.72296809998807,0.25,220.7391585999867,None,221.49109839997254,None,,,,,,,[1.33333333],6.000000000000005,1.0,11012,001,2024_Jan_02_1107,MFTM_A_new1021,2021.2.3,59.80750357232887,
,,,,,,,,stim/Instruction_adaptive.png,conditions/adaptive.xlsx,test,0.6,0.6,0.6,-0.6,-0.6,right,R,,,,,0,1,1,1,0,3,3,92,,,,,,,,,,,,,,,,,,,,,,,,,,,,,,,,,,,,,,,,,,,,221.9920526999631,None,left,0,1.2871182999806479,222.4918607000145,223.24347859999398,222.4918607000145,222.74283989996184,222.4918607000145,222.74283989996184,222.4918607000145,222.74283989996184,222.4918607000145,222.74283989996184,222.4918607000145,222.74283989996184,222.72605820000172,223.2266977999825,222.72605820000172,223.2266977999825,222.72605820000172,223.2266977999825,222.72605820000172,223.2266977999825,222.72605820000172,223.2266977999825,222.72605820000172,223.2266977999825,222.72605820000172,223.2266977999825,222.72605820000172,223.2266977999825,222.4918607000145,None,223.2266977999825,224.79632939997828,0.25,224.81192269996973,None,225.56380850001005,None,,,,,,,[1.5625],4.030000000000003,0.75,11012,001,2024_Jan_02_1107,MFTM_A_new1021,2021.2.3,59.80750357232887,
,,,,,,,,stim/Instruction_adaptive.png,conditions/adaptive.xlsx,test,-0.6,-0.6,-0.6,0.6,0.6,left,L,,,,,0,1,1,1,0,4,4,81,,,,,,,,,,,,,,,,,,,,,,,,,,,,,,,,,,,,,,,,,,,,226.06467669998528,None,right,0,1.0133941000094637,226.5650980999926,227.4673489999841,226.5650980999926,226.96518609998748,226.5650980999926,226.96518609998748,226.5650980999926,226.96518609998748,226.5650980999926,226.96518609998748,226.5650980999926,226.96518609998748,226.9485271999729,227.44919710000977,226.9485271999729,227.44919710000977,226.9485271999729,227.44919710000977,226.9485271999729,227.44919710000977,226.9485271999729,227.44919710000977,226.9485271999729,227.44919710000977,226.9485271999729,227.44919710000977,226.9485271999729,227.44919710000977,226.5650980999926,None,227.44919710000977,229.11969049996696,0.40000000000000013,229.1350753000006,None,229.88634470000397,None,,,,,,,[1.67],2.5100000000000016,0.6,11012,001,2024_Jan_02_1107,MFTM_A_new1021,2021.2.3,59.80750357232887,
,,,,,,,,stim/Instruction_adaptive.png,conditions/adaptive.xlsx,test,-0.6,-0.6,-0.6,0.6,0.6,left,L,,,,,0,1,1,1,0,5,5,11,,,,,,,,,,,,,,,,,,,,,,,,,,,,,,,,,,,,,,,,,,,,230.3871978999814,None,left,1,2.3553187999641523,230.88779649999924,232.54091699997662,230.88779649999924,232.0399131999584,230.88779649999924,232.0399131999584,230.88779649999924,232.0399131999584,230.88779649999924,232.0399131999584,230.88779649999924,232.0399131999584,232.0241027000011,232.524451699981,232.0241027000011,232.524451699981,232.0241027000011,232.524451699981,232.0241027000011,232.524451699981,232.0241027000011,232.524451699981,232.0241027000011,232.524451699981,232.0241027000011,232.524451699981,232.0241027000011,232.524451699981,230.88779649999924,None,232.524451699981,233.87646989995847,1.1500000000000008,233.89227289997507,None,234.64391119999345,None,,,,,,,[[1.35]],3.1700000000000026,0.6666666666666666,11012,001,2024_Jan_02_1107,MFTM_A_new1021,2021.2.3,59.80750357232887,
,,,,,,,,stim/Instruction_adaptive.png,conditions/adaptive.xlsx,test,0.6,0.6,0.6,-0.6,-0.6,right,R,,,,,0,1,1,1,0,6,6,12,,,,,,,,,,,,,,,,,,,,,,,,,,,,,,,,,,,,,,,,,,,,235.1453474999871,None,right,1,1.276591899979394,235.6455358999665,236.88050709996605,235.6455358999665,236.3793147999677,235.6455358999665,236.3793147999677,235.6455358999665,236.3793147999677,235.6455358999665,236.3793147999677,235.6455358999665,236.3793147999677,236.36261620000005,236.8638604999869,236.36261620000005,236.8638604999869,236.36261620000005,236.8638604999869,236.36261620000005,236.8638604999869,236.36261620000005,236.8638604999869,236.36261620000005,236.8638604999869,236.36261620000005,236.8638604999869,236.36261620000005,236.8638604999869,235.6455358999665,None,236.8638604999869,None,0.7300000000000004,238.51631849998375,None,239.267501299968,None,,,,,,,[1.63857143],3.5900000000000025,0.7142857142857143,11012,001,2024_Jan_02_1107,MFTM_A_new1021,2021.2.3,59.80750357232887,
,,,,,,,,stim/Instruction_adaptive.png,conditions/adaptive.xlsx,test,0.6,0.6,0.6,-0.6,-0.6,right,R,,,,,0,1,1,1,0,7,7,72,,,,,,,,,,,,,,,,,,,,,,,,,,,,,,,,,,,,,,,,,,,,239.76756559999194,None,left,0,2.094243799976539,240.26843930000905,241.32061409996822,240.26843930000905,240.81985849997727,240.26843930000905,240.81985849997727,240.26843930000905,240.81985849997727,240.26843930000905,240.81985849997727,240.26843930000905,240.81985849997727,240.80287349998252,241.3041337999748,240.80287349998252,241.3041337999748,240.80287349998252,241.3041337999748,240.80287349998252,241.3041337999748,240.80287349998252,241.3041337999748,240.80287349998252,241.3041337999748,240.80287349998252,241.3041337999748,240.80287349998252,241.3041337999748,240.26843930000905,None,241.3041337999748,242.98942980001448,0.5500000000000003,243.00551479996648,None,243.757564599975,None,,,,,,,[1.6775],2.730000000000002,0.625,11012,001,2024_Jan_02_1107,MFTM_A_new1021,2021.2.3,59.80750357232887,
,,,,,,,,stim/Instruction_adaptive.png,conditions/adaptive.xlsx,test,-0.6,-0.6,-0.6,0.6,0.6,left,L,,,,,0,1,1,1,0,8,8,95,,,,,,,,,,,,,,,,,,,,,,,,,,,,,,,,,,,,,,,,,,,,244.25843879999593,None,right,0,2.3073772999923676,244.75904799997807,246.26111809996655,244.75904799997807,245.7604813000071,244.75904799997807,245.7604813000071,244.75904799997807,245.7604813000071,244.75904799997807,245.7604813000071,244.75904799997807,245.7604813000071,245.72697610000614,246.22721949999686,245.72697610000614,246.22721949999686,245.72697610000614,246.22721949999686,245.72697610000614,246.22721949999686,245.72697610000614,246.22721949999686,245.72697610000614,246.22721949999686,245.72697610000614,246.22721949999686,245.72697610000614,246.22721949999686,244.75904799997807,None,246.22721949999686,247.74680660001468,0.9900000000000007,247.7634741999791,None,248.51473709999118,None,,,,,,,[[1.51]],1.640000000000001,0.5555555555555556,11012,001,2024_Jan_02_1107,MFTM_A_new1021,2021.2.3,59.80750357232887,
,,,,,,,,stim/Instruction_adaptive.png,conditions/adaptive.xlsx,test,0.6,0.6,0.6,-0.6,-0.6,right,R,,,,,0,1,1,1,0,9,9,14,,,,,,,,,,,,,,,,,,,,,,,,,,,,,,,,,,,,,,,,,,,,249.01493409997784,None,right,1,2.5199269999866374,249.51536520000082,252.13669750001281,249.51536520000082,251.6351527000079,249.51536520000082,251.6351527000079,249.51536520000082,251.6351527000079,249.51536520000082,251.6351527000079,249.51536520000082,251.6351527000079,251.6025043000118,252.10345279995818,251.6025043000118,252.10345279995818,251.6025043000118,252.10345279995818,251.6025043000118,252.10345279995818,251.6025043000118,252.10345279995818,251.6025043000118,252.10345279995818,251.6025043000118,252.10345279995818,251.6025043000118,252.10345279995818,249.51536520000082,None,252.10345279995818,252.50457629997982,2.1100000000000017,252.519809099962,None,253.27076729998225,None,,,,,,,[[0.39]],2.1400000000000015,0.6,11012,001,2024_Jan_02_1107,MFTM_A_new1021,2021.2.3,59.80750357232887,
,,,,,,,,stim/Instruction_adaptive.png,conditions/adaptive.xlsx,test,0.6,0.6,0.6,-0.6,-0.6,right,R,,,,,0,1,1,1,0,10,10,96,,,,,,,,,,,,,,,,,,,,,,,,,,,,,,,,,,,,,,,,,,,,253.77249740000116,None,right,1,2.01791300001787,254.27244019997306,256.27544850000413,254.27244019997306,255.77491649996955,254.27244019997306,255.77491649996955,254.27244019997306,255.77491649996955,254.27244019997306,255.77491649996955,254.27244019997306,255.77491649996955,255.7415248999605,256.2420572999981,255.7415248999605,256.2420572999981,255.7415248999605,256.2420572999981,255.7415248999605,256.2420572999981,255.7415248999605,256.2420572999981,255.7415248999605,256.2420572999981,255.7415248999605,256.2420572999981,255.7415248999605,256.2420572999981,254.27244019997306,None,256.2420572999981,257.2603208000073,1.490000000000001,257.27693589997943,None,258.02830840001116,None,,,,,,,[[1.01]],2.4600000000000017,0.6363636363636364,11012,001,2024_Jan_02_1107,MFTM_A_new1021,2021.2.3,59.80750357232887,
,,,,,,,,stim/Instruction_adaptive.png,conditions/adaptive.xlsx,test,-0.6,-0.6,-0.6,0.6,0.6,left,L,,,,,0,1,1,1,0,11,11,13,,,,,,,,,,,,,,,,,,,,,,,,,,,,,,,,,,,,,,,,,,,,258.52905119996285,None,left,1,1.6210767000447959,259.02938419999555,260.73273039999185,259.02938419999555,260.23115989996586,259.02938419999555,260.23115989996586,259.02938419999555,260.23115989996586,259.02938419999555,260.23115989996586,259.02938419999555,260.23115989996586,260.2146128999884,260.71607099997345,260.2146128999884,260.71607099997345,260.2146128999884,260.71607099997345,260.2146128999884,260.71607099997345,260.2146128999884,260.71607099997345,260.2146128999884,260.71607099997345,260.2146128999884,260.71607099997345,260.2146128999884,260.71607099997345,259.02938419999555,None,260.71607099997345,262.0179995999788,1.2000000000000008,262.03460429998813,None,262.78571560001,None,,,,,,,[[1.3]],2.690000000000002,0.6666666666666666,11012,001,2024_Jan_02_1107,MFTM_A_new1021,2021.2.3,59.80750357232887,
,,,,,,,,stim/Instruction_adaptive.png,conditions/adaptive.xlsx,test,-0.6,-0.6,-0.6,0.6,0.6,left,L,,,,,0,1,1,1,0,12,12,85,,,,,,,,,,,,,,,,,,,,,,,,,,,,,,,,,,,,,,,,,,,,263.28632169996854,None,left,1,2.0719470999902114,263.7864649000112,265.30566839996027,263.7864649000112,264.8224419999751,263.7864649000112,264.8224419999751,263.7864649000112,264.8224419999751,263.7864649000112,264.8224419999751,263.7864649000112,264.8224419999751,264.7886146999663,265.28928669996094,264.7886146999663,265.28928669996094,264.7886146999663,265.28928669996094,264.7886146999663,265.28928669996094,264.7886146999663,265.28928669996094,264.7886146999663,265.28928669996094,264.7886146999663,265.28928669996094,264.7886146999663,265.28928669996094,263.7864649000112,None,265.28928669996094,266.75829669996165,1.0200000000000007,266.7910806,None,267.54286360001424,None,,,,,,,[1.47],2.880000000000002,0.6923076923076923,11012,001,2024_Jan_02_1107,MFTM_A_new1021,2021.2.3,59.80750357232887,
,,,,,,,,stim/Instruction_adaptive.png,conditions/adaptive.xlsx,test,0.6,0.6,0.6,-0.6,-0.6,right,R,,,,,0,1,1,1,0,13,13,68,,,,,,,,,,,,,,,,,,,,,,,,,,,,,,,,,,,,,,,,,,,,268.04347209999105,None,left,0,2.4417511000065133,268.54457560001174,269.94579540000996,268.54457560001174,269.44488470000215,268.54457560001174,269.44488470000215,268.54457560001174,269.44488470000215,268.54457560001174,269.44488470000215,268.54457560001174,269.44488470000215,269.41154860000825,269.9121998999617,269.41154860000825,269.9121998999617,269.41154860000825,269.9121998999617,269.41154860000825,269.9121998999617,269.41154860000825,269.9121998999617,269.41154860000825,269.9121998999617,269.41154860000825,269.9121998999617,269.41154860000825,269.9121998999617,268.54457560001174,None,269.9121998999617,271.3986498999875,0.8900000000000006,271.414472799981,None,272.16638129996136,None,,,,,,,[1.48],2.410000000000002,0.6428571428571429,11012,001,2024_Jan_02_1107,MFTM_A_new1021,2021.2.3,59.80750357232887,
,,,,,,,,stim/Instruction_adaptive.png,conditions/adaptive.xlsx,test,-0.6,-0.6,-0.6,0.6,0.6,left,L,,,,,0,1,1,1,0,14,14,53,,,,,,,,,,,,,,,,,,,,,,,,,,,,,,,,,,,,,,,,,,,,272.6668757000007,None,left,1,1.9546182000194676,273.16767339996295,274.9207347999909,273.16767339996295,274.41903230000753,273.16767339996295,274.41903230000753,273.16767339996295,274.41903230000753,273.16767339996295,274.41903230000753,273.16767339996295,274.41903230000753,274.3854525999632,274.88706119998824,274.3854525999632,274.88706119998824,274.3854525999632,274.88706119998824,274.3854525999632,274.88706119998824,274.3854525999632,274.88706119998824,274.3854525999632,274.88706119998824,274.3854525999632,274.88706119998824,274.3854525999632,274.88706119998824,273.16767339996295,None,274.88706119998824,276.15492259996245,1.2400000000000009,276.17157959996257,None,276.92344769998454,None,,,,,,,[[1.26]],2.5900000000000016,0.6666666666666666,11012,001,2024_Jan_02_1107,MFTM_A_new1021,2021.2.3,59.80750357232887,
,,,,,,,,stim/Instruction_adaptive.png,conditions/adaptive.xlsx,test,0.6,0.6,0.6,-0.6,-0.6,right,R,,,,,0,1,1,1,0,15,15,52,,,,,,,,,,,,,,,,,,,,,,,,,,,,,,,,,,,,,,,,,,,,277.42330510000465,None,right,1,2.40478979999898,277.9254609000054,279.5280397000024,277.9254609000054,279.0265467999852,277.9254609000054,279.0265467999852,277.9254609000054,279.0265467999852,277.9254609000054,279.0265467999852,277.9254609000054,279.0265467999852,278.99280259996885,279.49361730000237,278.99280259996885,279.49361730000237,278.99280259996885,279.49361730000237,278.99280259996885,279.49361730000237,278.99280259996885,279.49361730000237,278.99280259996885,279.49361730000237,278.99280259996885,279.49361730000237,278.99280259996885,279.49361730000237,277.9254609000054,None,279.49361730000237,280.9126733999583,1.0900000000000007,280.92906439997023,None,281.6808622999815,None,,,,,,,[[1.41]],2.7500000000000018,0.6875,11012,001,2024_Jan_02_1107,MFTM_A_new1021,2021.2.3,59.80750357232887,
,,,,,,,,stim/Instruction_adaptive.png,conditions/adaptive.xlsx,test,0.6,0.6,0.6,-0.6,-0.6,right,R,,,,,0,1,1,1,0,16,16,10,,,,,,,,,,,,,,,,,,,,,,,,,,,,,,,,,,,,,,,,,,,,282.18105630000355,None,right,1,1.5213597000110894,282.6812171000056,284.1683321999735,282.6812171000056,283.66698829998495,282.6812171000056,283.66698829998495,282.6812171000056,283.66698829998495,282.6812171000056,283.66698829998495,282.6812171000056,283.66698829998495,283.6500322999782,284.1514671999612,283.6500322999782,284.1514671999612,283.6500322999782,284.1514671999612,283.6500322999782,284.1514671999612,283.6500322999782,284.1514671999612,283.6500322999782,284.1514671999612,283.6500322999782,284.1514671999612,283.6500322999782,284.1514671999612,282.6812171000056,None,284.1514671999612,285.6191244999645,0.9800000000000006,285.63555120001547,None,286.38746659999015,None,,,,,,,[1.46529412],2.880000000000002,0.7058823529411765,11012,001,2024_Jan_02_1107,MFTM_A_new1021,2021.2.3,59.80750357232887,
,,,,,,,,stim/Instruction_adaptive.png,conditions/adaptive.xlsx,test,0.6,0.6,0.6,-0.6,-0.6,right,R,,,,,0,1,1,1,0,17,17,42,,,,,,,,,,,,,,,,,,,,,,,,,,,,,,,,,,,,,,,,,,,,286.8885709999595,None,right,1,1.4373042999650352,287.3888726999867,288.7909522000118,287.3888726999867,288.29004349996103,287.3888726999867,288.29004349996103,287.3888726999867,288.29004349996103,287.3888726999867,288.29004349996103,287.3888726999867,288.29004349996103,288.2568339999998,288.75760279997485,288.2568339999998,288.75760279997485,288.2568339999998,288.75760279997485,288.2568339999998,288.75760279997485,288.2568339999998,288.75760279997485,288.2568339999998,288.75760279997485,288.2568339999998,288.75760279997485,288.2568339999998,288.75760279997485,287.3888726999867,None,288.75760279997485,290.2424252000055,0.8900000000000006,290.2591053000069,None,291.01021229999606,None,,,,,,,[1.47333333],3.000000000000002,0.7222222222222222,11012,001,2024_Jan_02_1107,MFTM_A_new1021,2021.2.3,59.80750357232887,
,,,,,,,,stim/Instruction_adaptive.png,conditions/adaptive.xlsx,test,-0.6,-0.6,-0.6,0.6,0.6,left,L,,,,,0,1,1,1,0,18,18,57,,,,,,,,,,,,,,,,,,,,,,,,,,,,,,,,,,,,,,,,,,,,291.51174139999785,None,right,0,3.245641599991359,292.0127147999592,293.346971699968,292.0127147999592,292.84662409999873,292.0127147999592,292.84662409999873,292.0127147999592,292.84662409999873,292.0127147999592,292.84662409999873,292.0127147999592,292.84662409999873,292.8135961999651,293.31454609998036,292.8135961999651,293.31454609998036,292.8135961999651,293.31454609998036,292.8135961999651,293.31454609998036,292.8135961999651,293.31454609998036,292.8135961999651,293.31454609998036,292.8135961999651,293.31454609998036,292.8135961999651,293.31454609998036,292.0127147999592,None,293.31454609998036,295.2837109999964,0.8200000000000005,295.2995680999593,None,296.0514895999804,None,,,,,,,[1.48421053],2.680000000000002,0.6842105263157895,11012,001,2024_Jan_02_1107,MFTM_A_new1021,2021.2.3,59.80750357232887,
,,,,,,,,stim/Instruction_adaptive.png,conditions/adaptive.xlsx,test,0.6,0.6,0.6,-0.6,-0.6,right,R,,,,,0,1,1,1,0,19,19,76,,,,,,,,,,,,,,,,,,,,,,,,,,,,,,,,,,,,,,,,,,,,296.552021600015,None,left,0,1.9649727999931201,297.0532101999852,298.5881818999769,297.0532101999852,298.0875702999765,297.0532101999852,298.0875702999765,297.0532101999852,298.0875702999765,297.0532101999852,298.0875702999765,297.0532101999852,298.0875702999765,298.07155429996783,298.5722440999816,298.07155429996783,298.5722440999816,298.07155429996783,298.5722440999816,298.07155429996783,298.5722440999816,298.07155429996783,298.5722440999816,298.07155429996783,298.5722440999816,298.07155429996783,298.5722440999816,298.07155429996783,298.5722440999816,297.0532101999852,None,298.5722440999816,None,1.0300000000000007,300.0585844999878,None,300.80932999996,None,,,,,,,[[1.47]],2.3200000000000016,0.65,11012,001,2024_Jan_02_1107,MFTM_A_new1021,2021.2.3,59.80750357232887,
,,,,,,,,stim/Instruction_adaptive.png,conditions/adaptive.xlsx,test,-0.6,-0.6,-0.6,0.6,0.6,left,L,,,,,0,1,1,1,0,20,20,59,,,,,,,,,,,,,,,,,,,,,,,,,,,,,,,,,,,,,,,,,,,,301.3088787999586,None,right,0,2.232867799990345,301.8095708999899,303.62958609999623,301.8095708999899,303.12907179998,301.8095708999899,303.12907179998,301.8095708999899,303.12907179998,301.8095708999899,303.12907179998,301.8095708999899,303.12907179998,303.1123287999653,303.61287259997334,303.1123287999653,303.61287259997334,303.1123287999653,303.61287259997334,303.1123287999653,303.61287259997334,303.1123287999653,303.61287259997334,303.1123287999653,303.61287259997334,303.1123287999653,303.61287259997334,303.1123287999653,303.61287259997334,301.8095708999899,None,303.61287259997334,304.79765159997623,1.320000000000001,304.8144428000087,None,305.56567569996696,None,,,,,,,[[1.18]],1.8900000000000012,0.6190476190476191,11012,001,2024_Jan_02_1107,MFTM_A_new1021,2021.2.3,59.80750357232887,
,,,,,,,,stim/Instruction_adaptive.png,conditions/adaptive.xlsx,test,-0.6,-0.6,-0.6,0.6,0.6,left,L,,,,,0,1,1,1,0,21,21,97,,,,,,,,,,,,,,,,,,,,,,,,,,,,,,,,,,,,,,,,,,,,306.0659352999646,None,left,1,3.075322300021071,306.5672045999672,308.8542535000015,306.5672045999672,308.352407999977,306.5672045999672,308.352407999977,306.5672045999672,308.352407999977,306.5672045999672,308.352407999977,306.5672045999672,308.352407999977,308.33590349997394,308.83721159998095,308.33590349997394,308.83721159998095,308.33590349997394,308.83721159998095,308.33590349997394,308.83721159998095,308.33590349997394,308.83721159998095,308.33590349997394,308.83721159998095,308.33590349997394,308.83721159998095,308.33590349997394,308.83721159998095,306.5672045999672,None,308.83721159998095,309.6712219999754,1.7800000000000014,309.68793610000284,None,310.43945509998593,None,,,,,,,[[0.72]],2.0600000000000014,0.6363636363636364,11012,001,2024_Jan_02_1107,MFTM_A_new1021,2021.2.3,59.80750357232887,
,,,,,,,,stim/Instruction_adaptive.png,conditions/adaptive.xlsx,test,0.6,0.6,0.6,-0.6,-0.6,right,R,,,,,0,1,1,1,0,22,22,62,,,,,,,,,,,,,,,,,,,,,,,,,,,,,,,,,,,,,,,,,,,,310.9399556000135,None,right,1,2.4897982999682426,311.44044599996414,313.52746309997747,311.44044599996414,313.02737389999675,311.44044599996414,313.02737389999675,311.44044599996414,313.02737389999675,311.44044599996414,313.02737389999675,311.44044599996414,313.02737389999675,313.0095546999946,313.51088760001585,313.0095546999946,313.51088760001585,313.0095546999946,313.51088760001585,313.0095546999946,313.51088760001585,313.0095546999946,313.51088760001585,313.0095546999946,313.51088760001585,313.0095546999946,313.51088760001585,313.0095546999946,313.51088760001585,311.44044599996414,None,313.4936013999977,314.4289285999839,1.5800000000000012,314.4448478000122,None,315.19672349997563,None,,,,,,,[[0.92]],2.2000000000000015,0.6521739130434783,11012,001,2024_Jan_02_1107,MFTM_A_new1021,2021.2.3,59.80750357232887,
,,,,,,,,stim/Instruction_adaptive.png,conditions/adaptive.xlsx,test,-0.6,-0.6,-0.6,0.6,0.6,left,L,,,,,0,1,1,1,0,23,23,79,,,,,,,,,,,,,,,,,,,,,,,,,,,,,,,,,,,,,,,,,,,,315.69739609997487,None,left,1,1.8533690000185743,316.1972614999977,318.1338416999788,316.1972614999977,317.6330978999613,316.1972614999977,317.6330978999613,316.1972614999977,317.6330978999613,316.1972614999977,317.6330978999613,316.1972614999977,317.6330978999613,317.61634259996936,318.1178127999883,317.61634259996936,318.1178127999883,317.61634259996936,318.1178127999883,317.61634259996936,318.1178127999883,317.61634259996936,318.1178127999883,317.61634259996936,318.1178127999883,317.61634259996936,318.1178127999883,317.61634259996936,318.1178127999883,316.1972614999977,None,318.1178127999883,None,1.430000000000001,319.2022894999827,None,319.95316629996523,None,,,,,,,[[1.07]],2.3200000000000016,0.6666666666666666,11012,001,2024_Jan_02_1107,MFTM_A_new1021,2021.2.3,59.80750357232887,
,,,,,,,,stim/Instruction_adaptive.png,conditions/adaptive.xlsx,test,-0.6,-0.6,-0.6,0.6,0.6,left,L,,,,,0,1,1,1,0,24,24,99,,,,,,,,,,,,,,,,,,,,,,,,,,,,,,,,,,,,,,,,,,,,320.4544604999828,None,left,1,1.736295800015796,320.95436500001233,322.774910099979,320.95436500001233,322.2905533000012,320.95436500001233,322.2905533000012,320.95436500001233,322.2905533000012,320.95436500001233,322.2905533000012,320.95436500001233,322.2905533000012,322.2564569999813,322.7575308000087,322.2564569999813,322.7575308000087,322.2564569999813,322.7575308000087,322.2564569999813,322.7575308000087,322.2564569999813,322.7575308000087,322.2564569999813,322.7575308000087,322.2564569999813,322.7575308000087,322.2564569999813,322.7575308000087,320.95436500001233,None,322.7575308000087,323.9435875999625,1.320000000000001,323.9589028999908,None,324.7109418999753,None,,,,,,,[[1.18]],2.4300000000000015,0.68,11012,001,2024_Jan_02_1107,MFTM_A_new1021,2021.2.3,59.80750357232887,
,,,,,,,,stim/Instruction_adaptive.png,conditions/adaptive.xlsx,test,-0.6,-0.6,-0.6,0.6,0.6,left,L,,,,,0,1,1,1,0,25,25,65,,,,,,,,,,,,,,,,,,,,,,,,,,,,,,,,,,,,,,,,,,,,325.2120109999669,None,left,1,2.3466891999705695,325.7116505999584,327.43086409999523,325.7116505999584,326.94676309998613,325.7116505999584,326.94676309998613,325.7116505999584,326.94676309998613,325.7116505999584,326.94676309998613,325.7116505999584,326.94676309998613,326.913316799968,327.41417669999646,326.913316799968,327.41417669999646,326.913316799968,327.41417669999646,326.913316799968,327.41417669999646,326.913316799968,327.41417669999646,326.913316799968,327.41417669999646,326.913316799968,327.41417669999646,326.913316799968,327.41417669999646,325.7116505999584,None,327.41417669999646,328.69994719995884,1.2200000000000009,328.7160196999903,None,329.46707819995936,None,,,,,,,[[1.28]],2.520000000000002,0.6923076923076923,11012,001,2024_Jan_02_1107,MFTM_A_new1021,2021.2.3,59.80750357232887,
,,,,,,,,stim/Instruction_adaptive.png,conditions/adaptive.xlsx,test,0.6,0.6,0.6,-0.6,-0.6,right,R,,,,,0,1,1,1,0,26,26,44,,,,,,,,,,,,,,,,,,,,,,,,,,,,,,,,,,,,,,,,,,,,329.96947020001244,None,left,0,2.2387519999756478,330.46867719996953,332.12146950000897,330.46867719996953,331.62114949995885,330.46867719996953,331.62114949995885,330.46867719996953,331.62114949995885,330.46867719996953,331.62114949995885,330.46867719996953,331.62114949995885,331.604436499998,332.10491729999194,331.604436499998,332.10491729999194,331.604436499998,332.10491729999194,331.604436499998,332.10491729999194,331.604436499998,332.10491729999194,331.604436499998,332.10491729999194,331.604436499998,332.10491729999194,331.604436499998,332.10491729999194,330.46867719996953,None,332.10491729999194,333.4569889999693,1.1500000000000008,333.4731105999672,None,334.2254724999657,None,,,,,,,[[1.35]],2.2600000000000016,0.6666666666666666,11012,001,2024_Jan_02_1107,MFTM_A_new1021,2021.2.3,59.80750357232887,
,,,,,,,,stim/Instruction_adaptive.png,conditions/adaptive.xlsx,test,0.6,0.6,0.6,-0.6,-0.6,right,R,,,,,0,1,1,1,0,27,27,6,,,,,,,,,,,,,,,,,,,,,,,,,,,,,,,,,,,,,,,,,,,,334.7258387999609,None,right,1,1.8565006999997422,335.2258028999786,337.09508210001513,335.2258028999786,336.6119815999991,335.2258028999786,336.6119815999991,335.2258028999786,336.6119815999991,335.2258028999786,336.6119815999991,335.2258028999786,336.6119815999991,336.5778344999999,337.0795288999798,336.5778344999999,337.0795288999798,336.5778344999999,337.0795288999798,336.5778344999999,337.0795288999798,336.5778344999999,337.0795288999798,336.5778344999999,337.0795288999798,336.5778344999999,337.0795288999798,336.5778344999999,337.0795288999798,335.2258028999786,None,337.0795288999798,338.2133015000145,1.370000000000001,338.2302797999582,None,338.9816847000038,None,,,,,,,[[1.13]],2.3600000000000017,0.6785714285714286,11012,001,2024_Jan_02_1107,MFTM_A_new1021,2021.2.3,59.80750357232887,
,,,,,,,,stim/Instruction_adaptive.png,conditions/adaptive.xlsx,test,-0.6,-0.6,-0.6,0.6,0.6,left,L,,,,,0,1,1,1,0,28,28,21,,,,,,,,,,,,,,,,,,,,,,,,,,,,,,,,,,,,,,,,,,,,339.48274880001554,None,left,1,2.1710014999844134,339.9835842999746,341.7690819000127,339.9835842999746,341.2679439999629,339.9835842999746,341.2679439999629,339.9835842999746,341.2679439999629,339.9835842999746,341.2679439999629,339.9835842999746,341.2679439999629,341.2352414999623,341.73533289995976,341.2352414999623,341.73533289995976,341.2352414999623,341.73533289995976,341.2352414999623,341.73533289995976,341.2352414999623,341.73533289995976,341.2352414999623,341.73533289995976,341.2352414999623,341.73533289995976,341.2352414999623,341.73533289995976,339.9835842999746,None,341.73533289995976,342.9546010000049,1.280000000000001,342.98779519996606,None,343.7392707999679,None,,,,,,,[[1.22]],2.4400000000000017,0.6896551724137931,11012,001,2024_Jan_02_1107,MFTM_A_new1021,2021.2.3,59.80750357232887,
,,,,,,,,stim/Instruction_adaptive.png,conditions/adaptive.xlsx,test,-0.6,-0.6,-0.6,0.6,0.6,left,L,,,,,0,1,1,1,0,29,29,9,,,,,,,,,,,,,,,,,,,,,,,,,,,,,,,,,,,,,,,,,,,,344.2398524999735,None,right,0,2.461883999989368,344.7404294000007,346.45976170001086,344.7404294000007,345.95917439996265,344.7404294000007,345.95917439996265,344.7404294000007,345.95917439996265,344.7404294000007,345.95917439996265,344.7404294000007,345.95917439996265,345.92568179999944,346.4268080999609,345.92568179999944,346.4268080999609,345.92568179999944,346.4268080999609,345.92568179999944,346.4268080999609,345.92568179999944,346.4268080999609,345.92568179999944,346.4268080999609,345.92568179999944,346.4268080999609,345.92568179999944,346.4268080999609,344.7404294000007,None,346.4268080999609,347.72837480000453,1.2100000000000009,347.74427869997453,None,348.4968080999679,None,,,,,,,[[1.29]],2.2000000000000015,0.6666666666666666,11012,001,2024_Jan_02_1107,MFTM_A_new1021,2021.2.3,59.80750357232887,
,,,,,,,,stim/Instruction_adaptive.png,conditions/adaptive.xlsx,test,0.6,0.6,0.6,-0.6,-0.6,right,R,,,,,0,1,1,1,0,30,30,56,,,,,,,,,,,,,,,,,,,,,,,,,,,,,,,,,,,,,,,,,,,,348.996473999985,None,right,1,2.1217291000066325,349.49684569996316,351.43401349999476,349.49684569996316,350.9323648000136,349.49684569996316,350.9323648000136,349.49684569996316,350.9323648000136,349.49684569996316,350.9323648000136,349.49684569996316,350.9323648000136,350.916894999973,351.41738289996283,350.916894999973,351.41738289996283,350.916894999973,351.41738289996283,350.916894999973,351.41738289996283,350.916894999973,351.41738289996283,350.916894999973,351.41738289996283,350.916894999973,351.41738289996283,350.916894999973,351.41738289996283,349.49684569996316,None,351.41738289996283,None,1.430000000000001,352.50219309999375,None,353.25304839998716,None,,,,,,,[[1.07]],2.290000000000002,0.6774193548387096,11012,001,2024_Jan_02_1107,MFTM_A_new1021,2021.2.3,59.80750357232887,
,,,,,,,,stim/Instruction_adaptive.png,conditions/adaptive.xlsx,test,0.6,0.6,0.6,-0.6,-0.6,right,R,,,,,0,1,1,1,0,31,31,34,,,,,,,,,,,,,,,,,,,,,,,,,,,,,,,,,,,,,,,,,,,,353.75324039999396,None,right,1,2.2281691000098363,354.25414749997435,356.1072342999978,354.25414749997435,355.60708200000226,354.25414749997435,355.60708200000226,354.25414749997435,355.60708200000226,354.25414749997435,355.60708200000226,354.25414749997435,355.60708200000226,355.58981149998726,356.09078440000303,355.58981149998726,356.09078440000303,355.58981149998726,356.09078440000303,355.58981149998726,356.09078440000303,355.58981149998726,356.09078440000303,355.58981149998726,356.09078440000303,355.58981149998726,356.09078440000303,355.58981149998726,356.09078440000303,354.25414749997435,None,356.09078440000303,357.2418391999672,1.350000000000001,357.25870730000315,None,358.0106467999867,None,,,,,,,[[1.15]],2.370000000000002,0.6875,11012,001,2024_Jan_02_1107,MFTM_A_new1021,2021.2.3,59.80750357232887,
,,,,,,,,stim/Instruction_adaptive.png,conditions/adaptive.xlsx,test,-0.6,-0.6,-0.6,0.6,0.6,left,L,,,,,0,1,1,1,0,32,32,19,,,,,,,,,,,,,,,,,,,,,,,,,,,,,,,,,,,,,,,,,,,,358.5108851999976,None,left,1,2.3430786000099033,359.0115281000035,360.78044890001183,359.0115281000035,360.2971647999948,359.0115281000035,360.2971647999948,359.0115281000035,360.2971647999948,359.0115281000035,360.2971647999948,359.0115281000035,360.2971647999948,360.26285749999806,360.7640732,360.26285749999806,360.7640732,360.26285749999806,360.7640732,360.26285749999806,360.7640732,360.26285749999806,360.7640732,360.26285749999806,360.7640732,360.26285749999806,360.7640732,360.26285749999806,360.7640732,359.0115281000035,None,360.7640732,362.0013381000026,1.270000000000001,362.01542589999735,None,362.7673865999677,None,,,,,,,[[1.23]],2.4400000000000017,0.696969696969697,11012,001,2024_Jan_02_1107,MFTM_A_new1021,2021.2.3,59.80750357232887,
,,,,,,,,stim/Instruction_adaptive.png,conditions/adaptive.xlsx,test,-0.6,-0.6,-0.6,0.6,0.6,left,L,,,,,0,1,1,1,0,33,33,17,,,,,,,,,,,,,,,,,,,,,,,,,,,,,,,,,,,,,,,,,,,,363.2673175999662,None,right,0,2.0507657999987714,363.7679579000105,365.4873890999588,363.7679579000105,364.98726540000644,363.7679579000105,364.98726540000644,363.7679579000105,364.98726540000644,363.7679579000105,364.98726540000644,363.7679579000105,364.98726540000644,364.9698422999936,365.47128559998237,364.9698422999936,365.47128559998237,364.9698422999936,365.47128559998237,364.9698422999936,365.47128559998237,364.9698422999936,365.47128559998237,364.9698422999936,365.47128559998237,364.9698422999936,365.47128559998237,364.9698422999936,365.47128559998237,363.7679579000105,None,365.47128559998237,None,1.2100000000000009,366.77228500001365,None,367.5245292999898,None,,,,,,,[[1.29]],2.2400000000000015,0.6764705882352942,11012,001,2024_Jan_02_1107,MFTM_A_new1021,2021.2.3,59.80750357232887,
,,,,,,,,stim/Instruction_adaptive.png,conditions/adaptive.xlsx,test,-0.6,-0.6,-0.6,0.6,0.6,left,L,,,,,0,1,1,1,0,34,34,77,,,,,,,,,,,,,,,,,,,,,,,,,,,,,,,,,,,,,,,,,,,,368.02498709998326,None,left,1,3.004383500025142,368.5263419999974,370.42795569996815,368.5263419999974,369.9283234999748,368.5263419999974,369.9283234999748,368.5263419999974,369.9283234999748,368.5263419999974,369.9283234999748,368.5263419999974,369.9283234999748,369.893897300004,370.3950087999692,369.893897300004,370.3950087999692,369.893897300004,370.3950087999692,369.893897300004,370.3950087999692,369.893897300004,370.3950087999692,369.893897300004,370.3950087999692,369.893897300004,370.3950087999692,369.893897300004,370.3950087999692,368.5263419999974,None,370.3950087999692,371.54621329996735,1.390000000000001,371.562891700014,None,372.3148538999958,None,,,,,,,[[1.11]],2.3100000000000014,0.6857142857142857,11012,001,2024_Jan_02_1107,MFTM_A_new1021,2021.2.3,59.80750357232887,
,,,,,,,,stim/Instruction_adaptive.png,conditions/adaptive.xlsx,test,-0.6,-0.6,-0.6,0.6,0.6,left,L,,,,,0,1,1,1,0,35,35,83,,,,,,,,,,,,,,,,,,,,,,,,,,,,,,,,,,,,,,,,,,,,372.81474790000357,None,right,0,2.8146381999831647,373.3161643999629,375.1522213999997,373.3161643999629,374.6515300999745,373.3161643999629,374.6515300999745,373.3161643999629,374.6515300999745,373.3161643999629,374.6515300999745,373.3161643999629,374.6515300999745,374.61750589997973,375.11955239996314,374.61750589997973,375.11955239996314,374.61750589997973,375.11955239996314,374.61750589997973,375.11955239996314,374.61750589997973,375.11955239996314,374.61750589997973,375.11955239996314,374.61750589997973,375.11955239996314,374.61750589997973,375.11955239996314,373.3161643999629,None,375.11955239996314,376.30326509999577,1.330000000000001,376.3200255999691,None,377.0721752999816,None,,,,,,,[[1.17]],2.1000000000000014,0.6666666666666666,11012,001,2024_Jan_02_1107,MFTM_A_new1021,2021.2.3,59.80750357232887,
,,,,,,,,stim/Instruction_adaptive.png,conditions/adaptive.xlsx,test,-0.6,-0.6,-0.6,0.6,0.6,left,L,,,,,0,1,1,1,0,36,36,31,,,,,,,,,,,,,,,,,,,,,,,,,,,,,,,,,,,,,,,,,,,,377.57195989997126,None,left,1,2.0256575000239536,378.07323239999823,380.1091376999975,378.07323239999823,379.60908869997365,378.07323239999823,379.60908869997365,378.07323239999823,379.60908869997365,378.07323239999823,379.60908869997365,378.07323239999823,379.60908869997365,379.5747532999958,380.07697090000147,379.5747532999958,380.07697090000147,379.5747532999958,380.07697090000147,379.5747532999958,380.07697090000147,379.5747532999958,380.07697090000147,379.5747532999958,380.07697090000147,379.5747532999958,380.07697090000147,379.5747532999958,380.07697090000147,378.07323239999823,None,380.07697090000147,381.0619604999665,1.5300000000000011,381.0767399999895,None,381.8288154999609,None,,,,,,,[[0.97]],2.1800000000000015,0.6756756756756757,11012,001,2024_Jan_02_1107,MFTM_A_new1021,2021.2.3,59.80750357232887,
,,,,,,,,stim/Instruction_adaptive.png,conditions/adaptive.xlsx,test,-0.6,-0.6,-0.6,0.6,0.6,left,L,,,,,0,1,1,1,0,37,37,15,,,,,,,,,,,,,,,,,,,,,,,,,,,,,,,,,,,,,,,,,,,,382.32954939996125,None,left,1,2.2123547999653965,382.83013229997596,384.7824936999823,382.83013229997596,384.28174090001266,382.83013229997596,384.28174090001266,382.83013229997596,384.28174090001266,382.83013229997596,384.28174090001266,382.83013229997596,384.28174090001266,384.26504560001194,384.7666530999704,384.26504560001194,384.7666530999704,384.26504560001194,384.7666530999704,384.26504560001194,384.7666530999704,384.26504560001194,384.7666530999704,384.26504560001194,384.7666530999704,384.26504560001194,384.7666530999704,384.26504560001194,384.7666530999704,382.83013229997596,None,384.7666530999704,385.8179306999664,1.450000000000001,385.83405800000764,None,386.58615340001415,None,,,,,,,[[1.05]],2.2500000000000018,0.6842105263157895,11012,001,2024_Jan_02_1107,MFTM_A_new1021,2021.2.3,59.80750357232887,
,,,,,,,,stim/Instruction_adaptive.png,conditions/adaptive.xlsx,test,0.6,0.6,0.6,-0.6,-0.6,right,R,,,,,0,1,1,1,0,38,38,40,,,,,,,,,,,,,,,,,,,,,,,,,,,,,,,,,,,,,,,,,,,,387.0866257000016,None,right,1,1.8957829999853857,387.5867994999862,389.47346439998364,387.5867994999862,388.9731672999915,387.5867994999862,388.9731672999915,387.5867994999862,388.9731672999915,387.5867994999862,388.9731672999915,387.5867994999862,388.9731672999915,388.9559453999973,389.456723899988,388.9559453999973,389.456723899988,388.9559453999973,389.456723899988,388.9559453999973,389.456723899988,388.9559453999973,389.456723899988,388.9559453999973,389.456723899988,388.9559453999973,389.456723899988,388.9559453999973,389.456723899988,387.5867994999862,None,389.456723899988,None,1.380000000000001,390.5910617999616,None,391.3422009999631,None,,,,,,,[[1.12]],2.3100000000000014,0.6923076923076923,11012,001,2024_Jan_02_1107,MFTM_A_new1021,2021.2.3,59.80750357232887,
,,,,,,,,stim/Instruction_adaptive.png,conditions/adaptive.xlsx,test,-0.6,-0.6,-0.6,0.6,0.6,left,L,,,,,0,1,1,1,0,39,39,29,,,,,,,,,,,,,,,,,,,,,,,,,,,,,,,,,,,,,,,,,,,,391.84318709996296,None,left,1,2.5948313999688253,392.3436306999647,394.18049249995966,392.3436306999647,393.67979139997624,392.3436306999647,393.67979139997624,392.3436306999647,393.67979139997624,392.3436306999647,393.67979139997624,392.3436306999647,393.67979139997624,393.6636046000058,394.1642235000036,393.6636046000058,394.1642235000036,393.6636046000058,394.1642235000036,393.6636046000058,394.1642235000036,393.6636046000058,394.1642235000036,393.6636046000058,394.1642235000036,393.6636046000058,394.1642235000036,393.6636046000058,394.1642235000036,392.3436306999647,None,394.1642235000036,None,1.330000000000001,395.3486746000126,None,396.09997559996555,None,,,,,,,[[1.17]],2.370000000000002,0.7,11012,001,2024_Jan_02_1107,MFTM_A_new1021,2021.2.3,59.80750357232887,
,,,,,,,,stim/Instruction_adaptive.png,conditions/adaptive.xlsx,test,0.6,0.6,0.6,-0.6,-0.6,right,R,,,,,0,1,1,1,0,40,40,84,,,,,,,,,,,,,,,,,,,,,,,,,,,,,,,,,,,,,,,,,,,,396.60076860000845,None,right,1,1.5488528999849223,397.10149349999847,398.8703019999666,397.10149349999847,398.3861395000131,397.10149349999847,398.3861395000131,397.10149349999847,398.3861395000131,397.10149349999847,398.3861395000131,397.10149349999847,398.3861395000131,398.35266919998685,398.8539225999848,398.35266919998685,398.8539225999848,398.35266919998685,398.8539225999848,398.35266919998685,398.8539225999848,398.35266919998685,398.8539225999848,398.35266919998685,398.8539225999848,398.35266919998685,398.8539225999848,398.35266919998685,398.8539225999848,397.10149349999847,None,398.8539225999848,400.0887694999692,1.270000000000001,400.1058299000142,None,400.8563907999778,None,,,,,,,[[1.23]],2.4300000000000015,0.7073170731707317,11012,001,2024_Jan_02_1107,MFTM_A_new1021,2021.2.3,59.80750357232887,
,,,,,,,,stim/Instruction_adaptive.png,conditions/adaptive.xlsx,test,0.6,0.6,0.6,-0.6,-0.6,right,R,,,,,0,1,1,1,0,41,41,80,,,,,,,,,,,,,,,,,,,,,,,,,,,,,,,,,,,,,,,,,,,,401.3569525000057,None,left,0,2.240414600004442,401.858525299991,403.5770557000069,401.858525299991,403.09375190001447,401.858525299991,403.09375190001447,401.858525299991,403.09375190001447,401.858525299991,403.09375190001447,401.858525299991,403.09375190001447,403.0596788999974,403.56145739997737,403.0596788999974,403.56145739997737,403.0596788999974,403.56145739997737,403.0596788999974,403.56145739997737,403.0596788999974,403.56145739997737,403.0596788999974,403.56145739997737,403.0596788999974,403.56145739997737,403.0596788999974,403.56145739997737,401.858525299991,None,403.56145739997737,404.84669939999003,1.2200000000000009,404.86209459998645,None,405.6140517999884,None,,,,,,,[[1.28]],2.2700000000000014,0.6904761904761905,11012,001,2024_Jan_02_1107,MFTM_A_new1021,2021.2.3,59.80750357232887,
,,,,,,,,stim/Instruction_adaptive.png,conditions/adaptive.xlsx,test,0.6,0.6,0.6,-0.6,-0.6,right,R,,,,,0,1,1,1,0,42,42,46,,,,,,,,,,,,,,,,,,,,,,,,,,,,,,,,,,,,,,,,,,,,406.11456829996314,None,right,1,2.4116810000268742,406.61469089996535,408.48430939996615,406.61469089996535,407.9835558999912,406.61469089996535,407.9835558999912,406.61469089996535,407.9835558999912,406.61469089996535,407.9835558999912,406.61469089996535,407.9835558999912,407.95078159996774,408.45084760000464,407.95078159996774,408.45084760000464,407.95078159996774,408.45084760000464,407.95078159996774,408.45084760000464,407.95078159996774,408.45084760000464,407.95078159996774,408.45084760000464,407.95078159996774,408.45084760000464,407.95078159996774,408.45084760000464,406.61469089996535,None,408.45084760000464,409.60262879997026,1.360000000000001,409.619215899962,None,410.3703139999998,None,,,,,,,[[1.14]],2.330000000000002,0.6976744186046512,11012,001,2024_Jan_02_1107,MFTM_A_new1021,2021.2.3,59.80750357232887,
,,,,,,,,stim/Instruction_adaptive.png,conditions/adaptive.xlsx,test,0.6,0.6,0.6,-0.6,-0.6,right,R,,,,,0,1,1,1,0,43,43,66,,,,,,,,,,,,,,,,,,,,,,,,,,,,,,,,,,,,,,,,,,,,410.87130910000997,None,left,0,2.325931400002446,411.3725523999892,413.1919833999709,411.3725523999892,412.6914281999925,411.3725523999892,412.6914281999925,411.3725523999892,412.6914281999925,411.3725523999892,412.6914281999925,411.3725523999892,412.6914281999925,412.65708430000814,413.1586935999803,412.65708430000814,413.1586935999803,412.65708430000814,413.1586935999803,412.65708430000814,413.1586935999803,412.65708430000814,413.1586935999803,412.65708430000814,413.1586935999803,412.65708430000814,413.1586935999803,412.65708430000814,413.1586935999803,411.3725523999892,None,413.1586935999803,414.35955240001203,1.310000000000001,414.3770695999847,None,415.128020300006,None,,,,,,,[[1.19]],2.1600000000000015,0.6818181818181818,11012,001,2024_Jan_02_1107,MFTM_A_new1021,2021.2.3,59.80750357232887,
,,,,,,,,stim/Instruction_adaptive.png,conditions/adaptive.xlsx,test,-0.6,-0.6,-0.6,0.6,0.6,left,L,,,,,0,1,1,1,0,44,44,33,,,,,,,,,,,,,,,,,,,,,,,,,,,,,,,,,,,,,,,,,,,,415.62913169997046,None,left,1,2.5840716000529937,416.13040929997806,418.11593179998454,416.13040929997806,417.6151707000099,416.13040929997806,417.6151707000099,416.13040929997806,417.6151707000099,416.13040929997806,417.6151707000099,416.13040929997806,417.6151707000099,417.5813403999782,418.08210249996046,417.5813403999782,418.08210249996046,417.5813403999782,418.08210249996046,417.5813403999782,418.08210249996046,417.5813403999782,418.08210249996046,417.5813403999782,418.08210249996046,417.5813403999782,418.08210249996046,417.5813403999782,418.08210249996046,416.13040929997806,None,418.08210249996046,419.1168480999768,1.470000000000001,419.1333175000036,None,419.8843397999881,None,,,,,,,[[1.03]],2.2200000000000015,0.6888888888888889,11012,001,2024_Jan_02_1107,MFTM_A_new1021,2021.2.3,59.80750357232887,
,,,,,,,,stim/Instruction_adaptive.png,conditions/adaptive.xlsx,test,0.6,0.6,0.6,-0.6,-0.6,right,R,,,,,0,1,1,1,0,45,45,78,,,,,,,,,,,,,,,,,,,,,,,,,,,,,,,,,,,,,,,,,,,,420.3850038999808,None,right,1,1.4444899000227451,420.88599159999285,422.8081380999647,420.88599159999285,422.3063792999601,420.88599159999285,422.3063792999601,420.88599159999285,422.3063792999601,420.88599159999285,422.3063792999601,420.88599159999285,422.3063792999601,422.2714915999677,422.7723660999909,422.2714915999677,422.7723660999909,422.2714915999677,422.7723660999909,422.2714915999677,422.7723660999909,422.2714915999677,422.7723660999909,422.2714915999677,422.7723660999909,422.2714915999677,422.7723660999909,422.2714915999677,422.7723660999909,420.88599159999285,None,422.7723660999909,423.8746985999751,1.410000000000001,423.89034729998093,None,424.64146309997886,None,,,,,,,[[1.09]],2.2700000000000014,0.6956521739130435,11012,001,2024_Jan_02_1107,MFTM_A_new1021,2021.2.3,59.80750357232887,
,,,,,,,,stim/Instruction_adaptive.png,conditions/adaptive.xlsx,test,-0.6,-0.6,-0.6,0.6,0.6,left,L,,,,,0,1,1,1,0,46,46,37,,,,,,,,,,,,,,,,,,,,,,,,,,,,,,,,,,,,,,,,,,,,425.14221600000747,None,left,1,2.0796007000026293,425.64314359996933,427.51311110000825,425.64314359996933,427.0119094999973,425.64314359996933,427.0119094999973,425.64314359996933,427.0119094999973,425.64314359996933,427.0119094999973,425.64314359996933,427.0119094999973,426.9791227999958,427.47956229996635,426.9791227999958,427.47956229996635,426.9791227999958,427.47956229996635,426.9791227999958,427.47956229996635,426.9791227999958,427.47956229996635,426.9791227999958,427.47956229996635,426.9791227999958,427.47956229996635,426.9791227999958,427.47956229996635,425.64314359996933,None,427.47956229996635,428.63148300000466,1.360000000000001,428.64734809997026,None,429.39938379998785,None,,,,,,,[[1.14]],2.330000000000002,0.7021276595744681,11012,001,2024_Jan_02_1107,MFTM_A_new1021,2021.2.3,59.80750357232887,
,,,,,,,,stim/Instruction_adaptive.png,conditions/adaptive.xlsx,test,0.6,0.6,0.6,-0.6,-0.6,right,R,,,,,0,1,1,1,0,47,47,90,,,,,,,,,,,,,,,,,,,,,,,,,,,,,,,,,,,,,,,,,,,,429.9000752000138,None,right,1,2.0987754000234418,430.4001117000007,432.22030639997683,430.4001117000007,431.7191626999993,430.4001117000007,431.7191626999993,430.4001117000007,431.7191626999993,430.4001117000007,431.7191626999993,430.4001117000007,431.7191626999993,431.68627740000375,432.187397599977,431.68627740000375,432.187397599977,431.68627740000375,432.187397599977,431.68627740000375,432.187397599977,431.68627740000375,432.187397599977,431.68627740000375,432.187397599977,431.68627740000375,432.187397599977,431.68627740000375,432.187397599977,430.4001117000007,None,432.187397599977,433.3887184999767,1.310000000000001,433.405264800007,None,434.1549684999627,None,,,,,,,[[1.19]],2.370000000000002,0.7083333333333334,11012,001,2024_Jan_02_1107,MFTM_A_new1021,2021.2.3,59.80750357232887,
,,,,,,,,stim/Instruction_adaptive.png,conditions/adaptive.xlsx,test,-0.6,-0.6,-0.6,0.6,0.6,left,L,,,,,0,1,1,1,0,48,48,47,,,,,,,,,,,,,,,,,,,,,,,,,,,,,,,,,,,,,,,,,,,,434.6572683000122,None,left,1,2.269712499983143,435.15737430000445,436.92744419997325,435.15737430000445,436.4430558999884,435.15737430000445,436.4430558999884,435.15737430000445,436.4430558999884,435.15737430000445,436.4430558999884,435.15737430000445,436.4430558999884,436.40935869998066,436.90961949998746,436.40935869998066,436.90961949998746,436.40935869998066,436.90961949998746,436.40935869998066,436.90961949998746,436.40935869998066,436.90961949998746,436.40935869998066,436.90961949998746,436.40935869998066,436.90961949998746,436.40935869998066,436.90961949998746,435.15737430000445,None,436.90961949998746,438.145463199995,1.270000000000001,438.1616290999809,None,438.9129297999898,None,,,,,,,[[1.23]],2.4200000000000017,0.7142857142857143,11012,001,2024_Jan_02_1107,MFTM_A_new1021,2021.2.3,59.80750357232887,
,,,,,,,,stim/Instruction_adaptive.png,conditions/adaptive.xlsx,test,0.6,0.6,0.6,-0.6,-0.6,right,R,,,,,0,1,1,1,0,49,49,86,,,,,,,,,,,,,,,,,,,,,,,,,,,,,,,,,,,,,,,,,,,,439.413553899969,None,left,0,3.3924816999933682,439.9143008000101,441.6498024999746,439.9143008000101,441.15019570000004,439.9143008000101,441.15019570000004,439.9143008000101,441.15019570000004,439.9143008000101,441.15019570000004,439.9143008000101,441.15019570000004,441.1336639999645,441.6336892999825,441.1336639999645,441.6336892999825,441.1336639999645,441.6336892999825,441.1336639999645,441.6336892999825,441.1336639999645,441.6336892999825,441.1336639999645,441.6336892999825,441.1336639999645,441.6336892999825,441.1336639999645,441.6336892999825,439.9143008000101,None,441.6336892999825,443.33688349998556,1.2300000000000009,443.3524985999684,None,444.104359399993,None,,,,,,,[[1.27]],2.290000000000002,0.7,11012,001,2024_Jan_02_1107,MFTM_A_new1021,2021.2.3,59.80750357232887,
,,,,,,,,stim/Instruction_adaptive.png,conditions/adaptive.xlsx,test,-0.6,-0.6,-0.6,0.6,0.6,left,L,,,,,0,1,1,1,0,50,50,5,,,,,,,,,,,,,,,,,,,,,,,,,,,,,,,,,,,,,,,,,,,,444.6049621999846,None,None,0,0,445.1053127999767,446.9582722999621,445.1053127999767,446.4572554999613,445.1053127999767,446.4572554999613,445.1053127999767,446.4572554999613,445.1053127999767,446.4572554999613,445.1053127999767,446.4572554999613,446.44133140001213,446.9421008999925,446.44133140001213,446.9421008999925,446.44133140001213,446.9421008999925,446.44133140001213,446.9421008999925,446.44133140001213,446.9421008999925,446.44133140001213,446.9421008999925,446.44133140001213,446.9421008999925,446.44133140001213,446.9421008999925,445.1053127999767,None,446.9421008999925,448.5944545000093,1.350000000000001,448.610033200006,None,449.363871700014,None,,,,,,,[[1.65]],2.1500000000000012,0.6862745098039216,11012,001,2024_Jan_02_1107,MFTM_A_new1021,2021.2.3,59.80750357232887,
,,,,,,,,stim/Instruction_adaptive.png,conditions/adaptive.xlsx,test,0.6,0.6,0.6,-0.6,-0.6,right,R,,,,,0,1,1,1,0,51,51,98,,,,,,,,,,,,,,,,,,,,,,,,,,,,,,,,,,,,,,,,,,,,449.86322010000004,None,right,1,1.8875465000164695,450.362878200016,452.34986039996147,450.362878200016,451.84891559998505,450.362878200016,451.84891559998505,450.362878200016,451.84891559998505,450.362878200016,451.84891559998505,450.362878200016,451.84891559998505,451.83184639998944,452.33322390000103,451.83184639998944,452.33322390000103,451.83184639998944,452.33322390000103,451.83184639998944,452.33322390000103,451.83184639998944,452.33322390000103,451.83184639998944,452.33322390000103,451.83184639998944,452.33322390000103,451.83184639998944,452.33322390000103,450.362878200016,None,452.33322390000103,None,1.480000000000001,453.3676772000035,None,454.1192585999961,None,,,,,,,[[1.02]],2.2000000000000015,0.6923076923076923,11012,001,2024_Jan_02_1107,MFTM_A_new1021,2021.2.3,59.80750357232887,
,,,,,,,,stim/Instruction_adaptive.png,conditions/adaptive.xlsx,test,0.6,0.6,0.6,-0.6,-0.6,right,R,,,,,0,1,1,1,0,52,52,36,,,,,,,,,,,,,,,,,,,,,,,,,,,,,,,,,,,,,,,,,,,,454.62022839998826,None,right,1,1.6907652999507263,455.12013269995805,457.0565670999931,455.12013269995805,456.5565547000151,455.12013269995805,456.5565547000151,455.12013269995805,456.5565547000151,455.12013269995805,456.5565547000151,455.12013269995805,456.5565547000151,456.53882199997315,457.0398085999768,456.53882199997315,457.0398085999768,456.53882199997315,457.0398085999768,456.53882199997315,457.0398085999768,456.53882199997315,457.0398085999768,456.53882199997315,457.0398085999768,456.53882199997315,457.0398085999768,456.53882199997315,457.0398085999768,455.12013269995805,None,457.0398085999768,None,1.430000000000001,458.12580320000416,None,458.8765979000018,None,,,,,,,[[1.07]],2.2400000000000015,0.6981132075471698,11012,001,2024_Jan_02_1107,MFTM_A_new1021,2021.2.3,59.80750357232887,
,,,,,,,,stim/Instruction_adaptive.png,conditions/adaptive.xlsx,test,0.6,0.6,0.6,-0.6,-0.6,right,R,,,,,0,1,1,1,0,53,53,8,,,,,,,,,,,,,,,,,,,,,,,,,,,,,,,,,,,,,,,,,,,,459.3773119999678,None,right,1,1.6609551000292413,459.87743160000537,461.7805625000037,459.87743160000537,461.27982349996455,459.87743160000537,461.27982349996455,459.87743160000537,461.27982349996455,459.87743160000537,461.27982349996455,459.87743160000537,461.27982349996455,461.2464534000028,461.7466496999841,461.2464534000028,461.7466496999841,461.2464534000028,461.7466496999841,461.2464534000028,461.7466496999841,461.2464534000028,461.7466496999841,461.2464534000028,461.7466496999841,461.2464534000028,461.7466496999841,461.2464534000028,461.7466496999841,459.87743160000537,None,461.7466496999841,462.8649822999723,1.390000000000001,462.881604299997,None,463.633709799964,None,,,,,,,[[1.11]],2.290000000000002,0.7037037037037037,11012,001,2024_Jan_02_1107,MFTM_A_new1021,2021.2.3,59.80750357232887,
,,,,,,,,stim/Instruction_adaptive.png,conditions/adaptive.xlsx,test,-0.6,-0.6,-0.6,0.6,0.6,left,L,,,,,0,1,1,1,0,54,54,63,,,,,,,,,,,,,,,,,,,,,,,,,,,,,,,,,,,,,,,,,,,,464.1339605000103,None,right,0,1.8647223999723792,464.63408119999804,466.48718799999915,464.63408119999804,465.9862652000156,464.63408119999804,465.9862652000156,464.63408119999804,465.9862652000156,464.63408119999804,465.9862652000156,464.63408119999804,465.9862652000156,465.9695306000067,466.4714266000083,465.9695306000067,466.4714266000083,465.9695306000067,466.4714266000083,465.9695306000067,466.4714266000083,465.9695306000067,466.4714266000083,465.9695306000067,466.4714266000083,465.9695306000067,466.4714266000083,465.9695306000067,466.4714266000083,464.63408119999804,None,466.4714266000083,467.6226158000063,1.350000000000001,467.6386610000045,None,468.3900996999582,None,,,,,,,[[1.15]],2.1600000000000015,0.6909090909090909,11012,001,2024_Jan_02_1107,MFTM_A_new1021,2021.2.3,59.80750357232887,
,,,,,,,,stim/Instruction_adaptive.png,conditions/adaptive.xlsx,test,0.6,0.6,0.6,-0.6,-0.6,right,R,,,,,0,1,1,1,0,55,55,70,,,,,,,,,,,,,,,,,,,,,,,,,,,,,,,,,,,,,,,,,,,,468.8906941000023,None,right,1,1.8918965000193566,469.39124189998256,471.3616622000118,469.39124189998256,470.8780321999802,469.39124189998256,470.8780321999802,469.39124189998256,470.8780321999802,469.39124189998256,470.8780321999802,469.39124189998256,470.8780321999802,470.8432615000056,471.34481679997407,470.8432615000056,471.34481679997407,470.8432615000056,471.34481679997407,470.8432615000056,471.34481679997407,470.8432615000056,471.34481679997407,470.8432615000056,471.34481679997407,470.8432615000056,471.34481679997407,470.8432615000056,471.34481679997407,469.39124189998256,None,471.34481679997407,472.37966519995825,1.470000000000001,472.3963192999945,None,473.1470442999853,None,,,,,,,[[1.03]],2.2000000000000015,0.6964285714285714,11012,001,2024_Jan_02_1107,MFTM_A_new1021,2021.2.3,59.80750357232887,
,,,,,,,,stim/Instruction_adaptive.png,conditions/adaptive.xlsx,test,0.6,0.6,0.6,-0.6,-0.6,right,R,,,,,0,1,1,1,0,56,56,24,,,,,,,,,,,,,,,,,,,,,,,,,,,,,,,,,,,,,,,,,,,,473.64784639998106,None,right,1,2.614434599992819,474.1481177000096,476.0852784999879,474.1481177000096,475.5835119999829,474.1481177000096,475.5835119999829,474.1481177000096,475.5835119999829,474.1481177000096,475.5835119999829,474.1481177000096,475.5835119999829,475.5677248999709,476.0684845999931,475.5677248999709,476.0684845999931,475.5677248999709,476.0684845999931,475.5677248999709,476.0684845999931,475.5677248999709,476.0684845999931,475.5677248999709,476.0684845999931,475.5677248999709,476.0684845999931,475.5677248999709,476.0684845999931,474.1481177000096,None,476.0684845999931,None,1.430000000000001,477.1526989999693,None,477.90387549996376,None,,,,,,,[[1.07]],2.2500000000000018,0.7017543859649122,11012,001,2024_Jan_02_1107,MFTM_A_new1021,2021.2.3,59.80750357232887,
,,,,,,,,stim/Instruction_adaptive.png,conditions/adaptive.xlsx,test,0.6,0.6,0.6,-0.6,-0.6,right,R,,,,,0,1,1,1,0,57,57,28,,,,,,,,,,,,,,,,,,,,,,,,,,,,,,,,,,,,,,,,,,,,478.40594659995986,None,right,1,2.176767500001006,478.9060427999939,480.79274269996677,478.9060427999939,480.29043049999746,478.9060427999939,480.29043049999746,478.9060427999939,480.29043049999746,478.9060427999939,480.29043049999746,478.9060427999939,480.29043049999746,480.27402519999305,480.7758399999584,480.27402519999305,480.7758399999584,480.27402519999305,480.7758399999584,480.27402519999305,480.7758399999584,480.27402519999305,480.7758399999584,480.27402519999305,480.7758399999584,480.27402519999305,480.7758399999584,480.27402519999305,480.7758399999584,478.9060427999939,None,480.7758399999584,None,1.380000000000001,481.9096870999783,None,482.6613343000063,None,,,,,,,[[1.12]],2.290000000000002,0.7068965517241379,11012,001,2024_Jan_02_1107,MFTM_A_new1021,2021.2.3,59.80750357232887,
,,,,,,,,stim/Instruction_adaptive.png,conditions/adaptive.xlsx,test,0.6,0.6,0.6,-0.6,-0.6,right,R,,,,,0,1,1,1,0,58,58,16,,,,,,,,,,,,,,,,,,,,,,,,,,,,,,,,,,,,,,,,,,,,483.1620127999922,None,right,1,2.3887891999911517,483.6622282000026,485.51602999999886,483.6622282000026,485.0151351999957,483.6622282000026,485.0151351999957,483.6622282000026,485.0151351999957,483.6622282000026,485.0151351999957,483.6622282000026,485.0151351999957,484.9987810999737,485.4990542999585,484.9987810999737,485.4990542999585,484.9987810999737,485.4990542999585,484.9987810999737,485.4990542999585,484.9987810999737,485.4990542999585,484.9987810999737,485.4990542999585,484.9987810999737,485.4990542999585,484.9987810999737,485.4990542999585,483.6622282000026,None,485.4990542999585,486.64996899996186,1.350000000000001,486.6667779000127,None,487.41864519997034,None,,,,,,,[[1.15]],2.330000000000002,0.711864406779661,11012,001,2024_Jan_02_1107,MFTM_A_new1021,2021.2.3,59.80750357232887,
,,,,,,,,stim/Instruction_adaptive.png,conditions/adaptive.xlsx,test,0.6,0.6,0.6,-0.6,-0.6,right,R,,,,,0,1,1,1,0,59,59,4,,,,,,,,,,,,,,,,,,,,,,,,,,,,,,,,,,,,,,,,,,,,487.9187133999658,None,right,1,1.862771200016141,488.42012329999125,490.23892949998844,488.42012329999125,489.7378618000075,488.42012329999125,489.7378618000075,488.42012329999125,489.7378618000075,488.42012329999125,489.7378618000075,488.42012329999125,489.7378618000075,489.7048203999875,490.2056920999894,489.7048203999875,490.2056920999894,489.7048203999875,490.2056920999894,489.7048203999875,490.2056920999894,489.7048203999875,490.2056920999894,489.7048203999875,490.2056920999894,489.7048203999875,490.2056920999894,489.7048203999875,490.2056920999894,488.42012329999125,None,490.2056920999894,491.4070333999698,1.310000000000001,491.4240361999837,None,492.1749187000096,None,,,,,,,[[1.19]],2.3600000000000017,0.7166666666666667,11012,001,2024_Jan_02_1107,MFTM_A_new1021,2021.2.3,59.80750357232887,
,,,,,,,,stim/Instruction_adaptive.png,conditions/adaptive.xlsx,test,-0.6,-0.6,-0.6,0.6,0.6,left,L,,,,,0,1,1,1,0,60,60,91,,,,,,,,,,,,,,,,,,,,,,,,,,,,,,,,,,,,,,,,,,,,492.67681989999255,None,left,1,2.1771154000307433,493.17757130000973,494.96360979997553,493.17757130000973,494.4626427000039,493.17757130000973,494.4626427000039,493.17757130000973,494.4626427000039,493.17757130000973,494.4626427000039,493.17757130000973,494.4626427000039,494.4460262999637,494.9465988999582,494.4460262999637,494.9465988999582,494.4460262999637,494.9465988999582,494.4460262999637,494.9465988999582,494.4460262999637,494.9465988999582,494.4460262999637,494.9465988999582,494.4460262999637,494.9465988999582,494.4460262999637,494.9465988999582,493.17757130000973,None,494.9465988999582,None,1.280000000000001,496.18098309997004,None,496.9325205999776,None,,,,,,,[[1.22]],2.4000000000000017,0.7213114754098361,11012,001,2024_Jan_02_1107,MFTM_A_new1021,2021.2.3,59.80750357232887,
,,,,,,,,stim/Instruction_adaptive.png,conditions/adaptive.xlsx,test,0.6,0.6,0.6,-0.6,-0.6,right,R,,,,,0,1,1,1,0,61,61,26,,,,,,,,,,,,,,,,,,,,,,,,,,,,,,,,,,,,,,,,,,,,497.4328568999772,None,right,1,1.7413868000148796,497.93349450000096,499.6862075999961,497.93349450000096,499.1862528999918,497.93349450000096,499.1862528999918,497.93349450000096,499.1862528999918,497.93349450000096,499.1862528999918,497.93349450000096,499.1862528999918,499.16937059996417,499.66944649996003,499.16937059996417,499.66944649996003,499.16937059996417,499.66944649996003,499.16937059996417,499.66944649996003,499.16937059996417,499.66944649996003,499.16937059996417,499.66944649996003,499.16937059996417,499.66944649996003,499.16937059996417,499.66944649996003,497.93349450000096,None,499.66944649996003,500.92339640000137,1.2500000000000009,500.93778679997195,None,501.68937099998584,None,,,,,,,[[1.25]],2.4300000000000015,0.7258064516129032,11012,001,2024_Jan_02_1107,MFTM_A_new1021,2021.2.3,59.80750357232887,
,,,,,,,,stim/Instruction_adaptive.png,conditions/adaptive.xlsx,test,0.6,0.6,0.6,-0.6,-0.6,right,R,,,,,0,1,1,1,0,62,62,20,,,,,,,,,,,,,,,,,,,,,,,,,,,,,,,,,,,,,,,,,,,,502.1911500999704,None,right,1,1.5998868000460789,502.690651300014,504.41024639998795,502.690651300014,503.92576149996603,502.690651300014,503.92576149996603,502.690651300014,503.92576149996603,502.690651300014,503.92576149996603,502.690651300014,503.92576149996603,503.8922936999588,504.3941001999774,503.8922936999588,504.3941001999774,503.8922936999588,504.3941001999774,503.8922936999588,504.3941001999774,503.8922936999588,504.3941001999774,503.8922936999588,504.3941001999774,503.8922936999588,504.3941001999774,503.8922936999588,504.3941001999774,502.690651300014,None,504.3941001999774,505.6622779999743,1.2200000000000009,505.6784881000058,None,506.42969690001337,None,,,,,,,[1.25301587],2.4700000000000015,0.7301587301587301,11012,001,2024_Jan_02_1107,MFTM_A_new1021,2021.2.3,59.80750357232887,
,,,,,,,,stim/Instruction_adaptive.png,conditions/adaptive.xlsx,test,0.6,0.6,0.6,-0.6,-0.6,right,R,,,,,0,1,1,1,0,63,63,0,,,,,,,,,,,,,,,,,,,,,,,,,,,,,,,,,,,,,,,,,,,,506.93055099999765,None,right,1,1.6843384000239894,507.43097529996885,509.1337485999684,507.43097529996885,508.6339614999597,507.43097529996885,508.6339614999597,507.43097529996885,508.6339614999597,507.43097529996885,508.6339614999597,507.43097529996885,508.6339614999597,508.59938799997326,509.1006134999916,508.59938799997326,509.1006134999916,508.59938799997326,509.1006134999916,508.59938799997326,509.1006134999916,508.59938799997326,509.1006134999916,508.59938799997326,509.1006134999916,508.59938799997326,509.1006134999916,508.59938799997326,509.1006134999916,507.43097529996885,None,509.1006134999916,510.36937799997395,1.1900000000000008,510.3862403999665,None,511.1370799000142,None,,,,,,,[1.25390625],2.5000000000000018,0.734375,11012,001,2024_Jan_02_1107,MFTM_A_new1021,2021.2.3,59.80750357232887,
,,,,,,,,stim/Instruction_adaptive.png,conditions/adaptive.xlsx,test,-0.6,-0.6,-0.6,0.6,0.6,left,L,,,,,0,1,1,1,0,64,64,71,,,,,,,,,,,,,,,,,,,,,,,,,,,,,,,,,,,,,,,,,,,,511.6378674999578,None,left,1,2.1920836999779567,512.1389603000134,513.8073030000087,512.1389603000134,513.3068293000106,512.1389603000134,513.3068293000106,512.1389603000134,513.3068293000106,512.1389603000134,513.3068293000106,512.1389603000134,513.3068293000106,513.2729286999675,513.7740745999618,513.2729286999675,513.7740745999618,513.2729286999675,513.7740745999618,513.2729286999675,513.7740745999618,513.2729286999675,513.7740745999618,513.2729286999675,513.7740745999618,513.2729286999675,513.7740745999618,513.2729286999675,513.7740745999618,512.1389603000134,None,513.7740745999618,515.0432389999623,1.1600000000000008,515.0597811999614,None,515.8102186999749,None,,,,,,,[1.25523077],2.530000000000002,0.7384615384615385,11012,001,2024_Jan_02_1107,MFTM_A_new1021,2021.2.3,59.80750357232887,
,,,,,,,,stim/Instruction_adaptive.png,conditions/adaptive.xlsx,test,-0.6,-0.6,-0.6,0.6,0.6,left,L,,,,,0,1,1,1,0,65,65,45,,,,,,,,,,,,,,,,,,,,,,,,,,,,,,,,,,,,,,,,,,,,516.3114560999675,None,left,1,1.7990159000037238,516.8121323999949,518.4640789999976,516.8121323999949,517.9629191000131,516.8121323999949,517.9629191000131,516.8121323999949,517.9629191000131,516.8121323999949,517.9629191000131,516.8121323999949,517.9629191000131,517.9306855999748,518.4310884000151,517.9306855999748,518.4310884000151,517.9306855999748,518.4310884000151,517.9306855999748,518.4310884000151,517.9306855999748,518.4310884000151,517.9306855999748,518.4310884000151,517.9306855999748,518.4310884000151,517.9306855999748,518.4310884000151,516.8121323999949,None,518.4310884000151,519.6997426999733,1.1400000000000008,519.7163914999692,None,520.4674276000005,None,,,,,,,[1.25681818],2.560000000000002,0.7424242424242424,11012,001,2024_Jan_02_1107,MFTM_A_new1021,2021.2.3,59.80750357232887,
,,,,,,,,stim/Instruction_adaptive.png,conditions/adaptive.xlsx,test,-0.6,-0.6,-0.6,0.6,0.6,left,L,,,,,0,1,1,1,0,66,66,67,,,,,,,,,,,,,,,,,,,,,,,,,,,,,,,,,,,,,,,,,,,,520.9683017999632,None,left,1,2.102701399999205,521.4686331999837,523.0882210999844,521.4686331999837,522.6035211000126,521.4686331999837,522.6035211000126,521.4686331999837,522.6035211000126,521.4686331999837,522.6035211000126,521.4686331999837,522.6035211000126,522.5699727999745,523.0714828000055,522.5699727999745,523.0714828000055,522.5699727999745,523.0714828000055,522.5699727999745,523.0714828000055,522.5699727999745,523.0714828000055,522.5699727999745,523.0714828000055,522.5699727999745,523.0714828000055,522.5699727999745,523.0714828000055,521.4686331999837,None,523.0714828000055,524.3398768999614,1.1200000000000008,524.3563123999629,None,525.1079575999756,None,,,,,,,[1.25865672],2.5900000000000016,0.746268656716418,11012,001,2024_Jan_02_1107,MFTM_A_new1021,2021.2.3,59.80750357232887,
,,,,,,,,stim/Instruction_adaptive.png,conditions/adaptive.xlsx,test,0.6,0.6,0.6,-0.6,-0.6,right,R,,,,,0,1,1,1,0,67,67,18,,,,,,,,,,,,,,,,,,,,,,,,,,,,,,,,,,,,,,,,,,,,525.6088730999618,None,right,1,1.5581841000239365,526.1085322999861,527.7124186999863,526.1085322999861,527.2110149000073,526.1085322999861,527.2110149000073,526.1085322999861,527.2110149000073,526.1085322999861,527.2110149000073,526.1085322999861,527.2110149000073,527.1771040000021,527.6785261000041,527.1771040000021,527.6785261000041,527.1771040000021,527.6785261000041,527.1771040000021,527.6785261000041,527.1771040000021,527.6785261000041,527.1771040000021,527.6785261000041,527.1771040000021,527.6785261000041,527.1771040000021,527.6785261000041,526.1085322999861,None,527.6785261000041,528.9467880000011,1.0900000000000007,528.9628422000096,None,529.7154238999938,None,,,,,,,[1.26088235],2.620000000000002,0.75,11012,001,2024_Jan_02_1107,MFTM_A_new1021,2021.2.3,59.80750357232887,
,,,,,,,,stim/Instruction_adaptive.png,conditions/adaptive.xlsx,test,-0.6,-0.6,-0.6,0.6,0.6,left,L,,,,,0,1,1,1,0,68,68,3,,,,,,,,,,,,,,,,,,,,,,,,,,,,,,,,,,,,,,,,,,,,530.2155944000115,None,left,1,1.479473199986387,530.7153367999708,532.2848721999908,530.7153367999708,531.8010351000121,530.7153367999708,531.8010351000121,530.7153367999708,531.8010351000121,530.7153367999708,531.8010351000121,530.7153367999708,531.8010351000121,531.7669290999766,532.2683764999965,531.7669290999766,532.2683764999965,531.7669290999766,532.2683764999965,531.7669290999766,532.2683764999965,531.7669290999766,532.2683764999965,531.7669290999766,532.2683764999965,531.7669290999766,532.2683764999965,531.7669290999766,532.2683764999965,530.7153367999708,None,532.2683764999965,533.5372681999579,1.0700000000000007,533.5536863000016,None,534.3039688999997,None,,,,,,,[1.26333333],2.640000000000002,0.7536231884057971,11012,001,2024_Jan_02_1107,MFTM_A_new1021,2021.2.3,59.80750357232887,
,,,,,,,,stim/Instruction_adaptive.png,conditions/adaptive.xlsx,test,-0.6,-0.6,-0.6,0.6,0.6,left,L,,,,,0,1,1,1,0,69,69,7,,,,,,,,,,,,,,,,,,,,,,,,,,,,,,,,,,,,,,,,,,,,534.8051973999827,None,left,1,1.5290567000047304,535.3055444000056,536.8757923999801,535.3055444000056,536.3754133000039,535.3055444000056,536.3754133000039,535.3055444000056,536.3754133000039,535.3055444000056,536.3754133000039,535.3055444000056,536.3754133000039,536.3571384999668,536.8581272999872,536.3571384999668,536.8581272999872,536.3571384999668,536.8581272999872,536.3571384999668,536.8581272999872,536.3571384999668,536.8581272999872,536.3571384999668,536.8581272999872,536.3571384999668,536.8581272999872,536.3571384999668,536.8581272999872,535.3055444000056,None,536.8415095999953,538.1106708999723,1.0600000000000007,538.1432276999694,None,538.8954111000057,None,,,,,,,[1.26585714],2.6700000000000017,0.7571428571428571,11012,001,2024_Jan_02_1107,MFTM_A_new1021,2021.2.3,59.80750357232887,
,,,,,,,,stim/Instruction_adaptive.png,conditions/adaptive.xlsx,test,-0.6,-0.6,-0.6,0.6,0.6,left,L,,,,,0,1,1,1,0,70,70,55,,,,,,,,,,,,,,,,,,,,,,,,,,,,,,,,,,,,,,,,,,,,539.3956878999597,None,left,1,2.4832958999904804,539.8957603999879,541.4311794000096,539.8957603999879,540.9312648999621,539.8957603999879,540.9312648999621,539.8957603999879,540.9312648999621,539.8957603999879,540.9312648999621,539.8957603999879,540.9312648999621,540.9149113000021,541.4146683000145,540.9149113000021,541.4146683000145,540.9149113000021,541.4146683000145,540.9149113000021,541.4146683000145,540.9149113000021,541.4146683000145,540.9149113000021,541.4146683000145,540.9149113000021,541.4146683000145,540.9149113000021,541.4146683000145,539.8957603999879,None,541.4146683000145,542.6840399999637,1.0300000000000007,542.6998783999588,None,543.451806099969,None,,,,,,,[1.26873239],2.690000000000002,0.7605633802816901,11012,001,2024_Jan_02_1107,MFTM_A_new1021,2021.2.3,59.80750357232887,
,,,,,,,,stim/Instruction_adaptive.png,conditions/adaptive.xlsx,test,-0.6,-0.6,-0.6,0.6,0.6,left,L,,,,,0,1,1,1,0,71,71,1,,,,,,,,,,,,,,,,,,,,,,,,,,,,,,,,,,,,,,,,,,,,543.9526330999797,None,left,1,1.8863116000429727,544.4525412999792,545.9717717999592,544.4525412999792,545.4881581999944,544.4525412999792,545.4881581999944,544.4525412999792,545.4881581999944,544.4525412999792,545.4881581999944,544.4525412999792,545.4881581999944,545.454647800012,545.95552399999,545.454647800012,545.95552399999,545.454647800012,545.95552399999,545.454647800012,545.95552399999,545.454647800012,545.95552399999,545.454647800012,545.95552399999,545.454647800012,545.95552399999,545.454647800012,545.95552399999,544.4525412999792,None,545.95552399999,547.240042099962,1.0200000000000007,547.2566965000005,None,548.0086283999844,None,,,,,,,[1.27166667],2.720000000000002,0.7638888888888888,11012,001,2024_Jan_02_1107,MFTM_A_new1021,2021.2.3,59.80750357232887,
,,,,,,,,stim/Instruction_adaptive.png,conditions/adaptive.xlsx,test,-0.6,-0.6,-0.6,0.6,0.6,left,L,,,,,0,1,1,1,0,72,72,69,,,,,,,,,,,,,,,,,,,,,,,,,,,,,,,,,,,,,,,,,,,,548.5091638999875,None,left,1,1.450181899999734,549.0091853999766,550.511353000009,549.0091853999766,550.0111745999893,549.0091853999766,550.0111745999893,549.0091853999766,550.0111745999893,549.0091853999766,550.0111745999893,549.0091853999766,550.0111745999893,549.9948233999894,550.4946520999656,549.9948233999894,550.4946520999656,549.9948233999894,550.4946520999656,549.9948233999894,550.4946520999656,549.9948233999894,550.4946520999656,549.9948233999894,550.4946520999656,549.9948233999894,550.4946520999656,549.9948233999894,550.4946520999656,549.0091853999766,None,550.4946520999656,551.7807006000075,1.0000000000000007,551.7972742000129,None,552.5485248999903,None,,,,,,,[1.27479452],2.740000000000002,0.7671232876712328,11012,001,2024_Jan_02_1107,MFTM_A_new1021,2021.2.3,59.80750357232887,
,,,,,,,,stim/Instruction_adaptive.png,conditions/adaptive.xlsx,test,0.6,0.6,0.6,-0.6,-0.6,right,R,,,,,0,1,1,1,0,73,73,54,,,,,,,,,,,,,,,,,,,,,,,,,,,,,,,,,,,,,,,,,,,,553.0501044999692,None,right,1,1.470499299990479,553.5490627000108,555.0357059999951,553.5490627000108,554.5345058999956,553.5490627000108,554.5345058999956,553.5490627000108,554.5345058999956,553.5490627000108,554.5345058999956,553.5490627000108,554.5345058999956,554.5180041000131,555.0188004999654,554.5180041000131,555.0188004999654,554.5180041000131,555.0188004999654,554.5180041000131,555.0188004999654,554.5180041000131,555.0188004999654,554.5180041000131,555.0188004999654,554.5180041000131,555.0188004999654,554.5180041000131,555.0188004999654,553.5490627000108,None,555.0188004999654,556.3045025999891,0.9800000000000006,556.3210102999583,None,557.0712000000058,None,,,,,,,[1.27810811],2.7700000000000022,0.7702702702702703,11012,001,2024_Jan_02_1107,MFTM_A_new1021,2021.2.3,59.80750357232887,
,,,,,,,,stim/Instruction_adaptive.png,conditions/adaptive.xlsx,test,0.6,0.6,0.6,-0.6,-0.6,right,R,,,,,0,1,1,1,0,74,74,32,,,,,,,,,,,,,,,,,,,,,,,,,,,,,,,,,,,,,,,,,,,,557.5732130999677,None,right,1,1.4742177000152878,558.0725426999852,559.5421347999945,558.0725426999852,559.0413795000059,558.0725426999852,559.0413795000059,558.0725426999852,559.0413795000059,558.0725426999852,559.0413795000059,558.0725426999852,559.0413795000059,559.0246475999593,559.5249213000061,559.0246475999593,559.5249213000061,559.0246475999593,559.5249213000061,559.0246475999593,559.5249213000061,559.0246475999593,559.5249213000061,559.0246475999593,559.5249213000061,559.0246475999593,559.5249213000061,559.0246475999593,559.5249213000061,558.0725426999852,None,559.5085367999854,560.7932462999597,0.9600000000000006,560.8267208999605,None,561.5788810999948,None,,,,,,,[1.2816],2.790000000000002,0.7733333333333333,11012,001,2024_Jan_02_1107,MFTM_A_new1021,2021.2.3,59.80750357232887,
,,,,,,,,stim/Instruction_adaptive.png,conditions/adaptive.xlsx,test,-0.6,-0.6,-0.6,0.6,0.6,left,L,,,,,0,1,1,1,0,75,75,49,,,,,,,,,,,,,,,,,,,,,,,,,,,,,,,,,,,,,,,,,,,,562.0793046999606,None,right,0,1.4074442000128329,562.579411499959,564.0332115999772,562.579411499959,563.5311287000077,562.579411499959,563.5311287000077,562.579411499959,563.5311287000077,562.579411499959,563.5311287000077,562.579411499959,563.5311287000077,563.5141014999826,564.0148986999993,563.5141014999826,564.0148986999993,563.5141014999826,564.0148986999993,563.5141014999826,564.0148986999993,563.5141014999826,564.0148986999993,563.5141014999826,564.0148986999993,563.5141014999826,564.0148986999993,563.5141014999826,564.0148986999993,562.579411499959,None,564.0148986999993,565.3022935999907,0.9500000000000006,565.3160515999771,None,566.0689703999669,None,,,,,,,[1.28513158],2.720000000000002,0.7631578947368421,11012,001,2024_Jan_02_1107,MFTM_A_new1021,2021.2.3,59.80750357232887,
,,,,,,,,stim/Instruction_adaptive.png,conditions/adaptive.xlsx,test,0.6,0.6,0.6,-0.6,-0.6,right,R,,,,,0,1,1,1,0,76,76,48,,,,,,,,,,,,,,,,,,,,,,,,,,,,,,,,,,,,,,,,,,,,566.5692210000125,None,right,1,1.637310499965679,567.0694584999583,568.5722892999765,567.0694584999583,568.0708299999824,567.0694584999583,568.0708299999824,567.0694584999583,568.0708299999824,567.0694584999583,568.0708299999824,567.0694584999583,568.0708299999824,568.0539100999595,568.555430700013,568.0539100999595,568.555430700013,568.0539100999595,568.555430700013,568.0539100999595,568.555430700013,568.0539100999595,568.555430700013,568.0539100999595,568.555430700013,568.0539100999595,568.555430700013,568.0539100999595,568.555430700013,567.0694584999583,None,568.555430700013,None,1.0000000000000007,569.8567645999719,None,570.6085505000083,None,,,,,,,[1.28792208],2.7500000000000018,0.7662337662337663,11012,001,2024_Jan_02_1107,MFTM_A_new1021,2021.2.3,59.80750357232887,
,,,,,,,,stim/Instruction_adaptive.png,conditions/adaptive.xlsx,test,-0.6,-0.6,-0.6,0.6,0.6,left,L,,,,,0,1,1,1,0,77,77,25,,,,,,,,,,,,,,,,,,,,,,,,,,,,,,,,,,,,,,,,,,,,571.1095859999768,None,right,0,1.68135309999343,571.6093429999892,573.0948612999637,571.6093429999892,572.5941823999747,571.6093429999892,572.5941823999747,571.6093429999892,572.5941823999747,571.6093429999892,572.5941823999747,571.6093429999892,572.5941823999747,572.577464699978,573.078205799975,572.577464699978,573.078205799975,572.577464699978,573.078205799975,572.577464699978,573.078205799975,572.577464699978,573.078205799975,572.577464699978,573.078205799975,572.577464699978,573.078205799975,572.577464699978,573.078205799975,571.6093429999892,None,573.078205799975,None,0.9800000000000006,574.3800456000026,None,575.1312405999633,None,,,,,,,[1.29089744],2.680000000000002,0.7564102564102564,11012,001,2024_Jan_02_1107,MFTM_A_new1021,2021.2.3,59.80750357232887,
,,,,,,,,stim/Instruction_adaptive.png,conditions/adaptive.xlsx,test,-0.6,-0.6,-0.6,0.6,0.6,left,L,,,,,0,1,1,1,0,78,78,43,,,,,,,,,,,,,,,,,,,,,,,,,,,,,,,,,,,,,,,,,,,,575.6328483999823,None,right,0,2.142088899970986,576.13273079996,577.6690772000002,576.13273079996,577.1682995999581,576.13273079996,577.1682995999581,576.13273079996,577.1682995999581,576.13273079996,577.1682995999581,576.13273079996,577.1682995999581,577.1513471999788,577.6516908999765,577.1513471999788,577.6516908999765,577.1513471999788,577.6516908999765,577.1513471999788,577.6516908999765,577.1513471999788,577.6516908999765,577.1513471999788,577.6516908999765,577.1513471999788,577.6516908999765,577.1513471999788,577.6516908999765,576.13273079996,None,577.6516908999765,578.9542598999687,1.0300000000000007,578.9705675999867,None,579.7213774999836,None,,,,,,,[1.29316456],2.610000000000002,0.7468354430379747,11012,001,2024_Jan_02_1107,MFTM_A_new1021,2021.2.3,59.80750357232887,
,,,,,,,,stim/Instruction_adaptive.png,conditions/adaptive.xlsx,test,-0.6,-0.6,-0.6,0.6,0.6,left,L,,,,,0,1,1,1,0,79,79,27,,,,,,,,,,,,,,,,,,,,,,,,,,,,,,,,,,,,,,,,,,,,580.2230017000111,None,left,1,2.3036177000030875,580.7231827999931,582.3082933999831,580.7231827999931,581.8077925000107,580.7231827999931,581.8077925000107,580.7231827999931,581.8077925000107,580.7231827999931,581.8077925000107,580.7231827999931,581.8077925000107,581.7910272000008,582.2918219999992,581.7910272000008,582.2918219999992,581.7910272000008,582.2918219999992,581.7910272000008,582.2918219999992,581.7910272000008,582.2918219999992,581.7910272000008,582.2918219999992,581.7910272000008,582.2918219999992,581.7910272000008,582.2918219999992,580.7231827999931,None,582.2918219999992,583.5949255999876,1.0800000000000007,583.6104623000138,None,584.362182599958,None,,,,,,,[1.29475],2.6300000000000017,0.75,11012,001,2024_Jan_02_1107,MFTM_A_new1021,2021.2.3,59.80750357232887,
,,,,,,,,stim/Instruction_adaptive.png,conditions/adaptive.xlsx,test,0.6,0.6,0.6,-0.6,-0.6,right,R,,,,,0,1,1,1,0,80,80,38,,,,,,,,,,,,,,,,,,,,,,,,,,,,,,,,,,,,,,,,,,,,584.8631905000075,None,right,1,1.471030000015162,585.3635762999766,586.932817599969,585.3635762999766,586.4324493999593,585.3635762999766,586.4324493999593,585.3635762999766,586.4324493999593,585.3635762999766,586.4324493999593,585.3635762999766,586.4324493999593,586.4156052999897,586.9156711999676,586.4156052999897,586.9156711999676,586.4156052999897,586.9156711999676,586.4156052999897,586.9156711999676,586.4156052999897,586.9156711999676,586.4156052999897,586.9156711999676,586.4156052999897,586.9156711999676,586.4156052999897,586.9156711999676,585.3635762999766,None,586.8987726999912,588.2009806999704,1.0600000000000007,588.2338443999761,None,588.9857345999917,None,,,,,,,[1.29654321],2.650000000000002,0.7530864197530864,11012,001,2024_Jan_02_1107,MFTM_A_new1021,2021.2.3,59.80750357232887,
,,,,,,,,stim/Instruction_adaptive.png,conditions/adaptive.xlsx,test,-0.6,-0.6,-0.6,0.6,0.6,left,L,,,,,0,1,1,1,0,81,81,39,,,,,,,,,,,,,,,,,,,,,,,,,,,,,,,,,,,,,,,,,,,,589.4869364000042,None,left,1,1.5756047000177205,589.9872999999789,591.539924599987,589.9872999999789,591.0387094999896,589.9872999999789,591.0387094999896,589.9872999999789,591.0387094999896,589.9872999999789,591.0387094999896,589.9872999999789,591.0387094999896,591.0225998999667,591.5229128999636,591.0225998999667,591.5229128999636,591.0225998999667,591.5229128999636,591.0225998999667,591.5229128999636,591.0225998999667,591.5229128999636,591.0225998999667,591.5229128999636,591.0225998999667,591.5229128999636,591.0225998999667,591.5229128999636,589.9872999999789,None,591.5229128999636,592.8244766999851,1.0500000000000007,592.8407328999601,None,593.5933660999872,None,,,,,,,[1.29841463],2.680000000000002,0.7560975609756098,11012,001,2024_Jan_02_1107,MFTM_A_new1021,2021.2.3,59.80750357232887,
,,,,,,,,stim/Instruction_adaptive.png,conditions/adaptive.xlsx,test,-0.6,-0.6,-0.6,0.6,0.6,left,L,,,,,0,1,1,1,0,82,82,61,,,,,,,,,,,,,,,,,,,,,,,,,,,,,,,,,,,,,,,,,,,,594.0935634999769,None,right,0,2.2646486000157893,594.5941506999661,596.1295900999685,594.5941506999661,595.6290530000115,594.5941506999661,595.6290530000115,594.5941506999661,595.6290530000115,594.5941506999661,595.6290530000115,594.5941506999661,595.6290530000115,595.6130463000154,596.113271499984,595.6130463000154,596.113271499984,595.6130463000154,596.113271499984,595.6130463000154,596.113271499984,595.6130463000154,596.113271499984,595.6130463000154,596.113271499984,595.6130463000154,596.113271499984,595.6130463000154,596.113271499984,594.5941506999661,None,596.113271499984,597.4160088999779,1.0300000000000007,597.4303104999708,None,598.1836346999626,None,,,,,,,[1.30048193],2.610000000000002,0.7469879518072289,11012,001,2024_Jan_02_1107,MFTM_A_new1021,2021.2.3,59.80750357232887,
,,,,,,,,stim/Instruction_adaptive.png,conditions/adaptive.xlsx,test,0.6,0.6,0.6,-0.6,-0.6,right,R,,,,,0,1,1,1,0,83,83,22,,,,,,,,,,,,,,,,,,,,,,,,,,,,,,,,,,,,,,,,,,,,598.6829768999596,None,right,1,1.378164599998854,599.184528200014,600.770046999969,599.184528200014,600.2686345999828,599.184528200014,600.2686345999828,599.184528200014,600.2686345999828,599.184528200014,600.2686345999828,599.184528200014,600.2686345999828,600.2520321999909,600.7532795000006,600.2520321999909,600.7532795000006,600.2520321999909,600.7532795000006,600.2520321999909,600.7532795000006,600.2520321999909,600.7532795000006,600.2520321999909,600.7532795000006,600.2520321999909,600.7532795000006,600.2520321999909,600.7532795000006,599.184528200014,None,600.7532795000006,602.0550196999684,1.0800000000000007,602.0711690000026,None,602.8232262000092,None,,,,,,,[1.30190476],2.6300000000000017,0.75,11012,001,2024_Jan_02_1107,MFTM_A_new1021,2021.2.3,59.80750357232887,
,,,,,,,,stim/Instruction_adaptive.png,conditions/adaptive.xlsx,test,0.6,0.6,0.6,-0.6,-0.6,right,R,,,,,0,1,1,1,0,84,84,50,,,,,,,,,,,,,,,,,,,,,,,,,,,,,,,,,,,,,,,,,,,,603.3237392999581,None,right,1,1.3390860999934375,603.82355739997,605.3933537999983,603.82355739997,604.8927494999953,603.82355739997,604.8927494999953,603.82355739997,604.8927494999953,603.82355739997,604.8927494999953,603.82355739997,604.8927494999953,604.8761713000131,605.3765851999633,604.8761713000131,605.3765851999633,604.8761713000131,605.3765851999633,604.8761713000131,605.3765851999633,604.8761713000131,605.3765851999633,604.8761713000131,605.3765851999633,604.8761713000131,605.3765851999633,604.8761713000131,605.3765851999633,603.82355739997,None,605.3765851999633,None,1.0600000000000007,606.6947611999931,None,607.4458616999909,None,,,,,,,[1.30352941],2.660000000000002,0.7529411764705882,11012,001,2024_Jan_02_1107,MFTM_A_new1021,2021.2.3,59.80750357232887,
,,,,,,,,stim/Instruction_adaptive.png,conditions/adaptive.xlsx,test,-0.6,-0.6,-0.6,0.6,0.6,left,L,,,,,0,1,1,1,0,85,85,51,,,,,,,,,,,,,,,,,,,,,,,,,,,,,,,,,,,,,,,,,,,,607.9472901999834,None,left,1,2.1795487999916077,608.4472520999843,610.0004958999925,608.4472520999843,609.4997040999588,608.4472520999843,609.4997040999588,608.4472520999843,609.4997040999588,608.4472520999843,609.4997040999588,608.4472520999843,609.4997040999588,609.465480200015,609.9668018000084,609.465480200015,609.9668018000084,609.465480200015,609.9668018000084,609.465480200015,609.9668018000084,609.465480200015,609.9668018000084,609.465480200015,609.9668018000084,609.465480200015,609.9668018000084,609.465480200015,609.9668018000084,608.4472520999843,None,609.9668018000084,611.2857014999609,1.0400000000000007,611.3018016999704,None,612.0538051999756,None,,,,,,,[1.30534884],2.680000000000002,0.7558139534883721,11012,001,2024_Jan_02_1107,MFTM_A_new1021,2021.2.3,59.80750357232887,
,,,,,,,,stim/Instruction_adaptive.png,conditions/adaptive.xlsx,test,0.6,0.6,0.6,-0.6,-0.6,right,R,,,,,0,1,1,1,0,86,86,64,,,,,,,,,,,,,,,,,,,,,,,,,,,,,,,,,,,,,,,,,,,,612.5534760999726,None,right,1,1.4039965000119992,613.0546715999953,614.5904598999768,613.0546715999953,614.0890811000136,613.0546715999953,614.0890811000136,613.0546715999953,614.0890811000136,613.0546715999953,614.0890811000136,613.0546715999953,614.0890811000136,614.0728875999921,614.5733620999963,614.0728875999921,614.5733620999963,614.0728875999921,614.5733620999963,614.0728875999921,614.5733620999963,614.0728875999921,614.5733620999963,614.0728875999921,614.5733620999963,614.0728875999921,614.5733620999963,614.0728875999921,614.5733620999963,613.0546715999953,None,614.5733620999963,None,1.0300000000000007,615.8915100999875,None,616.6430549999932,None,,,,,,,[1.30724138],2.700000000000002,0.7586206896551724,11012,001,2024_Jan_02_1107,MFTM_A_new1021,2021.2.3,59.80750357232887,
,,,,,,,,stim/Instruction_adaptive.png,conditions/adaptive.xlsx,test,0.6,0.6,0.6,-0.6,-0.6,right,R,,,,,0,1,1,1,0,87,87,58,,,,,,,,,,,,,,,,,,,,,,,,,,,,,,,,,,,,,,,,,,,,617.1434554000152,None,right,1,1.934994499955792,617.6443087999942,619.1632507999893,617.6443087999942,618.6634034999879,617.6443087999942,618.6634034999879,617.6443087999942,618.6634034999879,617.6443087999942,618.6634034999879,617.6443087999942,618.6634034999879,618.6297499999637,619.130468999967,618.6297499999637,619.130468999967,618.6297499999637,619.130468999967,618.6297499999637,619.130468999967,618.6297499999637,619.130468999967,618.6297499999637,619.130468999967,618.6297499999637,619.130468999967,618.6297499999637,619.130468999967,617.6443087999942,None,619.130468999967,620.4496082999976,1.0100000000000007,620.4658283999888,None,621.2169656999758,None,,,,,,,[1.30931818],2.720000000000002,0.7613636363636364,11012,001,2024_Jan_02_1107,MFTM_A_new1021,2021.2.3,59.80750357232887,
,,,,,,,,stim/Instruction_adaptive.png,conditions/adaptive.xlsx,test,0.6,0.6,0.6,-0.6,-0.6,right,R,,,,,0,1,1,1,0,88,88,2,,,,,,,,,,,,,,,,,,,,,,,,,,,,,,,,,,,,,,,,,,,,621.7175056000124,None,right,1,1.3450892000109889,622.2176993999747,623.7204159999965,622.2176993999747,623.2192376999883,622.2176993999747,623.2192376999883,622.2176993999747,623.2192376999883,622.2176993999747,623.2192376999883,622.2176993999747,623.2192376999883,623.2034505999763,623.7033984999871,623.2034505999763,623.7033984999871,623.2034505999763,623.7033984999871,623.2034505999763,623.7033984999871,623.2034505999763,623.7033984999871,623.2034505999763,623.7033984999871,623.2034505999763,623.7033984999871,623.2034505999763,623.7033984999871,622.2176993999747,None,623.7033984999871,625.0222591999918,1.0000000000000007,625.039163999958,None,625.790395399963,None,,,,,,,[1.31146067],2.740000000000002,0.7640449438202247,11012,001,2024_Jan_02_1107,MFTM_A_new1021,2021.2.3,59.80750357232887,
,,,,,,,,stim/Instruction_adaptive.png,conditions/adaptive.xlsx,test,0.6,0.6,0.6,-0.6,-0.6,right,R,,,,,0,1,1,1,0,89,89,94,,,,,,,,,,,,,,,,,,,,,,,,,,,,,,,,,,,,,,,,,,,,626.2903836999903,None,right,1,1.6355799000011757,626.791209899995,628.2773790999781,626.791209899995,627.776551399962,626.791209899995,627.776551399962,626.791209899995,627.776551399962,626.791209899995,627.776551399962,626.791209899995,627.776551399962,627.7600200999877,628.2622788000153,627.7600200999877,628.2622788000153,627.7600200999877,628.2622788000153,627.7600200999877,628.2622788000153,627.7600200999877,628.2622788000153,627.7600200999877,628.2622788000153,627.7600200999877,628.2622788000153,627.7600200999877,628.2622788000153,626.791209899995,None,628.2622788000153,629.5793943000026,0.9800000000000006,629.5959129999974,None,630.3470680000028,None,,,,,,,[1.31377778],2.760000000000002,0.7666666666666667,11012,001,2024_Jan_02_1107,MFTM_A_new1021,2021.2.3,59.80750357232887,
,,,,,,,,stim/Instruction_adaptive.png,conditions/adaptive.xlsx,test,-0.6,-0.6,-0.6,0.6,0.6,left,L,,,,,0,1,1,1,0,90,90,23,,,,,,,,,,,,,,,,,,,,,,,,,,,,,,,,,,,,,,,,,,,,630.8477896999684,None,right,0,1.67025880003348,631.3489298999775,632.834394000005,631.3489298999775,632.3327275000047,631.3489298999775,632.3327275000047,631.3489298999775,632.3327275000047,631.3489298999775,632.3327275000047,631.3489298999775,632.3327275000047,632.2993015999673,632.8003690000041,632.2993015999673,632.8003690000041,632.2993015999673,632.8003690000041,632.2993015999673,632.8003690000041,632.2993015999673,632.8003690000041,632.2993015999673,632.8003690000041,632.2993015999673,632.8003690000041,632.2993015999673,632.8003690000041,631.3489298999775,None,632.8003690000041,634.1188775000046,0.9700000000000006,634.1352199999965,None,634.886549399991,None,,,,,,,[1.31615385],2.700000000000002,0.7582417582417582,11012,001,2024_Jan_02_1107,MFTM_A_new1021,2021.2.3,59.80750357232887,
,,,,,,,,stim/Instruction_adaptive.png,conditions/adaptive.xlsx,test,0.6,0.6,0.6,-0.6,-0.6,right,R,,,,,0,1,1,1,0,91,91,30,,,,,,,,,,,,,,,,,,,,,,,,,,,,,,,,,,,,,,,,,,,,635.3882387999911,None,right,1,1.4105126000358723,635.8882008999935,637.4081545000081,635.8882008999935,636.9068936000112,635.8882008999935,636.9068936000112,635.8882008999935,636.9068936000112,635.8882008999935,636.9068936000112,635.8882008999935,636.9068936000112,636.8732843999751,637.3734218999743,636.8732843999751,637.3734218999743,636.8732843999751,637.3734218999743,636.8732843999751,637.3734218999743,636.8732843999751,637.3734218999743,636.8732843999751,637.3734218999743,636.8732843999751,637.3734218999743,636.8732843999751,637.3734218999743,635.8882008999935,None,637.3734218999743,638.6932888000156,1.0100000000000007,638.7248915999662,None,639.4766569999629,None,,,,,,,[1.31804348],2.720000000000002,0.7608695652173914,11012,001,2024_Jan_02_1107,MFTM_A_new1021,2021.2.3,59.80750357232887,
,,,,,,,,stim/Instruction_adaptive.png,conditions/adaptive.xlsx,test,-0.6,-0.6,-0.6,0.6,0.6,left,L,,,,,0,1,1,1,0,92,92,41,,,,,,,,,,,,,,,,,,,,,,,,,,,,,,,,,,,,,,,,,,,,639.9785946999909,None,left,1,1.5885453000082634,640.478080299974,641.9813072999823,640.478080299974,641.4798615999753,640.478080299974,641.4798615999753,640.478080299974,641.4798615999753,640.478080299974,641.4798615999753,640.478080299974,641.4798615999753,641.4635501999874,641.9643187999609,641.4635501999874,641.9643187999609,641.4635501999874,641.9643187999609,641.4635501999874,641.9643187999609,641.4635501999874,641.9643187999609,641.4635501999874,641.9643187999609,641.4635501999874,641.9643187999609,641.4635501999874,641.9643187999609,640.478080299974,None,641.9643187999609,None,1.0000000000000007,643.2989247000078,None,644.050017600006,None,,,,,,,[1.32],2.740000000000002,0.7634408602150538,11012,001,2024_Jan_02_1107,MFTM_A_new1021,2021.2.3,59.80750357232887,
,,,,,,,,stim/Instruction_adaptive.png,conditions/adaptive.xlsx,test,-0.6,-0.6,-0.6,0.6,0.6,left,L,,,,,0,1,1,1,0,93,93,35,,,,,,,,,,,,,,,,,,,,,,,,,,,,,,,,,,,,,,,,,,,,644.5508014999796,None,left,1,1.9504602000233717,645.0522958000074,646.5371369000059,645.0522958000074,646.0368016000139,645.0522958000074,646.0368016000139,645.0522958000074,646.0368016000139,645.0522958000074,646.0368016000139,645.0522958000074,646.0368016000139,646.019534299965,646.5204579000128,646.019534299965,646.5204579000128,646.019534299965,646.5204579000128,646.019534299965,646.5204579000128,646.019534299965,646.5204579000128,646.019534299965,646.5204579000128,646.019534299965,646.5204579000128,646.019534299965,646.5204579000128,645.0522958000074,None,646.5204579000128,None,0.9800000000000006,647.8551815999672,None,648.6069897999987,None,,,,,,,[1.32212766],2.760000000000002,0.7659574468085106,11012,001,2024_Jan_02_1107,MFTM_A_new1021,2021.2.3,59.80750357232887,
