arrwidth1,arrwidth2,arrwidth3,arrwidth4,arrwidth5,keyb,type,orientation,instruction_image,block_filename,block_type,arrow11,arrow22,arrow33,arrow44,arrow55,keyb_3,orientation3,trials.thisRepN,trials.thisTrialN,trials.thisN,trials.thisIndex,trials_3.thisRepN,trials_3.thisTrialN,trials_3.thisN,trials_3.thisIndex,trials_2.thisRepN,trials_2.thisTrialN,trials_2.thisN,trials_2.thisIndex,welcome.started,welcome.stopped,key_resp.keys,key_resp.rt,key_resp.started,key_resp.stopped,instruction_example.started,instruction_example.stopped,key_resp_3.keys,key_resp_3.rt,key_resp_3.started,key_resp_3.stopped,instruction_task.started,instruction_task.stopped,key_resp_2.keys,key_resp_2.rt,key_resp_2.started,key_resp_2.stopped,text_2.started,text_2.stopped,A1.started,A1.stopped,A2.started,A2.stopped,A3.started,A3.stopped,A4.started,A4.stopped,A5.started,A5.stopped,key_resp_4.keys,key_resp_4.corr,key_resp_4.rt,key_resp_4.started,key_resp_4.stopped,fb.started,fb.stopped,instruction_block.started,instruction_block.stopped,key_resp_8.keys,key_resp_8.rt,key_resp_8.started,key_resp_8.stopped,text_8.started,text_8.stopped,key_resp_9.keys,key_resp_9.corr,key_resp_9.rt,text_5.started,text_5.stopped,A11_3.started,A11_3.stopped,A22_2.started,A22_2.stopped,A33_2.started,A33_2.stopped,A44_2.started,A44_2.stopped,A55_2.started,A55_2.stopped,M1_3.started,M1_3.stopped,M2_2.started,M2_2.stopped,M3_2.started,M3_2.stopped,M4_2.started,M4_2.stopped,M5_2.started,M5_2.stopped,M6_2.started,M6_2.stopped,M7_2.started,M7_2.stopped,M8_2.started,M8_2.stopped,key_resp_9.started,key_resp_9.stopped,fixation.started,fixation.stopped,ET,fb_3.started,fb_3.stopped,text_9.started,text_9.stopped,fb_4.started,fb_4.stopped,text_7.started,text_7.stopped,endtext.started,endtext.stopped,fixation_ITI,CCC,Acc,participant,session,date,expName,psychopyVersion,frameRate,
,,,,,,,,,,,,,,,,,,,,,,,,,,,,,,370.74977840005886,None,space,3.292384500033222,370.74977840005886,None,,,,,,,,,,,,,,,,,,,,,,,,,,,,,,,,,,,,,,,,,,,,,,,,,,,,,,,,,,,,,,,,,,,,,,,,,,,,,,,,,,,,,,,,,11015,002,2024_Jan_04_1632,MFTM_A_new1021,2021.2.3,59.7037380929892,
,,,,,,,,,,,,,,,,,,,,,,,,,,,,,,,,,,,,374.07139769999776,None,space,3.0985415000468493,374.07139769999776,None,,,,,,,,,,,,,,,,,,,,,,,,,,,,,,,,,,,,,,,,,,,,,,,,,,,,,,,,,,,,,,,,,,,,,,,,,,,,,,,,,,,11015,002,2024_Jan_04_1632,MFTM_A_new1021,2021.2.3,59.7037380929892,
,,,,,,,,,,,,,,,,,,,,,,,,,,,,,,,,,,,,,,,,,,377.19265029998496,None,space,3.7617336000548676,377.19265029998496,None,,,,,,,,,,,,,,,,,,,,,,,,,,,,,,,,,,,,,,,,,,,,,,,,,,,,,,,,,,,,,,,,,,,,,,,,,,,,,11015,002,2024_Jan_04_1632,MFTM_A_new1021,2021.2.3,59.7037380929892,
-0.6,-0.6,-0.6,0.6,0.6,left,3:2,L,,,,,,,,,,,0,0,0,1,,,,,,,,,,,,,,,,,,,,,,,,,,,380.9997660999652,None,380.9997660999652,None,380.9997660999652,None,380.9997660999652,None,380.9997660999652,None,380.9997660999652,None,left,1,4.538307899958454,380.9997660999652,None,385.57198320003226,None,,,,,,,,,,,,,,,,,,,,,,,,,,,,,,,,,,,,,,,,,,,,,,,,,,,,,,,,,,11015,002,2024_Jan_04_1632,MFTM_A_new1021,2021.2.3,59.7037380929892,
0.6,0.6,0.6,-0.6,-0.6,right,3:2,R,,,,,,,,,,,0,1,1,0,,,,,,,,,,,,,,,,,,,,,,,,,,,386.32350920001045,None,386.32350920001045,None,386.32350920001045,None,386.32350920001045,None,386.32350920001045,None,386.32350920001045,None,right,1,1.110355700016953,386.32350920001045,None,387.457780500059,None,,,,,,,,,,,,,,,,,,,,,,,,,,,,,,,,,,,,,,,,,,,,,,,,,,,,,,,,,,11015,002,2024_Jan_04_1632,MFTM_A_new1021,2021.2.3,59.7037380929892,
0.6,0.6,0.6,-0.6,-0.6,right,3:2,R,,,,,,,,,,,1,0,2,0,,,,,,,,,,,,,,,,,,,,,,,,,,,388.2089870000491,None,388.2089870000491,None,388.2089870000491,None,388.2089870000491,None,388.2089870000491,None,388.2089870000491,None,right,1,2.337098899995908,388.2089870000491,None,390.56243569997605,None,,,,,,,,,,,,,,,,,,,,,,,,,,,,,,,,,,,,,,,,,,,,,,,,,,,,,,,,,,11015,002,2024_Jan_04_1632,MFTM_A_new1021,2021.2.3,59.7037380929892,
-0.6,-0.6,-0.6,0.6,0.6,left,3:2,L,,,,,,,,,,,1,1,3,1,,,,,,,,,,,,,,,,,,,,,,,,,,,391.31349570001476,None,391.31349570001476,None,391.31349570001476,None,391.31349570001476,None,391.31349570001476,None,391.31349570001476,None,left,1,1.0245694000041112,391.31349570001476,None,392.36505240004044,None,,,,,,,,,,,,,,,,,,,,,,,,,,,,,,,,,,,,,,,,,,,,,,,,,,,,,,,,,,11015,002,2024_Jan_04_1632,MFTM_A_new1021,2021.2.3,59.7037380929892,
,,,,,,,,stim/Instruction_mask.png,conditions/adaptive.xlsx,practice,0.6,0.6,0.6,-0.6,-0.6,right,R,,,,,0,0,0,0,0,0,0,96,,,,,,,,,,,,,,,,,,,,,,,,,,,,,,,,,,,,,,393.36655070004053,None,space,4.2838328999932855,393.36655070004053,None,397.7391445999965,None,right,1,2.4920004999730736,398.1902415000368,None,398.1902415000368,401.19486529997084,398.1902415000368,401.19486529997084,398.1902415000368,401.19486529997084,398.1902415000368,401.19486529997084,398.1902415000368,401.19486529997084,401.17897330003325,401.6796485000523,401.17897330003325,401.6796485000523,401.17897330003325,401.6796485000523,401.17897330003325,401.6796485000523,401.17897330003325,401.6796485000523,401.17897330003325,401.6796485000523,401.17897330003325,401.6796485000523,401.17897330003325,401.6796485000523,398.1902415000368,None,401.6796485000523,401.6796485000523,3,401.6955599000212,None,402.44724510004744,None,,,,,,,,,,11015,002,2024_Jan_04_1632,MFTM_A_new1021,2021.2.3,59.7037380929892,
,,,,,,,,stim/Instruction_mask.png,conditions/adaptive.xlsx,practice,-0.6,-0.6,-0.6,0.6,0.6,left,L,,,,,0,0,0,0,0,1,1,17,,,,,,,,,,,,,,,,,,,,,,,,,,,,,,,,,,,,,,,,,,,,402.94745830004103,None,right,0,1.8024422999005765,403.44829960004427,405.4520018999465,403.44829960004427,404.9503584000049,403.44829960004427,404.9503584000049,403.44829960004427,404.9503584000049,403.44829960004427,404.9503584000049,403.44829960004427,404.9503584000049,404.9343973000068,405.4344682999654,404.9343973000068,405.4344682999654,404.9343973000068,405.4344682999654,404.9343973000068,405.4344682999654,404.9343973000068,405.4344682999654,404.9343973000068,405.4344682999654,404.9343973000068,405.4344682999654,404.9343973000068,405.4344682999654,403.44829960004427,None,405.4344682999654,406.93668210005853,1.5,406.9533986999886,None,407.7044913000427,None,,,,,,,,,,11015,002,2024_Jan_04_1632,MFTM_A_new1021,2021.2.3,59.7037380929892,
,,,,,,,,stim/Instruction_mask.png,conditions/adaptive.xlsx,practice,0.6,0.6,0.6,-0.6,-0.6,right,R,,,,,0,0,0,0,0,2,2,30,,,,,,,,,,,,,,,,,,,,,,,,,,,,,,,,,,,,,,,,,,,,408.2052991000237,None,right,1,3.2800579000031576,408.705989100039,410.00793610000983,408.705989100039,409.5075290000532,408.705989100039,409.5075290000532,408.705989100039,409.5075290000532,408.705989100039,409.5075290000532,408.705989100039,409.5075290000532,409.4910884000128,409.9916472999612,409.4910884000128,409.9916472999612,409.4910884000128,409.9916472999612,409.4910884000128,409.9916472999612,409.4910884000128,409.9916472999612,409.4910884000128,409.9916472999612,409.4910884000128,409.9916472999612,409.4910884000128,409.9916472999612,408.705989100039,None,409.9916472999612,412.194523400045,0.8,412.21136660000775,None,412.96378390002064,None,,,,,,,,,,11015,002,2024_Jan_04_1632,MFTM_A_new1021,2021.2.3,59.7037380929892,
,,,,,,,,stim/Instruction_mask.png,conditions/adaptive.xlsx,practice,0.6,0.6,0.6,-0.6,-0.6,right,R,,,,,0,0,0,0,0,3,3,94,,,,,,,,,,,,,,,,,,,,,,,,,,,,,,,,,,,,,,,,,,,,413.46338179998565,None,left,0,2.862376399920322,413.9636669999454,414.7147462000139,413.9636669999454,414.2140303000342,413.9636669999454,414.2140303000342,413.9636669999454,414.2140303000342,413.9636669999454,414.2140303000342,413.9636669999454,414.2140303000342,414.19757049996406,414.6981450000312,414.19757049996406,414.6981450000312,414.19757049996406,414.6981450000312,414.19757049996406,414.6981450000312,414.19757049996406,414.6981450000312,414.19757049996406,414.6981450000312,414.19757049996406,414.6981450000312,414.19757049996406,414.6981450000312,413.9636669999454,None,414.6981450000312,417.4536842999514,3,417.46890099998564,None,418.2201901000226,None,,,,,,,,,,11015,002,2024_Jan_04_1632,MFTM_A_new1021,2021.2.3,59.7037380929892,
,,,,,,,,stim/Instruction_mask.png,conditions/adaptive.xlsx,practice,,,,,,,,,,,,0,0,0,0,,,,,,,,,,,,,,,,,,,,,,,,,,,,,,,,,,,,,,,,,,,,,,,,,,,,,,,,,,,,,,,,,,,,,,,,,,,,,,,,,,,,,,,,,,418.7381490999833,419.7398809000151,419.723555100034,419.723555100034,419.723555100034,None,,,,11015,002,2024_Jan_04_1632,MFTM_A_new1021,2021.2.3,59.7037380929892,
,,,,,,,,stim/Instruction_adaptive.png,conditions/adaptive.xlsx,test,-0.6,-0.6,-0.6,0.6,0.6,left,L,,,,,0,1,1,1,0,0,0,97,,,,,,,,,,,,,,,,,,,,,,,,,,,,,,,,,,,,,,422.89356060000136,None,space,0.8765684999525547,422.89356060000136,None,423.82928579999134,None,left,1,3.4094471000134945,424.31263960001525,None,424.31263960001525,427.3170032999478,424.31263960001525,427.3170032999478,424.31263960001525,427.3170032999478,424.31263960001525,427.3170032999478,424.31263960001525,427.3170032999478,427.2838497000048,427.784163699951,427.2838497000048,427.784163699951,427.2838497000048,427.784163699951,427.2838497000048,427.784163699951,427.2838497000048,427.784163699951,427.2838497000048,427.784163699951,427.2838497000048,427.784163699951,427.2838497000048,427.784163699951,424.31263960001525,None,427.784163699951,427.784163699951,3,427.81757529999595,None,428.5688613000093,None,,,,,,,0,6.000000000000005,1.0,11015,002,2024_Jan_04_1632,MFTM_A_new1021,2021.2.3,59.7037380929892,
,,,,,,,,stim/Instruction_adaptive.png,conditions/adaptive.xlsx,test,0.6,0.6,0.6,-0.6,-0.6,right,R,,,,,0,1,1,1,0,1,1,80,,,,,,,,,,,,,,,,,,,,,,,,,,,,,,,,,,,,,,,,,,,,429.06955150002614,None,right,1,0.7361275999573991,429.5701078999555,430.321436899947,429.5701078999555,429.82069009996485,429.5701078999555,429.82069009996485,429.5701078999555,429.82069009996485,429.5701078999555,429.82069009996485,429.5701078999555,429.82069009996485,429.80397300003096,430.3054357999936,429.80397300003096,430.3054357999936,429.80397300003096,430.3054357999936,429.80397300003096,430.3054357999936,429.80397300003096,430.3054357999936,429.80397300003096,430.3054357999936,429.80397300003096,430.3054357999936,429.80397300003096,430.3054357999936,429.5701078999555,None,430.3054357999936,431.18933970003854,0.25,431.2059768999461,None,431.957901100046,None,,,,,,,[0.875],6.000000000000005,1.0,11015,002,2024_Jan_04_1632,MFTM_A_new1021,2021.2.3,59.7037380929892,
,,,,,,,,stim/Instruction_adaptive.png,conditions/adaptive.xlsx,test,0.6,0.6,0.6,-0.6,-0.6,right,R,,,,,0,1,1,1,0,2,2,82,,,,,,,,,,,,,,,,,,,,,,,,,,,,,,,,,,,,,,,,,,,,432.45793769997545,None,left,0,0.6430837999796495,432.9588559999829,433.7098677000031,432.9588559999829,433.20896920002997,432.9588559999829,433.20896920002997,432.9588559999829,433.20896920002997,432.9588559999829,433.20896920002997,432.9588559999829,433.20896920002997,433.1924615999451,433.6943213000195,433.1924615999451,433.6943213000195,433.1924615999451,433.6943213000195,433.1924615999451,433.6943213000195,433.1924615999451,433.6943213000195,433.1924615999451,433.6943213000195,433.1924615999451,433.6943213000195,433.1924615999451,433.6943213000195,432.9588559999829,None,433.6943213000195,435.0284584000474,0.25,435.04480429994874,None,435.79646350000985,None,,,,,,,[1.33333333],3.1800000000000024,0.6666666666666666,11015,002,2024_Jan_04_1632,MFTM_A_new1021,2021.2.3,59.7037380929892,
,,,,,,,,stim/Instruction_adaptive.png,conditions/adaptive.xlsx,test,-0.6,-0.6,-0.6,0.6,0.6,left,L,,,,,0,1,1,1,0,3,3,91,,,,,,,,,,,,,,,,,,,,,,,,,,,,,,,,,,,,,,,,,,,,436.29701490001753,None,left,1,1.0526482000714168,436.7979559999658,438.03389920003247,436.7979559999658,437.53198049997445,436.7979559999658,437.53198049997445,436.7979559999658,437.53198049997445,436.7979559999658,437.53198049997445,436.7979559999658,437.53198049997445,437.51536850002594,438.01697210001294,437.51536850002594,438.01697210001294,437.51536850002594,438.01697210001294,437.51536850002594,438.01697210001294,437.51536850002594,438.01697210001294,437.51536850002594,438.01697210001294,437.51536850002594,438.01697210001294,437.51536850002594,438.01697210001294,436.7979559999658,None,438.01697210001294,439.46808340004645,0.7300000000000004,439.48494590003975,None,440.2368701000232,None,,,,,,,[1.4425],4.030000000000003,0.75,11015,002,2024_Jan_04_1632,MFTM_A_new1021,2021.2.3,59.7037380929892,
,,,,,,,,stim/Instruction_adaptive.png,conditions/adaptive.xlsx,test,-0.6,-0.6,-0.6,0.6,0.6,left,L,,,,,0,1,1,1,0,4,4,57,,,,,,,,,,,,,,,,,,,,,,,,,,,,,,,,,,,,,,,,,,,,440.73680950002745,None,right,0,1.0287445998983458,441.2375785999466,442.1389484000392,441.2375785999466,441.63816440000664,441.2375785999466,441.63816440000664,441.2375785999466,441.63816440000664,441.2375785999466,441.63816440000664,441.2375785999466,441.63816440000664,441.62152180005796,442.12280999997165,441.62152180005796,442.12280999997165,441.62152180005796,442.12280999997165,441.62152180005796,442.12280999997165,441.62152180005796,442.12280999997165,441.62152180005796,442.12280999997165,441.62152180005796,442.12280999997165,441.62152180005796,442.12280999997165,441.2375785999466,None,442.12280999997165,443.70782590005547,0.40000000000000013,443.7246430000523,None,444.4757606999483,None,,,,,,,[1.574],2.8100000000000023,0.6,11015,002,2024_Jan_04_1632,MFTM_A_new1021,2021.2.3,59.7037380929892,
,,,,,,,,stim/Instruction_adaptive.png,conditions/adaptive.xlsx,test,0.6,0.6,0.6,-0.6,-0.6,right,R,,,,,0,1,1,1,0,5,5,60,,,,,,,,,,,,,,,,,,,,,,,,,,,,,,,,,,,,,,,,,,,,444.97717810003087,None,left,0,1.3571706999791786,445.4771577999927,446.9293202999979,445.4771577999927,446.42846980004106,445.4771577999927,446.42846980004106,445.4771577999927,446.42846980004106,445.4771577999927,446.42846980004106,445.4771577999927,446.42846980004106,446.3952077999711,446.8959083999507,446.3952077999711,446.8959083999507,446.3952077999711,446.8959083999507,446.3952077999711,446.8959083999507,446.3952077999711,446.8959083999507,446.3952077999711,446.8959083999507,446.3952077999711,446.8959083999507,446.3952077999711,446.8959083999507,445.4771577999927,None,446.8959083999507,448.46490539994556,0.9400000000000006,448.4816255000187,None,449.23271929996554,None,,,,,,,[[1.56]],1.3500000000000008,0.5,11015,002,2024_Jan_04_1632,MFTM_A_new1021,2021.2.3,59.7037380929892,
,,,,,,,,stim/Instruction_adaptive.png,conditions/adaptive.xlsx,test,0.6,0.6,0.6,-0.6,-0.6,right,R,,,,,0,1,1,1,0,6,6,62,,,,,,,,,,,,,,,,,,,,,,,,,,,,,,,,,,,,,,,,,,,,449.7334485000465,None,right,1,3.4318804000504315,450.2342484999681,453.3224897000473,450.2342484999681,452.8212389999535,450.2342484999681,452.8212389999535,450.2342484999681,452.8212389999535,450.2342484999681,452.8212389999535,450.2342484999681,452.8212389999535,452.80473470001016,453.3054300999502,452.80473470001016,453.3054300999502,452.80473470001016,453.3054300999502,452.80473470001016,453.3054300999502,452.80473470001016,453.3054300999502,452.80473470001016,453.3054300999502,452.80473470001016,453.3054300999502,452.80473470001016,453.3054300999502,450.2342484999681,None,453.3054300999502,453.68986749998294,2.580000000000002,453.7059865000192,None,454.4572295000544,None,,,,,,,0,2.0500000000000016,0.5714285714285714,11015,002,2024_Jan_04_1632,MFTM_A_new1021,2021.2.3,59.7037380929892,
,,,,,,,,stim/Instruction_adaptive.png,conditions/adaptive.xlsx,test,0.6,0.6,0.6,-0.6,-0.6,right,R,,,,,0,1,1,1,0,7,7,8,,,,,,,,,,,,,,,,,,,,,,,,,,,,,,,,,,,,,,,,,,,,454.9582939000102,None,left,0,1.7584009000565857,455.45966229995247,457.56179149996024,455.45966229995247,457.0608914999757,455.45966229995247,457.0608914999757,455.45966229995247,457.0608914999757,455.45966229995247,457.0608914999757,455.45966229995247,457.0608914999757,457.0279089000542,457.52877149998676,457.0279089000542,457.52877149998676,457.0279089000542,457.52877149998676,457.0279089000542,457.52877149998676,457.0279089000542,457.52877149998676,457.0279089000542,457.52877149998676,457.0279089000542,457.52877149998676,457.0279089000542,457.52877149998676,455.45966229995247,None,457.52877149998676,458.4467926999787,1.5900000000000012,458.46307289996184,None,459.2141415999504,None,,,,,,,[[0.91]],0.8000000000000003,0.5,11015,002,2024_Jan_04_1632,MFTM_A_new1021,2021.2.3,59.7037380929892,
,,,,,,,,stim/Instruction_adaptive.png,conditions/adaptive.xlsx,test,-0.6,-0.6,-0.6,0.6,0.6,left,L,,,,,0,1,1,1,0,8,8,95,,,,,,,,,,,,,,,,,,,,,,,,,,,,,,,,,,,,,,,,,,,,459.7157594000455,None,left,1,2.595207200036384,460.21549089998007,None,460.21549089998007,463.2202727999538,460.21549089998007,463.2202727999538,460.21549089998007,463.2202727999538,460.21549089998007,463.2202727999538,460.21549089998007,463.2202727999538,463.20373569999356,463.7041387000354,463.20373569999356,463.7041387000354,463.20373569999356,463.7041387000354,463.20373569999356,463.7041387000354,463.20373569999356,463.7041387000354,463.20373569999356,463.7041387000354,463.20373569999356,463.7041387000354,463.20373569999356,463.7041387000354,460.21549089998007,None,463.7041387000354,463.7041387000354,3.0000000000000027,463.72077669994906,None,464.47200589999557,None,,,,,,,0,1.4200000000000008,0.5555555555555556,11015,002,2024_Jan_04_1632,MFTM_A_new1021,2021.2.3,59.7037380929892,
,,,,,,,,stim/Instruction_adaptive.png,conditions/adaptive.xlsx,test,0.6,0.6,0.6,-0.6,-0.6,right,R,,,,,0,1,1,1,0,9,9,94,,,,,,,,,,,,,,,,,,,,,,,,,,,,,,,,,,,,,,,,,,,,464.97256789996754,None,right,1,1.7127523000817746,465.47348689998034,468.4451284999959,465.47348689998034,467.9436997999437,465.47348689998034,467.9436997999437,465.47348689998034,467.9436997999437,465.47348689998034,467.9436997999437,465.47348689998034,467.9436997999437,467.9101892999606,468.41248649999034,467.9101892999606,468.41248649999034,467.9101892999606,468.41248649999034,467.9101892999606,468.41248649999034,467.9101892999606,468.41248649999034,467.9101892999606,468.41248649999034,467.9101892999606,468.41248649999034,467.9101892999606,468.41248649999034,465.47348689998034,None,468.41248649999034,468.46203359996434,2.4600000000000017,468.4790276000276,None,469.22921579994727,None,,,,,,,[[0.04]],1.7700000000000011,0.6,11015,002,2024_Jan_04_1632,MFTM_A_new1021,2021.2.3,59.7037380929892,
,,,,,,,,stim/Instruction_adaptive.png,conditions/adaptive.xlsx,test,0.6,0.6,0.6,-0.6,-0.6,right,R,,,,,0,1,1,1,0,10,10,54,,,,,,,,,,,,,,,,,,,,,,,,,,,,,,,,,,,,,,,,,,,,469.73235730000306,None,right,1,1.6435297999996692,470.23067920003086,472.6673253000481,470.23067920003086,472.1668401999632,470.23067920003086,472.1668401999632,470.23067920003086,472.1668401999632,470.23067920003086,472.1668401999632,470.23067920003086,472.1668401999632,472.1501084000338,472.6515954999486,472.1501084000338,472.6515954999486,472.1501084000338,472.6515954999486,472.1501084000338,472.6515954999486,472.1501084000338,472.6515954999486,472.1501084000338,472.6515954999486,472.1501084000338,472.6515954999486,472.1501084000338,472.6515954999486,470.23067920003086,None,472.6515954999486,None,1.9300000000000015,473.23488380003255,None,473.9867659000447,None,,,,,,,[[0.57]],2.0200000000000014,0.6363636363636364,11015,002,2024_Jan_04_1632,MFTM_A_new1021,2021.2.3,59.7037380929892,
,,,,,,,,stim/Instruction_adaptive.png,conditions/adaptive.xlsx,test,-0.6,-0.6,-0.6,0.6,0.6,left,L,,,,,0,1,1,1,0,11,11,3,,,,,,,,,,,,,,,,,,,,,,,,,,,,,,,,,,,,,,,,,,,,474.48659600003157,None,right,0,1.9985677000368014,474.98765839997213,477.10790089995135,474.98765839997213,476.60686059994623,474.98765839997213,476.60686059994623,474.98765839997213,476.60686059994623,474.98765839997213,476.60686059994623,474.98765839997213,476.60686059994623,476.5910433999961,477.0916511999676,476.5910433999961,477.0916511999676,476.5910433999961,477.0916511999676,476.5910433999961,477.0916511999676,476.5910433999961,477.0916511999676,476.5910433999961,477.0916511999676,476.5910433999961,477.0916511999676,476.5910433999961,477.0916511999676,474.98765839997213,None,477.0916511999676,477.9756168000167,1.6200000000000012,477.99182879994623,None,478.7433033999987,None,,,,,,,[[0.88]],1.4200000000000008,0.5833333333333334,11015,002,2024_Jan_04_1632,MFTM_A_new1021,2021.2.3,59.7037380929892,
,,,,,,,,stim/Instruction_adaptive.png,conditions/adaptive.xlsx,test,-0.6,-0.6,-0.6,0.6,0.6,left,L,,,,,0,1,1,1,0,12,12,75,,,,,,,,,,,,,,,,,,,,,,,,,,,,,,,,,,,,,,,,,,,,479.2437834000448,None,left,1,2.649015999981202,479.7451703000115,482.7161660999991,479.7451703000115,482.2156838000519,479.7451703000115,482.2156838000519,479.7451703000115,482.2156838000519,479.7451703000115,482.2156838000519,479.7451703000115,482.2156838000519,482.1822672999697,482.6829101999756,482.1822672999697,482.6829101999756,482.1822672999697,482.6829101999756,482.1822672999697,482.6829101999756,482.1822672999697,482.6829101999756,482.1822672999697,482.6829101999756,482.1822672999697,482.6829101999756,482.1822672999697,482.6829101999756,479.7451703000115,None,482.6829101999756,482.73262559995055,2.4600000000000017,482.7495780000463,None,483.5010117000202,None,,,,,,,[[0.04]],1.660000000000001,0.6153846153846154,11015,002,2024_Jan_04_1632,MFTM_A_new1021,2021.2.3,59.7037380929892,
,,,,,,,,stim/Instruction_adaptive.png,conditions/adaptive.xlsx,test,-0.6,-0.6,-0.6,0.6,0.6,left,L,,,,,0,1,1,1,0,13,13,27,,,,,,,,,,,,,,,,,,,,,,,,,,,,,,,,,,,,,,,,,,,,484.0011130999774,None,left,1,1.692412699921988,484.50164120004047,487.0889105000533,484.50164120004047,486.588180599967,484.50164120004047,486.588180599967,484.50164120004047,486.588180599967,484.50164120004047,486.588180599967,484.50164120004047,486.588180599967,486.5712780000176,487.07211459998507,486.5712780000176,487.07211459998507,486.5712780000176,487.07211459998507,486.5712780000176,487.07211459998507,486.5712780000176,487.07211459998507,486.5712780000176,487.07211459998507,486.5712780000176,487.07211459998507,486.5712780000176,487.07211459998507,484.50164120004047,None,487.07211459998507,None,2.080000000000002,487.50621649995446,None,488.2581361000193,None,,,,,,,[[0.42]],1.8500000000000012,0.6428571428571429,11015,002,2024_Jan_04_1632,MFTM_A_new1021,2021.2.3,59.7037380929892,
,,,,,,,,stim/Instruction_adaptive.png,conditions/adaptive.xlsx,test,-0.6,-0.6,-0.6,0.6,0.6,left,L,,,,,0,1,1,1,0,14,14,7,,,,,,,,,,,,,,,,,,,,,,,,,,,,,,,,,,,,,,,,,,,,488.75804730004165,None,left,1,1.6555311999982223,489.2586231000023,491.57990669994615,489.2586231000023,491.0786790000275,489.2586231000023,491.0786790000275,489.2586231000023,491.0786790000275,489.2586231000023,491.0786790000275,489.2586231000023,491.0786790000275,491.06213249999564,491.5624123000307,491.06213249999564,491.5624123000307,491.06213249999564,491.5624123000307,491.06213249999564,491.5624123000307,491.06213249999564,491.5624123000307,491.06213249999564,491.5624123000307,491.06213249999564,491.5624123000307,491.06213249999564,491.5624123000307,489.2586231000023,None,491.5624123000307,492.2472770999884,1.8200000000000014,492.26310330000706,None,493.01497420005035,None,,,,,,,[[0.68]],2.0100000000000016,0.6666666666666666,11015,002,2024_Jan_04_1632,MFTM_A_new1021,2021.2.3,59.7037380929892,
,,,,,,,,stim/Instruction_adaptive.png,conditions/adaptive.xlsx,test,-0.6,-0.6,-0.6,0.6,0.6,left,L,,,,,0,1,1,1,0,15,15,5,,,,,,,,,,,,,,,,,,,,,,,,,,,,,,,,,,,,,,,,,,,,493.5150462000165,None,right,0,2.0894965999759734,494.0165418999968,496.1528070999775,494.0165418999968,495.6521114000352,494.0165418999968,495.6521114000352,494.0165418999968,495.6521114000352,494.0165418999968,495.6521114000352,494.0165418999968,495.6521114000352,495.6354524999624,496.1355145999696,495.6354524999624,496.1355145999696,495.6354524999624,496.1355145999696,495.6354524999624,496.1355145999696,495.6354524999624,496.1355145999696,495.6354524999624,496.1355145999696,495.6354524999624,496.1355145999696,495.6354524999624,496.1355145999696,494.0165418999968,None,496.11943129997235,496.9539239000296,1.6300000000000012,496.9862326999428,None,497.7379068000009,None,,,,,,,[0.82875],1.600000000000001,0.625,11015,002,2024_Jan_04_1632,MFTM_A_new1021,2021.2.3,59.7037380929892,
,,,,,,,,stim/Instruction_adaptive.png,conditions/adaptive.xlsx,test,-0.6,-0.6,-0.6,0.6,0.6,left,L,,,,,0,1,1,1,0,16,16,21,,,,,,,,,,,,,,,,,,,,,,,,,,,,,,,,,,,,,,,,,,,,498.2387761999853,None,left,1,1.2307150000706315,498.73933879996184,501.4106848000083,498.73933879996184,500.90990099997725,498.73933879996184,500.90990099997725,498.73933879996184,500.90990099997725,498.73933879996184,500.90990099997725,498.73933879996184,500.90990099997725,500.89262980001513,501.3938028999837,500.89262980001513,501.3938028999837,500.89262980001513,501.3938028999837,500.89262980001513,501.3938028999837,500.89262980001513,501.3938028999837,500.89262980001513,501.3938028999837,500.89262980001513,501.3938028999837,500.89262980001513,501.3938028999837,498.73933879996184,None,501.3938028999837,501.7275052999612,2.1700000000000017,501.7438755000476,None,502.4957783999853,None,,,,,,,[[0.33]],1.7600000000000011,0.6470588235294118,11015,002,2024_Jan_04_1632,MFTM_A_new1021,2021.2.3,59.7037380929892,
,,,,,,,,stim/Instruction_adaptive.png,conditions/adaptive.xlsx,test,-0.6,-0.6,-0.6,0.6,0.6,left,L,,,,,0,1,1,1,0,17,17,39,,,,,,,,,,,,,,,,,,,,,,,,,,,,,,,,,,,,,,,,,,,,502.9963173000142,None,left,1,2.0984849999658763,503.49652309995145,505.9512009000173,503.49652309995145,505.450291999965,503.49652309995145,505.450291999965,503.49652309995145,505.450291999965,503.49652309995145,505.450291999965,503.49652309995145,505.450291999965,505.4160453999648,505.91802290000487,505.4160453999648,505.91802290000487,505.4160453999648,505.91802290000487,505.4160453999648,505.91802290000487,505.4160453999648,505.91802290000487,505.4160453999648,505.91802290000487,505.4160453999648,505.91802290000487,505.4160453999648,505.91802290000487,503.49652309995145,None,505.91802290000487,506.4843215000583,1.9400000000000015,506.50091269996483,None,507.2525696000084,None,,,,,,,[[0.56]],1.8900000000000012,0.6666666666666666,11015,002,2024_Jan_04_1632,MFTM_A_new1021,2021.2.3,59.7037380929892,
,,,,,,,,stim/Instruction_adaptive.png,conditions/adaptive.xlsx,test,0.6,0.6,0.6,-0.6,-0.6,right,R,,,,,0,1,1,1,0,18,18,40,,,,,,,,,,,,,,,,,,,,,,,,,,,,,,,,,,,,,,,,,,,,507.7526580999838,None,right,1,1.9248393999878317,508.2534460000461,510.5402970999712,508.2534460000461,510.0403054000344,508.2534460000461,510.0403054000344,508.2534460000461,510.0403054000344,508.2534460000461,510.0403054000344,508.2534460000461,510.0403054000344,510.0236749999458,510.523584999959,510.0236749999458,510.523584999959,510.0236749999458,510.523584999959,510.0236749999458,510.523584999959,510.0236749999458,510.523584999959,510.0236749999458,510.523584999959,510.0236749999458,510.523584999959,510.0236749999458,510.523584999959,508.2534460000461,None,510.523584999959,None,1.7800000000000014,511.25800559995696,None,512.0097332999576,None,,,,,,,[[0.72]],2.0100000000000016,0.6842105263157895,11015,002,2024_Jan_04_1632,MFTM_A_new1021,2021.2.3,59.7037380929892,
,,,,,,,,stim/Instruction_adaptive.png,conditions/adaptive.xlsx,test,-0.6,-0.6,-0.6,0.6,0.6,left,L,,,,,0,1,1,1,0,19,19,45,,,,,,,,,,,,,,,,,,,,,,,,,,,,,,,,,,,,,,,,,,,,512.5098796000239,None,left,1,2.023765300051309,513.0104378999677,515.1471595000476,513.0104378999677,514.6471426000353,513.0104378999677,514.6471426000353,513.0104378999677,514.6471426000353,513.0104378999677,514.6471426000353,513.0104378999677,514.6471426000353,514.6303963999962,515.1307620999869,514.6303963999962,515.1307620999869,514.6303963999962,515.1307620999869,514.6303963999962,515.1307620999869,514.6303963999962,515.1307620999869,514.6303963999962,515.1307620999869,514.6303963999962,515.1307620999869,514.6303963999962,515.1307620999869,513.0104378999677,None,515.1307620999869,None,1.6300000000000012,515.9315622999566,None,516.6834739999613,None,,,,,,,[0.787],2.1200000000000014,0.7,11015,002,2024_Jan_04_1632,MFTM_A_new1021,2021.2.3,59.7037380929892,
,,,,,,,,stim/Instruction_adaptive.png,conditions/adaptive.xlsx,test,0.6,0.6,0.6,-0.6,-0.6,right,R,,,,,0,1,1,1,0,20,20,76,,,,,,,,,,,,,,,,,,,,,,,,,,,,,,,,,,,,,,,,,,,,517.1835671999725,None,right,1,2.7575908000580966,517.6844270000001,519.703906300012,517.6844270000001,519.2036865999689,517.6844270000001,519.2036865999689,517.6844270000001,519.2036865999689,517.6844270000001,519.2036865999689,517.6844270000001,519.2036865999689,519.1701134999748,519.6715641999617,519.1701134999748,519.6715641999617,519.1701134999748,519.6715641999617,519.1701134999748,519.6715641999617,519.1701134999748,519.6715641999617,519.1701134999748,519.6715641999617,519.1701134999748,519.6715641999617,519.1701134999748,519.6715641999617,517.6844270000001,None,519.6715641999617,520.472065399983,1.5100000000000011,520.5056100999936,None,521.2568905999651,None,,,,,,,[0.79666667],2.2100000000000017,0.7142857142857143,11015,002,2024_Jan_04_1632,MFTM_A_new1021,2021.2.3,59.7037380929892,
,,,,,,,,stim/Instruction_adaptive.png,conditions/adaptive.xlsx,test,0.6,0.6,0.6,-0.6,-0.6,right,R,,,,,0,1,1,1,0,21,21,64,,,,,,,,,,,,,,,,,,,,,,,,,,,,,,,,,,,,,,,,,,,,521.7568310999777,None,left,0,2.1125964999664575,522.2576056000544,524.1778440000489,522.2576056000544,523.6942255999893,522.2576056000544,523.6942255999893,522.2576056000544,523.6942255999893,522.2576056000544,523.6942255999893,522.2576056000544,523.6942255999893,523.659659099998,524.1613101999974,523.659659099998,524.1613101999974,523.659659099998,524.1613101999974,523.659659099998,524.1613101999974,523.659659099998,524.1613101999974,523.659659099998,524.1613101999974,523.659659099998,524.1613101999974,523.659659099998,524.1613101999974,522.2576056000544,None,524.1613101999974,524.978247400024,1.420000000000001,524.9949441000354,None,525.7468625999754,None,,,,,,,[0.80954545],1.9500000000000013,0.6818181818181818,11015,002,2024_Jan_04_1632,MFTM_A_new1021,2021.2.3,59.7037380929892,
,,,,,,,,stim/Instruction_adaptive.png,conditions/adaptive.xlsx,test,0.6,0.6,0.6,-0.6,-0.6,right,R,,,,,0,1,1,1,0,22,22,28,,,,,,,,,,,,,,,,,,,,,,,,,,,,,,,,,,,,,,,,,,,,526.2477814999875,None,right,1,1.5910523999482393,526.7476213000482,528.9510956000304,526.7476213000482,528.4510291999904,526.7476213000482,528.4510291999904,526.7476213000482,528.4510291999904,526.7476213000482,528.4510291999904,526.7476213000482,528.4510291999904,528.433936699992,528.9345424999483,528.433936699992,528.9345424999483,528.433936699992,528.9345424999483,528.433936699992,528.9345424999483,528.433936699992,528.9345424999483,528.433936699992,528.9345424999483,528.433936699992,528.9345424999483,528.433936699992,528.9345424999483,526.7476213000482,None,528.9345424999483,529.7362536999863,1.7000000000000013,529.751408000011,None,530.5032319000456,None,,,,,,,[[0.8]],2.0500000000000016,0.6956521739130435,11015,002,2024_Jan_04_1632,MFTM_A_new1021,2021.2.3,59.7037380929892,
,,,,,,,,stim/Instruction_adaptive.png,conditions/adaptive.xlsx,test,-0.6,-0.6,-0.6,0.6,0.6,left,L,,,,,0,1,1,1,0,23,23,41,,,,,,,,,,,,,,,,,,,,,,,,,,,,,,,,,,,,,,,,,,,,531.0046798000112,None,left,1,1.9926608999958262,531.5054631000385,533.6089967000298,531.5054631000385,533.1069550999673,531.5054631000385,533.1069550999673,531.5054631000385,533.1069550999673,531.5054631000385,533.1069550999673,531.5054631000385,533.1069550999673,533.0736856999574,533.5747460999992,533.0736856999574,533.5747460999992,533.0736856999574,533.5747460999992,533.0736856999574,533.5747460999992,533.0736856999574,533.5747460999992,533.0736856999574,533.5747460999992,533.0736856999574,533.5747460999992,533.0736856999574,533.5747460999992,531.5054631000385,None,533.5747460999992,534.3921936999541,1.5900000000000012,534.4099324999843,None,535.1606545000104,None,,,,,,,[0.81333333],2.1300000000000017,0.7083333333333334,11015,002,2024_Jan_04_1632,MFTM_A_new1021,2021.2.3,59.7037380929892,
,,,,,,,,stim/Instruction_adaptive.png,conditions/adaptive.xlsx,test,0.6,0.6,0.6,-0.6,-0.6,right,R,,,,,0,1,1,1,0,24,24,74,,,,,,,,,,,,,,,,,,,,,,,,,,,,,,,,,,,,,,,,,,,,535.6608331999741,None,right,1,2.0006254999898374,536.1615827999776,538.1643138000509,536.1615827999776,537.6639789999463,536.1615827999776,537.6639789999463,536.1615827999776,537.6639789999463,536.1615827999776,537.6639789999463,536.1615827999776,537.6639789999463,537.6471903000493,538.1476324000396,537.6471903000493,538.1476324000396,537.6471903000493,538.1476324000396,537.6471903000493,538.1476324000396,537.6471903000493,538.1476324000396,537.6471903000493,538.1476324000396,537.6471903000493,538.1476324000396,537.6471903000493,538.1476324000396,536.1615827999776,None,538.1476324000396,None,1.500000000000001,538.9823834999697,None,539.7338571000146,None,,,,,,,[0.8208],2.2100000000000017,0.72,11015,002,2024_Jan_04_1632,MFTM_A_new1021,2021.2.3,59.7037380929892,
,,,,,,,,stim/Instruction_adaptive.png,conditions/adaptive.xlsx,test,0.6,0.6,0.6,-0.6,-0.6,right,R,,,,,0,1,1,1,0,25,25,42,,,,,,,,,,,,,,,,,,,,,,,,,,,,,,,,,,,,,,,,,,,,540.2341506000375,None,right,1,2.371166000026278,540.7349855999928,542.6547356999945,540.7349855999928,542.1715281000361,540.7349855999928,542.1715281000361,540.7349855999928,542.1715281000361,540.7349855999928,542.1715281000361,540.7349855999928,542.1715281000361,542.1370472999988,542.6378717999905,542.1370472999988,542.6378717999905,542.1370472999988,542.6378717999905,542.1370472999988,542.6378717999905,542.1370472999988,542.6378717999905,542.1370472999988,542.6378717999905,542.1370472999988,542.6378717999905,542.1370472999988,542.6378717999905,540.7349855999928,None,542.6378717999905,543.4721889999928,1.420000000000001,543.4896911999676,None,544.2400516000343,None,,,,,,,[0.83076923],2.2800000000000016,0.7307692307692307,11015,002,2024_Jan_04_1632,MFTM_A_new1021,2021.2.3,59.7037380929892,
,,,,,,,,stim/Instruction_adaptive.png,conditions/adaptive.xlsx,test,-0.6,-0.6,-0.6,0.6,0.6,left,L,,,,,0,1,1,1,0,26,26,69,,,,,,,,,,,,,,,,,,,,,,,,,,,,,,,,,,,,,,,,,,,,544.7413416999625,None,left,1,0.9764279000228271,545.241714600008,547.0951483000536,545.241714600008,546.594443900045,545.241714600008,546.594443900045,545.241714600008,546.594443900045,545.241714600008,546.594443900045,545.241714600008,546.594443900045,546.5769345000153,547.0783213999821,546.5769345000153,547.0783213999821,546.5769345000153,547.0783213999821,546.5769345000153,547.0783213999821,546.5769345000153,547.0783213999821,546.5769345000153,547.0783213999821,546.5769345000153,547.0783213999821,546.5769345000153,547.0783213999821,545.241714600008,None,547.0783213999821,547.9289198999759,1.350000000000001,547.945573200006,None,548.6969329999993,None,,,,,,,[0.84259259],2.3500000000000014,0.7407407407407407,11015,002,2024_Jan_04_1632,MFTM_A_new1021,2021.2.3,59.7037380929892,
,,,,,,,,stim/Instruction_adaptive.png,conditions/adaptive.xlsx,test,-0.6,-0.6,-0.6,0.6,0.6,left,L,,,,,0,1,1,1,0,27,27,61,,,,,,,,,,,,,,,,,,,,,,,,,,,,,,,,,,,,,,,,,,,,549.1983615000499,None,right,0,1.9118956999154761,549.6981943000574,551.5011910999892,549.6981943000574,551.0011171000078,549.6981943000574,551.0011171000078,549.6981943000574,551.0011171000078,549.6981943000574,551.0011171000078,549.6981943000574,551.0011171000078,550.9667795000132,551.4680920999963,550.9667795000132,551.4680920999963,550.9667795000132,551.4680920999963,550.9667795000132,551.4680920999963,550.9667795000132,551.4680920999963,550.9667795000132,551.4680920999963,550.9667795000132,551.4680920999963,550.9667795000132,551.4680920999963,549.6981943000574,None,551.4680920999963,552.3354924999876,1.290000000000001,552.352430399973,None,553.1034191000508,None,,,,,,,[0.85571429],2.1600000000000015,0.7142857142857143,11015,002,2024_Jan_04_1632,MFTM_A_new1021,2021.2.3,59.7037380929892,
,,,,,,,,stim/Instruction_adaptive.png,conditions/adaptive.xlsx,test,0.6,0.6,0.6,-0.6,-0.6,right,R,,,,,0,1,1,1,0,28,28,24,,,,,,,,,,,,,,,,,,,,,,,,,,,,,,,,,,,,,,,,,,,,553.6040175999515,None,right,1,1.8497368999524042,554.105255399947,556.0754271999467,554.105255399947,555.5913520000177,554.105255399947,555.5913520000177,554.105255399947,555.5913520000177,554.105255399947,555.5913520000177,554.105255399947,555.5913520000177,555.5568634000374,556.0586569999577,555.5568634000374,556.0586569999577,555.5568634000374,556.0586569999577,555.5568634000374,556.0586569999577,555.5568634000374,556.0586569999577,555.5568634000374,556.0586569999577,555.5568634000374,556.0586569999577,555.5568634000374,556.0586569999577,554.105255399947,None,556.0586569999577,556.9260954000056,1.470000000000001,556.9423627000069,None,557.694138300023,None,,,,,,,[0.86172414],2.2300000000000013,0.7241379310344828,11015,002,2024_Jan_04_1632,MFTM_A_new1021,2021.2.3,59.7037380929892,
,,,,,,,,stim/Instruction_adaptive.png,conditions/adaptive.xlsx,test,0.6,0.6,0.6,-0.6,-0.6,right,R,,,,,0,1,1,1,0,29,29,2,,,,,,,,,,,,,,,,,,,,,,,,,,,,,,,,,,,,,,,,,,,,558.1944077999797,None,left,0,3.0595005999784917,558.6949941000203,560.5985085000284,558.6949941000203,560.0971285999985,558.6949941000203,560.0971285999985,558.6949941000203,560.0971285999985,558.6949941000203,560.0971285999985,558.6949941000203,560.0971285999985,560.0803516999586,560.5823289999971,560.0803516999586,560.5823289999971,560.0803516999586,560.5823289999971,560.0803516999586,560.5823289999971,560.0803516999586,560.5823289999971,560.0803516999586,560.5823289999971,560.0803516999586,560.5823289999971,560.0803516999586,560.5823289999971,558.6949941000203,None,560.5823289999971,561.7828287000302,1.400000000000001,561.7994074999588,None,562.5505397999659,None,,,,,,,[0.86966667],2.0400000000000014,0.7,11015,002,2024_Jan_04_1632,MFTM_A_new1021,2021.2.3,59.7037380929892,
,,,,,,,,stim/Instruction_adaptive.png,conditions/adaptive.xlsx,test,-0.6,-0.6,-0.6,0.6,0.6,left,L,,,,,0,1,1,1,0,30,30,79,,,,,,,,,,,,,,,,,,,,,,,,,,,,,,,,,,,,,,,,,,,,563.051546499948,None,right,0,2.0343207999831066,563.5521726000588,565.6559807000449,563.5521726000588,565.1551208000164,563.5521726000588,565.1551208000164,563.5521726000588,565.1551208000164,563.5521726000588,565.1551208000164,563.5521726000588,565.1551208000164,565.1387525999453,565.6385599999921,565.1387525999453,565.6385599999921,565.1387525999453,565.6385599999921,565.1387525999453,565.6385599999921,565.1387525999453,565.6385599999921,565.1387525999453,565.6385599999921,565.1387525999453,565.6385599999921,565.1387525999453,565.6385599999921,563.5521726000588,None,565.6385599999921,None,1.6000000000000012,566.5232971999794,None,567.2743957999628,None,,,,,,,[0.87064516],1.8300000000000012,0.6774193548387096,11015,002,2024_Jan_04_1632,MFTM_A_new1021,2021.2.3,59.7037380929892,
,,,,,,,,stim/Instruction_adaptive.png,conditions/adaptive.xlsx,test,0.6,0.6,0.6,-0.6,-0.6,right,R,,,,,0,1,1,1,0,31,31,22,,,,,,,,,,,,,,,,,,,,,,,,,,,,,,,,,,,,,,,,,,,,567.7754265000112,None,right,1,2.181756000034511,568.2767352999654,570.629263299983,568.2767352999654,570.1285678000422,568.2767352999654,570.1285678000422,568.2767352999654,570.1285678000422,568.2767352999654,570.1285678000422,568.2767352999654,570.1285678000422,570.1118125000503,570.6124843000434,570.1118125000503,570.6124843000434,570.1118125000503,570.6124843000434,570.1118125000503,570.6124843000434,570.1118125000503,570.6124843000434,570.1118125000503,570.6124843000434,570.1118125000503,570.6124843000434,570.1118125000503,570.6124843000434,568.2767352999654,None,570.6124843000434,571.2640182999894,1.8500000000000014,571.2803035000106,None,572.0329029000131,None,,,,,,,[[0.65]],1.9100000000000013,0.6875,11015,002,2024_Jan_04_1632,MFTM_A_new1021,2021.2.3,59.7037380929892,
,,,,,,,,stim/Instruction_adaptive.png,conditions/adaptive.xlsx,test,-0.6,-0.6,-0.6,0.6,0.6,left,L,,,,,0,1,1,1,0,32,32,81,,,,,,,,,,,,,,,,,,,,,,,,,,,,,,,,,,,,,,,,,,,,572.5321082000155,None,left,1,3.3132638999959454,573.0328388999915,575.2861309000291,573.0328388999915,574.7859443000052,573.0328388999915,574.7859443000052,573.0328388999915,574.7859443000052,573.0328388999915,574.7859443000052,573.0328388999915,574.7859443000052,574.769504899974,575.2694477000041,574.769504899974,575.2694477000041,574.769504899974,575.2694477000041,574.769504899974,575.2694477000041,574.769504899974,575.2694477000041,574.769504899974,575.2694477000041,574.769504899974,575.2694477000041,574.769504899974,575.2694477000041,573.0328388999915,None,575.2694477000041,576.3710731000174,1.7500000000000013,576.3877491999883,None,577.1394427999621,None,,,,,,,[[0.75]],1.9800000000000013,0.696969696969697,11015,002,2024_Jan_04_1632,MFTM_A_new1021,2021.2.3,59.7037380929892,
,,,,,,,,stim/Instruction_adaptive.png,conditions/adaptive.xlsx,test,-0.6,-0.6,-0.6,0.6,0.6,left,L,,,,,0,1,1,1,0,33,33,49,,,,,,,,,,,,,,,,,,,,,,,,,,,,,,,,,,,,,,,,,,,,577.6403561000479,None,left,1,2.5260228998959064,578.1403591999551,580.3106188999955,578.1403591999551,579.8100432000356,578.1403591999551,579.8100432000356,578.1403591999551,579.8100432000356,578.1403591999551,579.8100432000356,578.1403591999551,579.8100432000356,579.7928648999659,580.294265500037,579.7928648999659,580.294265500037,579.7928648999659,580.294265500037,579.7928648999659,580.294265500037,579.7928648999659,580.294265500037,579.7928648999659,580.294265500037,579.7928648999659,580.294265500037,579.7928648999659,580.294265500037,578.1403591999551,None,580.294265500037,581.1279993000207,1.6700000000000013,581.14481540001,None,581.8960614999523,None,,,,,,,[[0.83]],2.0400000000000014,0.7058823529411765,11015,002,2024_Jan_04_1632,MFTM_A_new1021,2021.2.3,59.7037380929892,
,,,,,,,,stim/Instruction_adaptive.png,conditions/adaptive.xlsx,test,0.6,0.6,0.6,-0.6,-0.6,right,R,,,,,0,1,1,1,0,34,34,30,,,,,,,,,,,,,,,,,,,,,,,,,,,,,,,,,,,,,,,,,,,,582.3968417999567,None,right,1,2.024842599988915,582.897468799958,585.000670999987,582.897468799958,584.4999784999527,582.897468799958,584.4999784999527,582.897468799958,584.4999784999527,582.897468799958,584.4999784999527,582.897468799958,584.4999784999527,584.4832151000155,584.9844364000019,584.4832151000155,584.9844364000019,584.4832151000155,584.9844364000019,584.4832151000155,584.9844364000019,584.4832151000155,584.9844364000019,584.4832151000155,584.9844364000019,584.4832151000155,584.9844364000019,584.4832151000155,584.9844364000019,582.897468799958,None,584.9844364000019,585.8517417999683,1.6000000000000012,585.8685341000091,None,586.6198731999611,None,,,,,,,[0.86057143],2.1000000000000014,0.7142857142857143,11015,002,2024_Jan_04_1632,MFTM_A_new1021,2021.2.3,59.7037380929892,
,,,,,,,,stim/Instruction_adaptive.png,conditions/adaptive.xlsx,test,0.6,0.6,0.6,-0.6,-0.6,right,R,,,,,0,1,1,1,0,35,35,58,,,,,,,,,,,,,,,,,,,,,,,,,,,,,,,,,,,,,,,,,,,,587.1212143000448,None,left,0,1.8369798000203446,587.6213118999731,589.657451499952,587.6213118999731,589.1568331000162,587.6213118999731,589.1568331000162,587.6213118999731,589.1568331000162,587.6213118999731,589.1568331000162,587.6213118999731,589.1568331000162,589.1398690999486,589.6415494000539,589.1398690999486,589.6415494000539,589.1398690999486,589.6415494000539,589.1398690999486,589.6415494000539,589.1398690999486,589.6415494000539,589.1398690999486,589.6415494000539,589.1398690999486,589.6415494000539,589.1398690999486,589.6415494000539,587.6213118999731,None,589.6415494000539,590.5092750999611,1.5300000000000011,590.5255025000079,None,591.2766025000019,None,,,,,,,[0.86361111],1.9300000000000013,0.6944444444444444,11015,002,2024_Jan_04_1632,MFTM_A_new1021,2021.2.3,59.7037380929892,
,,,,,,,,stim/Instruction_adaptive.png,conditions/adaptive.xlsx,test,0.6,0.6,0.6,-0.6,-0.6,right,R,,,,,0,1,1,1,0,36,36,16,,,,,,,,,,,,,,,,,,,,,,,,,,,,,,,,,,,,,,,,,,,,591.777686699992,None,right,1,1.5402644999558106,592.2780392999994,594.514648100012,592.2780392999994,594.0138860000297,592.2780392999994,594.0138860000297,592.2780392999994,594.0138860000297,592.2780392999994,594.0138860000297,592.2780392999994,594.0138860000297,593.9975560000166,594.4979413000401,593.9975560000166,594.4979413000401,593.9975560000166,594.4979413000401,593.9975560000166,594.4979413000401,593.9975560000166,594.4979413000401,593.9975560000166,594.4979413000401,593.9975560000166,594.4979413000401,593.9975560000166,594.4979413000401,592.2780392999994,None,594.4979413000401,None,1.7300000000000013,595.2825003999751,None,596.0343642999651,None,,,,,,,[[0.77]],1.9900000000000013,0.7027027027027027,11015,002,2024_Jan_04_1632,MFTM_A_new1021,2021.2.3,59.7037380929892,
,,,,,,,,stim/Instruction_adaptive.png,conditions/adaptive.xlsx,test,-0.6,-0.6,-0.6,0.6,0.6,left,L,,,,,0,1,1,1,0,37,37,51,,,,,,,,,,,,,,,,,,,,,,,,,,,,,,,,,,,,,,,,,,,,596.5354552000063,None,left,1,2.9023773999651894,597.0359425999923,599.2055030999472,597.0359425999923,598.7041013999842,597.0359425999923,598.7041013999842,597.0359425999923,598.7041013999842,597.0359425999923,598.7041013999842,597.0359425999923,598.7041013999842,598.6717542000115,599.1727107999614,598.6717542000115,599.1727107999614,598.6717542000115,599.1727107999614,598.6717542000115,599.1727107999614,598.6717542000115,599.1727107999614,598.6717542000115,599.1727107999614,598.6717542000115,599.1727107999614,598.6717542000115,599.1727107999614,597.0359425999923,None,599.1727107999614,600.0236115000444,1.6600000000000013,600.0396292000078,None,600.7914186000125,None,,,,,,,[[0.84]],2.0500000000000016,0.7105263157894737,11015,002,2024_Jan_04_1632,MFTM_A_new1021,2021.2.3,59.7037380929892,
,,,,,,,,stim/Instruction_adaptive.png,conditions/adaptive.xlsx,test,0.6,0.6,0.6,-0.6,-0.6,right,R,,,,,0,1,1,1,0,38,38,48,,,,,,,,,,,,,,,,,,,,,,,,,,,,,,,,,,,,,,,,,,,,601.2920335000381,None,right,1,1.858271999983117,601.7921584000578,603.8951886000577,601.7921584000578,603.3953086000402,601.7921584000578,603.3953086000402,601.7921584000578,603.3953086000402,601.7921584000578,603.3953086000402,601.7921584000578,603.3953086000402,603.3612365999725,603.8619895000011,603.3612365999725,603.8619895000011,603.3612365999725,603.8619895000011,603.3612365999725,603.8619895000011,603.3612365999725,603.8619895000011,603.3612365999725,603.8619895000011,603.3612365999725,603.8619895000011,603.3612365999725,603.8619895000011,601.7921584000578,None,603.8619895000011,604.7310416999971,1.5900000000000012,604.746503500035,None,605.497819500044,None,,,,,,,[0.86179487],2.1000000000000014,0.717948717948718,11015,002,2024_Jan_04_1632,MFTM_A_new1021,2021.2.3,59.7037380929892,
,,,,,,,,stim/Instruction_adaptive.png,conditions/adaptive.xlsx,test,0.6,0.6,0.6,-0.6,-0.6,right,R,,,,,0,1,1,1,0,39,39,78,,,,,,,,,,,,,,,,,,,,,,,,,,,,,,,,,,,,,,,,,,,,605.9984804999549,None,right,1,1.81581910001114,606.4991812000517,608.5362514000153,606.4991812000517,608.0347188999876,606.4991812000517,608.0347188999876,606.4991812000517,608.0347188999876,606.4991812000517,608.0347188999876,606.4991812000517,608.0347188999876,608.0180547999917,608.5189633000409,608.0180547999917,608.5189633000409,608.0180547999917,608.5189633000409,608.0180547999917,608.5189633000409,608.0180547999917,608.5189633000409,608.0180547999917,608.5189633000409,608.0180547999917,608.5189633000409,608.0180547999917,608.5189633000409,606.4991812000517,None,608.5189633000409,609.3881404000567,1.5300000000000011,609.4034206999931,None,610.1546057000523,None,,,,,,,[0.8645],2.1500000000000012,0.725,11015,002,2024_Jan_04_1632,MFTM_A_new1021,2021.2.3,59.7037380929892,
,,,,,,,,stim/Instruction_adaptive.png,conditions/adaptive.xlsx,test,0.6,0.6,0.6,-0.6,-0.6,right,R,,,,,0,1,1,1,0,40,40,98,,,,,,,,,,,,,,,,,,,,,,,,,,,,,,,,,,,,,,,,,,,,610.6559323000256,None,right,1,2.5831498000770807,611.1557865999639,613.1423322999617,611.1557865999639,612.6424151000101,611.1557865999639,612.6424151000101,611.1557865999639,612.6424151000101,611.1557865999639,612.6424151000101,611.1557865999639,612.6424151000101,612.6255775999743,613.1257359000156,612.6255775999743,613.1257359000156,612.6255775999743,613.1257359000156,612.6255775999743,613.1257359000156,612.6255775999743,613.1257359000156,612.6255775999743,613.1257359000156,612.6255775999743,613.1257359000156,612.6255775999743,613.1257359000156,611.1557865999639,None,613.1257359000156,613.9936860000016,1.480000000000001,614.0102544999681,None,614.7620002999902,None,,,,,,,[0.86829268],2.2000000000000015,0.7317073170731707,11015,002,2024_Jan_04_1632,MFTM_A_new1021,2021.2.3,59.7037380929892,
,,,,,,,,stim/Instruction_adaptive.png,conditions/adaptive.xlsx,test,0.6,0.6,0.6,-0.6,-0.6,right,R,,,,,0,1,1,1,0,41,41,20,,,,,,,,,,,,,,,,,,,,,,,,,,,,,,,,,,,,,,,,,,,,615.2621054999763,None,right,1,1.8316320000449196,615.762938400032,617.6992354999529,615.762938400032,617.199092600029,615.762938400032,617.199092600029,615.762938400032,617.199092600029,615.762938400032,617.199092600029,615.762938400032,617.199092600029,617.181570500019,617.68299510004,617.181570500019,617.68299510004,617.181570500019,617.68299510004,617.181570500019,617.68299510004,617.181570500019,617.68299510004,617.181570500019,617.68299510004,617.181570500019,617.68299510004,617.181570500019,617.68299510004,615.762938400032,None,617.68299510004,None,1.430000000000001,618.5669254000532,None,619.3181115000043,None,,,,,,,[0.87309524],2.2400000000000015,0.7380952380952381,11015,002,2024_Jan_04_1632,MFTM_A_new1021,2021.2.3,59.7037380929892,
,,,,,,,,stim/Instruction_adaptive.png,conditions/adaptive.xlsx,test,-0.6,-0.6,-0.6,0.6,0.6,left,L,,,,,0,1,1,1,0,42,42,47,,,,,,,,,,,,,,,,,,,,,,,,,,,,,,,,,,,,,,,,,,,,619.8201182000339,None,left,1,1.6098607999738306,620.3202843000181,622.2224612999707,620.3202843000181,621.7217668000376,620.3202843000181,621.7217668000376,620.3202843000181,621.7217668000376,620.3202843000181,621.7217668000376,620.3202843000181,621.7217668000376,621.6882808000082,622.189599400037,621.6882808000082,622.189599400037,621.6882808000082,622.189599400037,621.6882808000082,622.189599400037,621.6882808000082,622.189599400037,621.6882808000082,622.189599400037,621.6882808000082,622.189599400037,621.6882808000082,622.189599400037,620.3202843000181,None,622.189599400037,623.0740539999679,1.390000000000001,623.0902768999804,None,623.8414955999469,None,,,,,,,[0.87860465],2.290000000000002,0.7441860465116279,11015,002,2024_Jan_04_1632,MFTM_A_new1021,2021.2.3,59.7037380929892,
,,,,,,,,stim/Instruction_adaptive.png,conditions/adaptive.xlsx,test,0.6,0.6,0.6,-0.6,-0.6,right,R,,,,,0,1,1,1,0,43,43,12,,,,,,,,,,,,,,,,,,,,,,,,,,,,,,,,,,,,,,,,,,,,624.3421774000162,None,right,1,1.9515082000289112,624.84297290002,626.6966503000585,624.84297290002,626.1948907000478,624.84297290002,626.1948907000478,624.84297290002,626.1948907000478,624.84297290002,626.1948907000478,624.84297290002,626.1948907000478,626.1782642999897,626.6796684999717,626.1782642999897,626.6796684999717,626.1782642999897,626.6796684999717,626.1782642999897,626.6796684999717,626.1782642999897,626.6796684999717,626.1782642999897,626.6796684999717,626.1782642999897,626.6796684999717,626.1782642999897,626.6796684999717,624.84297290002,None,626.6796684999717,627.5637062999886,1.350000000000001,627.5808295999886,None,628.3316331000533,None,,,,,,,[0.88477273],2.330000000000002,0.75,11015,002,2024_Jan_04_1632,MFTM_A_new1021,2021.2.3,59.7037380929892,
,,,,,,,,stim/Instruction_adaptive.png,conditions/adaptive.xlsx,test,0.6,0.6,0.6,-0.6,-0.6,right,R,,,,,0,1,1,1,0,44,44,18,,,,,,,,,,,,,,,,,,,,,,,,,,,,,,,,,,,,,,,,,,,,628.8323017000221,None,right,1,1.4294941000407562,629.3331499999622,631.152174100047,629.3331499999622,630.651809599949,629.3331499999622,630.651809599949,629.3331499999622,630.651809599949,629.3331499999622,630.651809599949,629.3331499999622,630.651809599949,630.6182150000241,631.1188648999669,630.6182150000241,631.1188648999669,630.6182150000241,631.1188648999669,630.6182150000241,631.1188648999669,630.6182150000241,631.1188648999669,630.6182150000241,631.1188648999669,630.6182150000241,631.1188648999669,630.6182150000241,631.1188648999669,629.3331499999622,None,631.1188648999669,632.0206693999935,1.310000000000001,632.0370102999732,None,632.7879846000578,None,,,,,,,[0.89155556],2.370000000000002,0.7555555555555555,11015,002,2024_Jan_04_1632,MFTM_A_new1021,2021.2.3,59.7037380929892,
,,,,,,,,stim/Instruction_adaptive.png,conditions/adaptive.xlsx,test,-0.6,-0.6,-0.6,0.6,0.6,left,L,,,,,0,1,1,1,0,45,45,13,,,,,,,,,,,,,,,,,,,,,,,,,,,,,,,,,,,,,,,,,,,,633.2890092999442,None,left,1,1.6690087000606582,633.7902016000589,635.5587978999829,633.7902016000589,635.0754863000475,633.7902016000589,635.0754863000475,633.7902016000589,635.0754863000475,633.7902016000589,635.0754863000475,633.7902016000589,635.0754863000475,635.0421256000409,635.542771599954,635.0421256000409,635.542771599954,635.0421256000409,635.542771599954,635.0421256000409,635.542771599954,635.0421256000409,635.542771599954,635.0421256000409,635.542771599954,635.0421256000409,635.542771599954,635.0421256000409,635.542771599954,633.7902016000589,None,635.542771599954,636.4432761999778,1.270000000000001,636.4600414000452,None,637.2116695999866,None,,,,,,,[0.89891304],2.410000000000002,0.7608695652173914,11015,002,2024_Jan_04_1632,MFTM_A_new1021,2021.2.3,59.7037380929892,
,,,,,,,,stim/Instruction_adaptive.png,conditions/adaptive.xlsx,test,0.6,0.6,0.6,-0.6,-0.6,right,R,,,,,0,1,1,1,0,46,46,10,,,,,,,,,,,,,,,,,,,,,,,,,,,,,,,,,,,,,,,,,,,,637.7125720999902,None,left,0,1.5499869999475777,638.2128255000571,639.9661081000231,638.2128255000571,639.4646838000044,638.2128255000571,639.4646838000044,638.2128255000571,639.4646838000044,638.2128255000571,639.4646838000044,638.2128255000571,639.4646838000044,639.4314566999674,639.9327221000567,639.4314566999674,639.9327221000567,639.4314566999674,639.9327221000567,639.4314566999674,639.9327221000567,639.4314566999674,639.9327221000567,639.4314566999674,639.9327221000567,639.4314566999674,639.9327221000567,639.4314566999674,639.9327221000567,638.2128255000571,None,639.9327221000567,640.8507846000139,1.2400000000000009,640.8664947999641,None,641.6178351000417,None,,,,,,,[0.90659574],2.3000000000000016,0.7446808510638298,11015,002,2024_Jan_04_1632,MFTM_A_new1021,2021.2.3,59.7037380929892,
,,,,,,,,stim/Instruction_adaptive.png,conditions/adaptive.xlsx,test,0.6,0.6,0.6,-0.6,-0.6,right,R,,,,,0,1,1,1,0,47,47,0,,,,,,,,,,,,,,,,,,,,,,,,,,,,,,,,,,,,,,,,,,,,642.1188097000122,None,left,0,1.719300500000827,642.6194124999456,644.4721650000429,642.6194124999456,643.9721171000274,642.6194124999456,643.9721171000274,642.6194124999456,643.9721171000274,642.6194124999456,643.9721171000274,642.6194124999456,643.9721171000274,643.9383450000314,644.4387419000268,643.9383450000314,644.4387419000268,643.9383450000314,644.4387419000268,643.9383450000314,644.4387419000268,643.9383450000314,644.4387419000268,643.9383450000314,644.4387419000268,643.9383450000314,644.4387419000268,643.9383450000314,644.4387419000268,642.6194124999456,None,644.4387419000268,645.3574246000499,1.340000000000001,645.373463200056,None,646.1251990000019,None,,,,,,,[0.911875],2.1800000000000015,0.7291666666666666,11015,002,2024_Jan_04_1632,MFTM_A_new1021,2021.2.3,59.7037380929892,
,,,,,,,,stim/Instruction_adaptive.png,conditions/adaptive.xlsx,test,0.6,0.6,0.6,-0.6,-0.6,right,R,,,,,0,1,1,1,0,48,48,84,,,,,,,,,,,,,,,,,,,,,,,,,,,,,,,,,,,,,,,,,,,,646.6253453999525,None,right,1,1.3325576999923214,647.1260391999967,649.0788674999494,647.1260391999967,648.5778753999621,647.1260391999967,648.5778753999621,647.1260391999967,648.5778753999621,647.1260391999967,648.5778753999621,647.1260391999967,648.5778753999621,648.561442199978,649.0622409000061,648.561442199978,649.0622409000061,648.561442199978,649.0622409000061,648.561442199978,649.0622409000061,648.561442199978,649.0622409000061,648.561442199978,649.0622409000061,648.561442199978,649.0622409000061,648.561442199978,649.0622409000061,647.1260391999967,None,649.0622409000061,649.9804154000012,1.450000000000001,649.9969303000253,None,650.7480245999759,None,,,,,,,[0.91469388],2.2200000000000015,0.7346938775510204,11015,002,2024_Jan_04_1632,MFTM_A_new1021,2021.2.3,59.7037380929892,
,,,,,,,,stim/Instruction_adaptive.png,conditions/adaptive.xlsx,test,0.6,0.6,0.6,-0.6,-0.6,right,R,,,,,0,1,1,1,0,49,49,6,,,,,,,,,,,,,,,,,,,,,,,,,,,,,,,,,,,,,,,,,,,,651.248816599953,None,left,0,1.4445253000594676,651.7498256999534,653.6690254999558,651.7498256999534,653.1685624000384,651.7498256999534,653.1685624000384,651.7498256999534,653.1685624000384,651.7498256999534,653.1685624000384,651.7498256999534,653.1685624000384,653.1515298000304,653.6524074999616,653.1515298000304,653.6524074999616,653.1515298000304,653.6524074999616,653.1515298000304,653.6524074999616,653.1515298000304,653.6524074999616,653.1515298000304,653.6524074999616,653.1515298000304,653.6524074999616,653.1515298000304,653.6524074999616,651.7498256999534,None,653.6524074999616,654.5704452999635,1.410000000000001,654.5870986999944,None,655.3382308,None,,,,,,,[0.9182],2.1000000000000014,0.72,11015,002,2024_Jan_04_1632,MFTM_A_new1021,2021.2.3,59.7037380929892,
,,,,,,,,stim/Instruction_adaptive.png,conditions/adaptive.xlsx,test,-0.6,-0.6,-0.6,0.6,0.6,left,L,,,,,0,1,1,1,0,50,50,29,,,,,,,,,,,,,,,,,,,,,,,,,,,,,,,,,,,,,,,,,,,,655.8395874999696,None,left,1,2.0378183000721037,656.3406829000451,658.3765025000321,656.3406829000451,657.8753756999504,656.3406829000451,657.8753756999504,656.3406829000451,657.8753756999504,656.3406829000451,657.8753756999504,656.3406829000451,657.8753756999504,657.8585227000294,658.3607563000405,657.8585227000294,658.3607563000405,657.8585227000294,658.3607563000405,657.8585227000294,658.3607563000405,657.8585227000294,658.3607563000405,657.8585227000294,658.3607563000405,657.8585227000294,658.3607563000405,657.8585227000294,658.3607563000405,656.3406829000451,None,658.3607563000405,None,1.5300000000000011,659.2939933999442,None,660.0457450000104,None,,,,,,,[0.91921569],2.1500000000000012,0.7254901960784313,11015,002,2024_Jan_04_1632,MFTM_A_new1021,2021.2.3,59.7037380929892,
,,,,,,,,stim/Instruction_adaptive.png,conditions/adaptive.xlsx,test,-0.6,-0.6,-0.6,0.6,0.6,left,L,,,,,0,1,1,1,0,51,51,35,,,,,,,,,,,,,,,,,,,,,,,,,,,,,,,,,,,,,,,,,,,,660.545848299982,None,left,1,1.9476574999280274,661.0466209000442,663.0335674999515,661.0466209000442,662.5321720000356,661.0466209000442,662.5321720000356,661.0466209000442,662.5321720000356,661.0466209000442,662.5321720000356,661.0466209000442,662.5321720000356,662.5166955000022,663.0162343999837,662.5166955000022,663.0162343999837,662.5166955000022,663.0162343999837,662.5166955000022,663.0162343999837,662.5166955000022,663.0162343999837,662.5166955000022,663.0162343999837,662.5166955000022,663.0162343999837,662.5166955000022,663.0162343999837,661.0466209000442,None,663.0162343999837,None,1.480000000000001,663.9509962999728,None,664.7019955000142,None,,,,,,,[0.92115385],2.1800000000000015,0.7307692307692307,11015,002,2024_Jan_04_1632,MFTM_A_new1021,2021.2.3,59.7037380929892,
,,,,,,,,stim/Instruction_adaptive.png,conditions/adaptive.xlsx,test,0.6,0.6,0.6,-0.6,-0.6,right,R,,,,,0,1,1,1,0,52,52,14,,,,,,,,,,,,,,,,,,,,,,,,,,,,,,,,,,,,,,,,,,,,665.2027619000291,None,right,1,1.4419713999377564,665.7042579000117,667.6566724999575,665.7042579000117,667.1562325999839,665.7042579000117,667.1562325999839,665.7042579000117,667.1562325999839,665.7042579000117,667.1562325999839,665.7042579000117,667.1562325999839,667.1390802999958,667.6405293999705,667.1390802999958,667.6405293999705,667.1390802999958,667.6405293999705,667.1390802999958,667.6405293999705,667.1390802999958,667.6405293999705,667.1390802999958,667.6405293999705,667.1390802999958,667.6405293999705,667.1390802999958,667.6405293999705,665.7042579000117,None,667.6405293999705,668.574302699999,1.450000000000001,668.5909145999467,None,669.3427679999731,None,,,,,,,[0.92358491],2.2200000000000015,0.7358490566037735,11015,002,2024_Jan_04_1632,MFTM_A_new1021,2021.2.3,59.7037380929892,
,,,,,,,,stim/Instruction_adaptive.png,conditions/adaptive.xlsx,test,0.6,0.6,0.6,-0.6,-0.6,right,R,,,,,0,1,1,1,0,53,53,44,,,,,,,,,,,,,,,,,,,,,,,,,,,,,,,,,,,,,,,,,,,,669.8429100000067,None,right,1,1.2907309000147507,670.3438944000518,672.2632955999579,670.3438944000518,671.7634970999788,670.3438944000518,671.7634970999788,670.3438944000518,671.7634970999788,670.3438944000518,671.7634970999788,670.3438944000518,671.7634970999788,671.7295283999993,672.2298180999933,671.7295283999993,672.2298180999933,671.7295283999993,672.2298180999933,671.7295283999993,672.2298180999933,671.7295283999993,672.2298180999933,671.7295283999993,672.2298180999933,671.7295283999993,672.2298180999933,671.7295283999993,672.2298180999933,670.3438944000518,None,672.2298180999933,673.1646029000403,1.410000000000001,673.1813125000335,None,673.9325082000578,None,,,,,,,[0.92666667],2.2600000000000016,0.7407407407407407,11015,002,2024_Jan_04_1632,MFTM_A_new1021,2021.2.3,59.7037380929892,
,,,,,,,,stim/Instruction_adaptive.png,conditions/adaptive.xlsx,test,0.6,0.6,0.6,-0.6,-0.6,right,R,,,,,0,1,1,1,0,54,54,88,,,,,,,,,,,,,,,,,,,,,,,,,,,,,,,,,,,,,,,,,,,,674.4331025000429,None,left,0,1.7645477000623941,674.9339039999759,676.8039091000101,674.9339039999759,676.3199102999642,674.9339039999759,676.3199102999642,674.9339039999759,676.3199102999642,674.9339039999759,676.3199102999642,674.9339039999759,676.3199102999642,676.2858080000151,676.7865367999766,676.2858080000151,676.7865367999766,676.2858080000151,676.7865367999766,676.2858080000151,676.7865367999766,676.2858080000151,676.7865367999766,676.2858080000151,676.7865367999766,676.2858080000151,676.7865367999766,676.2858080000151,676.7865367999766,674.9339039999759,None,676.7865367999766,677.7219530999428,1.370000000000001,677.7377478999551,None,678.4896994000301,None,,,,,,,[0.93036364],2.1500000000000012,0.7272727272727273,11015,002,2024_Jan_04_1632,MFTM_A_new1021,2021.2.3,59.7037380929892,
,,,,,,,,stim/Instruction_adaptive.png,conditions/adaptive.xlsx,test,0.6,0.6,0.6,-0.6,-0.6,right,R,,,,,0,1,1,1,0,55,55,92,,,,,,,,,,,,,,,,,,,,,,,,,,,,,,,,,,,,,,,,,,,,678.9905162999639,None,left,0,1.9436524999327958,679.4906271999935,681.4768639999675,679.4906271999935,680.9767436999828,679.4906271999935,680.9767436999828,679.4906271999935,680.9767436999828,679.4906271999935,680.9767436999828,679.4906271999935,680.9767436999828,680.9597573999781,681.4604600999737,680.9597573999781,681.4604600999737,680.9597573999781,681.4604600999737,680.9597573999781,681.4604600999737,680.9597573999781,681.4604600999737,680.9597573999781,681.4604600999737,680.9597573999781,681.4604600999737,680.9597573999781,681.4604600999737,679.4906271999935,None,681.4604600999737,682.3948477000231,1.480000000000001,682.4116480000084,None,683.1633617000189,None,,,,,,,[0.93196429],2.0400000000000014,0.7142857142857143,11015,002,2024_Jan_04_1632,MFTM_A_new1021,2021.2.3,59.7037380929892,
,,,,,,,,stim/Instruction_adaptive.png,conditions/adaptive.xlsx,test,-0.6,-0.6,-0.6,0.6,0.6,left,L,,,,,0,1,1,1,0,56,56,55,,,,,,,,,,,,,,,,,,,,,,,,,,,,,,,,,,,,,,,,,,,,683.6640631000046,None,left,1,2.462170399958268,684.1640316999983,686.2679493000032,684.1640316999983,685.7666114999447,684.1640316999983,685.7666114999447,684.1640316999983,685.7666114999447,684.1640316999983,685.7666114999447,684.1640316999983,685.7666114999447,685.7504752000095,686.2513572999742,685.7504752000095,686.2513572999742,685.7504752000095,686.2513572999742,685.7504752000095,686.2513572999742,685.7504752000095,686.2513572999742,685.7504752000095,686.2513572999742,685.7504752000095,686.2513572999742,685.7504752000095,686.2513572999742,684.1640316999983,None,686.2513572999742,687.1519643999636,1.6000000000000012,687.1687141000293,None,687.9205465000123,None,,,,,,,[[0.9]],2.0800000000000014,0.7192982456140351,11015,002,2024_Jan_04_1632,MFTM_A_new1021,2021.2.3,59.7037380929892,
,,,,,,,,stim/Instruction_adaptive.png,conditions/adaptive.xlsx,test,-0.6,-0.6,-0.6,0.6,0.6,left,L,,,,,0,1,1,1,0,57,57,87,,,,,,,,,,,,,,,,,,,,,,,,,,,,,,,,,,,,,,,,,,,,688.4205778000178,None,left,1,1.7452072000596672,688.9210759999696,690.9916837000055,688.9210759999696,690.4908345000586,688.9210759999696,690.4908345000586,688.9210759999696,690.4908345000586,688.9210759999696,690.4908345000586,688.9210759999696,690.4908345000586,690.457182800048,690.9583062999882,690.457182800048,690.9583062999882,690.457182800048,690.9583062999882,690.457182800048,690.9583062999882,690.457182800048,690.9583062999882,690.457182800048,690.9583062999882,690.457182800048,690.9583062999882,690.457182800048,690.9583062999882,688.9210759999696,None,690.9583062999882,691.8921447000466,1.5600000000000012,691.9258309999714,None,692.6783108999953,None,,,,,,,[0.93155172],2.1200000000000014,0.7241379310344828,11015,002,2024_Jan_04_1632,MFTM_A_new1021,2021.2.3,59.7037380929892,
,,,,,,,,stim/Instruction_adaptive.png,conditions/adaptive.xlsx,test,-0.6,-0.6,-0.6,0.6,0.6,left,L,,,,,0,1,1,1,0,58,58,67,,,,,,,,,,,,,,,,,,,,,,,,,,,,,,,,,,,,,,,,,,,,693.1787465000525,None,left,1,1.7482507999520749,693.6780623999657,695.6987275000429,693.6780623999657,695.1979277000064,693.6780623999657,695.1979277000064,693.6780623999657,695.1979277000064,693.6780623999657,695.1979277000064,693.6780623999657,695.1979277000064,695.1811872000108,695.6814873999683,695.1811872000108,695.6814873999683,695.1811872000108,695.6814873999683,695.1811872000108,695.6814873999683,695.1811872000108,695.6814873999683,695.1811872000108,695.6814873999683,695.1811872000108,695.6814873999683,695.1811872000108,695.6814873999683,693.6780623999657,None,695.6646594000049,696.6000610999763,1.5100000000000011,696.6326873999787,None,697.3845365999732,None,,,,,,,[0.93254237],2.1500000000000012,0.7288135593220338,11015,002,2024_Jan_04_1632,MFTM_A_new1021,2021.2.3,59.7037380929892,
,,,,,,,,stim/Instruction_adaptive.png,conditions/adaptive.xlsx,test,0.6,0.6,0.6,-0.6,-0.6,right,R,,,,,0,1,1,1,0,59,59,96,,,,,,,,,,,,,,,,,,,,,,,,,,,,,,,,,,,,,,,,,,,,697.8851199999917,None,right,1,1.8730858999770135,698.3853283999488,700.371590900002,698.3853283999488,699.8708523999667,698.3853283999488,699.8708523999667,698.3853283999488,699.8708523999667,698.3853283999488,699.8708523999667,698.3853283999488,699.8708523999667,699.8550992000382,700.3548500000034,699.8550992000382,700.3548500000034,699.8550992000382,700.3548500000034,699.8550992000382,700.3548500000034,699.8550992000382,700.3548500000034,699.8550992000382,700.3548500000034,699.8550992000382,700.3548500000034,699.8550992000382,700.3548500000034,698.3853283999488,None,700.3548500000034,701.2896475000307,1.480000000000001,701.3065914999461,None,702.0573971000267,None,,,,,,,[0.934],2.1900000000000013,0.7333333333333333,11015,002,2024_Jan_04_1632,MFTM_A_new1021,2021.2.3,59.7037380929892,
,,,,,,,,stim/Instruction_adaptive.png,conditions/adaptive.xlsx,test,0.6,0.6,0.6,-0.6,-0.6,right,R,,,,,0,1,1,1,0,60,60,4,,,,,,,,,,,,,,,,,,,,,,,,,,,,,,,,,,,,,,,,,,,,702.5586122999666,None,left,0,2.1994685999816284,703.0587902000407,705.0125434000511,703.0587902000407,704.5107459999854,703.0587902000407,704.5107459999854,703.0587902000407,704.5107459999854,703.0587902000407,704.5107459999854,703.0587902000407,704.5107459999854,704.4776710999431,704.9784870999865,704.4776710999431,704.9784870999865,704.4776710999431,704.9784870999865,704.4776710999431,704.9784870999865,704.4776710999431,704.9784870999865,704.4776710999431,704.9784870999865,704.4776710999431,704.9784870999865,704.4776710999431,704.9784870999865,703.0587902000407,None,704.9784870999865,705.9306544000283,1.440000000000001,705.9465129999444,None,706.6984513000352,None,,,,,,,[0.93606557],2.0900000000000016,0.7213114754098361,11015,002,2024_Jan_04_1632,MFTM_A_new1021,2021.2.3,59.7037380929892,
,,,,,,,,stim/Instruction_adaptive.png,conditions/adaptive.xlsx,test,-0.6,-0.6,-0.6,0.6,0.6,left,L,,,,,0,1,1,1,0,61,61,31,,,,,,,,,,,,,,,,,,,,,,,,,,,,,,,,,,,,,,,,,,,,707.1983833999839,None,left,1,2.262978699989617,707.6993601999711,709.7544020999921,707.6993601999711,709.252420200035,707.6993601999711,709.252420200035,707.6993601999711,709.252420200035,707.6993601999711,709.252420200035,707.6993601999711,709.252420200035,709.2347366999602,709.7355215999996,709.2347366999602,709.7355215999996,709.2347366999602,709.7355215999996,709.2347366999602,709.7355215999996,709.2347366999602,709.7355215999996,709.2347366999602,709.7355215999996,709.2347366999602,709.7355215999996,709.2347366999602,709.7355215999996,707.6993601999711,None,709.7355215999996,None,1.5500000000000012,710.6868616000284,None,711.4387348999735,None,,,,,,,[0.93629032],2.1200000000000014,0.7258064516129032,11015,002,2024_Jan_04_1632,MFTM_A_new1021,2021.2.3,59.7037380929892,
,,,,,,,,stim/Instruction_adaptive.png,conditions/adaptive.xlsx,test,-0.6,-0.6,-0.6,0.6,0.6,left,L,,,,,0,1,1,1,0,62,62,73,,,,,,,,,,,,,,,,,,,,,,,,,,,,,,,,,,,,,,,,,,,,711.9387645999668,None,left,1,2.578937300015241,712.4393666000105,714.4590740000131,712.4393666000105,713.958458899986,712.4393666000105,713.958458899986,712.4393666000105,713.958458899986,712.4393666000105,713.958458899986,712.4393666000105,713.958458899986,713.9249444999732,714.4255411999766,713.9249444999732,714.4255411999766,713.9249444999732,714.4255411999766,713.9249444999732,714.4255411999766,713.9249444999732,714.4255411999766,713.9249444999732,714.4255411999766,713.9249444999732,714.4255411999766,713.9249444999732,714.4255411999766,712.4393666000105,None,714.4255411999766,715.3772458999883,1.5100000000000011,715.393732400029,None,716.145396900014,None,,,,,,,[0.93714286],2.1600000000000015,0.7301587301587301,11015,002,2024_Jan_04_1632,MFTM_A_new1021,2021.2.3,59.7037380929892,
,,,,,,,,stim/Instruction_adaptive.png,conditions/adaptive.xlsx,test,0.6,0.6,0.6,-0.6,-0.6,right,R,,,,,0,1,1,1,0,63,63,56,,,,,,,,,,,,,,,,,,,,,,,,,,,,,,,,,,,,,,,,,,,,716.6457472000038,None,left,0,2.360205400036648,717.1463226999622,719.1166394000174,717.1463226999622,718.6151798999636,717.1463226999622,718.6151798999636,717.1463226999622,718.6151798999636,717.1463226999622,718.6151798999636,717.1463226999622,718.6151798999636,718.5992117000278,719.1000693000387,718.5992117000278,719.1000693000387,718.5992117000278,719.1000693000387,718.5992117000278,719.1000693000387,718.5992117000278,719.1000693000387,718.5992117000278,719.1000693000387,718.5992117000278,719.1000693000387,718.5992117000278,719.1000693000387,717.1463226999622,None,719.1000693000387,720.0508264000528,1.470000000000001,720.0674258000217,None,720.8185130000347,None,,,,,,,[0.93859375],2.0600000000000014,0.71875,11015,002,2024_Jan_04_1632,MFTM_A_new1021,2021.2.3,59.7037380929892,
,,,,,,,,stim/Instruction_adaptive.png,conditions/adaptive.xlsx,test,0.6,0.6,0.6,-0.6,-0.6,right,R,,,,,0,1,1,1,0,64,64,90,,,,,,,,,,,,,,,,,,,,,,,,,,,,,,,,,,,,,,,,,,,,721.3199983000522,None,right,1,2.2060962000396103,721.8202186999843,723.9065385999857,721.8202186999843,723.4056826999877,721.8202186999843,723.4056826999877,721.8202186999843,723.4056826999877,721.8202186999843,723.4056826999877,721.8202186999843,723.4056826999877,723.3897577000316,723.8896650000243,723.3897577000316,723.8896650000243,723.3897577000316,723.8896650000243,723.3897577000316,723.8896650000243,723.3897577000316,723.8896650000243,723.3897577000316,723.8896650000243,723.3897577000316,723.8896650000243,723.3897577000316,723.8896650000243,721.8202186999843,None,723.8896650000243,None,1.5800000000000012,724.824479599949,None,725.5758058000356,None,,,,,,,[[0.92]],2.0900000000000016,0.7230769230769231,11015,002,2024_Jan_04_1632,MFTM_A_new1021,2021.2.3,59.7037380929892,
,,,,,,,,stim/Instruction_adaptive.png,conditions/adaptive.xlsx,test,-0.6,-0.6,-0.6,0.6,0.6,left,L,,,,,0,1,1,1,0,65,65,93,,,,,,,,,,,,,,,,,,,,,,,,,,,,,,,,,,,,,,,,,,,,726.0770426000236,None,left,1,1.481655600015074,726.577098299982,728.6302275999915,726.577098299982,728.129458499956,726.577098299982,728.129458499956,726.577098299982,728.129458499956,726.577098299982,728.129458499956,726.577098299982,728.129458499956,728.1127662999788,728.6136128000217,728.1127662999788,728.6136128000217,728.1127662999788,728.6136128000217,728.1127662999788,728.6136128000217,728.1127662999788,728.6136128000217,728.1127662999788,728.6136128000217,728.1127662999788,728.6136128000217,728.1127662999788,728.6136128000217,726.577098299982,None,728.6136128000217,None,1.5500000000000012,729.564807399991,None,730.316488899989,None,,,,,,,[0.93848485],2.1300000000000017,0.7272727272727273,11015,002,2024_Jan_04_1632,MFTM_A_new1021,2021.2.3,59.7037380929892,
,,,,,,,,stim/Instruction_adaptive.png,conditions/adaptive.xlsx,test,-0.6,-0.6,-0.6,0.6,0.6,left,L,,,,,0,1,1,1,0,66,66,99,,,,,,,,,,,,,,,,,,,,,,,,,,,,,,,,,,,,,,,,,,,,730.8171887999633,None,left,1,1.3656032000435516,731.3173181000166,733.3217870000517,731.3173181000166,732.8197411999572,731.3173181000166,732.8197411999572,731.3173181000166,732.8197411999572,731.3173181000166,732.8197411999572,731.3173181000166,732.8197411999572,732.8041403000243,733.3039710000157,732.8041403000243,733.3039710000157,732.8041403000243,733.3039710000157,732.8041403000243,733.3039710000157,732.8041403000243,733.3039710000157,732.8041403000243,733.3039710000157,732.8041403000243,733.3039710000157,732.8041403000243,733.3039710000157,731.3173181000166,None,733.3039710000157,734.2552774000214,1.500000000000001,734.2716624999885,None,735.0228927000426,None,,,,,,,[0.93940299],2.1600000000000015,0.7313432835820896,11015,002,2024_Jan_04_1632,MFTM_A_new1021,2021.2.3,59.7037380929892,
,,,,,,,,stim/Instruction_adaptive.png,conditions/adaptive.xlsx,test,0.6,0.6,0.6,-0.6,-0.6,right,R,,,,,0,1,1,1,0,67,67,46,,,,,,,,,,,,,,,,,,,,,,,,,,,,,,,,,,,,,,,,,,,,735.5236124000512,None,left,0,1.6740919000003487,736.0244024000131,737.9940199999837,736.0244024000131,737.510735000018,736.0244024000131,737.510735000018,736.0244024000131,737.510735000018,736.0244024000131,737.510735000018,736.0244024000131,737.510735000018,737.4766130000353,737.9776622999925,737.4766130000353,737.9776622999925,737.4766130000353,737.9776622999925,737.4766130000353,737.9776622999925,737.4766130000353,737.9776622999925,737.4766130000353,737.9776622999925,737.4766130000353,737.9776622999925,737.4766130000353,737.9776622999925,736.0244024000131,None,737.9776622999925,738.9294069999596,1.470000000000001,738.9459839999909,None,739.6968846999807,None,,,,,,,[0.94073529],2.070000000000001,0.7205882352941176,11015,002,2024_Jan_04_1632,MFTM_A_new1021,2021.2.3,59.7037380929892,
,,,,,,,,stim/Instruction_adaptive.png,conditions/adaptive.xlsx,test,-0.6,-0.6,-0.6,0.6,0.6,left,L,,,,,0,1,1,1,0,68,68,23,,,,,,,,,,,,,,,,,,,,,,,,,,,,,,,,,,,,,,,,,,,,740.1978824000107,None,left,1,2.4725860999897122,740.6980577999493,742.7678426000057,740.6980577999493,742.2834982000059,740.6980577999493,742.2834982000059,740.6980577999493,742.2834982000059,740.6980577999493,742.2834982000059,740.6980577999493,742.2834982000059,742.250368500012,742.751535300049,742.250368500012,742.751535300049,742.250368500012,742.751535300049,742.250368500012,742.751535300049,742.250368500012,742.751535300049,742.250368500012,742.751535300049,742.250368500012,742.751535300049,742.250368500012,742.751535300049,740.6980577999493,None,742.751535300049,743.6862765999977,1.5700000000000012,743.7025103999767,None,744.4535879000323,None,,,,,,,[[0.93]],2.1000000000000014,0.7246376811594203,11015,002,2024_Jan_04_1632,MFTM_A_new1021,2021.2.3,59.7037380929892,
,,,,,,,,stim/Instruction_adaptive.png,conditions/adaptive.xlsx,test,-0.6,-0.6,-0.6,0.6,0.6,left,L,,,,,0,1,1,1,0,69,69,1,,,,,,,,,,,,,,,,,,,,,,,,,,,,,,,,,,,,,,,,,,,,744.9549753000028,None,left,1,0.9794635999714956,745.4550365000032,747.4917143000057,745.4550365000032,746.9906747000059,745.4550365000032,746.9906747000059,745.4550365000032,746.9906747000059,745.4550365000032,746.9906747000059,745.4550365000032,746.9906747000059,746.9744256000267,747.4758856999688,746.9744256000267,747.4758856999688,746.9744256000267,747.4758856999688,746.9744256000267,747.4758856999688,746.9744256000267,747.4758856999688,746.9744256000267,747.4758856999688,746.9744256000267,747.4758856999688,746.9744256000267,747.4758856999688,745.4550365000032,None,747.4758856999688,None,1.5300000000000011,748.4266640000278,None,749.177661600057,None,,,,,,,[0.941],2.1300000000000017,0.7285714285714285,11015,002,2024_Jan_04_1632,MFTM_A_new1021,2021.2.3,59.7037380929892,
,,,,,,,,stim/Instruction_adaptive.png,conditions/adaptive.xlsx,test,-0.6,-0.6,-0.6,0.6,0.6,left,L,,,,,0,1,1,1,0,70,70,9,,,,,,,,,,,,,,,,,,,,,,,,,,,,,,,,,,,,,,,,,,,,749.6779211000539,None,left,1,2.048212700057775,750.178481800016,752.1821073000319,750.178481800016,751.6815932999598,750.178481800016,751.6815932999598,750.178481800016,751.6815932999598,750.178481800016,751.6815932999598,750.178481800016,751.6815932999598,751.6642800000263,752.1653979000403,751.6642800000263,752.1653979000403,751.6642800000263,752.1653979000403,751.6642800000263,752.1653979000403,751.6642800000263,752.1653979000403,751.6642800000263,752.1653979000403,751.6642800000263,752.1653979000403,751.6642800000263,752.1653979000403,750.178481800016,None,752.1653979000403,753.1170133999549,1.500000000000001,753.1330505999504,None,753.8851646999829,None,,,,,,,[0.94183099],2.1600000000000015,0.7323943661971831,11015,002,2024_Jan_04_1632,MFTM_A_new1021,2021.2.3,59.7037380929892,
,,,,,,,,stim/Instruction_adaptive.png,conditions/adaptive.xlsx,test,0.6,0.6,0.6,-0.6,-0.6,right,R,,,,,0,1,1,1,0,71,71,86,,,,,,,,,,,,,,,,,,,,,,,,,,,,,,,,,,,,,,,,,,,,754.3849391000113,None,right,1,1.700542200007476,754.8858162000543,756.8553576000268,754.8858162000543,756.3715223999461,754.8858162000543,756.3715223999461,754.8858162000543,756.3715223999461,754.8858162000543,756.3715223999461,754.8858162000543,756.3715223999461,756.3378099000547,756.8398557000328,756.3378099000547,756.8398557000328,756.3378099000547,756.8398557000328,756.3378099000547,756.8398557000328,756.3378099000547,756.8398557000328,756.3378099000547,756.8398557000328,756.3378099000547,756.8398557000328,756.3378099000547,756.8398557000328,754.8858162000543,None,756.8398557000328,757.7906998000108,1.470000000000001,757.8070145000238,None,758.5578470999608,None,,,,,,,[0.94305556],2.1900000000000013,0.7361111111111112,11015,002,2024_Jan_04_1632,MFTM_A_new1021,2021.2.3,59.7037380929892,
,,,,,,,,stim/Instruction_adaptive.png,conditions/adaptive.xlsx,test,-0.6,-0.6,-0.6,0.6,0.6,left,L,,,,,0,1,1,1,0,72,72,43,,,,,,,,,,,,,,,,,,,,,,,,,,,,,,,,,,,,,,,,,,,,759.0588815000374,None,left,1,2.17199729999993,759.55907139997,761.5129447999643,759.55907139997,761.0113672999432,759.55907139997,761.0113672999432,759.55907139997,761.0113672999432,759.55907139997,761.0113672999432,759.55907139997,761.0113672999432,760.9788972999668,761.4788572000107,760.9788972999668,761.4788572000107,760.9788972999668,761.4788572000107,760.9788972999668,761.4788572000107,760.9788972999668,761.4788572000107,760.9788972999668,761.4788572000107,760.9788972999668,761.4788572000107,760.9788972999668,761.4788572000107,759.55907139997,None,761.4788572000107,762.4311377999838,1.440000000000001,762.4475772000151,None,763.1984604999889,None,,,,,,,[0.94465753],2.2100000000000017,0.7397260273972602,11015,002,2024_Jan_04_1632,MFTM_A_new1021,2021.2.3,59.7037380929892,
,,,,,,,,stim/Instruction_adaptive.png,conditions/adaptive.xlsx,test,-0.6,-0.6,-0.6,0.6,0.6,left,L,,,,,0,1,1,1,0,73,73,37,,,,,,,,,,,,,,,,,,,,,,,,,,,,,,,,,,,,,,,,,,,,763.6994332999457,None,left,1,1.8750300999963656,764.1994896000251,766.120022200048,764.1994896000251,765.6360859000124,764.1994896000251,765.6360859000124,764.1994896000251,765.6360859000124,764.1994896000251,765.6360859000124,764.1994896000251,765.6360859000124,765.601548000006,766.1034545999719,765.601548000006,766.1034545999719,765.601548000006,766.1034545999719,765.601548000006,766.1034545999719,765.601548000006,766.1034545999719,765.601548000006,766.1034545999719,765.601548000006,766.1034545999719,765.601548000006,766.1034545999719,764.1994896000251,None,766.1034545999719,767.0542105999775,1.420000000000001,767.0702517000027,None,767.8225777000189,None,,,,,,,[0.94648649],2.2400000000000015,0.7432432432432432,11015,002,2024_Jan_04_1632,MFTM_A_new1021,2021.2.3,59.7037380929892,
,,,,,,,,stim/Instruction_adaptive.png,conditions/adaptive.xlsx,test,0.6,0.6,0.6,-0.6,-0.6,right,R,,,,,0,1,1,1,0,74,74,34,,,,,,,,,,,,,,,,,,,,,,,,,,,,,,,,,,,,,,,,,,,,768.3229728000006,None,right,1,1.7074374000076205,768.8230626999866,770.7256330000237,768.8230626999866,770.225116900052,768.8230626999866,770.225116900052,768.8230626999866,770.225116900052,768.8230626999866,770.225116900052,768.8230626999866,770.225116900052,770.1923537000548,770.6927982999478,770.1923537000548,770.6927982999478,770.1923537000548,770.6927982999478,770.1923537000548,770.6927982999478,770.1923537000548,770.6927982999478,770.1923537000548,770.6927982999478,770.1923537000548,770.6927982999478,770.1923537000548,770.6927982999478,768.8230626999866,None,770.6927982999478,771.6458811999764,1.390000000000001,771.6598684999626,None,772.4120831999462,None,,,,,,,[0.94866667],2.2600000000000016,0.7466666666666667,11015,002,2024_Jan_04_1632,MFTM_A_new1021,2021.2.3,59.7037380929892,
,,,,,,,,stim/Instruction_adaptive.png,conditions/adaptive.xlsx,test,-0.6,-0.6,-0.6,0.6,0.6,left,L,,,,,0,1,1,1,0,75,75,63,,,,,,,,,,,,,,,,,,,,,,,,,,,,,,,,,,,,,,,,,,,,772.9122912000166,None,left,1,1.3411885999375954,773.4131387999514,775.2830881000264,773.4131387999514,774.7983362999512,773.4131387999514,774.7983362999512,773.4131387999514,774.7983362999512,773.4131387999514,774.7983362999512,773.4131387999514,774.7983362999512,774.7648471000139,775.2660684000002,774.7648471000139,775.2660684000002,774.7648471000139,775.2660684000002,774.7648471000139,775.2660684000002,774.7648471000139,775.2660684000002,774.7648471000139,775.2660684000002,774.7648471000139,775.2660684000002,774.7648471000139,775.2660684000002,773.4131387999514,None,775.2660684000002,776.2179047999671,1.370000000000001,776.2338530999841,None,776.9852510000346,None,,,,,,,[0.95105263],2.290000000000002,0.75,11015,002,2024_Jan_04_1632,MFTM_A_new1021,2021.2.3,59.7037380929892,
,,,,,,,,stim/Instruction_adaptive.png,conditions/adaptive.xlsx,test,-0.6,-0.6,-0.6,0.6,0.6,left,L,,,,,0,1,1,1,0,76,76,19,,,,,,,,,,,,,,,,,,,,,,,,,,,,,,,,,,,,,,,,,,,,777.4857609999599,None,left,1,1.855937400017865,777.9866373999976,779.8396449000575,777.9866373999976,779.3386311000213,777.9866373999976,779.3386311000213,777.9866373999976,779.3386311000213,777.9866373999976,779.3386311000213,777.9866373999976,779.3386311000213,779.3219502000138,779.8233144000405,779.3219502000138,779.8233144000405,779.3219502000138,779.8233144000405,779.3219502000138,779.8233144000405,779.3219502000138,779.8233144000405,779.3219502000138,779.8233144000405,779.3219502000138,779.8233144000405,779.3219502000138,779.8233144000405,777.9866373999976,None,779.8233144000405,None,1.350000000000001,780.7915088000009,None,781.5417531999992,None,,,,,,,[0.95363636],2.3100000000000014,0.7532467532467533,11015,002,2024_Jan_04_1632,MFTM_A_new1021,2021.2.3,59.7037380929892,
,,,,,,,,stim/Instruction_adaptive.png,conditions/adaptive.xlsx,test,0.6,0.6,0.6,-0.6,-0.6,right,R,,,,,0,1,1,1,0,77,77,68,,,,,,,,,,,,,,,,,,,,,,,,,,,,,,,,,,,,,,,,,,,,782.0432708000299,None,right,1,1.4988591999281198,782.5439103000099,784.3795563000022,782.5439103000099,783.8790959999897,782.5439103000099,783.8790959999897,782.5439103000099,783.8790959999897,782.5439103000099,783.8790959999897,782.5439103000099,783.8790959999897,783.8624784999993,784.3626415999606,783.8624784999993,784.3626415999606,783.8624784999993,784.3626415999606,783.8624784999993,784.3626415999606,783.8624784999993,784.3626415999606,783.8624784999993,784.3626415999606,783.8624784999993,784.3626415999606,783.8624784999993,784.3626415999606,782.5439103000099,None,784.3626415999606,None,1.330000000000001,785.3307985999854,None,786.0820430000313,None,,,,,,,[0.95641026],2.3400000000000016,0.7564102564102564,11015,002,2024_Jan_04_1632,MFTM_A_new1021,2021.2.3,59.7037380929892,
,,,,,,,,stim/Instruction_adaptive.png,conditions/adaptive.xlsx,test,-0.6,-0.6,-0.6,0.6,0.6,left,L,,,,,0,1,1,1,0,78,78,85,,,,,,,,,,,,,,,,,,,,,,,,,,,,,,,,,,,,,,,,,,,,786.58291560004,None,left,1,0.855131100048311,787.0833432000363,788.8865916000213,787.0833432000363,788.3853031999897,787.0833432000363,788.3853031999897,787.0833432000363,788.3853031999897,787.0833432000363,788.3853031999897,787.0833432000363,788.3853031999897,788.3686365999747,788.870294900029,788.3686365999747,788.870294900029,788.3686365999747,788.870294900029,788.3686365999747,788.870294900029,788.3686365999747,788.870294900029,788.3686365999747,788.870294900029,788.3686365999747,788.870294900029,788.3686365999747,788.870294900029,787.0833432000363,None,788.870294900029,789.8382143999916,1.300000000000001,789.8544311999576,None,790.6059507000027,None,,,,,,,[0.95949367],2.3600000000000017,0.759493670886076,11015,002,2024_Jan_04_1632,MFTM_A_new1021,2021.2.3,59.7037380929892,
,,,,,,,,stim/Instruction_adaptive.png,conditions/adaptive.xlsx,test,0.6,0.6,0.6,-0.6,-0.6,right,R,,,,,0,1,1,1,0,79,79,50,,,,,,,,,,,,,,,,,,,,,,,,,,,,,,,,,,,,,,,,,,,,791.1069559999742,None,left,0,1.4988306000595912,791.6075481999433,793.3934566000244,791.6075481999433,792.892070599948,791.6075481999433,792.892070599948,791.6075481999433,792.892070599948,791.6075481999433,792.892070599948,791.6075481999433,792.892070599948,792.8765577999875,793.3762913000537,792.8765577999875,793.3762913000537,792.8765577999875,793.3762913000537,792.8765577999875,793.3762913000537,792.8765577999875,793.3762913000537,792.8765577999875,793.3762913000537,792.8765577999875,793.3762913000537,792.8765577999875,793.3762913000537,791.6075481999433,None,793.3762913000537,794.3443092999514,1.280000000000001,794.3608092999784,None,795.1119756000116,None,,,,,,,[0.96275],2.290000000000002,0.75,11015,002,2024_Jan_04_1632,MFTM_A_new1021,2021.2.3,59.7037380929892,
,,,,,,,,stim/Instruction_adaptive.png,conditions/adaptive.xlsx,test,0.6,0.6,0.6,-0.6,-0.6,right,R,,,,,0,1,1,1,0,80,80,72,,,,,,,,,,,,,,,,,,,,,,,,,,,,,,,,,,,,,,,,,,,,795.6131150999572,None,right,1,2.1770784999243915,796.1134102999931,797.9675939000444,796.1134102999931,797.466169900028,796.1134102999931,797.466169900028,796.1134102999931,797.466169900028,796.1134102999931,797.466169900028,796.1134102999931,797.466169900028,797.4487808999838,797.9502540000249,797.4487808999838,797.9502540000249,797.4487808999838,797.9502540000249,797.4487808999838,797.9502540000249,797.4487808999838,797.9502540000249,797.4487808999838,797.9502540000249,797.4487808999838,797.9502540000249,797.4487808999838,797.9502540000249,796.1134102999931,None,797.9502540000249,798.9183975999476,1.350000000000001,798.9342222999549,None,799.68572519999,None,,,,,,,[0.96506173],2.3200000000000016,0.7530864197530864,11015,002,2024_Jan_04_1632,MFTM_A_new1021,2021.2.3,59.7037380929892,
,,,,,,,,stim/Instruction_adaptive.png,conditions/adaptive.xlsx,test,-0.6,-0.6,-0.6,0.6,0.6,left,L,,,,,0,1,1,1,0,81,81,33,,,,,,,,,,,,,,,,,,,,,,,,,,,,,,,,,,,,,,,,,,,,800.1864553999621,None,right,0,2.211312200059183,800.6871720999479,802.5062375999987,800.6871720999479,802.0223724000389,800.6871720999479,802.0223724000389,800.6871720999479,802.0223724000389,800.6871720999479,802.0223724000389,800.6871720999479,802.0223724000389,801.989051099983,802.4897728000069,801.989051099983,802.4897728000069,801.989051099983,802.4897728000069,801.989051099983,802.4897728000069,801.989051099983,802.4897728000069,801.989051099983,802.4897728000069,801.989051099983,802.4897728000069,801.989051099983,802.4897728000069,800.6871720999479,None,802.4897728000069,803.4594326999504,1.320000000000001,803.4741590999765,None,804.226202800055,None,,,,,,,[0.96768293],2.2500000000000018,0.7439024390243902,11015,002,2024_Jan_04_1632,MFTM_A_new1021,2021.2.3,59.7037380929892,
,,,,,,,,stim/Instruction_adaptive.png,conditions/adaptive.xlsx,test,-0.6,-0.6,-0.6,0.6,0.6,left,L,,,,,0,1,1,1,0,82,82,17,,,,,,,,,,,,,,,,,,,,,,,,,,,,,,,,,,,,,,,,,,,,804.7262811999535,None,left,1,1.6477416000561789,805.2267688000575,807.1130765000125,805.2267688000575,806.6131315999664,805.2267688000575,806.6131315999664,805.2267688000575,806.6131315999664,805.2267688000575,806.6131315999664,805.2267688000575,806.6131315999664,806.5962913000258,807.0964354999596,806.5962913000258,807.0964354999596,806.5962913000258,807.0964354999596,806.5962913000258,807.0964354999596,806.5962913000258,807.0964354999596,806.5962913000258,807.0964354999596,806.5962913000258,807.0964354999596,806.5962913000258,807.0964354999596,805.2267688000575,None,807.0964354999596,None,1.380000000000001,808.0811787999701,None,808.8324904999463,None,,,,,,,[0.96951807],2.2700000000000014,0.7469879518072289,11015,002,2024_Jan_04_1632,MFTM_A_new1021,2021.2.3,59.7037380929892,
,,,,,,,,stim/Instruction_adaptive.png,conditions/adaptive.xlsx,test,0.6,0.6,0.6,-0.6,-0.6,right,R,,,,,0,1,1,1,0,83,83,52,,,,,,,,,,,,,,,,,,,,,,,,,,,,,,,,,,,,,,,,,,,,809.3330538000446,None,right,1,1.9369218000210822,809.834021299961,811.7038274999941,809.834021299961,811.2030465999851,809.834021299961,811.2030465999851,809.834021299961,811.2030465999851,809.834021299961,811.2030465999851,809.834021299961,811.2030465999851,811.1858907999704,811.6867792999838,811.1858907999704,811.6867792999838,811.1858907999704,811.6867792999838,811.1858907999704,811.6867792999838,811.1858907999704,811.6867792999838,811.1858907999704,811.6867792999838,811.1858907999704,811.6867792999838,811.1858907999704,811.6867792999838,809.834021299961,None,811.6710185999982,812.6551452999702,1.360000000000001,812.6717406000243,None,813.422747500008,None,,,,,,,[0.97154762],2.290000000000002,0.75,11015,002,2024_Jan_04_1632,MFTM_A_new1021,2021.2.3,59.7037380929892,
,,,,,,,,stim/Instruction_adaptive.png,conditions/adaptive.xlsx,test,-0.6,-0.6,-0.6,0.6,0.6,left,L,,,,,0,1,1,1,0,84,84,25,,,,,,,,,,,,,,,,,,,,,,,,,,,,,,,,,,,,,,,,,,,,813.9234695000341,None,right,0,1.970485300058499,814.4241184999701,816.2768142999848,814.4241184999701,815.7759520000545,814.4241184999701,815.7759520000545,814.4241184999701,815.7759520000545,814.4241184999701,815.7759520000545,814.4241184999701,815.7759520000545,815.7592989000259,816.2599899000488,815.7592989000259,816.2599899000488,815.7592989000259,816.2599899000488,815.7592989000259,816.2599899000488,815.7592989000259,816.2599899000488,815.7592989000259,816.2599899000488,815.7592989000259,816.2599899000488,815.7592989000259,816.2599899000488,814.4241184999701,None,816.2599899000488,817.24538940005,1.350000000000001,817.2612687000073,None,818.0133955000201,None,,,,,,,[0.97364706],2.2300000000000013,0.7411764705882353,11015,002,2024_Jan_04_1632,MFTM_A_new1021,2021.2.3,59.7037380929892,
,,,,,,,,stim/Instruction_adaptive.png,conditions/adaptive.xlsx,test,0.6,0.6,0.6,-0.6,-0.6,right,R,,,,,0,1,1,1,0,85,85,26,,,,,,,,,,,,,,,,,,,,,,,,,,,,,,,,,,,,,,,,,,,,818.5133141999831,None,right,1,1.5795449999859557,819.0152971999487,820.917023899965,819.0152971999487,820.4159351000562,819.0152971999487,820.4159351000562,819.0152971999487,820.4159351000562,819.0152971999487,820.4159351000562,819.0152971999487,820.4159351000562,820.3996706999606,820.9008787999628,820.3996706999606,820.9008787999628,820.3996706999606,820.9008787999628,820.3996706999606,820.9008787999628,820.3996706999606,820.9008787999628,820.3996706999606,820.9008787999628,820.3996706999606,820.9008787999628,820.3996706999606,820.9008787999628,819.0152971999487,None,820.9008787999628,821.885539000039,1.400000000000001,821.9014727999456,None,822.6535834999522,None,,,,,,,[0.97511628],2.2500000000000018,0.7441860465116279,11015,002,2024_Jan_04_1632,MFTM_A_new1021,2021.2.3,59.7037380929892,
,,,,,,,,stim/Instruction_adaptive.png,conditions/adaptive.xlsx,test,0.6,0.6,0.6,-0.6,-0.6,right,R,,,,,0,1,1,1,0,86,86,32,,,,,,,,,,,,,,,,,,,,,,,,,,,,,,,,,,,,,,,,,,,,823.1552864999976,None,right,1,1.8674574999604374,823.6712826000294,825.5580166999716,823.6712826000294,825.0562882999657,823.6712826000294,825.0562882999657,823.6712826000294,825.0562882999657,823.6712826000294,825.0562882999657,823.6712826000294,825.0562882999657,825.0394244999625,825.5404663999798,825.0394244999625,825.5404663999798,825.0394244999625,825.5404663999798,825.0394244999625,825.5404663999798,825.0394244999625,825.5404663999798,825.0394244999625,825.5404663999798,825.0394244999625,825.5404663999798,825.0394244999625,825.5404663999798,823.6712826000294,None,825.5404663999798,826.5264210000169,1.380000000000001,826.5419038999826,None,827.2944716999773,None,,,,,,,[0.97678161],2.2700000000000014,0.7471264367816092,11015,002,2024_Jan_04_1632,MFTM_A_new1021,2021.2.3,59.7037380929892,
,,,,,,,,stim/Instruction_adaptive.png,conditions/adaptive.xlsx,test,-0.6,-0.6,-0.6,0.6,0.6,left,L,,,,,0,1,1,1,0,87,87,15,,,,,,,,,,,,,,,,,,,,,,,,,,,,,,,,,,,,,,,,,,,,827.7936913999729,None,left,1,1.787900700001046,828.2945413000416,830.1646419999888,828.2945413000416,829.6632856000215,828.2945413000416,829.6632856000215,828.2945413000416,829.6632856000215,828.2945413000416,829.6632856000215,828.2945413000416,829.6632856000215,829.6466529000318,830.1471941999625,829.6466529000318,830.1471941999625,829.6466529000318,830.1471941999625,829.6466529000318,830.1471941999625,829.6466529000318,830.1471941999625,829.6466529000318,830.1471941999625,829.6466529000318,830.1471941999625,829.6466529000318,830.1471941999625,828.2945413000416,None,830.1316479999805,831.1178596999962,1.360000000000001,831.1325829999987,None,831.8836967999814,None,,,,,,,[0.97863636],2.290000000000002,0.75,11015,002,2024_Jan_04_1632,MFTM_A_new1021,2021.2.3,59.7037380929892,
,,,,,,,,stim/Instruction_adaptive.png,conditions/adaptive.xlsx,test,-0.6,-0.6,-0.6,0.6,0.6,left,L,,,,,0,1,1,1,0,88,88,53,,,,,,,,,,,,,,,,,,,,,,,,,,,,,,,,,,,,,,,,,,,,832.3840764999622,None,left,1,1.4456802000058815,832.884787100018,834.7383175999857,832.884787100018,834.2367924000137,832.884787100018,834.2367924000137,832.884787100018,834.2367924000137,832.884787100018,834.2367924000137,832.884787100018,834.2367924000137,834.2198182999855,834.7210350000532,834.2198182999855,834.7210350000532,834.2198182999855,834.7210350000532,834.2198182999855,834.7210350000532,834.2198182999855,834.7210350000532,834.2198182999855,834.7210350000532,834.2198182999855,834.7210350000532,834.2198182999855,834.7210350000532,832.884787100018,None,834.7210350000532,835.70599269995,1.350000000000001,835.7225597000215,None,836.4733057999983,None,,,,,,,[0.9805618],2.3100000000000014,0.7528089887640449,11015,002,2024_Jan_04_1632,MFTM_A_new1021,2021.2.3,59.7037380929892,
,,,,,,,,stim/Instruction_adaptive.png,conditions/adaptive.xlsx,test,-0.6,-0.6,-0.6,0.6,0.6,left,L,,,,,0,1,1,1,0,89,89,83,,,,,,,,,,,,,,,,,,,,,,,,,,,,,,,,,,,,,,,,,,,,836.9739469999913,None,right,0,1.7278860999504104,837.4747218999546,839.310812599957,837.4747218999546,838.8100074999966,837.4747218999546,838.8100074999966,837.4747218999546,838.8100074999966,837.4747218999546,838.8100074999966,837.4747218999546,838.8100074999966,838.7931912000058,839.2947948999936,838.7931912000058,839.2947948999936,838.7931912000058,839.2947948999936,838.7931912000058,839.2947948999936,838.7931912000058,839.2947948999936,838.7931912000058,839.2947948999936,838.7931912000058,839.2947948999936,838.7931912000058,839.2947948999936,837.4747218999546,None,839.2947948999936,840.2808831000002,1.330000000000001,840.2953741999809,None,841.0466427999781,None,,,,,,,[0.98266667],2.2500000000000018,0.7444444444444445,11015,002,2024_Jan_04_1632,MFTM_A_new1021,2021.2.3,59.7037380929892,
,,,,,,,,stim/Instruction_adaptive.png,conditions/adaptive.xlsx,test,0.6,0.6,0.6,-0.6,-0.6,right,R,,,,,0,1,1,1,0,90,90,70,,,,,,,,,,,,,,,,,,,,,,,,,,,,,,,,,,,,,,,,,,,,841.5479833000572,None,right,1,1.7303136000409722,842.0482901999494,843.9342778000282,842.0482901999494,843.4335471000522,842.0482901999494,843.4335471000522,842.0482901999494,843.4335471000522,842.0482901999494,843.4335471000522,842.0482901999494,843.4335471000522,843.4169447999448,843.9175606999779,843.4169447999448,843.9175606999779,843.4169447999448,843.9175606999779,843.4169447999448,843.9175606999779,843.4169447999448,843.9175606999779,843.4169447999448,843.9175606999779,843.4169447999448,843.9175606999779,843.4169447999448,843.9175606999779,842.0482901999494,None,843.9175606999779,844.9023811999941,1.380000000000001,844.9190540000563,None,845.670920399949,None,,,,,,,[0.98417582],2.2700000000000014,0.7472527472527473,11015,002,2024_Jan_04_1632,MFTM_A_new1021,2021.2.3,59.7037380929892,
,,,,,,,,stim/Instruction_adaptive.png,conditions/adaptive.xlsx,test,0.6,0.6,0.6,-0.6,-0.6,right,R,,,,,0,1,1,1,0,91,91,66,,,,,,,,,,,,,,,,,,,,,,,,,,,,,,,,,,,,,,,,,,,,846.171139299986,None,right,1,1.9470695999916643,846.6715259000193,848.5409005000256,846.6715259000193,848.0405053000432,846.6715259000193,848.0405053000432,846.6715259000193,848.0405053000432,846.6715259000193,848.0405053000432,846.6715259000193,848.0405053000432,848.0243198999669,848.5241835999768,848.0243198999669,848.5241835999768,848.0243198999669,848.5241835999768,848.0243198999669,848.5241835999768,848.0243198999669,848.5241835999768,848.0243198999669,848.5241835999768,848.0243198999669,848.5241835999768,848.0243198999669,848.5241835999768,846.6715259000193,None,848.5074833000544,849.4926127999788,1.360000000000001,849.5265354999574,None,850.2770308000036,None,,,,,,,[0.98586957],2.290000000000002,0.75,11015,002,2024_Jan_04_1632,MFTM_A_new1021,2021.2.3,59.7037380929892,
,,,,,,,,stim/Instruction_adaptive.png,conditions/adaptive.xlsx,test,-0.6,-0.6,-0.6,0.6,0.6,left,L,,,,,0,1,1,1,0,92,92,77,,,,,,,,,,,,,,,,,,,,,,,,,,,,,,,,,,,,,,,,,,,,850.7778459000401,None,left,1,1.7326274000806734,851.2784124000464,853.1312248000177,851.2784124000464,852.6312087000115,851.2784124000464,852.6312087000115,851.2784124000464,852.6312087000115,851.2784124000464,852.6312087000115,851.2784124000464,852.6312087000115,852.6138502999675,853.1147144000279,852.6138502999675,853.1147144000279,852.6138502999675,853.1147144000279,852.6138502999675,853.1147144000279,852.6138502999675,853.1147144000279,852.6138502999675,853.1147144000279,852.6138502999675,853.1147144000279,852.6138502999675,853.1147144000279,851.2784124000464,None,853.1147144000279,None,1.350000000000001,854.1164968999801,None,854.8680760000134,None,,,,,,,[0.98763441],2.3100000000000014,0.7526881720430108,11015,002,2024_Jan_04_1632,MFTM_A_new1021,2021.2.3,59.7037380929892,
,,,,,,,,stim/Instruction_adaptive.png,conditions/adaptive.xlsx,test,-0.6,-0.6,-0.6,0.6,0.6,left,L,,,,,0,1,1,1,0,93,93,11,,,,,,,,,,,,,,,,,,,,,,,,,,,,,,,,,,,,,,,,,,,,855.3686174999457,None,left,1,2.0138818999985233,855.8687260999577,857.7051944000414,855.8687260999577,857.2053820999572,855.8687260999577,857.2053820999572,855.8687260999577,857.2053820999572,855.8687260999577,857.2053820999572,855.8687260999577,857.2053820999572,857.1874298000475,857.6879906000104,857.1874298000475,857.6879906000104,857.1874298000475,857.6879906000104,857.1874298000475,857.6879906000104,857.1874298000475,857.6879906000104,857.1874298000475,857.6879906000104,857.1874298000475,857.6879906000104,857.1874298000475,857.6879906000104,855.8687260999577,None,857.6879906000104,None,1.330000000000001,858.6894641000545,None,859.4407262000022,None,,,,,,,[0.98957447],2.330000000000002,0.7553191489361702,11015,002,2024_Jan_04_1632,MFTM_A_new1021,2021.2.3,59.7037380929892,
,,,,,,,,stim/Instruction_adaptive.png,conditions/adaptive.xlsx,test,-0.6,-0.6,-0.6,0.6,0.6,left,L,,,,,0,1,1,1,0,94,94,71,,,,,,,,,,,,,,,,,,,,,,,,,,,,,,,,,,,,,,,,,,,,859.9413811999839,None,left,1,1.5204087999882177,860.4421643000096,862.261359600001,860.4421643000096,861.761325599975,860.4421643000096,861.761325599975,860.4421643000096,861.761325599975,860.4421643000096,861.761325599975,860.4421643000096,861.761325599975,861.744988600025,862.2448364000302,861.744988600025,862.2448364000302,861.744988600025,862.2448364000302,861.744988600025,862.2448364000302,861.744988600025,862.2448364000302,861.744988600025,862.2448364000302,861.744988600025,862.2448364000302,861.744988600025,862.2448364000302,860.4421643000096,None,862.2448364000302,None,1.310000000000001,863.2466526000062,None,863.9977433000458,None,,,,,,,[0.99168421],2.3500000000000014,0.7578947368421053,11015,002,2024_Jan_04_1632,MFTM_A_new1021,2021.2.3,59.7037380929892,
