arrwidth1,arrwidth2,arrwidth3,arrwidth4,arrwidth5,keyb,type,orientation,instruction_image,block_filename,block_type,arrow11,arrow22,arrow33,arrow44,arrow55,keyb_3,orientation3,trials.thisRepN,trials.thisTrialN,trials.thisN,trials.thisIndex,trials_3.thisRepN,trials_3.thisTrialN,trials_3.thisN,trials_3.thisIndex,trials_2.thisRepN,trials_2.thisTrialN,trials_2.thisN,trials_2.thisIndex,welcome.started,welcome.stopped,key_resp.keys,key_resp.rt,key_resp.started,key_resp.stopped,instruction_example.started,instruction_example.stopped,key_resp_3.keys,key_resp_3.rt,key_resp_3.started,key_resp_3.stopped,instruction_task.started,instruction_task.stopped,key_resp_2.keys,key_resp_2.rt,key_resp_2.started,key_resp_2.stopped,text_2.started,text_2.stopped,A1.started,A1.stopped,A2.started,A2.stopped,A3.started,A3.stopped,A4.started,A4.stopped,A5.started,A5.stopped,key_resp_4.keys,key_resp_4.corr,key_resp_4.rt,key_resp_4.started,key_resp_4.stopped,fb.started,fb.stopped,instruction_block.started,instruction_block.stopped,key_resp_8.keys,key_resp_8.rt,key_resp_8.started,key_resp_8.stopped,text_8.started,text_8.stopped,key_resp_9.keys,key_resp_9.corr,key_resp_9.rt,text_5.started,text_5.stopped,A11_3.started,A11_3.stopped,A22_2.started,A22_2.stopped,A33_2.started,A33_2.stopped,A44_2.started,A44_2.stopped,A55_2.started,A55_2.stopped,M1_3.started,M1_3.stopped,M2_2.started,M2_2.stopped,M3_2.started,M3_2.stopped,M4_2.started,M4_2.stopped,M5_2.started,M5_2.stopped,M6_2.started,M6_2.stopped,M7_2.started,M7_2.stopped,M8_2.started,M8_2.stopped,key_resp_9.started,key_resp_9.stopped,fixation.started,fixation.stopped,ET,fb_3.started,fb_3.stopped,text_9.started,text_9.stopped,fb_4.started,fb_4.stopped,text_7.started,text_7.stopped,endtext.started,endtext.stopped,fixation_ITI,CCC,Acc,participant,session,date,expName,psychopyVersion,frameRate,
,,,,,,,,,,,,,,,,,,,,,,,,,,,,,,13.814358200062998,None,space,5.47084259998519,13.814358200062998,None,,,,,,,,,,,,,,,,,,,,,,,,,,,,,,,,,,,,,,,,,,,,,,,,,,,,,,,,,,,,,,,,,,,,,,,,,,,,,,,,,,,,,,,,,11018,002,2024_Jan_05_1206,MFTM_A_new1021,2021.2.3,59.54652934580645,
,,,,,,,,,,,,,,,,,,,,,,,,,,,,,,,,,,,,19.30549240007531,None,space,3.5073966999771073,19.30549240007531,None,,,,,,,,,,,,,,,,,,,,,,,,,,,,,,,,,,,,,,,,,,,,,,,,,,,,,,,,,,,,,,,,,,,,,,,,,,,,,,,,,,,11018,002,2024_Jan_05_1206,MFTM_A_new1021,2021.2.3,59.54652934580645,
,,,,,,,,,,,,,,,,,,,,,,,,,,,,,,,,,,,,,,,,,,22.843888200004585,None,space,1.8890536999097094,22.843888200004585,None,,,,,,,,,,,,,,,,,,,,,,,,,,,,,,,,,,,,,,,,,,,,,,,,,,,,,,,,,,,,,,,,,,,,,,,,,,,,,11018,002,2024_Jan_05_1206,MFTM_A_new1021,2021.2.3,59.54652934580645,
0.6,0.6,0.6,-0.6,-0.6,right,3:2,R,,,,,,,,,,,0,0,0,0,,,,,,,,,,,,,,,,,,,,,,,,,,,24.781128800008446,None,24.781128800008446,None,24.781128800008446,None,24.781128800008446,None,24.781128800008446,None,24.781128800008446,None,right,1,1.712220299988985,24.781128800008446,None,26.533096400089562,None,,,,,,,,,,,,,,,,,,,,,,,,,,,,,,,,,,,,,,,,,,,,,,,,,,,,,,,,,,11018,002,2024_Jan_05_1206,MFTM_A_new1021,2021.2.3,59.54652934580645,
-0.6,-0.6,-0.6,0.6,0.6,left,3:2,L,,,,,,,,,,,0,1,1,1,,,,,,,,,,,,,,,,,,,,,,,,,,,27.283721400075592,None,27.283721400075592,None,27.283721400075592,None,27.283721400075592,None,27.283721400075592,None,27.283721400075592,None,left,1,1.289653200074099,27.283721400075592,None,28.602358200005256,None,,,,,,,,,,,,,,,,,,,,,,,,,,,,,,,,,,,,,,,,,,,,,,,,,,,,,,,,,,11018,002,2024_Jan_05_1206,MFTM_A_new1021,2021.2.3,59.54652934580645,
0.6,0.6,0.6,-0.6,-0.6,right,3:2,R,,,,,,,,,,,1,0,2,0,,,,,,,,,,,,,,,,,,,,,,,,,,,29.353632500045933,None,29.353632500045933,None,29.353632500045933,None,29.353632500045933,None,29.353632500045933,None,29.353632500045933,None,right,1,1.539571600034833,29.353632500045933,None,30.922478800057434,None,,,,,,,,,,,,,,,,,,,,,,,,,,,,,,,,,,,,,,,,,,,,,,,,,,,,,,,,,,11018,002,2024_Jan_05_1206,MFTM_A_new1021,2021.2.3,59.54652934580645,
-0.6,-0.6,-0.6,0.6,0.6,left,3:2,L,,,,,,,,,,,1,1,3,1,,,,,,,,,,,,,,,,,,,,,,,,,,,31.673494299990125,None,31.673494299990125,None,31.673494299990125,None,31.673494299990125,None,31.673494299990125,None,31.673494299990125,None,left,1,1.9396931000519544,31.673494299990125,None,33.6431344000157,None,,,,,,,,,,,,,,,,,,,,,,,,,,,,,,,,,,,,,,,,,,,,,,,,,,,,,,,,,,11018,002,2024_Jan_05_1206,MFTM_A_new1021,2021.2.3,59.54652934580645,
,,,,,,,,stim/Instruction_mask.png,conditions/adaptive.xlsx,practice,0.6,0.6,0.6,-0.6,-0.6,right,R,,,,,0,0,0,0,0,0,0,72,,,,,,,,,,,,,,,,,,,,,,,,,,,,,,,,,,,,,,34.59378570003901,None,space,2.563114900025539,34.59378570003901,None,37.266097699990496,None,right,1,2.922853199997917,37.69925790000707,None,37.69925790000707,40.703712000045925,37.69925790000707,40.703712000045925,37.69925790000707,40.703712000045925,37.69925790000707,40.703712000045925,37.69925790000707,40.703712000045925,40.686995600000955,41.18752800009679,40.686995600000955,41.18752800009679,40.686995600000955,41.18752800009679,40.686995600000955,41.18752800009679,40.686995600000955,41.18752800009679,40.686995600000955,41.18752800009679,40.686995600000955,41.18752800009679,40.686995600000955,41.18752800009679,37.69925790000707,None,41.18752800009679,41.18752800009679,3,41.20441760006361,None,41.955904800095595,None,,,,,,,,,,11018,002,2024_Jan_05_1206,MFTM_A_new1021,2021.2.3,59.54652934580645,
,,,,,,,,stim/Instruction_mask.png,conditions/adaptive.xlsx,practice,-0.6,-0.6,-0.6,0.6,0.6,left,L,,,,,0,0,0,0,0,1,1,55,,,,,,,,,,,,,,,,,,,,,,,,,,,,,,,,,,,,,,,,,,,,42.456016100011766,None,left,1,1.5280111000174657,42.956990700098686,44.960580600076355,42.956990700098686,44.45915770006832,42.956990700098686,44.45915770006832,42.956990700098686,44.45915770006832,42.956990700098686,44.45915770006832,42.956990700098686,44.45915770006832,44.442566200043075,44.94400010001846,44.442566200043075,44.94400010001846,44.442566200043075,44.94400010001846,44.442566200043075,44.94400010001846,44.442566200043075,44.94400010001846,44.442566200043075,44.94400010001846,44.442566200043075,44.94400010001846,44.442566200043075,44.94400010001846,42.956990700098686,None,44.94400010001846,46.445508400094695,1.5,46.46199149999302,None,47.21413850004319,None,,,,,,,,,,11018,002,2024_Jan_05_1206,MFTM_A_new1021,2021.2.3,59.54652934580645,
,,,,,,,,stim/Instruction_mask.png,conditions/adaptive.xlsx,practice,-0.6,-0.6,-0.6,0.6,0.6,left,L,,,,,0,0,0,0,0,2,2,1,,,,,,,,,,,,,,,,,,,,,,,,,,,,,,,,,,,,,,,,,,,,47.7150959999999,None,left,1,1.2705801000120118,48.2152161000995,49.51679780008271,48.2152161000995,49.01698090007994,48.2152161000995,49.01698090007994,48.2152161000995,49.01698090007994,48.2152161000995,49.01698090007994,48.2152161000995,49.01698090007994,48.999815199989825,49.50000480003655,48.999815199989825,49.50000480003655,48.999815199989825,49.50000480003655,48.999815199989825,49.50000480003655,48.999815199989825,49.50000480003655,48.999815199989825,49.50000480003655,48.999815199989825,49.50000480003655,48.999815199989825,49.50000480003655,48.2152161000995,None,49.50000480003655,51.70371920010075,0.8,51.720887200091965,None,52.47182740003336,None,,,,,,,,,,11018,002,2024_Jan_05_1206,MFTM_A_new1021,2021.2.3,59.54652934580645,
,,,,,,,,stim/Instruction_mask.png,conditions/adaptive.xlsx,practice,0.6,0.6,0.6,-0.6,-0.6,right,R,,,,,0,0,0,0,0,3,3,48,,,,,,,,,,,,,,,,,,,,,,,,,,,,,,,,,,,,,,,,,,,,52.972058800049126,None,right,1,0.7327906999271363,53.47243900003377,54.22407140000723,53.47243900003377,53.72295610001311,53.47243900003377,53.72295610001311,53.47243900003377,53.72295610001311,53.47243900003377,53.72295610001311,53.47243900003377,53.72295610001311,53.706660700030625,54.20684850006364,53.706660700030625,54.20684850006364,53.706660700030625,54.20684850006364,53.706660700030625,54.20684850006364,53.706660700030625,54.20684850006364,53.706660700030625,54.20684850006364,53.706660700030625,54.20684850006364,53.706660700030625,54.20684850006364,53.47243900003377,None,54.20684850006364,56.962020500097424,3,56.978314400068484,None,57.72949719999451,None,,,,,,,,,,11018,002,2024_Jan_05_1206,MFTM_A_new1021,2021.2.3,59.54652934580645,
,,,,,,,,stim/Instruction_mask.png,conditions/adaptive.xlsx,practice,,,,,,,,,,,,0,0,0,0,,,,,,,,,,,,,,,,,,,,,,,,,,,,,,,,,,,,,,,,,,,,,,,,,,,,,,,,,,,,,,,,,,,,,,,,,,,,,,,,,,,,,,,,,,58.247650300036184,59.24906659999397,59.23115210002288,59.23115210002288,59.23115210002288,None,,,,11018,002,2024_Jan_05_1206,MFTM_A_new1021,2021.2.3,59.54652934580645,
,,,,,,,,stim/Instruction_adaptive.png,conditions/adaptive.xlsx,test,0.6,0.6,0.6,-0.6,-0.6,right,R,,,,,0,1,1,1,0,0,0,40,,,,,,,,,,,,,,,,,,,,,,,,,,,,,,,,,,,,,,62.36912719998509,None,space,4.196186300017871,62.36912719998509,None,66.60823110002093,None,right,1,2.6718498999252915,67.10945500002708,None,67.10945500002708,70.11462400003802,67.10945500002708,70.11462400003802,67.10945500002708,70.11462400003802,67.10945500002708,70.11462400003802,67.10945500002708,70.11462400003802,70.09738970000762,70.59946609998588,70.09738970000762,70.59946609998588,70.09738970000762,70.59946609998588,70.09738970000762,70.59946609998588,70.09738970000762,70.59946609998588,70.09738970000762,70.59946609998588,70.09738970000762,70.59946609998588,70.09738970000762,70.59946609998588,67.10945500002708,None,70.59946609998588,70.59946609998588,3,70.61500900005922,None,71.36646480008494,None,,,,,,,0,6.000000000000005,1.0,11018,002,2024_Jan_05_1206,MFTM_A_new1021,2021.2.3,59.54652934580645,
,,,,,,,,stim/Instruction_adaptive.png,conditions/adaptive.xlsx,test,-0.6,-0.6,-0.6,0.6,0.6,left,L,,,,,0,1,1,1,0,1,1,9,,,,,,,,,,,,,,,,,,,,,,,,,,,,,,,,,,,,,,,,,,,,71.86759030004032,None,left,1,0.7900857999920845,72.36703250010032,73.11960600002203,72.36703250010032,72.61849010002334,72.36703250010032,72.61849010002334,72.36703250010032,72.61849010002334,72.36703250010032,72.61849010002334,72.36703250010032,72.61849010002334,72.60090180009138,73.10272160009481,72.60090180009138,73.10272160009481,72.60090180009138,73.10272160009481,72.60090180009138,73.10272160009481,72.60090180009138,73.10272160009481,72.60090180009138,73.10272160009481,72.60090180009138,73.10272160009481,72.60090180009138,73.10272160009481,72.36703250010032,None,73.10272160009481,73.98717930004932,0.25,74.00380529998802,None,74.75404820009135,None,,,,,,,[0.875],6.000000000000005,1.0,11018,002,2024_Jan_05_1206,MFTM_A_new1021,2021.2.3,59.54652934580645,
,,,,,,,,stim/Instruction_adaptive.png,conditions/adaptive.xlsx,test,-0.6,-0.6,-0.6,0.6,0.6,left,L,,,,,0,1,1,1,0,2,2,75,,,,,,,,,,,,,,,,,,,,,,,,,,,,,,,,,,,,,,,,,,,,75.25559200008865,None,right,0,0.7057232999941334,75.75558460003231,76.50694290001411,75.75558460003231,76.0065750000067,75.75558460003231,76.0065750000067,75.75558460003231,76.0065750000067,75.75558460003231,76.0065750000067,75.75558460003231,76.0065750000067,75.99001850001514,76.49006650003139,75.99001850001514,76.49006650003139,75.99001850001514,76.49006650003139,75.99001850001514,76.49006650003139,75.99001850001514,76.49006650003139,75.99001850001514,76.49006650003139,75.99001850001514,76.49006650003139,75.99001850001514,76.49006650003139,75.75558460003231,None,76.49006650003139,77.82555820001289,0.25,77.84129300003406,None,78.59421280003153,None,,,,,,,[1.33333333],3.1800000000000024,0.6666666666666666,11018,002,2024_Jan_05_1206,MFTM_A_new1021,2021.2.3,59.54652934580645,
,,,,,,,,stim/Instruction_adaptive.png,conditions/adaptive.xlsx,test,-0.6,-0.6,-0.6,0.6,0.6,left,L,,,,,0,1,1,1,0,3,3,57,,,,,,,,,,,,,,,,,,,,,,,,,,,,,,,,,,,,,,,,,,,,79.09459880006034,None,left,1,1.2188505000667647,79.5950729000615,80.82979550003074,79.5950729000615,80.32983350008726,79.5950729000615,80.32983350008726,79.5950729000615,80.32983350008726,79.5950729000615,80.32983350008726,79.5950729000615,80.32983350008726,80.3124017000664,80.81373719999101,80.3124017000664,80.81373719999101,80.3124017000664,80.81373719999101,80.3124017000664,80.81373719999101,80.3124017000664,80.81373719999101,80.3124017000664,80.81373719999101,80.3124017000664,80.81373719999101,80.3124017000664,80.81373719999101,79.5950729000615,None,80.81373719999101,82.26502080005594,0.7300000000000004,82.28185460006353,None,83.03305750002619,None,,,,,,,[1.4425],4.030000000000003,0.75,11018,002,2024_Jan_05_1206,MFTM_A_new1021,2021.2.3,59.54652934580645,
,,,,,,,,stim/Instruction_adaptive.png,conditions/adaptive.xlsx,test,0.6,0.6,0.6,-0.6,-0.6,right,R,,,,,0,1,1,1,0,4,4,44,,,,,,,,,,,,,,,,,,,,,,,,,,,,,,,,,,,,,,,,,,,,83.53452190000098,None,left,0,0.8344900000374764,84.03491909999866,84.93610670010094,84.03491909999866,84.43579390004743,84.03491909999866,84.43579390004743,84.03491909999866,84.43579390004743,84.03491909999866,84.43579390004743,84.03491909999866,84.43579390004743,84.41926280001644,84.91938129998744,84.41926280001644,84.91938129998744,84.41926280001644,84.91938129998744,84.41926280001644,84.91938129998744,84.41926280001644,84.91938129998744,84.41926280001644,84.91938129998744,84.41926280001644,84.91938129998744,84.41926280001644,84.91938129998744,84.03491909999866,None,84.91938129998744,86.50645750004333,0.40000000000000013,86.52128420001827,None,87.27335730008781,None,,,,,,,[1.574],2.8100000000000023,0.6,11018,002,2024_Jan_05_1206,MFTM_A_new1021,2021.2.3,59.54652934580645,
,,,,,,,,stim/Instruction_adaptive.png,conditions/adaptive.xlsx,test,0.6,0.6,0.6,-0.6,-0.6,right,R,,,,,0,1,1,1,0,5,5,84,,,,,,,,,,,,,,,,,,,,,,,,,,,,,,,,,,,,,,,,,,,,87.77329390007071,None,right,1,1.5632362000178546,88.2741754000308,89.72664310003165,88.2741754000308,89.22635620005894,88.2741754000308,89.22635620005894,88.2741754000308,89.22635620005894,88.2741754000308,89.22635620005894,88.2741754000308,89.22635620005894,89.19297380000353,89.69368620007299,89.19297380000353,89.69368620007299,89.19297380000353,89.69368620007299,89.19297380000353,89.69368620007299,89.19297380000353,89.69368620007299,89.19297380000353,89.69368620007299,89.19297380000353,89.69368620007299,89.19297380000353,89.69368620007299,88.2741754000308,None,89.69368620007299,91.26296800002456,0.9400000000000006,91.2779634000035,None,92.02975670003798,None,,,,,,,[[1.56]],3.3300000000000027,0.6666666666666666,11018,002,2024_Jan_05_1206,MFTM_A_new1021,2021.2.3,59.54652934580645,
,,,,,,,,stim/Instruction_adaptive.png,conditions/adaptive.xlsx,test,0.6,0.6,0.6,-0.6,-0.6,right,R,,,,,0,1,1,1,0,6,6,62,,,,,,,,,,,,,,,,,,,,,,,,,,,,,,,,,,,,,,,,,,,,92.53153430006932,None,right,1,1.8706840000813827,93.0312636999879,94.18337560002692,93.0312636999879,93.68234950001352,93.0312636999879,93.68234950001352,93.0312636999879,93.68234950001352,93.0312636999879,93.68234950001352,93.0312636999879,93.68234950001352,93.66543160006404,94.16724229999818,93.66543160006404,94.16724229999818,93.66543160006404,94.16724229999818,93.66543160006404,94.16724229999818,93.66543160006404,94.16724229999818,93.66543160006404,94.16724229999818,93.66543160006404,94.16724229999818,93.66543160006404,94.16724229999818,93.0312636999879,None,94.16724229999818,95.78540560009424,0.6500000000000004,95.80185960000381,None,96.55288100009784,None,,,,,,,[1.61142857],3.690000000000003,0.7142857142857143,11018,002,2024_Jan_05_1206,MFTM_A_new1021,2021.2.3,59.54652934580645,
,,,,,,,,stim/Instruction_adaptive.png,conditions/adaptive.xlsx,test,0.6,0.6,0.6,-0.6,-0.6,right,R,,,,,0,1,1,1,0,7,7,16,,,,,,,,,,,,,,,,,,,,,,,,,,,,,,,,,,,,,,,,,,,,97.05485850002151,None,left,0,1.2099408999783918,97.55509160005022,98.57250060001388,97.55509160005022,98.07184580003377,97.55509160005022,98.07184580003377,97.55509160005022,98.07184580003377,97.55509160005022,98.07184580003377,97.55509160005022,98.07184580003377,98.03923059999943,98.53990120009985,98.03923059999943,98.53990120009985,98.03923059999943,98.53990120009985,98.03923059999943,98.53990120009985,98.03923059999943,98.53990120009985,98.03923059999943,98.53990120009985,98.03923059999943,98.53990120009985,98.03923059999943,98.53990120009985,97.55509160005022,None,98.53990120009985,100.20944250002503,0.5100000000000002,100.22501360008027,None,100.97728079999797,None,,,,,,,[1.65875],2.9300000000000024,0.625,11018,002,2024_Jan_05_1206,MFTM_A_new1021,2021.2.3,59.54652934580645,
,,,,,,,,stim/Instruction_adaptive.png,conditions/adaptive.xlsx,test,-0.6,-0.6,-0.6,0.6,0.6,left,L,,,,,0,1,1,1,0,8,8,41,,,,,,,,,,,,,,,,,,,,,,,,,,,,,,,,,,,,,,,,,,,,101.47773520008195,None,left,1,1.9554396000457928,101.97785650007427,103.34645370009821,101.97785650007427,102.84568460006267,101.97785650007427,102.84568460006267,101.97785650007427,102.84568460006267,101.97785650007427,102.84568460006267,101.97785650007427,102.84568460006267,102.81297950004227,103.31378650001716,102.81297950004227,103.31378650001716,102.81297950004227,103.31378650001716,102.81297950004227,103.31378650001716,102.81297950004227,103.31378650001716,102.81297950004227,103.31378650001716,102.81297950004227,103.31378650001716,102.81297950004227,103.31378650001716,101.97785650007427,None,103.31378650001716,104.96621920005418,0.8600000000000005,104.98211800004356,None,105.73472499998752,None,,,,,,,[[1.64]],3.2400000000000024,0.6666666666666666,11018,002,2024_Jan_05_1206,MFTM_A_new1021,2021.2.3,59.54652934580645,
,,,,,,,,stim/Instruction_adaptive.png,conditions/adaptive.xlsx,test,0.6,0.6,0.6,-0.6,-0.6,right,R,,,,,0,1,1,1,0,9,9,28,,,,,,,,,,,,,,,,,,,,,,,,,,,,,,,,,,,,,,,,,,,,106.23436550004408,None,left,0,1.7261694999178872,106.73485540004913,107.93741650006268,106.73485540004913,107.43594440002926,106.73485540004913,107.43594440002926,106.73485540004913,107.43594440002926,106.73485540004913,107.43594440002926,106.73485540004913,107.43594440002926,107.4191839999985,107.92067550006323,107.4191839999985,107.92067550006323,107.4191839999985,107.92067550006323,107.4191839999985,107.92067550006323,107.4191839999985,107.92067550006323,107.4191839999985,107.92067550006323,107.4191839999985,107.92067550006323,107.4191839999985,107.92067550006323,106.73485540004913,None,107.92067550006323,None,0.7000000000000004,109.6056941000279,None,110.3573558999924,None,,,,,,,[1.671],2.530000000000002,0.6,11018,002,2024_Jan_05_1206,MFTM_A_new1021,2021.2.3,59.54652934580645,
,,,,,,,,stim/Instruction_adaptive.png,conditions/adaptive.xlsx,test,0.6,0.6,0.6,-0.6,-0.6,right,R,,,,,0,1,1,1,0,10,10,14,,,,,,,,,,,,,,,,,,,,,,,,,,,,,,,,,,,,,,,,,,,,110.85818360000849,None,left,0,1.7038271999917924,111.35844320000615,113.01196840009652,111.35844320000615,112.51100950001273,111.35844320000615,112.51100950001273,111.35844320000615,112.51100950001273,111.35844320000615,112.51100950001273,111.35844320000615,112.51100950001273,112.47735390008893,112.97825750010088,112.47735390008893,112.97825750010088,112.47735390008893,112.97825750010088,112.47735390008893,112.97825750010088,112.47735390008893,112.97825750010088,112.47735390008893,112.97825750010088,112.47735390008893,112.97825750010088,112.47735390008893,112.97825750010088,111.35844320000615,None,112.97825750010088,114.34600460005458,1.1400000000000008,114.36261620000005,None,115.11465540004428,None,,,,,,,[[1.36]],1.540000000000001,0.5454545454545454,11018,002,2024_Jan_05_1206,MFTM_A_new1021,2021.2.3,59.54652934580645,
,,,,,,,,stim/Instruction_adaptive.png,conditions/adaptive.xlsx,test,0.6,0.6,0.6,-0.6,-0.6,right,R,,,,,0,1,1,1,0,11,11,70,,,,,,,,,,,,,,,,,,,,,,,,,,,,,,,,,,,,,,,,,,,,115.61552750004921,None,right,1,2.241254199994728,116.11577919998672,118.88625780004077,116.11577919998672,118.38554050005041,116.11577919998672,118.38554050005041,116.11577919998672,118.38554050005041,116.11577919998672,118.38554050005041,116.11577919998672,118.38554050005041,118.35324440000113,118.85333280009218,118.35324440000113,118.85333280009218,118.35324440000113,118.85333280009218,118.35324440000113,118.85333280009218,118.35324440000113,118.85333280009218,118.35324440000113,118.85333280009218,118.35324440000113,118.85333280009218,118.35324440000113,118.85333280009218,116.11577919998672,None,118.85333280009218,119.10349290003069,2.2600000000000016,119.11923370009754,None,119.87192740000319,None,,,,,,,[[0.24]],2.0000000000000013,0.5833333333333334,11018,002,2024_Jan_05_1206,MFTM_A_new1021,2021.2.3,59.54652934580645,
,,,,,,,,stim/Instruction_adaptive.png,conditions/adaptive.xlsx,test,-0.6,-0.6,-0.6,0.6,0.6,left,L,,,,,0,1,1,1,0,12,12,65,,,,,,,,,,,,,,,,,,,,,,,,,,,,,,,,,,,,,,,,,,,,120.37169070006348,None,left,1,1.1249983999878168,120.87254410004243,123.02621740009636,120.87254410004243,122.52560460008681,120.87254410004243,122.52560460008681,120.87254410004243,122.52560460008681,120.87254410004243,122.52560460008681,120.87254410004243,122.52560460008681,122.49211009999271,122.99277700006496,122.49211009999271,122.99277700006496,122.49211009999271,122.99277700006496,122.49211009999271,122.99277700006496,122.49211009999271,122.99277700006496,122.49211009999271,122.99277700006496,122.49211009999271,122.99277700006496,122.49211009999271,122.99277700006496,120.87254410004243,None,122.99277700006496,123.86057840008289,1.6400000000000012,123.87760620005429,None,124.62880160007626,None,,,,,,,[[0.86]],2.2800000000000016,0.6153846153846154,11018,002,2024_Jan_05_1206,MFTM_A_new1021,2021.2.3,59.54652934580645,
,,,,,,,,stim/Instruction_adaptive.png,conditions/adaptive.xlsx,test,0.6,0.6,0.6,-0.6,-0.6,right,R,,,,,0,1,1,1,0,13,13,56,,,,,,,,,,,,,,,,,,,,,,,,,,,,,,,,,,,,,,,,,,,,125.1296474999981,None,right,1,2.1997177000157535,125.62950770009775,127.4826131000882,125.62950770009775,126.98154330009129,125.62950770009775,126.98154330009129,125.62950770009775,126.98154330009129,125.62950770009775,126.98154330009129,125.62950770009775,126.98154330009129,126.96608470007777,127.46623640006874,126.96608470007777,127.46623640006874,126.96608470007777,127.46623640006874,126.96608470007777,127.46623640006874,126.96608470007777,127.46623640006874,126.96608470007777,127.46623640006874,126.96608470007777,127.46623640006874,126.96608470007777,127.46623640006874,125.62950770009775,None,127.46623640006874,128.6178703000769,1.350000000000001,128.63460039999336,None,129.38591650000308,None,,,,,,,[[1.15]],2.5000000000000018,0.6428571428571429,11018,002,2024_Jan_05_1206,MFTM_A_new1021,2021.2.3,59.54652934580645,
,,,,,,,,stim/Instruction_adaptive.png,conditions/adaptive.xlsx,test,0.6,0.6,0.6,-0.6,-0.6,right,R,,,,,0,1,1,1,0,14,14,34,,,,,,,,,,,,,,,,,,,,,,,,,,,,,,,,,,,,,,,,,,,,129.88585479999892,None,right,1,1.5553756000008434,130.38654300000053,132.0561504000798,130.38654300000053,131.55583080009092,130.38654300000053,131.55583080009092,130.38654300000053,131.55583080009092,130.38654300000053,131.55583080009092,130.38654300000053,131.55583080009092,131.52226320002228,132.02282090007793,131.52226320002228,132.02282090007793,131.52226320002228,132.02282090007793,131.52226320002228,132.02282090007793,131.52226320002228,132.02282090007793,131.52226320002228,132.02282090007793,131.52226320002228,132.02282090007793,131.52226320002228,132.02282090007793,130.38654300000053,None,132.02282090007793,133.3743848000886,1.1600000000000008,133.3913060000632,None,134.1429810000118,None,,,,,,,[[1.34]],2.6700000000000017,0.6666666666666666,11018,002,2024_Jan_05_1206,MFTM_A_new1021,2021.2.3,59.54652934580645,
,,,,,,,,stim/Instruction_adaptive.png,conditions/adaptive.xlsx,test,-0.6,-0.6,-0.6,0.6,0.6,left,L,,,,,0,1,1,1,0,15,15,59,,,,,,,,,,,,,,,,,,,,,,,,,,,,,,,,,,,,,,,,,,,,134.64370780007448,None,left,1,1.5820296999299899,135.14351439999882,136.67928100004792,135.14351439999882,136.17950219998602,135.14351439999882,136.17950219998602,135.14351439999882,136.17950219998602,135.14351439999882,136.17950219998602,135.14351439999882,136.17950219998602,136.1451206000056,136.6464038999984,136.1451206000056,136.6464038999984,136.1451206000056,136.6464038999984,136.1451206000056,136.6464038999984,136.1451206000056,136.6464038999984,136.1451206000056,136.6464038999984,136.1451206000056,136.6464038999984,136.1451206000056,136.6464038999984,135.14351439999882,None,136.6464038999984,138.09828050003853,1.0300000000000007,138.13142780005,None,138.8825657000998,None,,,,,,,[1.445625],2.820000000000002,0.6875,11018,002,2024_Jan_05_1206,MFTM_A_new1021,2021.2.3,59.54652934580645,
,,,,,,,,stim/Instruction_adaptive.png,conditions/adaptive.xlsx,test,0.6,0.6,0.6,-0.6,-0.6,right,R,,,,,0,1,1,1,0,16,16,88,,,,,,,,,,,,,,,,,,,,,,,,,,,,,,,,,,,,,,,,,,,,139.38384700007737,None,left,0,1.5699952999129891,139.88417139998637,141.3201932000229,139.88417139998637,140.81863240001258,139.88417139998637,140.81863240001258,139.88417139998637,140.81863240001258,139.88417139998637,140.81863240001258,139.88417139998637,140.81863240001258,140.8026265000226,141.30320309998933,140.8026265000226,141.30320309998933,140.8026265000226,141.30320309998933,140.8026265000226,141.30320309998933,140.8026265000226,141.30320309998933,140.8026265000226,141.30320309998933,140.8026265000226,141.30320309998933,140.8026265000226,141.30320309998933,139.88417139998637,None,141.30320309998933,None,0.9300000000000006,142.77229580003768,None,143.52385730005335,None,,,,,,,[1.45294118],2.4400000000000017,0.6470588235294118,11018,002,2024_Jan_05_1206,MFTM_A_new1021,2021.2.3,59.54652934580645,
,,,,,,,,stim/Instruction_adaptive.png,conditions/adaptive.xlsx,test,-0.6,-0.6,-0.6,0.6,0.6,left,L,,,,,0,1,1,1,0,17,17,43,,,,,,,,,,,,,,,,,,,,,,,,,,,,,,,,,,,,,,,,,,,,144.02427980001085,None,left,1,1.456229000003077,144.5248217000626,146.24305769999046,144.5248217000626,145.74339570000302,144.5248217000626,145.74339570000302,144.5248217000626,145.74339570000302,144.5248217000626,145.74339570000302,144.5248217000626,145.74339570000302,145.70950640004594,146.2104576000711,145.70950640004594,146.2104576000711,145.70950640004594,146.2104576000711,145.70950640004594,146.2104576000711,145.70950640004594,146.2104576000711,145.70950640004594,146.2104576000711,145.70950640004594,146.2104576000711,145.70950640004594,146.2104576000711,144.5248217000626,None,146.2104576000711,147.51299080008175,1.2100000000000009,147.5464344000211,None,148.2974405999994,None,,,,,,,[[1.29]],2.580000000000002,0.6666666666666666,11018,002,2024_Jan_05_1206,MFTM_A_new1021,2021.2.3,59.54652934580645,
,,,,,,,,stim/Instruction_adaptive.png,conditions/adaptive.xlsx,test,-0.6,-0.6,-0.6,0.6,0.6,left,L,,,,,0,1,1,1,0,18,18,1,,,,,,,,,,,,,,,,,,,,,,,,,,,,,,,,,,,,,,,,,,,,148.7979102000827,None,right,0,1.547783000045456,149.29793030000292,150.901018600096,149.29793030000292,150.4002652000636,149.29793030000292,150.4002652000636,149.29793030000292,150.4002652000636,149.29793030000292,150.4002652000636,149.29793030000292,150.4002652000636,150.3829538000282,150.88413710007444,150.3829538000282,150.88413710007444,150.3829538000282,150.88413710007444,150.3829538000282,150.88413710007444,150.3829538000282,150.88413710007444,150.3829538000282,150.88413710007444,150.3829538000282,150.88413710007444,150.3829538000282,150.88413710007444,149.29793030000292,None,150.88413710007444,152.286245000083,1.1000000000000008,152.3021225000266,None,153.05451400007587,None,,,,,,,[[1.4]],2.1900000000000013,0.631578947368421,11018,002,2024_Jan_05_1206,MFTM_A_new1021,2021.2.3,59.54652934580645,
,,,,,,,,stim/Instruction_adaptive.png,conditions/adaptive.xlsx,test,-0.6,-0.6,-0.6,0.6,0.6,left,L,,,,,0,1,1,1,0,19,19,67,,,,,,,,,,,,,,,,,,,,,,,,,,,,,,,,,,,,,,,,,,,,153.55508170009125,None,left,1,1.8302653999999166,154.05495550006162,156.0079015000956,154.05495550006162,155.50706390000414,154.05495550006162,155.50706390000414,154.05495550006162,155.50706390000414,154.05495550006162,155.50706390000414,154.05495550006162,155.50706390000414,155.47370560001582,155.97529650002252,155.47370560001582,155.97529650002252,155.47370560001582,155.97529650002252,155.47370560001582,155.97529650002252,155.47370560001582,155.97529650002252,155.47370560001582,155.97529650002252,155.47370560001582,155.97529650002252,155.47370560001582,155.97529650002252,154.05495550006162,None,155.97529650002252,157.0432351999916,1.440000000000001,157.05974880000576,None,157.8111984001007,None,,,,,,,[[1.06]],2.3400000000000016,0.65,11018,002,2024_Jan_05_1206,MFTM_A_new1021,2021.2.3,59.54652934580645,
,,,,,,,,stim/Instruction_adaptive.png,conditions/adaptive.xlsx,test,0.6,0.6,0.6,-0.6,-0.6,right,R,,,,,0,1,1,1,0,20,20,78,,,,,,,,,,,,,,,,,,,,,,,,,,,,,,,,,,,,,,,,,,,,158.31137370003853,None,right,1,1.737045899964869,158.81207950005773,160.61485320003703,158.81207950005773,160.1138435000321,158.81207950005773,160.1138435000321,158.81207950005773,160.1138435000321,158.81207950005773,160.1138435000321,158.81207950005773,160.1138435000321,160.0972581000533,160.598174200044,160.0972581000533,160.598174200044,160.0972581000533,160.598174200044,160.0972581000533,160.598174200044,160.0972581000533,160.598174200044,160.0972581000533,160.598174200044,160.0972581000533,160.598174200044,160.0972581000533,160.598174200044,158.81207950005773,None,160.598174200044,161.79980979999527,1.300000000000001,161.81711920001544,None,162.56840270000976,None,,,,,,,[[1.2]],2.4700000000000015,0.6666666666666666,11018,002,2024_Jan_05_1206,MFTM_A_new1021,2021.2.3,59.54652934580645,
,,,,,,,,stim/Instruction_adaptive.png,conditions/adaptive.xlsx,test,-0.6,-0.6,-0.6,0.6,0.6,left,L,,,,,0,1,1,1,0,21,21,49,,,,,,,,,,,,,,,,,,,,,,,,,,,,,,,,,,,,,,,,,,,,163.0682994000381,None,left,1,1.2833694000728428,163.56968210008927,165.2723770000739,163.56968210008927,164.77122350002173,163.56968210008927,164.77122350002173,163.56968210008927,164.77122350002173,163.56968210008927,164.77122350002173,163.56968210008927,164.77122350002173,164.73868010006845,165.23866640008055,164.73868010006845,165.23866640008055,164.73868010006845,165.23866640008055,164.73868010006845,165.23866640008055,164.73868010006845,165.23866640008055,164.73868010006845,165.23866640008055,164.73868010006845,165.23866640008055,164.73868010006845,165.23866640008055,163.56968210008927,None,165.23866640008055,166.55690730002243,1.1900000000000008,166.57396780001,None,167.3245127000846,None,,,,,,,[[1.31]],2.580000000000002,0.6818181818181818,11018,002,2024_Jan_05_1206,MFTM_A_new1021,2021.2.3,59.54652934580645,
,,,,,,,,stim/Instruction_adaptive.png,conditions/adaptive.xlsx,test,-0.6,-0.6,-0.6,0.6,0.6,left,L,,,,,0,1,1,1,0,22,22,77,,,,,,,,,,,,,,,,,,,,,,,,,,,,,,,,,,,,,,,,,,,,167.82538290007506,None,left,1,1.566110400017351,168.32742900005542,169.92845640005544,168.32742900005542,169.42854570003692,168.32742900005542,169.42854570003692,168.32742900005542,169.42854570003692,168.32742900005542,169.42854570003692,168.32742900005542,169.42854570003692,169.41213160008192,169.91161539999302,169.41213160008192,169.91161539999302,169.41213160008192,169.91161539999302,169.41213160008192,169.91161539999302,169.41213160008192,169.91161539999302,169.41213160008192,169.91161539999302,169.41213160008192,169.91161539999302,169.41213160008192,169.91161539999302,168.32742900005542,None,169.91161539999302,171.31436429999303,1.1000000000000008,171.33051090000663,None,172.0816781000467,None,,,,,,,[[1.4]],2.680000000000002,0.6956521739130435,11018,002,2024_Jan_05_1206,MFTM_A_new1021,2021.2.3,59.54652934580645,
,,,,,,,,stim/Instruction_adaptive.png,conditions/adaptive.xlsx,test,0.6,0.6,0.6,-0.6,-0.6,right,R,,,,,0,1,1,1,0,23,23,8,,,,,,,,,,,,,,,,,,,,,,,,,,,,,,,,,,,,,,,,,,,,172.58301390009,None,right,1,1.4740462000481784,173.08322250004858,174.61884710006416,173.08322250004858,174.11794340005144,173.08322250004858,174.11794340005144,173.08322250004858,174.11794340005144,173.08322250004858,174.11794340005144,173.08322250004858,174.11794340005144,174.10201700008474,174.60248110000975,174.10201700008474,174.60248110000975,174.10201700008474,174.60248110000975,174.10201700008474,174.60248110000975,174.10201700008474,174.60248110000975,174.10201700008474,174.60248110000975,174.10201700008474,174.60248110000975,174.10201700008474,174.60248110000975,173.08322250004858,None,174.60248110000975,176.02236850000918,1.0300000000000007,176.03758640005253,None,176.7889050000813,None,,,,,,,[1.40958333],2.7700000000000022,0.7083333333333334,11018,002,2024_Jan_05_1206,MFTM_A_new1021,2021.2.3,59.54652934580645,
,,,,,,,,stim/Instruction_adaptive.png,conditions/adaptive.xlsx,test,0.6,0.6,0.6,-0.6,-0.6,right,R,,,,,0,1,1,1,0,24,24,54,,,,,,,,,,,,,,,,,,,,,,,,,,,,,,,,,,,,,,,,,,,,177.28967289999127,None,left,0,1.4310611000983045,177.7900586000178,179.2596849000547,177.7900586000178,178.7593949000584,177.7900586000178,178.7593949000584,177.7900586000178,178.7593949000584,177.7900586000178,178.7593949000584,177.7900586000178,178.7593949000584,178.72563850006554,179.22556550009176,178.72563850006554,179.22556550009176,178.72563850006554,179.22556550009176,178.72563850006554,179.22556550009176,178.72563850006554,179.22556550009176,178.72563850006554,179.22556550009176,178.72563850006554,179.22556550009176,178.72563850006554,179.22556550009176,177.7900586000178,None,179.22556550009176,180.6442684000358,0.9600000000000006,180.67819030000828,None,181.42980510008056,None,,,,,,,[1.4148],2.520000000000002,0.68,11018,002,2024_Jan_05_1206,MFTM_A_new1021,2021.2.3,59.54652934580645,
,,,,,,,,stim/Instruction_adaptive.png,conditions/adaptive.xlsx,test,-0.6,-0.6,-0.6,0.6,0.6,left,L,,,,,0,1,1,1,0,25,25,95,,,,,,,,,,,,,,,,,,,,,,,,,,,,,,,,,,,,,,,,,,,,181.92964410001878,None,left,1,1.006098399986513,182.43107410008088,184.08342590008397,182.43107410008088,183.58270740008447,182.43107410008088,183.58270740008447,182.43107410008088,183.58270740008447,182.43107410008088,183.58270740008447,182.43107410008088,183.58270740008447,183.56547290005255,184.06670580001082,183.56547290005255,184.06670580001082,183.56547290005255,184.06670580001082,183.56547290005255,184.06670580001082,183.56547290005255,184.06670580001082,183.56547290005255,184.06670580001082,183.56547290005255,184.06670580001082,183.56547290005255,184.06670580001082,182.43107410008088,None,184.06670580001082,185.41852100007236,1.1500000000000008,185.43480320007075,None,186.18673560000025,None,,,,,,,[[1.35]],2.610000000000002,0.6923076923076923,11018,002,2024_Jan_05_1206,MFTM_A_new1021,2021.2.3,59.54652934580645,
,,,,,,,,stim/Instruction_adaptive.png,conditions/adaptive.xlsx,test,0.6,0.6,0.6,-0.6,-0.6,right,R,,,,,0,1,1,1,0,26,26,0,,,,,,,,,,,,,,,,,,,,,,,,,,,,,,,,,,,,,,,,,,,,186.68665849999525,None,left,0,1.7937247999943793,187.187435900094,188.77306440006942,187.187435900094,188.27299090009183,187.187435900094,188.27299090009183,187.187435900094,188.27299090009183,187.187435900094,188.27299090009183,187.187435900094,188.27299090009183,188.25662050000392,188.75641890009865,188.25662050000392,188.75641890009865,188.25662050000392,188.75641890009865,188.25662050000392,188.75641890009865,188.25662050000392,188.75641890009865,188.25662050000392,188.75641890009865,188.25662050000392,188.75641890009865,188.25662050000392,188.75641890009865,187.187435900094,None,188.75641890009865,190.1758783000987,1.0800000000000007,190.19241930008866,None,190.94374780007638,None,,,,,,,[1.41259259],2.3600000000000017,0.6666666666666666,11018,002,2024_Jan_05_1206,MFTM_A_new1021,2021.2.3,59.54652934580645,
,,,,,,,,stim/Instruction_adaptive.png,conditions/adaptive.xlsx,test,-0.6,-0.6,-0.6,0.6,0.6,left,L,,,,,0,1,1,1,0,27,27,33,,,,,,,,,,,,,,,,,,,,,,,,,,,,,,,,,,,,,,,,,,,,191.44387230009306,None,left,1,1.5335002000210807,191.94441950006876,193.7311270000646,191.94441950006876,193.23059540009126,191.94441950006876,193.23059540009126,191.94441950006876,193.23059540009126,191.94441950006876,193.23059540009126,191.94441950006876,193.23059540009126,193.21278050006367,193.7144966000924,193.21278050006367,193.7144966000924,193.21278050006367,193.7144966000924,193.21278050006367,193.7144966000924,193.21278050006367,193.7144966000924,193.21278050006367,193.7144966000924,193.21278050006367,193.7144966000924,193.21278050006367,193.7144966000924,191.94441950006876,None,193.7144966000924,None,1.280000000000001,194.94878880004399,None,195.7007002000464,None,,,,,,,[[1.22]],2.450000000000002,0.6785714285714286,11018,002,2024_Jan_05_1206,MFTM_A_new1021,2021.2.3,59.54652934580645,
,,,,,,,,stim/Instruction_adaptive.png,conditions/adaptive.xlsx,test,0.6,0.6,0.6,-0.6,-0.6,right,R,,,,,0,1,1,1,0,28,28,12,,,,,,,,,,,,,,,,,,,,,,,,,,,,,,,,,,,,,,,,,,,,196.20159449998755,None,right,1,1.4390291000017896,196.70227260002866,198.40386090008542,196.70227260002866,197.90362330002245,196.70227260002866,197.90362330002245,196.70227260002866,197.90362330002245,196.70227260002866,197.90362330002245,196.70227260002866,197.90362330002245,197.88653130002785,198.3886010000715,197.88653130002785,198.3886010000715,197.88653130002785,198.3886010000715,197.88653130002785,198.3886010000715,197.88653130002785,198.3886010000715,197.88653130002785,198.3886010000715,197.88653130002785,198.3886010000715,197.88653130002785,198.3886010000715,196.70227260002866,None,198.3886010000715,199.68975530005991,1.2000000000000008,199.70602050004527,None,200.4577609000262,None,,,,,,,[[1.3]],2.540000000000002,0.6896551724137931,11018,002,2024_Jan_05_1206,MFTM_A_new1021,2021.2.3,59.54652934580645,
,,,,,,,,stim/Instruction_adaptive.png,conditions/adaptive.xlsx,test,0.6,0.6,0.6,-0.6,-0.6,right,R,,,,,0,1,1,1,0,29,29,10,,,,,,,,,,,,,,,,,,,,,,,,,,,,,,,,,,,,,,,,,,,,200.9588012000313,None,right,1,1.6991687000263482,201.45833210006822,203.09449480008334,201.45833210006822,202.59370690002106,201.45833210006822,202.59370690002106,201.45833210006822,202.59370690002106,201.45833210006822,202.59370690002106,201.45833210006822,202.59370690002106,202.57660100003704,203.078308199998,202.57660100003704,203.078308199998,202.57660100003704,203.078308199998,202.57660100003704,203.078308199998,202.57660100003704,203.078308199998,202.57660100003704,203.078308199998,202.57660100003704,203.078308199998,202.57660100003704,203.078308199998,201.45833210006822,None,203.078308199998,204.4475363000529,1.1300000000000008,204.46294460003264,None,205.21437920001335,None,,,,,,,[[1.37]],2.610000000000002,0.7,11018,002,2024_Jan_05_1206,MFTM_A_new1021,2021.2.3,59.54652934580645,
,,,,,,,,stim/Instruction_adaptive.png,conditions/adaptive.xlsx,test,0.6,0.6,0.6,-0.6,-0.6,right,R,,,,,0,1,1,1,0,30,30,72,,,,,,,,,,,,,,,,,,,,,,,,,,,,,,,,,,,,,,,,,,,,205.71572950005066,None,right,1,1.4295415000524372,206.21561880002264,207.80179150006734,206.21561880002264,207.301259900094,206.21561880002264,207.301259900094,206.21561880002264,207.301259900094,206.21561880002264,207.301259900094,206.21561880002264,207.301259900094,207.2847524000099,207.78455350000877,207.2847524000099,207.78455350000877,207.2847524000099,207.78455350000877,207.2847524000099,207.78455350000877,207.2847524000099,207.78455350000877,207.2847524000099,207.78455350000877,207.2847524000099,207.78455350000877,207.2847524000099,207.78455350000877,206.21561880002264,None,207.78455350000877,209.18749889999162,1.0800000000000007,209.20435850007925,None,209.95429700007662,None,,,,,,,[1.4016129],2.680000000000002,0.7096774193548387,11018,002,2024_Jan_05_1206,MFTM_A_new1021,2021.2.3,59.54652934580645,
,,,,,,,,stim/Instruction_adaptive.png,conditions/adaptive.xlsx,test,0.6,0.6,0.6,-0.6,-0.6,right,R,,,,,0,1,1,1,0,31,31,52,,,,,,,,,,,,,,,,,,,,,,,,,,,,,,,,,,,,,,,,,,,,210.45507820008788,None,left,0,1.321201500017196,210.95588320004754,212.4916869000299,210.95588320004754,211.99083340005018,210.95588320004754,211.99083340005018,210.95588320004754,211.99083340005018,210.95588320004754,211.99083340005018,210.95588320004754,211.99083340005018,211.97414609999396,212.47505890007596,211.97414609999396,212.47505890007596,211.97414609999396,212.47505890007596,211.97414609999396,212.47505890007596,211.97414609999396,212.47505890007596,211.97414609999396,212.47505890007596,211.97414609999396,212.47505890007596,211.97414609999396,212.47505890007596,210.95588320004754,None,212.47505890007596,213.87705000001006,1.0300000000000007,213.89351399999578,None,214.64579940005206,None,,,,,,,[1.40375],2.490000000000002,0.6875,11018,002,2024_Jan_05_1206,MFTM_A_new1021,2021.2.3,59.54652934580645,
,,,,,,,,stim/Instruction_adaptive.png,conditions/adaptive.xlsx,test,-0.6,-0.6,-0.6,0.6,0.6,left,L,,,,,0,1,1,1,0,32,32,93,,,,,,,,,,,,,,,,,,,,,,,,,,,,,,,,,,,,,,,,,,,,215.1454624000471,None,left,1,1.41498080000747,215.64616370003205,217.3153173000319,215.64616370003205,216.83140270004515,215.64616370003205,216.83140270004515,215.64616370003205,216.83140270004515,215.64616370003205,216.83140270004515,215.64616370003205,216.83140270004515,216.79788880003616,217.29860129998997,216.79788880003616,217.29860129998997,216.79788880003616,217.29860129998997,216.79788880003616,217.29860129998997,216.79788880003616,217.29860129998997,216.79788880003616,217.29860129998997,216.79788880003616,217.29860129998997,216.79788880003616,217.29860129998997,215.64616370003205,None,217.29860129998997,218.6343843000941,1.1700000000000008,218.6506887000287,None,219.4019210000988,None,,,,,,,[[1.33]],2.560000000000002,0.696969696969697,11018,002,2024_Jan_05_1206,MFTM_A_new1021,2021.2.3,59.54652934580645,
,,,,,,,,stim/Instruction_adaptive.png,conditions/adaptive.xlsx,test,0.6,0.6,0.6,-0.6,-0.6,right,R,,,,,0,1,1,1,0,33,33,24,,,,,,,,,,,,,,,,,,,,,,,,,,,,,,,,,,,,,,,,,,,,219.90344270004425,None,right,1,1.5699058000463992,220.40324720006902,222.0389034000691,220.40324720006902,221.53818300005514,220.40324720006902,221.53818300005514,220.40324720006902,221.53818300005514,220.40324720006902,221.53818300005514,220.40324720006902,221.53818300005514,221.5049474000698,222.00537930009887,221.5049474000698,222.00537930009887,221.5049474000698,222.00537930009887,221.5049474000698,222.00537930009887,221.5049474000698,222.00537930009887,221.5049474000698,222.00537930009887,221.5049474000698,222.00537930009887,221.5049474000698,222.00537930009887,220.40324720006902,None,222.00537930009887,223.3912840000121,1.1200000000000008,223.40777430008166,None,224.15963980008382,None,,,,,,,[[1.38]],2.620000000000002,0.7058823529411765,11018,002,2024_Jan_05_1206,MFTM_A_new1021,2021.2.3,59.54652934580645,
,,,,,,,,stim/Instruction_adaptive.png,conditions/adaptive.xlsx,test,-0.6,-0.6,-0.6,0.6,0.6,left,L,,,,,0,1,1,1,0,34,34,11,,,,,,,,,,,,,,,,,,,,,,,,,,,,,,,,,,,,,,,,,,,,224.65971710009035,None,left,1,1.3012941000051796,225.1603428000817,226.72986479999963,225.1603428000817,226.24552540003788,225.1603428000817,226.24552540003788,225.1603428000817,226.24552540003788,225.1603428000817,226.24552540003788,225.1603428000817,226.24552540003788,226.21194670000114,226.7131941000698,226.21194670000114,226.7131941000698,226.21194670000114,226.7131941000698,226.21194670000114,226.7131941000698,226.21194670000114,226.7131941000698,226.21194670000114,226.7131941000698,226.21194670000114,226.7131941000698,226.21194670000114,226.7131941000698,225.1603428000817,None,226.7131941000698,228.1145749000134,1.0700000000000007,228.13143110007513,None,228.882506199996,None,,,,,,,[1.40171429],2.680000000000002,0.7142857142857143,11018,002,2024_Jan_05_1206,MFTM_A_new1021,2021.2.3,59.54652934580645,
,,,,,,,,stim/Instruction_adaptive.png,conditions/adaptive.xlsx,test,-0.6,-0.6,-0.6,0.6,0.6,left,L,,,,,0,1,1,1,0,35,35,37,,,,,,,,,,,,,,,,,,,,,,,,,,,,,,,,,,,,,,,,,,,,229.38447990000714,None,left,1,0.9773193999426439,229.88381660007872,231.41959619999398,229.88381660007872,230.91886050009634,229.88381660007872,230.91886050009634,229.88381660007872,230.91886050009634,229.88381660007872,230.91886050009634,229.88381660007872,230.91886050009634,230.90203690005,231.40285800001584,230.90203690005,231.40285800001584,230.90203690005,231.40285800001584,230.90203690005,231.40285800001584,230.90203690005,231.40285800001584,230.90203690005,231.40285800001584,230.90203690005,231.40285800001584,230.90203690005,231.40285800001584,229.88381660007872,None,231.40285800001584,None,1.0300000000000007,232.82202459999826,None,233.57294960005675,None,,,,,,,[1.40361111],2.740000000000002,0.7222222222222222,11018,002,2024_Jan_05_1206,MFTM_A_new1021,2021.2.3,59.54652934580645,
,,,,,,,,stim/Instruction_adaptive.png,conditions/adaptive.xlsx,test,0.6,0.6,0.6,-0.6,-0.6,right,R,,,,,0,1,1,1,0,36,36,64,,,,,,,,,,,,,,,,,,,,,,,,,,,,,,,,,,,,,,,,,,,,234.07329030008987,None,left,0,1.422944699996151,234.57422660000157,236.0598460000474,234.57422660000157,235.56040890002623,234.57422660000157,235.56040890002623,234.57422660000157,235.56040890002623,234.57422660000157,235.56040890002623,234.57422660000157,235.56040890002623,235.5425129000796,236.04305450001266,235.5425129000796,236.04305450001266,235.5425129000796,236.04305450001266,235.5425129000796,236.04305450001266,235.5425129000796,236.04305450001266,235.5425129000796,236.04305450001266,235.5425129000796,236.04305450001266,235.5425129000796,236.04305450001266,234.57422660000157,None,236.04305450001266,None,0.9800000000000006,237.4618193000788,None,238.21310709998943,None,,,,,,,[1.40675676],2.580000000000002,0.7027027027027027,11018,002,2024_Jan_05_1206,MFTM_A_new1021,2021.2.3,59.54652934580645,
,,,,,,,,stim/Instruction_adaptive.png,conditions/adaptive.xlsx,test,-0.6,-0.6,-0.6,0.6,0.6,left,L,,,,,0,1,1,1,0,37,37,51,,,,,,,,,,,,,,,,,,,,,,,,,,,,,,,,,,,,,,,,,,,,238.71372430003248,None,left,1,1.284938000026159,239.2161361000035,240.81686770007946,239.2161361000035,240.31613000005018,239.2161361000035,240.31613000005018,239.2161361000035,240.31613000005018,239.2161361000035,240.31613000005018,239.2161361000035,240.31613000005018,240.2995862000389,240.80010950006545,240.2995862000389,240.80010950006545,240.2995862000389,240.80010950006545,240.2995862000389,240.80010950006545,240.2995862000389,240.80010950006545,240.2995862000389,240.80010950006545,240.2995862000389,240.80010950006545,240.2995862000389,240.80010950006545,239.2161361000035,None,240.80010950006545,242.20226250006817,1.1000000000000008,242.21889250003733,None,242.97012340009678,None,,,,,,,[[1.4]],2.640000000000002,0.7105263157894737,11018,002,2024_Jan_05_1206,MFTM_A_new1021,2021.2.3,59.54652934580645,
,,,,,,,,stim/Instruction_adaptive.png,conditions/adaptive.xlsx,test,-0.6,-0.6,-0.6,0.6,0.6,left,L,,,,,0,1,1,1,0,38,38,25,,,,,,,,,,,,,,,,,,,,,,,,,,,,,,,,,,,,,,,,,,,,243.47065550007392,None,left,1,1.4182967999950051,243.97157590009738,245.5406221000012,243.97157590009738,245.0401481000008,243.97157590009738,245.0401481000008,243.97157590009738,245.0401481000008,243.97157590009738,245.0401481000008,243.97157590009738,245.0401481000008,245.00641939998604,245.50692840002012,245.00641939998604,245.50692840002012,245.00641939998604,245.50692840002012,245.00641939998604,245.50692840002012,245.00641939998604,245.50692840002012,245.00641939998604,245.50692840002012,245.00641939998604,245.50692840002012,245.00641939998604,245.50692840002012,243.97157590009738,None,245.50692840002012,246.92645390005782,1.0600000000000007,246.94234760000836,None,247.69358379999176,None,,,,,,,[1.4074359],2.690000000000002,0.717948717948718,11018,002,2024_Jan_05_1206,MFTM_A_new1021,2021.2.3,59.54652934580645,
,,,,,,,,stim/Instruction_adaptive.png,conditions/adaptive.xlsx,test,-0.6,-0.6,-0.6,0.6,0.6,left,L,,,,,0,1,1,1,0,39,39,85,,,,,,,,,,,,,,,,,,,,,,,,,,,,,,,,,,,,,,,,,,,,248.195208500023,None,right,0,0.8301912000169978,248.69514860003255,250.21423400007188,248.69514860003255,249.7302341000177,248.69514860003255,249.7302341000177,248.69514860003255,249.7302341000177,248.69514860003255,249.7302341000177,248.69514860003255,249.7302341000177,249.69669070001692,250.19789890001994,249.69669070001692,250.19789890001994,249.69669070001692,250.19789890001994,249.69669070001692,250.19789890001994,249.69669070001692,250.19789890001994,249.69669070001692,250.19789890001994,249.69669070001692,250.19789890001994,249.69669070001692,250.19789890001994,248.69514860003255,None,250.19789890001994,251.6162067000987,1.0200000000000007,251.63285330007784,None,252.38478110008873,None,,,,,,,[1.40925],2.530000000000002,0.7,11018,002,2024_Jan_05_1206,MFTM_A_new1021,2021.2.3,59.54652934580645,
,,,,,,,,stim/Instruction_adaptive.png,conditions/adaptive.xlsx,test,-0.6,-0.6,-0.6,0.6,0.6,left,L,,,,,0,1,1,1,0,40,40,87,,,,,,,,,,,,,,,,,,,,,,,,,,,,,,,,,,,,,,,,,,,,252.88605440000538,None,right,0,1.3004225000040606,253.38532230001874,255.03792450006586,253.38532230001874,254.53709290002007,253.38532230001874,254.53709290002007,253.38532230001874,254.53709290002007,253.38532230001874,254.53709290002007,253.38532230001874,254.53709290002007,254.50362960004713,255.00446490000468,254.50362960004713,255.00446490000468,254.50362960004713,255.00446490000468,254.50362960004713,255.00446490000468,254.50362960004713,255.00446490000468,254.50362960004713,255.00446490000468,254.50362960004713,255.00446490000468,254.50362960004713,255.00446490000468,253.38532230001874,None,255.00446490000468,256.37370630004443,1.1400000000000008,256.3905081000412,None,257.1410439000465,None,,,,,,,[[1.36]],2.370000000000002,0.6829268292682927,11018,002,2024_Jan_05_1206,MFTM_A_new1021,2021.2.3,59.54652934580645,
,,,,,,,,stim/Instruction_adaptive.png,conditions/adaptive.xlsx,test,-0.6,-0.6,-0.6,0.6,0.6,left,L,,,,,0,1,1,1,0,41,41,15,,,,,,,,,,,,,,,,,,,,,,,,,,,,,,,,,,,,,,,,,,,,257.6427090000361,None,right,0,1.7832649999763817,258.14240210002754,259.9125148000894,258.14240210002754,259.42778370005544,258.14240210002754,259.42778370005544,258.14240210002754,259.42778370005544,258.14240210002754,259.42778370005544,258.14240210002754,259.42778370005544,259.39435600000434,259.8952103999909,259.39435600000434,259.8952103999909,259.39435600000434,259.8952103999909,259.39435600000434,259.8952103999909,259.39435600000434,259.8952103999909,259.39435600000434,259.8952103999909,259.39435600000434,259.8952103999909,259.39435600000434,259.8952103999909,258.14240210002754,None,259.8952103999909,261.1303127000574,1.270000000000001,261.1469383999938,None,261.8986626000842,None,,,,,,,[[1.23]],2.1800000000000015,0.6666666666666666,11018,002,2024_Jan_05_1206,MFTM_A_new1021,2021.2.3,59.54652934580645,
,,,,,,,,stim/Instruction_adaptive.png,conditions/adaptive.xlsx,test,0.6,0.6,0.6,-0.6,-0.6,right,R,,,,,0,1,1,1,0,42,42,46,,,,,,,,,,,,,,,,,,,,,,,,,,,,,,,,,,,,,,,,,,,,262.3988634000998,None,right,1,1.273540599970147,262.89993210008834,264.8524228000315,262.89993210008834,264.35175770008937,262.89993210008834,264.35175770008937,262.89993210008834,264.35175770008937,262.89993210008834,264.35175770008937,262.89993210008834,264.35175770008937,264.33533430006355,264.83651380008087,264.33533430006355,264.83651380008087,264.33533430006355,264.83651380008087,264.33533430006355,264.83651380008087,264.33533430006355,264.83651380008087,264.33533430006355,264.83651380008087,264.33533430006355,264.83651380008087,264.33533430006355,264.83651380008087,262.89993210008834,None,264.83651380008087,265.8873783000745,1.450000000000001,265.90408720006235,None,266.65544960007537,None,,,,,,,[[1.05]],2.2500000000000018,0.6744186046511628,11018,002,2024_Jan_05_1206,MFTM_A_new1021,2021.2.3,59.54652934580645,
,,,,,,,,stim/Instruction_adaptive.png,conditions/adaptive.xlsx,test,0.6,0.6,0.6,-0.6,-0.6,right,R,,,,,0,1,1,1,0,43,43,6,,,,,,,,,,,,,,,,,,,,,,,,,,,,,,,,,,,,,,,,,,,,267.15598989999853,None,right,1,1.3639739999780431,267.657508000033,269.5438427000772,267.657508000033,269.0421271000523,267.657508000033,269.0421271000523,267.657508000033,269.0421271000523,267.657508000033,269.0421271000523,267.657508000033,269.0421271000523,269.0255397000583,269.5269515000982,269.0255397000583,269.5269515000982,269.0255397000583,269.5269515000982,269.0255397000583,269.5269515000982,269.0255397000583,269.5269515000982,269.0255397000583,269.5269515000982,269.0255397000583,269.5269515000982,269.0255397000583,269.5269515000982,267.657508000033,None,269.5269515000982,None,1.380000000000001,270.66128630004823,None,271.41298090002965,None,,,,,,,[[1.12]],2.3100000000000014,0.6818181818181818,11018,002,2024_Jan_05_1206,MFTM_A_new1021,2021.2.3,59.54652934580645,
,,,,,,,,stim/Instruction_adaptive.png,conditions/adaptive.xlsx,test,-0.6,-0.6,-0.6,0.6,0.6,left,L,,,,,0,1,1,1,0,44,44,97,,,,,,,,,,,,,,,,,,,,,,,,,,,,,,,,,,,,,,,,,,,,271.9137037000619,None,left,1,1.6629262999631464,272.41434210003354,274.25028580008075,272.41434210003354,273.74874430010095,272.41434210003354,273.74874430010095,272.41434210003354,273.74874430010095,272.41434210003354,273.74874430010095,272.41434210003354,273.74874430010095,273.7320328000933,274.2331556000281,273.7320328000933,274.2331556000281,273.7320328000933,274.2331556000281,273.7320328000933,274.2331556000281,273.7320328000933,274.2331556000281,273.7320328000933,274.2331556000281,273.7320328000933,274.2331556000281,273.7320328000933,274.2331556000281,272.41434210003354,None,274.2331556000281,275.4025112000527,1.330000000000001,275.41814120009076,None,276.1698145000264,None,,,,,,,[[1.17]],2.370000000000002,0.6888888888888889,11018,002,2024_Jan_05_1206,MFTM_A_new1021,2021.2.3,59.54652934580645,
,,,,,,,,stim/Instruction_adaptive.png,conditions/adaptive.xlsx,test,-0.6,-0.6,-0.6,0.6,0.6,left,L,,,,,0,1,1,1,0,45,45,27,,,,,,,,,,,,,,,,,,,,,,,,,,,,,,,,,,,,,,,,,,,,276.6699724000646,None,left,1,1.858606499969028,277.1707845000783,278.94006340007763,277.1707845000783,278.45601490000263,277.1707845000783,278.45601490000263,277.1707845000783,278.45601490000263,277.1707845000783,278.45601490000263,277.1707845000783,278.45601490000263,278.4225681000389,278.9246860999847,278.4225681000389,278.9246860999847,278.4225681000389,278.9246860999847,278.4225681000389,278.9246860999847,278.4225681000389,278.9246860999847,278.4225681000389,278.9246860999847,278.4225681000389,278.9246860999847,278.4225681000389,278.9246860999847,277.1707845000783,None,278.9246860999847,280.15882140002213,1.270000000000001,280.17508340009954,None,280.9264667000389,None,,,,,,,[[1.23]],2.4200000000000017,0.6956521739130435,11018,002,2024_Jan_05_1206,MFTM_A_new1021,2021.2.3,59.54652934580645,
,,,,,,,,stim/Instruction_adaptive.png,conditions/adaptive.xlsx,test,0.6,0.6,0.6,-0.6,-0.6,right,R,,,,,0,1,1,1,0,46,46,30,,,,,,,,,,,,,,,,,,,,,,,,,,,,,,,,,,,,,,,,,,,,281.4270412999904,None,right,1,1.5891131000826135,281.928464800003,283.6643674999941,281.928464800003,283.1637443000218,281.928464800003,283.1637443000218,281.928464800003,283.1637443000218,281.928464800003,283.1637443000218,281.928464800003,283.1637443000218,283.1465449000243,283.64785700000357,283.1465449000243,283.64785700000357,283.1465449000243,283.64785700000357,283.1465449000243,283.64785700000357,283.1465449000243,283.64785700000357,283.1465449000243,283.64785700000357,283.1465449000243,283.64785700000357,283.1465449000243,283.64785700000357,281.928464800003,None,283.64785700000357,None,1.2300000000000009,284.9320468000369,None,285.6835778000532,None,,,,,,,[[1.27]],2.4700000000000015,0.7021276595744681,11018,002,2024_Jan_05_1206,MFTM_A_new1021,2021.2.3,59.54652934580645,
,,,,,,,,stim/Instruction_adaptive.png,conditions/adaptive.xlsx,test,0.6,0.6,0.6,-0.6,-0.6,right,R,,,,,0,1,1,1,0,47,47,86,,,,,,,,,,,,,,,,,,,,,,,,,,,,,,,,,,,,,,,,,,,,286.18460420006886,None,right,1,2.4887090999400243,286.68477420008276,288.38720060000196,286.68477420008276,287.8871917000506,286.68477420008276,287.8871917000506,286.68477420008276,287.8871917000506,286.68477420008276,287.8871917000506,286.68477420008276,287.8871917000506,287.85302780009806,288.3543800000334,287.85302780009806,288.3543800000334,287.85302780009806,288.3543800000334,287.85302780009806,288.3543800000334,287.85302780009806,288.3543800000334,287.85302780009806,288.3543800000334,287.85302780009806,288.3543800000334,287.85302780009806,288.3543800000334,286.68477420008276,None,288.3543800000334,289.6724978000857,1.1900000000000008,289.68995340005495,None,290.4410144999856,None,,,,,,,[[1.31]],2.520000000000002,0.7083333333333334,11018,002,2024_Jan_05_1206,MFTM_A_new1021,2021.2.3,59.54652934580645,
,,,,,,,,stim/Instruction_adaptive.png,conditions/adaptive.xlsx,test,-0.6,-0.6,-0.6,0.6,0.6,left,L,,,,,0,1,1,1,0,48,48,5,,,,,,,,,,,,,,,,,,,,,,,,,,,,,,,,,,,,,,,,,,,,290.94119550008327,None,left,1,1.2596138999797404,291.4419390000403,293.09424070001114,291.4419390000403,292.5935751000652,291.4419390000403,292.5935751000652,291.4419390000403,292.5935751000652,291.4419390000403,292.5935751000652,291.4419390000403,292.5935751000652,292.5769183000084,293.077575000003,292.5769183000084,293.077575000003,292.5769183000084,293.077575000003,292.5769183000084,293.077575000003,292.5769183000084,293.077575000003,292.5769183000084,293.077575000003,292.5769183000084,293.077575000003,292.5769183000084,293.077575000003,291.4419390000403,None,293.077575000003,294.429733500001,1.1500000000000008,294.4463669999968,None,295.19832550000865,None,,,,,,,[[1.35]],2.560000000000002,0.7142857142857143,11018,002,2024_Jan_05_1206,MFTM_A_new1021,2021.2.3,59.54652934580645,
,,,,,,,,stim/Instruction_adaptive.png,conditions/adaptive.xlsx,test,-0.6,-0.6,-0.6,0.6,0.6,left,L,,,,,0,1,1,1,0,49,49,71,,,,,,,,,,,,,,,,,,,,,,,,,,,,,,,,,,,,,,,,,,,,295.69899490009993,None,right,0,1.4063788000494242,296.1989231000189,297.83564990002196,296.1989231000189,297.3339954999974,296.1989231000189,297.3339954999974,296.1989231000189,297.3339954999974,296.1989231000189,297.3339954999974,296.1989231000189,297.3339954999974,297.30108570004813,297.8011463000439,297.30108570004813,297.8011463000439,297.30108570004813,297.8011463000439,297.30108570004813,297.8011463000439,297.30108570004813,297.8011463000439,297.30108570004813,297.8011463000439,297.30108570004813,297.8011463000439,297.30108570004813,297.8011463000439,296.1989231000189,None,297.8011463000439,299.18712140002754,1.1200000000000008,299.2032686000457,None,299.95444520004094,None,,,,,,,[1.3768],2.4300000000000015,0.7,11018,002,2024_Jan_05_1206,MFTM_A_new1021,2021.2.3,59.54652934580645,
,,,,,,,,stim/Instruction_adaptive.png,conditions/adaptive.xlsx,test,-0.6,-0.6,-0.6,0.6,0.6,left,L,,,,,0,1,1,1,0,50,50,39,,,,,,,,,,,,,,,,,,,,,,,,,,,,,,,,,,,,,,,,,,,,300.4558759999927,None,left,1,1.6893301999662071,300.9559415000258,302.67525020008907,300.9559415000258,302.1919469999848,300.9559415000258,302.1919469999848,300.9559415000258,302.1919469999848,300.9559415000258,302.1919469999848,300.9559415000258,302.1919469999848,302.1575983000221,302.65853720007,302.1575983000221,302.65853720007,302.1575983000221,302.65853720007,302.1575983000221,302.65853720007,302.1575983000221,302.65853720007,302.1575983000221,302.65853720007,302.1575983000221,302.65853720007,302.1575983000221,302.65853720007,300.9559415000258,None,302.65853720007,303.94388889998663,1.2200000000000009,303.96045280003455,None,304.7123430999927,None,,,,,,,[[1.28]],2.4800000000000018,0.7058823529411765,11018,002,2024_Jan_05_1206,MFTM_A_new1021,2021.2.3,59.54652934580645,
,,,,,,,,stim/Instruction_adaptive.png,conditions/adaptive.xlsx,test,-0.6,-0.6,-0.6,0.6,0.6,left,L,,,,,0,1,1,1,0,51,51,19,,,,,,,,,,,,,,,,,,,,,,,,,,,,,,,,,,,,,,,,,,,,305.21297430002596,None,left,1,2.5720631000585854,305.713104100083,307.39887230005115,305.713104100083,306.8995699000079,305.713104100083,306.8995699000079,305.713104100083,306.8995699000079,305.713104100083,306.8995699000079,305.713104100083,306.8995699000079,306.8814519000007,307.3823300000513,306.8814519000007,307.3823300000513,306.8814519000007,307.3823300000513,306.8814519000007,307.3823300000513,306.8814519000007,307.3823300000513,306.8814519000007,307.3823300000513,306.8814519000007,307.3823300000513,306.8814519000007,307.3823300000513,305.713104100083,None,307.3823300000513,None,1.1800000000000008,308.71751550002955,None,309.4685410000384,None,,,,,,,[[1.32]],2.520000000000002,0.7115384615384616,11018,002,2024_Jan_05_1206,MFTM_A_new1021,2021.2.3,59.54652934580645,
,,,,,,,,stim/Instruction_adaptive.png,conditions/adaptive.xlsx,test,0.6,0.6,0.6,-0.6,-0.6,right,R,,,,,0,1,1,1,0,52,52,42,,,,,,,,,,,,,,,,,,,,,,,,,,,,,,,,,,,,,,,,,,,,309.9693722000811,None,right,1,1.5913149999687448,310.4699841000838,312.1238549000118,310.4699841000838,311.62182140001096,310.4699841000838,311.62182140001096,310.4699841000838,311.62182140001096,310.4699841000838,311.62182140001096,310.4699841000838,311.62182140001096,311.6051243999973,312.1063606000971,311.6051243999973,312.1063606000971,311.6051243999973,312.1063606000971,311.6051243999973,312.1063606000971,311.6051243999973,312.1063606000971,311.6051243999973,312.1063606000971,311.6051243999973,312.1063606000971,311.6051243999973,312.1063606000971,310.4699841000838,None,312.1063606000971,313.45855990005657,1.1500000000000008,313.4745193000417,None,314.2261705000419,None,,,,,,,[[1.35]],2.560000000000002,0.7169811320754716,11018,002,2024_Jan_05_1206,MFTM_A_new1021,2021.2.3,59.54652934580645,
,,,,,,,,stim/Instruction_adaptive.png,conditions/adaptive.xlsx,test,0.6,0.6,0.6,-0.6,-0.6,right,R,,,,,0,1,1,1,0,53,53,4,,,,,,,,,,,,,,,,,,,,,,,,,,,,,,,,,,,,,,,,,,,,314.7264339000685,None,right,1,1.39413410006091,315.2273130000103,316.86394730000757,315.2273130000103,316.36259939998854,315.2273130000103,316.36259939998854,315.2273130000103,316.36259939998854,315.2273130000103,316.36259939998854,315.2273130000103,316.36259939998854,316.3287260000361,316.8293043000158,316.3287260000361,316.8293043000158,316.3287260000361,316.8293043000158,316.3287260000361,316.8293043000158,316.3287260000361,316.8293043000158,316.3287260000361,316.8293043000158,316.3287260000361,316.8293043000158,316.3287260000361,316.8293043000158,315.2273130000103,None,316.8293043000158,318.2150852000341,1.1200000000000008,318.2314956000773,None,318.9832299000118,None,,,,,,,[1.37351852],2.600000000000002,0.7222222222222222,11018,002,2024_Jan_05_1206,MFTM_A_new1021,2021.2.3,59.54652934580645,
,,,,,,,,stim/Instruction_adaptive.png,conditions/adaptive.xlsx,test,-0.6,-0.6,-0.6,0.6,0.6,left,L,,,,,0,1,1,1,0,54,54,55,,,,,,,,,,,,,,,,,,,,,,,,,,,,,,,,,,,,,,,,,,,,319.484118900029,None,left,1,1.3968496999004856,319.98484400007874,321.58724080002867,319.98484400007874,321.08565560006537,319.98484400007874,321.08565560006537,319.98484400007874,321.08565560006537,319.98484400007874,321.08565560006537,319.98484400007874,321.08565560006537,321.0521867000498,321.5540739999851,321.0521867000498,321.5540739999851,321.0521867000498,321.5540739999851,321.0521867000498,321.5540739999851,321.0521867000498,321.5540739999851,321.0521867000498,321.5540739999851,321.0521867000498,321.5540739999851,321.0521867000498,321.5540739999851,319.98484400007874,None,321.5540739999851,322.93871640006546,1.0900000000000007,322.9552119000582,None,323.7063627000898,None,,,,,,,[1.37418182],2.640000000000002,0.7272727272727273,11018,002,2024_Jan_05_1206,MFTM_A_new1021,2021.2.3,59.54652934580645,
,,,,,,,,stim/Instruction_adaptive.png,conditions/adaptive.xlsx,test,-0.6,-0.6,-0.6,0.6,0.6,left,L,,,,,0,1,1,1,0,55,55,69,,,,,,,,,,,,,,,,,,,,,,,,,,,,,,,,,,,,,,,,,,,,324.20705550001003,None,left,1,1.2496363999089226,324.7076343999943,326.2769451000495,324.7076343999943,325.7761497000465,324.7076343999943,325.7761497000465,324.7076343999943,325.7761497000465,324.7076343999943,325.7761497000465,324.7076343999943,325.7761497000465,325.7427736000391,326.24343290005345,325.7427736000391,326.24343290005345,325.7427736000391,326.24343290005345,325.7427736000391,326.24343290005345,325.7427736000391,326.24343290005345,325.7427736000391,326.24343290005345,325.7427736000391,326.24343290005345,325.7427736000391,326.24343290005345,324.7076343999943,None,326.24343290005345,327.62960370001383,1.0600000000000007,327.64550580002833,None,328.39641330007,None,,,,,,,[1.37535714],2.680000000000002,0.7321428571428571,11018,002,2024_Jan_05_1206,MFTM_A_new1021,2021.2.3,59.54652934580645,
,,,,,,,,stim/Instruction_adaptive.png,conditions/adaptive.xlsx,test,-0.6,-0.6,-0.6,0.6,0.6,left,L,,,,,0,1,1,1,0,56,56,45,,,,,,,,,,,,,,,,,,,,,,,,,,,,,,,,,,,,,,,,,,,,328.89769300003536,None,right,0,1.2228417999576777,329.3987638000399,330.9339215999935,329.3987638000399,330.4332854000386,329.3987638000399,330.4332854000386,329.3987638000399,330.4332854000386,329.3987638000399,330.4332854000386,329.3987638000399,330.4332854000386,330.4160708000418,330.91716469998937,330.4160708000418,330.91716469998937,330.4160708000418,330.91716469998937,330.4160708000418,330.91716469998937,330.4160708000418,330.91716469998937,330.4160708000418,330.91716469998937,330.4160708000418,330.91716469998937,330.4160708000418,330.91716469998937,329.3987638000399,None,330.91716469998937,332.30234460008796,1.0300000000000007,332.3191208000062,None,333.07035970001016,None,,,,,,,[1.37701754],2.570000000000002,0.7192982456140351,11018,002,2024_Jan_05_1206,MFTM_A_new1021,2021.2.3,59.54652934580645,
,,,,,,,,stim/Instruction_adaptive.png,conditions/adaptive.xlsx,test,-0.6,-0.6,-0.6,0.6,0.6,left,L,,,,,0,1,1,1,0,57,57,13,,,,,,,,,,,,,,,,,,,,,,,,,,,,,,,,,,,,,,,,,,,,333.5711599000497,None,left,1,1.2696728999726474,334.0716951000504,335.6908911000937,334.0716951000504,335.18995080003515,334.0716951000504,335.18995080003515,334.0716951000504,335.18995080003515,334.0716951000504,335.18995080003515,334.0716951000504,335.18995080003515,335.1572839000728,335.6581914999988,335.1572839000728,335.6581914999988,335.1572839000728,335.6581914999988,335.1572839000728,335.6581914999988,335.1572839000728,335.6581914999988,335.1572839000728,335.6581914999988,335.1572839000728,335.6581914999988,335.1572839000728,335.6581914999988,334.0716951000504,None,335.6581914999988,337.04270190000534,1.1100000000000008,337.0594110999955,None,337.8103798000375,None,,,,,,,[1.37724138],2.610000000000002,0.7241379310344828,11018,002,2024_Jan_05_1206,MFTM_A_new1021,2021.2.3,59.54652934580645,
,,,,,,,,stim/Instruction_adaptive.png,conditions/adaptive.xlsx,test,-0.6,-0.6,-0.6,0.6,0.6,left,L,,,,,0,1,1,1,0,58,58,23,,,,,,,,,,,,,,,,,,,,,,,,,,,,,,,,,,,,,,,,,,,,338.311136500095,None,left,1,1.3686265000142157,338.8131139000179,340.39775300002657,338.8131139000179,339.8970854000654,338.8131139000179,339.8970854000654,338.8131139000179,339.8970854000654,338.8131139000179,339.8970854000654,338.8131139000179,339.8970854000654,339.88030120008625,340.38138400006574,339.88030120008625,340.38138400006574,339.88030120008625,340.38138400006574,339.88030120008625,340.38138400006574,339.88030120008625,340.38138400006574,339.88030120008625,340.38138400006574,339.88030120008625,340.38138400006574,339.88030120008625,340.38138400006574,338.8131139000179,None,340.38138400006574,341.766402300098,1.0800000000000007,341.78510440001264,None,342.53415800002404,None,,,,,,,[1.3779661],2.640000000000002,0.7288135593220338,11018,002,2024_Jan_05_1206,MFTM_A_new1021,2021.2.3,59.54652934580645,
,,,,,,,,stim/Instruction_adaptive.png,conditions/adaptive.xlsx,test,0.6,0.6,0.6,-0.6,-0.6,right,R,,,,,0,1,1,1,0,59,59,26,,,,,,,,,,,,,,,,,,,,,,,,,,,,,,,,,,,,,,,,,,,,343.03598330006935,None,left,0,1.6689276000251994,343.5364369000308,345.1056268000975,343.5364369000308,344.6039210000308,343.5364369000308,344.6039210000308,343.5364369000308,344.6039210000308,343.5364369000308,344.6039210000308,343.5364369000308,344.6039210000308,344.5704760000808,345.07121020008344,344.5704760000808,345.07121020008344,344.5704760000808,345.07121020008344,344.5704760000808,345.07121020008344,344.5704760000808,345.07121020008344,344.5704760000808,345.07121020008344,344.5704760000808,345.07121020008344,344.5704760000808,345.07121020008344,343.5364369000308,None,345.07121020008344,346.4566766000353,1.0600000000000007,346.49022570007946,None,347.2417687000707,None,,,,,,,[1.379],2.540000000000002,0.7166666666666667,11018,002,2024_Jan_05_1206,MFTM_A_new1021,2021.2.3,59.54652934580645,
,,,,,,,,stim/Instruction_adaptive.png,conditions/adaptive.xlsx,test,0.6,0.6,0.6,-0.6,-0.6,right,R,,,,,0,1,1,1,0,60,60,32,,,,,,,,,,,,,,,,,,,,,,,,,,,,,,,,,,,,,,,,,,,,347.74227789998986,None,left,0,1.1942095999838784,348.2432212000713,349.87836199998856,348.2432212000713,349.3777662999928,348.2432212000713,349.3777662999928,348.2432212000713,349.3777662999928,348.2432212000713,349.3777662999928,348.2432212000713,349.3777662999928,349.3610736000119,349.8623825000832,349.3610736000119,349.8623825000832,349.3610736000119,349.8623825000832,349.3610736000119,349.8623825000832,349.3610736000119,349.8623825000832,349.3610736000119,349.8623825000832,349.3610736000119,349.8623825000832,349.3610736000119,349.8623825000832,348.2432212000713,None,349.8623825000832,None,1.1300000000000008,351.247505400097,None,351.99845579999965,None,,,,,,,[[1.37]],2.4300000000000015,0.7049180327868853,11018,002,2024_Jan_05_1206,MFTM_A_new1021,2021.2.3,59.54652934580645,
,,,,,,,,stim/Instruction_adaptive.png,conditions/adaptive.xlsx,test,0.6,0.6,0.6,-0.6,-0.6,right,R,,,,,0,1,1,1,0,61,61,92,,,,,,,,,,,,,,,,,,,,,,,,,,,,,,,,,,,,,,,,,,,,352.499184000073,None,right,1,1.6934020000044256,352.9998438000912,354.7188923000358,352.9998438000912,354.2348994000349,352.9998438000912,354.2348994000349,352.9998438000912,354.2348994000349,352.9998438000912,354.2348994000349,352.9998438000912,354.2348994000349,354.20170370000415,354.70220659999177,354.20170370000415,354.70220659999177,354.20170370000415,354.70220659999177,354.20170370000415,354.70220659999177,354.20170370000415,354.70220659999177,354.20170370000415,354.70220659999177,354.20170370000415,354.70220659999177,354.20170370000415,354.70220659999177,352.9998438000912,None,354.70220659999177,355.98814450006466,1.2200000000000009,356.0041906000115,None,356.7553272000514,None,,,,,,,[[1.28]],2.4700000000000015,0.7096774193548387,11018,002,2024_Jan_05_1206,MFTM_A_new1021,2021.2.3,59.54652934580645,
,,,,,,,,stim/Instruction_adaptive.png,conditions/adaptive.xlsx,test,0.6,0.6,0.6,-0.6,-0.6,right,R,,,,,0,1,1,1,0,62,62,68,,,,,,,,,,,,,,,,,,,,,,,,,,,,,,,,,,,,,,,,,,,,357.25599020009395,None,right,1,1.5695689000422135,357.75667430006433,359.4598905000603,357.75667430006433,358.9586618000176,357.75667430006433,358.9586618000176,357.75667430006433,358.9586618000176,357.75667430006433,358.9586618000176,357.75667430006433,358.9586618000176,358.92523799999617,359.4258814000059,358.92523799999617,359.4258814000059,358.92523799999617,359.4258814000059,358.92523799999617,359.4258814000059,358.92523799999617,359.4258814000059,358.92523799999617,359.4258814000059,358.92523799999617,359.4258814000059,358.92523799999617,359.4258814000059,357.75667430006433,None,359.4258814000059,360.74464779999107,1.1900000000000008,360.76179280004,None,361.5126835000701,None,,,,,,,[[1.31]],2.5100000000000016,0.7142857142857143,11018,002,2024_Jan_05_1206,MFTM_A_new1021,2021.2.3,59.54652934580645,
,,,,,,,,stim/Instruction_adaptive.png,conditions/adaptive.xlsx,test,-0.6,-0.6,-0.6,0.6,0.6,left,L,,,,,0,1,1,1,0,63,63,99,,,,,,,,,,,,,,,,,,,,,,,,,,,,,,,,,,,,,,,,,,,,362.0130675000837,None,right,0,1.5955284000374377,362.51383730000816,364.1662599000847,362.51383730000816,363.6655065000523,362.51383730000816,363.6655065000523,362.51383730000816,363.6655065000523,362.51383730000816,363.6655065000523,362.51383730000816,363.6655065000523,363.64868340000976,364.15086550009437,363.64868340000976,364.15086550009437,363.64868340000976,364.15086550009437,363.64868340000976,364.15086550009437,363.64868340000976,364.15086550009437,363.64868340000976,364.15086550009437,363.64868340000976,364.15086550009437,363.64868340000976,364.15086550009437,362.51383730000816,None,364.15086550009437,365.50184000004083,1.1500000000000008,365.5182536999928,None,366.2699053999968,None,,,,,,,[[1.35]],2.4000000000000017,0.703125,11018,002,2024_Jan_05_1206,MFTM_A_new1021,2021.2.3,59.54652934580645,
,,,,,,,,stim/Instruction_adaptive.png,conditions/adaptive.xlsx,test,0.6,0.6,0.6,-0.6,-0.6,right,R,,,,,0,1,1,1,0,64,64,38,,,,,,,,,,,,,,,,,,,,,,,,,,,,,,,,,,,,,,,,,,,,366.7706003000494,None,right,1,1.5028519000625238,367.27074920001905,369.02370050002355,367.27074920001905,368.52282080007717,367.27074920001905,368.52282080007717,367.27074920001905,368.52282080007717,367.27074920001905,368.52282080007717,367.27074920001905,368.52282080007717,368.5060553000076,369.00750649999827,368.5060553000076,369.00750649999827,368.5060553000076,369.00750649999827,368.5060553000076,369.00750649999827,368.5060553000076,369.00750649999827,368.5060553000076,369.00750649999827,368.5060553000076,369.00750649999827,368.5060553000076,369.00750649999827,367.27074920001905,None,369.00750649999827,370.2585885000881,1.2500000000000009,370.2921613000799,None,371.04476419999264,None,,,,,,,[[1.25]],2.4400000000000017,0.7076923076923077,11018,002,2024_Jan_05_1206,MFTM_A_new1021,2021.2.3,59.54652934580645,
,,,,,,,,stim/Instruction_adaptive.png,conditions/adaptive.xlsx,test,-0.6,-0.6,-0.6,0.6,0.6,left,L,,,,,0,1,1,1,0,65,65,61,,,,,,,,,,,,,,,,,,,,,,,,,,,,,,,,,,,,,,,,,,,,371.5440939000109,None,left,1,0.9851180999539793,372.0444942000322,373.76381640008185,372.0444942000322,373.26372809999157,372.0444942000322,373.26372809999157,372.0444942000322,373.26372809999157,372.0444942000322,373.26372809999157,372.0444942000322,373.26372809999157,373.22987560008187,373.73153670004103,373.22987560008187,373.73153670004103,373.22987560008187,373.73153670004103,373.22987560008187,373.73153670004103,373.22987560008187,373.73153670004103,373.22987560008187,373.73153670004103,373.22987560008187,373.73153670004103,373.22987560008187,373.73153670004103,372.0444942000322,None,373.73153670004103,375.0322697000811,1.2100000000000009,375.0492551000789,None,375.8001099000685,None,,,,,,,[[1.29]],2.4700000000000015,0.7121212121212122,11018,002,2024_Jan_05_1206,MFTM_A_new1021,2021.2.3,59.54652934580645,
,,,,,,,,stim/Instruction_adaptive.png,conditions/adaptive.xlsx,test,0.6,0.6,0.6,-0.6,-0.6,right,R,,,,,0,1,1,1,0,66,66,18,,,,,,,,,,,,,,,,,,,,,,,,,,,,,,,,,,,,,,,,,,,,376.3010939999949,None,left,0,1.8446392000187188,376.80150090006646,378.5047052000882,376.80150090006646,378.0035397000611,376.80150090006646,378.0035397000611,376.80150090006646,378.0035397000611,376.80150090006646,378.0035397000611,376.80150090006646,378.0035397000611,377.9700256000506,378.47068280004896,377.9700256000506,378.47068280004896,377.9700256000506,378.47068280004896,377.9700256000506,378.47068280004896,377.9700256000506,378.47068280004896,377.9700256000506,378.47068280004896,377.9700256000506,378.47068280004896,377.9700256000506,378.47068280004896,376.80150090006646,None,378.47068280004896,379.7894082000712,1.1900000000000008,379.8060681000352,None,380.55722339998465,None,,,,,,,[[1.31]],2.370000000000002,0.7014925373134329,11018,002,2024_Jan_05_1206,MFTM_A_new1021,2021.2.3,59.54652934580645,
,,,,,,,,stim/Instruction_adaptive.png,conditions/adaptive.xlsx,test,-0.6,-0.6,-0.6,0.6,0.6,left,L,,,,,0,1,1,1,0,67,67,73,,,,,,,,,,,,,,,,,,,,,,,,,,,,,,,,,,,,,,,,,,,,381.0586298000999,None,left,1,1.9032802000874653,381.55882810009643,383.3287703000242,381.55882810009643,382.8285622000694,381.55882810009643,382.8285622000694,381.55882810009643,382.8285622000694,381.55882810009643,382.8285622000694,381.55882810009643,382.8285622000694,382.8111816000892,383.31133769999724,382.8111816000892,383.31133769999724,382.8111816000892,383.31133769999724,382.8111816000892,383.31133769999724,382.8111816000892,383.31133769999724,382.8111816000892,383.31133769999724,382.8111816000892,383.31133769999724,382.8111816000892,383.31133769999724,381.55882810009643,None,383.31133769999724,384.5465536999982,1.270000000000001,384.56328510004096,None,385.3143931000959,None,,,,,,,[[1.23]],2.410000000000002,0.7058823529411765,11018,002,2024_Jan_05_1206,MFTM_A_new1021,2021.2.3,59.54652934580645,
,,,,,,,,stim/Instruction_adaptive.png,conditions/adaptive.xlsx,test,-0.6,-0.6,-0.6,0.6,0.6,left,L,,,,,0,1,1,1,0,68,68,53,,,,,,,,,,,,,,,,,,,,,,,,,,,,,,,,,,,,,,,,,,,,385.81484450004064,None,left,1,2.34544150007423,386.3159132000292,388.0684430000838,386.3159132000292,387.56771299999673,386.3159132000292,387.56771299999673,386.3159132000292,387.56771299999673,386.3159132000292,387.56771299999673,386.3159132000292,387.56771299999673,387.5342173000099,388.03504250000697,387.5342173000099,388.03504250000697,387.5342173000099,388.03504250000697,387.5342173000099,388.03504250000697,387.5342173000099,388.03504250000697,387.5342173000099,388.03504250000697,387.5342173000099,388.03504250000697,387.5342173000099,388.03504250000697,386.3159132000292,None,388.03504250000697,389.3043859000318,1.2400000000000009,389.3201395000797,None,390.07118560001254,None,,,,,,,[[1.26]],2.4400000000000017,0.7101449275362319,11018,002,2024_Jan_05_1206,MFTM_A_new1021,2021.2.3,59.54652934580645,
,,,,,,,,stim/Instruction_adaptive.png,conditions/adaptive.xlsx,test,-0.6,-0.6,-0.6,0.6,0.6,left,L,,,,,0,1,1,1,0,69,69,29,,,,,,,,,,,,,,,,,,,,,,,,,,,,,,,,,,,,,,,,,,,,390.57246220007073,None,right,0,1.4124517999589443,391.0733124000253,392.7919219000032,391.0733124000253,392.2911937000463,391.0733124000253,392.2911937000463,391.0733124000253,392.2911937000463,391.0733124000253,392.2911937000463,391.0733124000253,392.2911937000463,392.2579002000857,392.7586852000095,392.2579002000857,392.7586852000095,392.2579002000857,392.7586852000095,392.2579002000857,392.7586852000095,392.2579002000857,392.7586852000095,392.2579002000857,392.7586852000095,392.2579002000857,392.7586852000095,392.2579002000857,392.7586852000095,391.0733124000253,None,392.7586852000095,394.06146290001925,1.2100000000000009,394.07719270000234,None,394.8283344000811,None,,,,,,,[[1.29]],2.3400000000000016,0.7,11018,002,2024_Jan_05_1206,MFTM_A_new1021,2021.2.3,59.54652934580645,
,,,,,,,,stim/Instruction_adaptive.png,conditions/adaptive.xlsx,test,0.6,0.6,0.6,-0.6,-0.6,right,R,,,,,0,1,1,1,0,70,70,74,,,,,,,,,,,,,,,,,,,,,,,,,,,,,,,,,,,,,,,,,,,,395.32917839998845,None,right,1,1.5836846999591216,395.8299667000538,397.63261369999964,395.8299667000538,397.13182040001266,395.8299667000538,397.13182040001266,395.8299667000538,397.13182040001266,395.8299667000538,397.13182040001266,395.8299667000538,397.13182040001266,397.11532430001535,397.61660810001194,397.11532430001535,397.61660810001194,397.11532430001535,397.61660810001194,397.11532430001535,397.61660810001194,397.11532430001535,397.61660810001194,397.11532430001535,397.61660810001194,397.11532430001535,397.61660810001194,397.11532430001535,397.61660810001194,395.8299667000538,None,397.61660810001194,398.8176562000299,1.300000000000001,398.8341336000012,None,399.58543750003446,None,,,,,,,[[1.2]],2.3800000000000017,0.704225352112676,11018,002,2024_Jan_05_1206,MFTM_A_new1021,2021.2.3,59.54652934580645,
,,,,,,,,stim/Instruction_adaptive.png,conditions/adaptive.xlsx,test,-0.6,-0.6,-0.6,0.6,0.6,left,L,,,,,0,1,1,1,0,71,71,79,,,,,,,,,,,,,,,,,,,,,,,,,,,,,,,,,,,,,,,,,,,,400.0869823000394,None,left,1,1.154359299922362,400.5869892000919,402.35687530005816,400.5869892000919,401.8559774000896,400.5869892000919,401.8559774000896,400.5869892000919,401.8559774000896,400.5869892000919,401.8559774000896,400.5869892000919,401.8559774000896,401.82215190003626,402.32294129999354,401.82215190003626,402.32294129999354,401.82215190003626,402.32294129999354,401.82215190003626,402.32294129999354,401.82215190003626,402.32294129999354,401.82215190003626,402.32294129999354,401.82215190003626,402.32294129999354,401.82215190003626,402.32294129999354,400.5869892000919,None,402.32294129999354,403.57535649999045,1.260000000000001,403.5912373000756,None,404.3423498000484,None,,,,,,,[[1.24]],2.410000000000002,0.7083333333333334,11018,002,2024_Jan_05_1206,MFTM_A_new1021,2021.2.3,59.54652934580645,
,,,,,,,,stim/Instruction_adaptive.png,conditions/adaptive.xlsx,test,0.6,0.6,0.6,-0.6,-0.6,right,R,,,,,0,1,1,1,0,72,72,80,,,,,,,,,,,,,,,,,,,,,,,,,,,,,,,,,,,,,,,,,,,,404.84406160004437,None,right,1,1.6615048999665305,405.343958600075,407.0967307999963,405.343958600075,406.59592210000847,405.343958600075,406.59592210000847,405.343958600075,406.59592210000847,405.343958600075,406.59592210000847,405.343958600075,406.59592210000847,406.5624702000059,407.0638933000155,406.5624702000059,407.0638933000155,406.5624702000059,407.0638933000155,406.5624702000059,407.0638933000155,406.5624702000059,407.0638933000155,406.5624702000059,407.0638933000155,406.5624702000059,407.0638933000155,406.5624702000059,407.0638933000155,405.343958600075,None,407.0638933000155,408.3318781000562,1.2400000000000009,408.34838109998964,None,409.1000966000138,None,,,,,,,[[1.26]],2.4400000000000017,0.7123287671232876,11018,002,2024_Jan_05_1206,MFTM_A_new1021,2021.2.3,59.54652934580645,
,,,,,,,,stim/Instruction_adaptive.png,conditions/adaptive.xlsx,test,-0.6,-0.6,-0.6,0.6,0.6,left,L,,,,,0,1,1,1,0,73,73,83,,,,,,,,,,,,,,,,,,,,,,,,,,,,,,,,,,,,,,,,,,,,409.60042680008337,None,left,1,1.0404001999413595,410.10108250007033,411.8211065999931,410.10108250007033,411.3193963000085,410.10108250007033,411.3193963000085,410.10108250007033,411.3193963000085,410.10108250007033,411.3193963000085,410.10108250007033,411.3193963000085,411.28625830006786,411.7869030000875,411.28625830006786,411.7869030000875,411.28625830006786,411.7869030000875,411.28625830006786,411.7869030000875,411.28625830006786,411.7869030000875,411.28625830006786,411.7869030000875,411.28625830006786,411.7869030000875,411.28625830006786,411.7869030000875,410.10108250007033,None,411.7869030000875,413.0888022000436,1.2100000000000009,413.1054101000773,None,413.85657320008613,None,,,,,,,[[1.29]],2.4700000000000015,0.7162162162162162,11018,002,2024_Jan_05_1206,MFTM_A_new1021,2021.2.3,59.54652934580645,
,,,,,,,,stim/Instruction_adaptive.png,conditions/adaptive.xlsx,test,0.6,0.6,0.6,-0.6,-0.6,right,R,,,,,0,1,1,1,0,74,74,96,,,,,,,,,,,,,,,,,,,,,,,,,,,,,,,,,,,,,,,,,,,,414.35739230003674,None,right,1,1.8273718999698758,414.8580753999995,416.5606807000004,414.8580753999995,416.0596616000403,414.8580753999995,416.0596616000403,414.8580753999995,416.0596616000403,414.8580753999995,416.0596616000403,414.8580753999995,416.0596616000403,416.02660830004606,416.5271194000961,416.02660830004606,416.5271194000961,416.02660830004606,416.5271194000961,416.02660830004606,416.5271194000961,416.02660830004606,416.5271194000961,416.02660830004606,416.5271194000961,416.02660830004606,416.5271194000961,416.02660830004606,416.5271194000961,414.8580753999995,None,416.5271194000961,417.8458695000736,1.1900000000000008,417.86250440008007,None,418.6136626000516,None,,,,,,,[[1.31]],2.5000000000000018,0.72,11018,002,2024_Jan_05_1206,MFTM_A_new1021,2021.2.3,59.54652934580645,
,,,,,,,,stim/Instruction_adaptive.png,conditions/adaptive.xlsx,test,0.6,0.6,0.6,-0.6,-0.6,right,R,,,,,0,1,1,1,0,75,75,94,,,,,,,,,,,,,,,,,,,,,,,,,,,,,,,,,,,,,,,,,,,,419.1149653000757,None,right,1,1.4221989000216126,419.61533900001086,421.2842024000129,419.61533900001086,420.78475800005253,419.61533900001086,420.78475800005253,419.61533900001086,420.78475800005253,419.61533900001086,420.78475800005253,419.61533900001086,420.78475800005253,420.7501470000716,421.2515490000369,420.7501470000716,421.2515490000369,420.7501470000716,421.2515490000369,420.7501470000716,421.2515490000369,420.7501470000716,421.2515490000369,420.7501470000716,421.2515490000369,420.7501470000716,421.2515490000369,420.7501470000716,421.2515490000369,419.61533900001086,None,421.2515490000369,422.6030852000695,1.1600000000000008,422.61966960004065,None,423.3707790999906,None,,,,,,,[[1.34]],2.530000000000002,0.7236842105263158,11018,002,2024_Jan_05_1206,MFTM_A_new1021,2021.2.3,59.54652934580645,
,,,,,,,,stim/Instruction_adaptive.png,conditions/adaptive.xlsx,test,0.6,0.6,0.6,-0.6,-0.6,right,R,,,,,0,1,1,1,0,76,76,90,,,,,,,,,,,,,,,,,,,,,,,,,,,,,,,,,,,,,,,,,,,,423.8714219999965,None,right,1,1.7129730999004096,424.37242370005697,426.0253987000324,424.37242370005697,425.52445600007195,424.37242370005697,425.52445600007195,424.37242370005697,425.52445600007195,424.37242370005697,425.52445600007195,424.37242370005697,425.52445600007195,425.49132610007655,425.9923006000463,425.49132610007655,425.9923006000463,425.49132610007655,425.9923006000463,425.49132610007655,425.9923006000463,425.49132610007655,425.9923006000463,425.49132610007655,425.9923006000463,425.49132610007655,425.9923006000463,425.49132610007655,425.9923006000463,424.37242370005697,None,425.9923006000463,427.3603879000293,1.1400000000000008,427.3766532000154,None,428.12781690002885,None,,,,,,,[1.35948052],2.560000000000002,0.7272727272727273,11018,002,2024_Jan_05_1206,MFTM_A_new1021,2021.2.3,59.54652934580645,
,,,,,,,,stim/Instruction_adaptive.png,conditions/adaptive.xlsx,test,0.6,0.6,0.6,-0.6,-0.6,right,R,,,,,0,1,1,1,0,77,77,98,,,,,,,,,,,,,,,,,,,,,,,,,,,,,,,,,,,,,,,,,,,,428.6285531000467,None,right,1,1.6527517999056727,429.12929190008435,430.7489421000937,429.12929190008435,430.24852200003807,429.12929190008435,430.24852200003807,429.12929190008435,430.24852200003807,429.12929190008435,430.24852200003807,429.12929190008435,430.24852200003807,430.2319557000883,430.7333045999985,430.2319557000883,430.7333045999985,430.2319557000883,430.7333045999985,430.2319557000883,430.7333045999985,430.2319557000883,430.7333045999985,430.2319557000883,430.7333045999985,430.2319557000883,430.7333045999985,430.2319557000883,430.7333045999985,429.12929190008435,None,430.7333045999985,432.1009002000792,1.1200000000000008,432.1176517000422,None,432.8681657999987,None,,,,,,,[1.35974359],2.580000000000002,0.7307692307692307,11018,002,2024_Jan_05_1206,MFTM_A_new1021,2021.2.3,59.54652934580645,
,,,,,,,,stim/Instruction_adaptive.png,conditions/adaptive.xlsx,test,0.6,0.6,0.6,-0.6,-0.6,right,R,,,,,0,1,1,1,0,78,78,22,,,,,,,,,,,,,,,,,,,,,,,,,,,,,,,,,,,,,,,,,,,,433.3687023000093,None,left,0,2.0801117999944836,433.86943290010095,435.4719839000609,433.86943290010095,434.9711394000333,433.86943290010095,434.9711394000333,433.86943290010095,434.9711394000333,433.86943290010095,434.9711394000333,433.86943290010095,434.9711394000333,434.95437510008924,435.4552948999917,434.95437510008924,435.4552948999917,434.95437510008924,435.4552948999917,434.95437510008924,435.4552948999917,434.95437510008924,435.4552948999917,434.95437510008924,435.4552948999917,434.95437510008924,435.4552948999917,434.95437510008924,435.4552948999917,433.86943290010095,None,435.4552948999917,436.82392760005314,1.1000000000000008,436.84056760009844,None,437.59185890003573,None,,,,,,,[1.36025316],2.5100000000000016,0.7215189873417721,11018,002,2024_Jan_05_1206,MFTM_A_new1021,2021.2.3,59.54652934580645,
,,,,,,,,stim/Instruction_adaptive.png,conditions/adaptive.xlsx,test,-0.6,-0.6,-0.6,0.6,0.6,left,L,,,,,0,1,1,1,0,79,79,81,,,,,,,,,,,,,,,,,,,,,,,,,,,,,,,,,,,,,,,,,,,,438.09315900004003,None,left,1,1.1163173000095412,438.59318480000366,440.24565850000363,438.59318480000366,439.7449842999922,438.59318480000366,439.7449842999922,438.59318480000366,439.7449842999922,438.59318480000366,439.7449842999922,438.59318480000366,439.7449842999922,439.7281082000118,440.22980289999396,439.7281082000118,440.22980289999396,439.7281082000118,440.22980289999396,439.7281082000118,440.22980289999396,439.7281082000118,440.22980289999396,439.7281082000118,440.22980289999396,439.7281082000118,440.22980289999396,439.7281082000118,440.22980289999396,438.59318480000366,None,440.22980289999396,441.5827239000937,1.1500000000000008,441.5970975999953,None,442.3487204000121,None,,,,,,,[[1.35]],2.530000000000002,0.725,11018,002,2024_Jan_05_1206,MFTM_A_new1021,2021.2.3,59.54652934580645,
,,,,,,,,stim/Instruction_adaptive.png,conditions/adaptive.xlsx,test,0.6,0.6,0.6,-0.6,-0.6,right,R,,,,,0,1,1,1,0,80,80,48,,,,,,,,,,,,,,,,,,,,,,,,,,,,,,,,,,,,,,,,,,,,442.850067100022,None,left,0,1.5264458999736235,443.35103950009216,445.00340290006716,443.35103950009216,444.5021757000359,443.35103950009216,444.5021757000359,443.35103950009216,444.5021757000359,443.35103950009216,444.5021757000359,443.35103950009216,444.5021757000359,444.4691379000433,444.96935840009246,444.4691379000433,444.96935840009246,444.4691379000433,444.96935840009246,444.4691379000433,444.96935840009246,444.4691379000433,444.96935840009246,444.4691379000433,444.96935840009246,444.4691379000433,444.96935840009246,444.4691379000433,444.96935840009246,443.35103950009216,None,444.96935840009246,446.33849380002357,1.1400000000000008,446.3545316000236,None,447.10607820004225,None,,,,,,,[[1.36]],2.450000000000002,0.7160493827160493,11018,002,2024_Jan_05_1206,MFTM_A_new1021,2021.2.3,59.54652934580645,
,,,,,,,,stim/Instruction_adaptive.png,conditions/adaptive.xlsx,test,0.6,0.6,0.6,-0.6,-0.6,right,R,,,,,0,1,1,1,0,81,81,82,,,,,,,,,,,,,,,,,,,,,,,,,,,,,,,,,,,,,,,,,,,,447.60659800004214,None,right,1,1.4096468000207096,448.10795239999425,449.8098582000239,448.10795239999425,449.3093399000354,448.10795239999425,449.3093399000354,448.10795239999425,449.3093399000354,448.10795239999425,449.3093399000354,448.10795239999425,449.3093399000354,449.29254170006607,449.79339550004806,449.29254170006607,449.79339550004806,449.29254170006607,449.79339550004806,449.29254170006607,449.79339550004806,449.29254170006607,449.79339550004806,449.29254170006607,449.79339550004806,449.29254170006607,449.79339550004806,449.29254170006607,449.79339550004806,448.10795239999425,None,449.79339550004806,451.0949428000022,1.2000000000000008,451.1117746999953,None,451.86395490006544,None,,,,,,,[[1.3]],2.4800000000000018,0.7195121951219512,11018,002,2024_Jan_05_1206,MFTM_A_new1021,2021.2.3,59.54652934580645,
,,,,,,,,stim/Instruction_adaptive.png,conditions/adaptive.xlsx,test,-0.6,-0.6,-0.6,0.6,0.6,left,L,,,,,0,1,1,1,0,82,82,31,,,,,,,,,,,,,,,,,,,,,,,,,,,,,,,,,,,,,,,,,,,,452.36365680000745,None,left,1,1.340900499955751,452.8648287000833,454.55146099999547,452.8648287000833,454.05028210009914,452.8648287000833,454.05028210009914,452.8648287000833,454.05028210009914,452.8648287000833,454.05028210009914,452.8648287000833,454.05028210009914,454.0332236000104,454.53454430005513,454.0332236000104,454.53454430005513,454.0332236000104,454.53454430005513,454.0332236000104,454.53454430005513,454.0332236000104,454.53454430005513,454.0332236000104,454.53454430005513,454.0332236000104,454.53454430005513,454.0332236000104,454.53454430005513,452.8648287000833,None,454.51787480001803,455.83646130003035,1.1800000000000008,455.8686925000511,None,456.6207507000072,None,,,,,,,[[1.32]],2.5100000000000016,0.7228915662650602,11018,002,2024_Jan_05_1206,MFTM_A_new1021,2021.2.3,59.54652934580645,
,,,,,,,,stim/Instruction_adaptive.png,conditions/adaptive.xlsx,test,-0.6,-0.6,-0.6,0.6,0.6,left,L,,,,,0,1,1,1,0,83,83,47,,,,,,,,,,,,,,,,,,,,,,,,,,,,,,,,,,,,,,,,,,,,457.12178160005715,None,right,0,2.040425100014545,457.62174329999834,459.2737907000119,457.62174329999834,458.7732328000711,457.62174329999834,458.7732328000711,457.62174329999834,458.7732328000711,457.62174329999834,458.7732328000711,457.62174329999834,458.7732328000711,458.7570871000644,459.2571642000694,458.7570871000644,459.2571642000694,458.7570871000644,459.2571642000694,458.7570871000644,459.2571642000694,458.7570871000644,459.2571642000694,458.7570871000644,459.2571642000694,458.7570871000644,459.2571642000694,458.7570871000644,459.2571642000694,457.62174329999834,None,459.2571642000694,460.6099742000224,1.1500000000000008,460.6260046000825,None,461.377164500067,None,,,,,,,[[1.35]],2.4300000000000015,0.7142857142857143,11018,002,2024_Jan_05_1206,MFTM_A_new1021,2021.2.3,59.54652934580645,
,,,,,,,,stim/Instruction_adaptive.png,conditions/adaptive.xlsx,test,0.6,0.6,0.6,-0.6,-0.6,right,R,,,,,0,1,1,1,0,84,84,36,,,,,,,,,,,,,,,,,,,,,,,,,,,,,,,,,,,,,,,,,,,,461.87791959999595,None,left,0,2.051575400051661,462.37845339998603,464.0978801000165,462.37845339998603,463.6138464000542,462.37845339998603,463.6138464000542,462.37845339998603,463.6138464000542,462.37845339998603,463.6138464000542,462.37845339998603,463.6138464000542,463.58023479999974,464.08124070009217,463.58023479999974,464.08124070009217,463.58023479999974,464.08124070009217,463.58023479999974,464.08124070009217,463.58023479999974,464.08124070009217,463.58023479999974,464.08124070009217,463.58023479999974,464.08124070009217,463.58023479999974,464.08124070009217,462.37845339998603,None,464.08124070009217,465.3666879000375,1.2200000000000009,465.3840568000451,None,466.13480930007063,None,,,,,,,[[1.28]],2.3500000000000014,0.7058823529411765,11018,002,2024_Jan_05_1206,MFTM_A_new1021,2021.2.3,59.54652934580645,
,,,,,,,,stim/Instruction_adaptive.png,conditions/adaptive.xlsx,test,0.6,0.6,0.6,-0.6,-0.6,right,R,,,,,0,1,1,1,0,85,85,2,,,,,,,,,,,,,,,,,,,,,,,,,,,,,,,,,,,,,,,,,,,,466.6357861000579,None,right,1,1.7579069000203162,467.13587360002566,468.93830989999697,467.13587360002566,468.4382835000288,467.13587360002566,468.4382835000288,467.13587360002566,468.4382835000288,467.13587360002566,468.4382835000288,467.13587360002566,468.4382835000288,468.4041350000771,468.90487600001507,468.4041350000771,468.90487600001507,468.4041350000771,468.90487600001507,468.4041350000771,468.90487600001507,468.4041350000771,468.90487600001507,468.4041350000771,468.90487600001507,468.4041350000771,468.90487600001507,468.4041350000771,468.90487600001507,467.13587360002566,None,468.90487600001507,470.1235636000056,1.290000000000001,470.1400425999891,None,470.890918900026,None,,,,,,,[[1.21]],2.3800000000000017,0.7093023255813954,11018,002,2024_Jan_05_1206,MFTM_A_new1021,2021.2.3,59.54652934580645,
,,,,,,,,stim/Instruction_adaptive.png,conditions/adaptive.xlsx,test,-0.6,-0.6,-0.6,0.6,0.6,left,L,,,,,0,1,1,1,0,86,86,89,,,,,,,,,,,,,,,,,,,,,,,,,,,,,,,,,,,,,,,,,,,,471.3917976000812,None,left,1,1.0412497000070289,471.89275990007445,473.6618983000517,471.89275990007445,473.16125340003055,471.89275990007445,473.16125340003055,471.89275990007445,473.16125340003055,471.89275990007445,473.16125340003055,471.89275990007445,473.16125340003055,473.1276435999898,473.62949030008167,473.1276435999898,473.62949030008167,473.1276435999898,473.62949030008167,473.1276435999898,473.62949030008167,473.1276435999898,473.62949030008167,473.1276435999898,473.62949030008167,473.1276435999898,473.62949030008167,473.1276435999898,473.62949030008167,471.89275990007445,None,473.62949030008167,474.88046500005294,1.260000000000001,474.89782290009316,None,475.6482318000635,None,,,,,,,[[1.24]],2.4000000000000017,0.7126436781609196,11018,002,2024_Jan_05_1206,MFTM_A_new1021,2021.2.3,59.54652934580645,
,,,,,,,,stim/Instruction_adaptive.png,conditions/adaptive.xlsx,test,0.6,0.6,0.6,-0.6,-0.6,right,R,,,,,0,1,1,1,0,87,87,50,,,,,,,,,,,,,,,,,,,,,,,,,,,,,,,,,,,,,,,,,,,,476.149064199999,None,right,1,2.091460600029677,476.651002000086,478.40288800001144,476.651002000086,477.90151490003336,476.651002000086,477.90151490003336,476.651002000086,477.90151490003336,476.651002000086,477.90151490003336,476.651002000086,477.90151490003336,477.8847587000346,478.38583090004977,477.8847587000346,478.38583090004977,477.8847587000346,478.38583090004977,477.8847587000346,478.38583090004977,477.8847587000346,478.38583090004977,477.8847587000346,478.38583090004977,477.8847587000346,478.38583090004977,477.8847587000346,478.38583090004977,476.651002000086,None,478.38583090004977,479.63847980007995,1.2500000000000009,479.6541168000549,None,480.40523899998516,None,,,,,,,[[1.25]],2.4300000000000015,0.7159090909090909,11018,002,2024_Jan_05_1206,MFTM_A_new1021,2021.2.3,59.54652934580645,
,,,,,,,,stim/Instruction_adaptive.png,conditions/adaptive.xlsx,test,0.6,0.6,0.6,-0.6,-0.6,right,R,,,,,0,1,1,1,0,88,88,58,,,,,,,,,,,,,,,,,,,,,,,,,,,,,,,,,,,,,,,,,,,,480.90593870007433,None,right,1,1.630254999967292,481.407363000093,483.1427070000209,481.407363000093,482.6424258000916,481.407363000093,482.6424258000916,481.407363000093,482.6424258000916,481.407363000093,482.6424258000916,481.407363000093,482.6424258000916,482.60940539999865,483.1091544000665,482.60940539999865,483.1091544000665,482.60940539999865,483.1091544000665,482.60940539999865,483.1091544000665,482.60940539999865,483.1091544000665,482.60940539999865,483.1091544000665,482.60940539999865,483.1091544000665,482.60940539999865,483.1091544000665,481.407363000093,None,483.1091544000665,484.39455359999556,1.2200000000000009,484.4111879999982,None,485.16281140001956,None,,,,,,,[[1.28]],2.4600000000000017,0.7191011235955056,11018,002,2024_Jan_05_1206,MFTM_A_new1021,2021.2.3,59.54652934580645,
,,,,,,,,stim/Instruction_adaptive.png,conditions/adaptive.xlsx,test,-0.6,-0.6,-0.6,0.6,0.6,left,L,,,,,0,1,1,1,0,89,89,7,,,,,,,,,,,,,,,,,,,,,,,,,,,,,,,,,,,,,,,,,,,,485.663019800093,None,left,1,1.3610464000375941,486.1644741999917,487.8668209000025,486.1644741999917,487.365646500024,486.1644741999917,487.365646500024,486.1644741999917,487.365646500024,486.1644741999917,487.365646500024,486.1644741999917,487.365646500024,487.3489925999893,487.849654700025,487.3489925999893,487.849654700025,487.3489925999893,487.849654700025,487.3489925999893,487.849654700025,487.3489925999893,487.849654700025,487.3489925999893,487.849654700025,487.3489925999893,487.849654700025,487.3489925999893,487.849654700025,486.1644741999917,None,487.849654700025,489.15159020002466,1.2000000000000008,489.16854400001466,None,489.91977070004214,None,,,,,,,[[1.3]],2.4800000000000018,0.7222222222222222,11018,002,2024_Jan_05_1206,MFTM_A_new1021,2021.2.3,59.54652934580645,
,,,,,,,,stim/Instruction_adaptive.png,conditions/adaptive.xlsx,test,-0.6,-0.6,-0.6,0.6,0.6,left,L,,,,,0,1,1,1,0,90,90,91,,,,,,,,,,,,,,,,,,,,,,,,,,,,,,,,,,,,,,,,,,,,490.4204893000424,None,left,1,0.9723682999610901,490.92155560001265,492.6065862000687,490.92155560001265,492.10625340009574,490.92155560001265,492.10625340009574,490.92155560001265,492.10625340009574,490.92155560001265,492.10625340009574,490.92155560001265,492.10625340009574,492.0895113000879,492.5902793999994,492.0895113000879,492.5902793999994,492.0895113000879,492.5902793999994,492.0895113000879,492.5902793999994,492.0895113000879,492.5902793999994,492.0895113000879,492.5902793999994,492.0895113000879,492.5902793999994,492.0895113000879,492.5902793999994,490.92155560001265,None,492.5902793999994,None,1.1800000000000008,493.92583240009844,None,494.6764100000728,None,,,,,,,[[1.32]],2.5000000000000018,0.7252747252747253,11018,002,2024_Jan_05_1206,MFTM_A_new1021,2021.2.3,59.54652934580645,
,,,,,,,,stim/Instruction_adaptive.png,conditions/adaptive.xlsx,test,0.6,0.6,0.6,-0.6,-0.6,right,R,,,,,0,1,1,1,0,91,91,66,,,,,,,,,,,,,,,,,,,,,,,,,,,,,,,,,,,,,,,,,,,,495.17721730004996,None,right,1,1.3278049000073224,495.67771950003225,497.34784629999194,495.67771950003225,496.84766620001756,495.67771950003225,496.84766620001756,495.67771950003225,496.84766620001756,495.67771950003225,496.84766620001756,495.67771950003225,496.84766620001756,496.82944930007216,497.3305920000421,496.82944930007216,497.3305920000421,496.82944930007216,497.3305920000421,496.82944930007216,497.3305920000421,496.82944930007216,497.3305920000421,496.82944930007216,497.3305920000421,496.82944930007216,497.3305920000421,496.82944930007216,497.3305920000421,495.67771950003225,None,497.3305920000421,None,1.1600000000000008,498.68226820009295,None,499.4339441000484,None,,,,,,,[[1.34]],2.530000000000002,0.7282608695652174,11018,002,2024_Jan_05_1206,MFTM_A_new1021,2021.2.3,59.54652934580645,
,,,,,,,,stim/Instruction_adaptive.png,conditions/adaptive.xlsx,test,-0.6,-0.6,-0.6,0.6,0.6,left,L,,,,,0,1,1,1,0,92,92,63,,,,,,,,,,,,,,,,,,,,,,,,,,,,,,,,,,,,,,,,,,,,499.9342864000937,None,left,1,2.0261587999993935,500.4354545000242,502.08821060007904,500.4354545000242,501.58651659998577,500.4354545000242,501.58651659998577,500.4354545000242,501.58651659998577,500.4354545000242,501.58651659998577,500.4354545000242,501.58651659998577,501.5530586000532,502.05379919998813,501.5530586000532,502.05379919998813,501.5530586000532,502.05379919998813,501.5530586000532,502.05379919998813,501.5530586000532,502.05379919998813,501.5530586000532,502.05379919998813,501.5530586000532,502.05379919998813,501.5530586000532,502.05379919998813,500.4354545000242,None,502.05379919998813,503.4065677000908,1.1400000000000008,503.4398089000024,None,504.19040349998977,None,,,,,,,[1.35182796],2.5500000000000016,0.7311827956989247,11018,002,2024_Jan_05_1206,MFTM_A_new1021,2021.2.3,59.54652934580645,
