arrwidth1,arrwidth2,arrwidth3,arrwidth4,arrwidth5,keyb,type,orientation,instruction_image,block_filename,block_type,arrow11,arrow22,arrow33,arrow44,arrow55,keyb_3,orientation3,trials.thisRepN,trials.thisTrialN,trials.thisN,trials.thisIndex,trials_3.thisRepN,trials_3.thisTrialN,trials_3.thisN,trials_3.thisIndex,trials_2.thisRepN,trials_2.thisTrialN,trials_2.thisN,trials_2.thisIndex,welcome.started,welcome.stopped,key_resp.keys,key_resp.rt,key_resp.started,key_resp.stopped,instruction_example.started,instruction_example.stopped,key_resp_3.keys,key_resp_3.rt,key_resp_3.started,key_resp_3.stopped,instruction_task.started,instruction_task.stopped,key_resp_2.keys,key_resp_2.rt,key_resp_2.started,key_resp_2.stopped,text_2.started,text_2.stopped,A1.started,A1.stopped,A2.started,A2.stopped,A3.started,A3.stopped,A4.started,A4.stopped,A5.started,A5.stopped,key_resp_4.keys,key_resp_4.corr,key_resp_4.rt,key_resp_4.started,key_resp_4.stopped,fb.started,fb.stopped,instruction_block.started,instruction_block.stopped,key_resp_8.keys,key_resp_8.rt,key_resp_8.started,key_resp_8.stopped,text_8.started,text_8.stopped,key_resp_9.keys,key_resp_9.corr,key_resp_9.rt,text_5.started,text_5.stopped,A11_3.started,A11_3.stopped,A22_2.started,A22_2.stopped,A33_2.started,A33_2.stopped,A44_2.started,A44_2.stopped,A55_2.started,A55_2.stopped,M1_3.started,M1_3.stopped,M2_2.started,M2_2.stopped,M3_2.started,M3_2.stopped,M4_2.started,M4_2.stopped,M5_2.started,M5_2.stopped,M6_2.started,M6_2.stopped,M7_2.started,M7_2.stopped,M8_2.started,M8_2.stopped,key_resp_9.started,key_resp_9.stopped,fixation.started,fixation.stopped,ET,fb_3.started,fb_3.stopped,text_9.started,text_9.stopped,fb_4.started,fb_4.stopped,text_7.started,text_7.stopped,endtext.started,endtext.stopped,fixation_ITI,CCC,Acc,participant,session,date,expName,psychopyVersion,frameRate,
,,,,,,,,,,,,,,,,,,,,,,,,,,,,,,9.515428300015628,None,right,7.675429400056601,9.515428300015628,None,,,,,,,,,,,,,,,,,,,,,,,,,,,,,,,,,,,,,,,,,,,,,,,,,,,,,,,,,,,,,,,,,,,,,,,,,,,,,,,,,,,,,,,,,11026,001,2024_Jan_10_0957,MFTM_A_new1021,2021.2.3,59.993400703609076,
,,,,,,,,,,,,,,,,,,,,,,,,,,,,,,,,,,,,17.210115500027314,None,right,15.396259900182486,17.210115500027314,None,,,,,,,,,,,,,,,,,,,,,,,,,,,,,,,,,,,,,,,,,,,,,,,,,,,,,,,,,,,,,,,,,,,,,,,,,,,,,,,,,,,11026,001,2024_Jan_10_0957,MFTM_A_new1021,2021.2.3,59.993400703609076,
,,,,,,,,,,,,,,,,,,,,,,,,,,,,,,,,,,,,,,,,,,32.633076899917796,None,right,8.24581370013766,32.633076899917796,None,,,,,,,,,,,,,,,,,,,,,,,,,,,,,,,,,,,,,,,,,,,,,,,,,,,,,,,,,,,,,,,,,,,,,,,,,,,,,11026,001,2024_Jan_10_0957,MFTM_A_new1021,2021.2.3,59.993400703609076,
0.6,0.6,0.6,-0.6,-0.6,right,3:2,R,,,,,,,,,,,0,0,0,0,,,,,,,,,,,,,,,,,,,,,,,,,,,40.91249169991352,None,40.91249169991352,None,40.91249169991352,None,40.91249169991352,None,40.91249169991352,None,40.91249169991352,None,right,1,1.966343600070104,40.91249169991352,None,42.91552240005694,None,,,,,,,,,,,,,,,,,,,,,,,,,,,,,,,,,,,,,,,,,,,,,,,,,,,,,,,,,,11026,001,2024_Jan_10_0957,MFTM_A_new1021,2021.2.3,59.993400703609076,
-0.6,-0.6,-0.6,0.6,0.6,left,3:2,L,,,,,,,,,,,0,1,1,1,,,,,,,,,,,,,,,,,,,,,,,,,,,43.66667479998432,None,43.66667479998432,None,43.66667479998432,None,43.66667479998432,None,43.66667479998432,None,43.66667479998432,None,left,1,1.9484466998837888,43.66667479998432,None,45.6359317000024,None,,,,,,,,,,,,,,,,,,,,,,,,,,,,,,,,,,,,,,,,,,,,,,,,,,,,,,,,,,11026,001,2024_Jan_10_0957,MFTM_A_new1021,2021.2.3,59.993400703609076,
0.6,0.6,0.6,-0.6,-0.6,right,3:2,R,,,,,,,,,,,1,0,2,0,,,,,,,,,,,,,,,,,,,,,,,,,,,46.38698239997029,None,46.38698239997029,None,46.38698239997029,None,46.38698239997029,None,46.38698239997029,None,46.38698239997029,None,right,1,3.179558699950576,46.38698239997029,None,49.59163310006261,None,,,,,,,,,,,,,,,,,,,,,,,,,,,,,,,,,,,,,,,,,,,,,,,,,,,,,,,,,,11026,001,2024_Jan_10_0957,MFTM_A_new1021,2021.2.3,59.993400703609076,
-0.6,-0.6,-0.6,0.6,0.6,left,3:2,L,,,,,,,,,,,1,1,3,1,,,,,,,,,,,,,,,,,,,,,,,,,,,50.34273510007188,None,50.34273510007188,None,50.34273510007188,None,50.34273510007188,None,50.34273510007188,None,50.34273510007188,None,left,1,1.9048808999359608,50.34273510007188,None,52.262213999871165,None,,,,,,,,,,,,,,,,,,,,,,,,,,,,,,,,,,,,,,,,,,,,,,,,,,,,,,,,,,11026,001,2024_Jan_10_0957,MFTM_A_new1021,2021.2.3,59.993400703609076,
,,,,,,,,stim/Instruction_mask.png,conditions/adaptive.xlsx,practice,0.6,0.6,0.6,-0.6,-0.6,right,R,,,,,0,0,0,0,0,0,0,30,,,,,,,,,,,,,,,,,,,,,,,,,,,,,,,,,,,,,,53.213492000009865,None,right,30.921027899952605,53.213492000009865,None,84.24374260008335,None,right,1,2.961855199886486,84.67676539998502,None,84.67676539998502,87.68152759992518,84.67676539998502,87.68152759992518,84.67676539998502,87.68152759992518,84.67676539998502,87.68152759992518,84.67676539998502,87.68152759992518,87.66467530000955,88.16550879995339,87.66467530000955,88.16550879995339,87.66467530000955,88.16550879995339,87.66467530000955,88.16550879995339,87.66467530000955,88.16550879995339,87.66467530000955,88.16550879995339,87.66467530000955,88.16550879995339,87.66467530000955,88.16550879995339,84.67676539998502,None,88.16550879995339,88.16550879995339,3,88.18205760000274,None,88.93518409994431,None,,,,,,,,,,11026,001,2024_Jan_10_0957,MFTM_A_new1021,2021.2.3,59.993400703609076,
,,,,,,,,stim/Instruction_mask.png,conditions/adaptive.xlsx,practice,-0.6,-0.6,-0.6,0.6,0.6,left,L,,,,,0,0,0,0,0,1,1,3,,,,,,,,,,,,,,,,,,,,,,,,,,,,,,,,,,,,,,,,,,,,89.43397479993291,None,left,1,1.824223999865353,89.93484549992718,91.9377480999101,89.93484549992718,91.43812639988028,89.93484549992718,91.43812639988028,89.93484549992718,91.43812639988028,89.93484549992718,91.43812639988028,89.93484549992718,91.43812639988028,91.42099660006352,91.92186579992995,91.42099660006352,91.92186579992995,91.42099660006352,91.92186579992995,91.42099660006352,91.92186579992995,91.42099660006352,91.92186579992995,91.42099660006352,91.92186579992995,91.42099660006352,91.92186579992995,91.42099660006352,91.92186579992995,89.93484549992718,None,91.92186579992995,93.4232411000412,1.5,93.43984319991432,None,94.19162099994719,None,,,,,,,,,,11026,001,2024_Jan_10_0957,MFTM_A_new1021,2021.2.3,59.993400703609076,
,,,,,,,,stim/Instruction_mask.png,conditions/adaptive.xlsx,practice,0.6,0.6,0.6,-0.6,-0.6,right,R,,,,,0,0,0,0,0,2,2,14,,,,,,,,,,,,,,,,,,,,,,,,,,,,,,,,,,,,,,,,,,,,94.69274659990333,None,left,0,1.4703728000167757,95.19256419991143,96.49469479988329,95.19256419991143,95.9945115998853,95.19256419991143,95.9945115998853,95.19256419991143,95.9945115998853,95.19256419991143,95.9945115998853,95.19256419991143,95.9945115998853,95.97799369995482,96.47782519995235,95.97799369995482,96.47782519995235,95.97799369995482,96.47782519995235,95.97799369995482,96.47782519995235,95.97799369995482,96.47782519995235,95.97799369995482,96.47782519995235,95.97799369995482,96.47782519995235,95.97799369995482,96.47782519995235,95.19256419991143,None,96.47782519995235,98.68164259986952,0.8,98.6970937999431,None,99.44883150001988,None,,,,,,,,,,11026,001,2024_Jan_10_0957,MFTM_A_new1021,2021.2.3,59.993400703609076,
,,,,,,,,stim/Instruction_mask.png,conditions/adaptive.xlsx,practice,0.6,0.6,0.6,-0.6,-0.6,right,R,,,,,0,0,0,0,0,3,3,12,,,,,,,,,,,,,,,,,,,,,,,,,,,,,,,,,,,,,,,,,,,,99.94967980007641,None,right,1,2.404434199910611,100.45028609992005,101.20270229992457,100.45028609992005,100.70134490006603,100.45028609992005,100.70134490006603,100.45028609992005,100.70134490006603,100.45028609992005,100.70134490006603,100.45028609992005,100.70134490006603,100.68414469994605,101.1848104998935,100.68414469994605,101.1848104998935,100.68414469994605,101.1848104998935,100.68414469994605,101.1848104998935,100.68414469994605,101.1848104998935,100.68414469994605,101.1848104998935,100.68414469994605,101.1848104998935,100.68414469994605,101.1848104998935,100.45028609992005,None,101.1848104998935,103.9387934000697,3,103.95536500005983,None,104.70719340001233,None,,,,,,,,,,11026,001,2024_Jan_10_0957,MFTM_A_new1021,2021.2.3,59.993400703609076,
,,,,,,,,stim/Instruction_mask.png,conditions/adaptive.xlsx,practice,,,,,,,,,,,,0,0,0,0,,,,,,,,,,,,,,,,,,,,,,,,,,,,,,,,,,,,,,,,,,,,,,,,,,,,,,,,,,,,,,,,,,,,,,,,,,,,,,,,,,,,,,,,,,105.24096369999461,106.24292439990677,106.22623210004531,106.22623210004531,106.22623210004531,None,,,,11026,001,2024_Jan_10_0957,MFTM_A_new1021,2021.2.3,59.993400703609076,
,,,,,,,,stim/Instruction_adaptive.png,conditions/adaptive.xlsx,test,0.6,0.6,0.6,-0.6,-0.6,right,R,,,,,0,1,1,1,0,0,0,16,,,,,,,,,,,,,,,,,,,,,,,,,,,,,,,,,,,,,,109.34596819989383,None,right,26.716596900019795,109.34596819989383,None,136.10276810009964,None,right,1,1.9705884999129921,136.6040133999195,None,136.6040133999195,139.60844870004803,136.6040133999195,139.60844870004803,136.6040133999195,139.60844870004803,136.6040133999195,139.60844870004803,136.6040133999195,139.60844870004803,139.5921054999344,140.09299609996378,139.5921054999344,140.09299609996378,139.5921054999344,140.09299609996378,139.5921054999344,140.09299609996378,139.5921054999344,140.09299609996378,139.5921054999344,140.09299609996378,139.5921054999344,140.09299609996378,139.5921054999344,140.09299609996378,136.6040133999195,None,140.09299609996378,140.09299609996378,3,140.1096767000854,None,140.86076619988307,None,,,,,,,0,6.000000000000005,1.0,11026,001,2024_Jan_10_0957,MFTM_A_new1021,2021.2.3,59.993400703609076,
,,,,,,,,stim/Instruction_adaptive.png,conditions/adaptive.xlsx,test,0.6,0.6,0.6,-0.6,-0.6,right,R,,,,,0,1,1,1,0,1,1,72,,,,,,,,,,,,,,,,,,,,,,,,,,,,,,,,,,,,,,,,,,,,141.360811999999,None,right,1,2.4804706000722945,141.86226839991286,142.61293320008554,141.86226839991286,142.11199090001173,141.86226839991286,142.11199090001173,141.86226839991286,142.11199090001173,141.86226839991286,142.11199090001173,141.86226839991286,142.11199090001173,142.0954656000249,142.59668840002269,142.0954656000249,142.59668840002269,142.0954656000249,142.59668840002269,142.0954656000249,142.59668840002269,142.0954656000249,142.59668840002269,142.0954656000249,142.59668840002269,142.0954656000249,142.59668840002269,142.0954656000249,142.59668840002269,141.86226839991286,None,142.59668840002269,144.36544930003583,0.25,144.38208139990456,None,145.13334270007908,None,,,,,,,[0.875],6.000000000000005,1.0,11026,001,2024_Jan_10_0957,MFTM_A_new1021,2021.2.3,59.993400703609076,
,,,,,,,,stim/Instruction_adaptive.png,conditions/adaptive.xlsx,test,0.6,0.6,0.6,-0.6,-0.6,right,R,,,,,0,1,1,1,0,2,2,90,,,,,,,,,,,,,,,,,,,,,,,,,,,,,,,,,,,,,,,,,,,,145.63529170001857,None,left,0,0.6723215999081731,146.1345416000113,146.8858717000112,146.1345416000113,146.38499739998952,146.1345416000113,146.38499739998952,146.1345416000113,146.38499739998952,146.1345416000113,146.38499739998952,146.1345416000113,146.38499739998952,146.3683114000596,146.87007940001786,146.3683114000596,146.87007940001786,146.3683114000596,146.87007940001786,146.3683114000596,146.87007940001786,146.3683114000596,146.87007940001786,146.3683114000596,146.87007940001786,146.3683114000596,146.87007940001786,146.3683114000596,146.87007940001786,146.1345416000113,None,146.87007940001786,148.20570029993542,0.25,148.22078089998104,None,148.9722347999923,None,,,,,,,[1.33333333],3.1800000000000024,0.6666666666666666,11026,001,2024_Jan_10_0957,MFTM_A_new1021,2021.2.3,59.993400703609076,
,,,,,,,,stim/Instruction_adaptive.png,conditions/adaptive.xlsx,test,-0.6,-0.6,-0.6,0.6,0.6,left,L,,,,,0,1,1,1,0,3,3,73,,,,,,,,,,,,,,,,,,,,,,,,,,,,,,,,,,,,,,,,,,,,149.4740553998854,None,left,1,1.5136609999462962,149.97359759989195,151.20875109988265,149.97359759989195,150.70800079987384,149.97359759989195,150.70800079987384,149.97359759989195,150.70800079987384,149.97359759989195,150.70800079987384,149.97359759989195,150.70800079987384,150.6914089000784,151.19230409990996,150.6914089000784,151.19230409990996,150.6914089000784,151.19230409990996,150.6914089000784,151.19230409990996,150.6914089000784,151.19230409990996,150.6914089000784,151.19230409990996,150.6914089000784,151.19230409990996,150.6914089000784,151.19230409990996,149.97359759989195,None,151.19230409990996,152.64673869987018,0.7300000000000004,152.66077889990993,None,153.41269659996033,None,,,,,,,[1.4425],4.030000000000003,0.75,11026,001,2024_Jan_10_0957,MFTM_A_new1021,2021.2.3,59.993400703609076,
,,,,,,,,stim/Instruction_adaptive.png,conditions/adaptive.xlsx,test,-0.6,-0.6,-0.6,0.6,0.6,left,L,,,,,0,1,1,1,0,4,4,27,,,,,,,,,,,,,,,,,,,,,,,,,,,,,,,,,,,,,,,,,,,,153.91302099986933,None,left,1,0.8482204999309033,154.4143979998771,155.3164436998777,154.4143979998771,154.81425990001298,154.4143979998771,154.81425990001298,154.4143979998771,154.81425990001298,154.4143979998771,154.81425990001298,154.4143979998771,154.81425990001298,154.79815599997528,155.29827530006878,154.79815599997528,155.29827530006878,154.79815599997528,155.29827530006878,154.79815599997528,155.29827530006878,154.79815599997528,155.29827530006878,154.79815599997528,155.29827530006878,154.79815599997528,155.29827530006878,154.79815599997528,155.29827530006878,154.4143979998771,None,155.29827530006878,156.88404019991867,0.40000000000000013,156.90056179999374,None,157.65210220008157,None,,,,,,,[1.574],4.550000000000003,0.8,11026,001,2024_Jan_10_0957,MFTM_A_new1021,2021.2.3,59.993400703609076,
,,,,,,,,stim/Instruction_adaptive.png,conditions/adaptive.xlsx,test,-0.6,-0.6,-0.6,0.6,0.6,left,L,,,,,0,1,1,1,0,5,5,21,,,,,,,,,,,,,,,,,,,,,,,,,,,,,,,,,,,,,,,,,,,,158.15248250006698,None,left,1,0.6414759999606758,158.65329389995895,159.43827959988266,158.65329389995895,158.93693100009114,158.65329389995895,158.93693100009114,158.65329389995895,158.93693100009114,158.65329389995895,158.93693100009114,158.65329389995895,158.93693100009114,158.92086219997145,159.42191969999112,158.92086219997145,159.42191969999112,158.92086219997145,159.42191969999112,158.92086219997145,159.42191969999112,158.92086219997145,159.42191969999112,158.92086219997145,159.42191969999112,158.92086219997145,159.42191969999112,158.92086219997145,159.42191969999112,158.65329389995895,None,159.42191969999112,161.1073920999188,0.28,161.12386390008032,None,161.87443020008504,None,,,,,,,[1.68166667],4.910000000000004,0.8333333333333334,11026,001,2024_Jan_10_0957,MFTM_A_new1021,2021.2.3,59.993400703609076,
,,,,,,,,stim/Instruction_adaptive.png,conditions/adaptive.xlsx,test,0.6,0.6,0.6,-0.6,-0.6,right,R,,,,,0,1,1,1,0,6,6,96,,,,,,,,,,,,,,,,,,,,,,,,,,,,,,,,,,,,,,,,,,,,162.37543660006486,None,right,1,0.5065438998863101,162.87630570004694,163.62743970006704,162.87630570004694,163.1271601000335,162.87630570004694,163.1271601000335,162.87630570004694,163.1271601000335,162.87630570004694,163.1271601000335,162.87630570004694,163.1271601000335,163.10983860003762,163.61055290000513,163.10983860003762,163.61055290000513,163.10983860003762,163.61055290000513,163.10983860003762,163.61055290000513,163.10983860003762,163.61055290000513,163.10983860003762,163.61055290000513,163.10983860003762,163.61055290000513,163.10983860003762,163.61055290000513,162.87630570004694,None,163.61055290000513,165.38097659987397,0.25,165.39651970006526,None,166.14770140009932,None,,,,,,,[1.76285714],5.180000000000004,0.8571428571428571,11026,001,2024_Jan_10_0957,MFTM_A_new1021,2021.2.3,59.993400703609076,
,,,,,,,,stim/Instruction_adaptive.png,conditions/adaptive.xlsx,test,-0.6,-0.6,-0.6,0.6,0.6,left,L,,,,,0,1,1,1,0,7,7,43,,,,,,,,,,,,,,,,,,,,,,,,,,,,,,,,,,,,,,,,,,,,166.64856419991702,None,left,1,0.4170886001084,167.14987129997462,167.9003645000048,167.14987129997462,167.39934840006754,167.14987129997462,167.39934840006754,167.14987129997462,167.39934840006754,167.14987129997462,167.39934840006754,167.14987129997462,167.39934840006754,167.3832258998882,167.8836809999775,167.3832258998882,167.8836809999775,167.3832258998882,167.8836809999775,167.3832258998882,167.8836809999775,167.3832258998882,167.8836809999775,167.3832258998882,167.8836809999775,167.3832258998882,167.8836809999775,167.3832258998882,167.8836809999775,167.14987129997462,None,167.8836809999775,169.7200964000076,0.25,169.73688059998676,None,170.48761599999852,None,,,,,,,[1.82375],5.380000000000004,0.875,11026,001,2024_Jan_10_0957,MFTM_A_new1021,2021.2.3,59.993400703609076,
,,,,,,,,stim/Instruction_adaptive.png,conditions/adaptive.xlsx,test,0.6,0.6,0.6,-0.6,-0.6,right,R,,,,,0,1,1,1,0,8,8,36,,,,,,,,,,,,,,,,,,,,,,,,,,,,,,,,,,,,,,,,,,,,170.98829260002822,None,right,1,0.4458779999986291,171.48886319994926,172.2399273000192,171.48886319994926,171.7396436999552,171.48886319994926,171.7396436999552,171.48886319994926,171.7396436999552,171.48886319994926,171.7396436999552,171.48886319994926,171.7396436999552,171.72263099998236,172.2236264999956,171.72263099998236,172.2236264999956,171.72263099998236,172.2236264999956,171.72263099998236,172.2236264999956,171.72263099998236,172.2236264999956,171.72263099998236,172.2236264999956,171.72263099998236,172.2236264999956,171.72263099998236,172.2236264999956,171.48886319994926,None,172.2236264999956,None,0.25,174.10953300003894,None,174.86132299993187,None,,,,,,,[1.87111111],5.550000000000004,0.8888888888888888,11026,001,2024_Jan_10_0957,MFTM_A_new1021,2021.2.3,59.993400703609076,
,,,,,,,,stim/Instruction_adaptive.png,conditions/adaptive.xlsx,test,0.6,0.6,0.6,-0.6,-0.6,right,R,,,,,0,1,1,1,0,9,9,4,,,,,,,,,,,,,,,,,,,,,,,,,,,,,,,,,,,,,,,,,,,,175.36137120006606,None,left,0,0.5280929999426007,175.86265869997442,176.6132042000536,175.86265869997442,176.11279370007105,175.86265869997442,176.11279370007105,175.86265869997442,176.11279370007105,175.86265869997442,176.11279370007105,175.86265869997442,176.11279370007105,176.09572419989854,176.59707450005226,176.09572419989854,176.59707450005226,176.09572419989854,176.59707450005226,176.09572419989854,176.59707450005226,176.09572419989854,176.59707450005226,176.09572419989854,176.59707450005226,176.09572419989854,176.59707450005226,176.09572419989854,176.59707450005226,175.86265869997442,None,176.59707450005226,178.51685100002214,0.25,178.53264550003223,None,179.28414579993114,None,,,,,,,[1.909],4.830000000000004,0.8,11026,001,2024_Jan_10_0957,MFTM_A_new1021,2021.2.3,59.993400703609076,
,,,,,,,,stim/Instruction_adaptive.png,conditions/adaptive.xlsx,test,0.6,0.6,0.6,-0.6,-0.6,right,R,,,,,0,1,1,1,0,10,10,76,,,,,,,,,,,,,,,,,,,,,,,,,,,,,,,,,,,,,,,,,,,,179.78461229987442,None,right,1,0.5376707999967039,180.2853463999927,181.03707710001618,180.2853463999927,180.5367817999795,180.2853463999927,180.5367817999795,180.2853463999927,180.5367817999795,180.2853463999927,180.5367817999795,180.2853463999927,180.5367817999795,180.51926969992928,181.02066699997522,180.51926969992928,181.02066699997522,180.51926969992928,181.02066699997522,180.51926969992928,181.02066699997522,180.51926969992928,181.02066699997522,180.51926969992928,181.02066699997522,180.51926969992928,181.02066699997522,180.51926969992928,181.02066699997522,180.2853463999927,None,181.02066699997522,182.97326770005748,0.25,182.988948199898,None,183.7405957998708,None,,,,,,,[1.94],5.010000000000004,0.8181818181818182,11026,001,2024_Jan_10_0957,MFTM_A_new1021,2021.2.3,59.993400703609076,
,,,,,,,,stim/Instruction_adaptive.png,conditions/adaptive.xlsx,test,-0.6,-0.6,-0.6,0.6,0.6,left,L,,,,,0,1,1,1,0,11,11,79,,,,,,,,,,,,,,,,,,,,,,,,,,,,,,,,,,,,,,,,,,,,184.2411460999865,None,right,0,0.6489717999938875,184.74184029991738,185.49298299988732,184.74184029991738,184.99198490008712,184.74184029991738,184.99198490008712,184.74184029991738,184.99198490008712,184.74184029991738,184.99198490008712,184.74184029991738,184.99198490008712,184.97558169998229,185.47638479992747,184.97558169998229,185.47638479992747,184.97558169998229,185.47638479992747,184.97558169998229,185.47638479992747,184.97558169998229,185.47638479992747,184.97558169998229,185.47638479992747,184.97558169998229,185.47638479992747,184.97558169998229,185.47638479992747,184.74184029991738,None,185.47638479992747,187.44645230006427,0.25,187.46199989994057,None,188.213714200072,None,,,,,,,[1.96583333],4.480000000000004,0.75,11026,001,2024_Jan_10_0957,MFTM_A_new1021,2021.2.3,59.993400703609076,
,,,,,,,,stim/Instruction_adaptive.png,conditions/adaptive.xlsx,test,0.6,0.6,0.6,-0.6,-0.6,right,R,,,,,0,1,1,1,0,12,12,74,,,,,,,,,,,,,,,,,,,,,,,,,,,,,,,,,,,,,,,,,,,,188.71462829993106,None,left,0,1.879662400111556,189.21509419986978,190.01707469997928,189.21509419986978,189.51558059989475,189.21509419986978,189.51558059989475,189.21509419986978,189.51558059989475,189.21509419986978,189.51558059989475,189.21509419986978,189.51558059989475,189.4822140999604,189.98302989988588,189.4822140999604,189.98302989988588,189.4822140999604,189.98302989988588,189.4822140999604,189.98302989988588,189.4822140999604,189.98302989988588,189.4822140999604,189.98302989988588,189.4822140999604,189.98302989988588,189.4822140999604,189.98302989988588,189.21509419986978,None,189.98302989988588,191.9707241000142,0.29000000000000004,192.00264739990234,None,192.7541135000065,None,,,,,,,[1.98461538],3.940000000000003,0.6923076923076923,11026,001,2024_Jan_10_0957,MFTM_A_new1021,2021.2.3,59.993400703609076,
,,,,,,,,stim/Instruction_adaptive.png,conditions/adaptive.xlsx,test,-0.6,-0.6,-0.6,0.6,0.6,left,L,,,,,0,1,1,1,0,13,13,11,,,,,,,,,,,,,,,,,,,,,,,,,,,,,,,,,,,,,,,,,,,,193.25469910004176,None,left,1,1.5234485999681056,193.75603930000216,194.69042770005763,193.75603930000216,194.18913959991187,193.75603930000216,194.18913959991187,193.75603930000216,194.18913959991187,193.75603930000216,194.18913959991187,193.75603930000216,194.18913959991187,194.17232659994625,194.67327230004594,194.17232659994625,194.67327230004594,194.17232659994625,194.67327230004594,194.17232659994625,194.67327230004594,194.17232659994625,194.67327230004594,194.17232659994625,194.67327230004594,194.17232659994625,194.67327230004594,194.17232659994625,194.67327230004594,193.75603930000216,None,194.67327230004594,None,0.43000000000000016,196.67654490005225,None,197.429870699998,None,,,,,,,[1.99071429],4.160000000000004,0.7142857142857143,11026,001,2024_Jan_10_0957,MFTM_A_new1021,2021.2.3,59.993400703609076,
,,,,,,,,stim/Instruction_adaptive.png,conditions/adaptive.xlsx,test,-0.6,-0.6,-0.6,0.6,0.6,left,L,,,,,0,1,1,1,0,14,14,45,,,,,,,,,,,,,,,,,,,,,,,,,,,,,,,,,,,,,,,,,,,,197.92805629991926,None,left,1,1.593270500190556,198.42933139996603,199.31346309999935,198.42933139996603,198.8128184999805,198.42933139996603,198.8128184999805,198.42933139996603,198.8128184999805,198.42933139996603,198.8128184999805,198.42933139996603,198.8128184999805,198.77923640003428,199.27998959994875,198.77923640003428,199.27998959994875,198.77923640003428,199.27998959994875,198.77923640003428,199.27998959994875,198.77923640003428,199.27998959994875,198.77923640003428,199.27998959994875,198.77923640003428,199.27998959994875,198.77923640003428,199.27998959994875,198.42933139996603,None,199.27998959994875,201.28330149990506,0.3700000000000001,201.29971419996582,None,202.05063980002888,None,,,,,,,[2.],4.340000000000003,0.7333333333333333,11026,001,2024_Jan_10_0957,MFTM_A_new1021,2021.2.3,59.993400703609076,
,,,,,,,,stim/Instruction_adaptive.png,conditions/adaptive.xlsx,test,0.6,0.6,0.6,-0.6,-0.6,right,R,,,,,0,1,1,1,0,15,15,12,,,,,,,,,,,,,,,,,,,,,,,,,,,,,,,,,,,,,,,,,,,,202.55213050008751,None,left,0,2.138237099861726,203.05252470006235,203.8868748000823,203.05252470006235,203.38616760005243,203.05252470006235,203.38616760005243,203.05252470006235,203.38616760005243,203.05252470006235,203.38616760005243,203.05252470006235,203.38616760005243,203.3526480998844,203.85357489995658,203.3526480998844,203.85357489995658,203.3526480998844,203.85357489995658,203.3526480998844,203.85357489995658,203.3526480998844,203.85357489995658,203.3526480998844,203.85357489995658,203.3526480998844,203.85357489995658,203.3526480998844,203.85357489995658,203.05252470006235,None,203.85357489995658,205.87353240000084,0.32000000000000006,205.88985879998654,None,206.64168739994057,None,,,,,,,[2.01125],3.8900000000000032,0.6875,11026,001,2024_Jan_10_0957,MFTM_A_new1021,2021.2.3,59.993400703609076,
,,,,,,,,stim/Instruction_adaptive.png,conditions/adaptive.xlsx,test,-0.6,-0.6,-0.6,0.6,0.6,left,L,,,,,0,1,1,1,0,16,16,89,,,,,,,,,,,,,,,,,,,,,,,,,,,,,,,,,,,,,,,,,,,,207.1423722000327,None,right,0,1.6442460999824107,207.64246980007738,208.59483990003355,207.64246980007738,208.0928925999906,207.64246980007738,208.0928925999906,207.64246980007738,208.0928925999906,207.64246980007738,208.0928925999906,207.64246980007738,208.0928925999906,208.06032430008054,208.5605945000425,208.06032430008054,208.5605945000425,208.06032430008054,208.5605945000425,208.06032430008054,208.5605945000425,208.06032430008054,208.5605945000425,208.06032430008054,208.5605945000425,208.06032430008054,208.5605945000425,208.06032430008054,208.5605945000425,207.64246980007738,None,208.5605945000425,210.58023529988714,0.44000000000000017,210.59693889995106,None,211.34832069999538,None,,,,,,,[2.01411765],3.3400000000000025,0.6470588235294118,11026,001,2024_Jan_10_0957,MFTM_A_new1021,2021.2.3,59.993400703609076,
,,,,,,,,stim/Instruction_adaptive.png,conditions/adaptive.xlsx,test,0.6,0.6,0.6,-0.6,-0.6,right,R,,,,,0,1,1,1,0,17,17,60,,,,,,,,,,,,,,,,,,,,,,,,,,,,,,,,,,,,,,,,,,,,211.8486997000873,None,None,0,0,212.34975209995173,213.50164099992253,212.34975209995173,213.00045779999346,212.34975209995173,213.00045779999346,212.34975209995173,213.00045779999346,212.34975209995173,213.00045779999346,212.34975209995173,213.00045779999346,212.98433679994196,213.4851939000655,212.98433679994196,213.4851939000655,212.98433679994196,213.4851939000655,212.98433679994196,213.4851939000655,212.98433679994196,213.4851939000655,212.98433679994196,213.4851939000655,212.98433679994196,213.4851939000655,212.98433679994196,213.4851939000655,212.34975209995173,None,213.4851939000655,215.83897170005366,0.6500000000000004,215.87176049989648,None,216.62253789999522,None,,,,,,,[[2.35]],2.610000000000002,0.6111111111111112,11026,001,2024_Jan_10_0957,MFTM_A_new1021,2021.2.3,59.993400703609076,
,,,,,,,,stim/Instruction_adaptive.png,conditions/adaptive.xlsx,test,-0.6,-0.6,-0.6,0.6,0.6,left,L,,,,,0,1,1,1,0,18,18,3,,,,,,,,,,,,,,,,,,,,,,,,,,,,,,,,,,,,,,,,,,,,217.1242833000142,None,right,0,2.2465904001146555,217.62398550007492,219.20957829989493,217.62398550007492,218.70888999989256,217.62398550007492,218.70888999989256,217.62398550007492,218.70888999989256,217.62398550007492,218.70888999989256,217.62398550007492,218.70888999989256,218.6923078999389,219.19284150004387,218.6923078999389,219.19284150004387,218.6923078999389,219.19284150004387,218.6923078999389,219.19284150004387,218.6923078999389,219.19284150004387,218.6923078999389,219.19284150004387,218.6923078999389,219.19284150004387,218.6923078999389,219.19284150004387,217.62398550007492,None,219.19284150004387,None,1.0800000000000007,220.62851760000922,None,221.37952039996162,None,,,,,,,[[1.42]],1.510000000000001,0.5789473684210527,11026,001,2024_Jan_10_0957,MFTM_A_new1021,2021.2.3,59.993400703609076,
,,,,,,,,stim/Instruction_adaptive.png,conditions/adaptive.xlsx,test,0.6,0.6,0.6,-0.6,-0.6,right,R,,,,,0,1,1,1,0,19,19,78,,,,,,,,,,,,,,,,,,,,,,,,,,,,,,,,,,,,,,,,,,,,221.88021169998683,None,left,0,2.961656600004062,222.38109229994006,225.20321669988334,222.38109229994006,224.70201799995266,222.38109229994006,224.70201799995266,222.38109229994006,224.70201799995266,222.38109229994006,224.70201799995266,222.38109229994006,224.70201799995266,224.66813679994084,225.16922529996373,224.66813679994084,225.16922529996373,224.66813679994084,225.16922529996373,224.66813679994084,225.16922529996373,224.66813679994084,225.16922529996373,224.66813679994084,225.16922529996373,224.66813679994084,225.16922529996373,224.66813679994084,225.16922529996373,222.38109229994006,None,225.16922529996373,225.36862020008266,2.310000000000002,225.38561749993823,None,226.13814989989623,None,,,,,,,[[0.19]],0.5,0.55,11026,001,2024_Jan_10_0957,MFTM_A_new1021,2021.2.3,59.993400703609076,
,,,,,,,,stim/Instruction_adaptive.png,conditions/adaptive.xlsx,test,-0.6,-0.6,-0.6,0.6,0.6,left,L,,,,,0,1,1,1,0,20,20,17,,,,,,,,,,,,,,,,,,,,,,,,,,,,,,,,,,,,,,,,,,,,226.65514319995418,None,left,1,1.7969359001144767,227.1380002000369,None,227.1380002000369,230.14236889989115,227.1380002000369,230.14236889989115,227.1380002000369,230.14236889989115,227.1380002000369,230.14236889989115,227.1380002000369,230.14236889989115,230.12578530004248,230.62673570006154,230.12578530004248,230.62673570006154,230.12578530004248,230.62673570006154,230.12578530004248,230.62673570006154,230.12578530004248,230.62673570006154,230.12578530004248,230.62673570006154,230.12578530004248,230.62673570006154,230.12578530004248,230.62673570006154,227.1380002000369,None,230.62673570006154,230.62673570006154,3.0000000000000027,230.64331740001217,None,231.39476919989102,None,,,,,,,0,0.54,0.5714285714285714,11026,001,2024_Jan_10_0957,MFTM_A_new1021,2021.2.3,59.993400703609076,
,,,,,,,,stim/Instruction_adaptive.png,conditions/adaptive.xlsx,test,0.6,0.6,0.6,-0.6,-0.6,right,R,,,,,0,1,1,1,0,21,21,48,,,,,,,,,,,,,,,,,,,,,,,,,,,,,,,,,,,,,,,,,,,,231.89567029988393,None,left,0,1.2750832000747323,232.39606889989227,None,232.39606889989227,235.40170169994235,232.39606889989227,235.40170169994235,232.39606889989227,235.40170169994235,232.39606889989227,235.40170169994235,232.39606889989227,235.40170169994235,235.38446349999867,235.88440559990704,235.38446349999867,235.88440559990704,235.38446349999867,235.88440559990704,235.38446349999867,235.88440559990704,235.38446349999867,235.88440559990704,235.38446349999867,235.88440559990704,235.38446349999867,235.88440559990704,235.38446349999867,235.88440559990704,232.39606889989227,None,235.88440559990704,235.88440559990704,3.0000000000000027,235.9012887000572,None,236.65220450004563,None,,,,,,,0,0.5,0.5454545454545454,11026,001,2024_Jan_10_0957,MFTM_A_new1021,2021.2.3,59.993400703609076,
,,,,,,,,stim/Instruction_adaptive.png,conditions/adaptive.xlsx,test,0.6,0.6,0.6,-0.6,-0.6,right,R,,,,,0,1,1,1,0,22,22,2,,,,,,,,,,,,,,,,,,,,,,,,,,,,,,,,,,,,,,,,,,,,237.15317659988068,None,right,1,1.777270199963823,237.65353280003183,None,237.65353280003183,240.65869219996966,237.65353280003183,240.65869219996966,237.65353280003183,240.65869219996966,237.65353280003183,240.65869219996966,237.65353280003183,240.65869219996966,240.64127900009044,241.14310629991814,240.64127900009044,241.14310629991814,240.64127900009044,241.14310629991814,240.64127900009044,241.14310629991814,240.64127900009044,241.14310629991814,240.64127900009044,241.14310629991814,240.64127900009044,241.14310629991814,240.64127900009044,241.14310629991814,237.65353280003183,None,241.14310629991814,241.14310629991814,3.0000000000000027,241.15879620006308,None,241.91049090004526,None,,,,,,,0,0.5,0.5652173913043478,11026,001,2024_Jan_10_0957,MFTM_A_new1021,2021.2.3,59.993400703609076,
,,,,,,,,stim/Instruction_adaptive.png,conditions/adaptive.xlsx,test,0.6,0.6,0.6,-0.6,-0.6,right,R,,,,,0,1,1,1,0,23,23,44,,,,,,,,,,,,,,,,,,,,,,,,,,,,,,,,,,,,,,,,,,,,242.41148369992152,None,right,1,1.3757076000329107,242.91127300006337,None,242.91127300006337,245.91592149995267,242.91127300006337,245.91592149995267,242.91127300006337,245.91592149995267,242.91127300006337,245.91592149995267,242.91127300006337,245.91592149995267,245.89919409994036,246.39994290005416,245.89919409994036,246.39994290005416,245.89919409994036,246.39994290005416,245.89919409994036,246.39994290005416,245.89919409994036,246.39994290005416,245.89919409994036,246.39994290005416,245.89919409994036,246.39994290005416,245.89919409994036,246.39994290005416,242.91127300006337,None,246.39994290005416,246.39994290005416,3.0000000000000027,246.4174045000691,None,247.16861160006374,None,,,,,,,0,0.5,0.5833333333333334,11026,001,2024_Jan_10_0957,MFTM_A_new1021,2021.2.3,59.993400703609076,
,,,,,,,,stim/Instruction_adaptive.png,conditions/adaptive.xlsx,test,-0.6,-0.6,-0.6,0.6,0.6,left,L,,,,,0,1,1,1,0,24,24,81,,,,,,,,,,,,,,,,,,,,,,,,,,,,,,,,,,,,,,,,,,,,247.66934040002525,None,left,1,1.437431300058961,248.1696140000131,None,248.1696140000131,251.17364359996282,248.1696140000131,251.17364359996282,248.1696140000131,251.17364359996282,248.1696140000131,251.17364359996282,248.1696140000131,251.17364359996282,251.15699420007877,251.65820840001106,251.15699420007877,251.65820840001106,251.15699420007877,251.65820840001106,251.15699420007877,251.65820840001106,251.15699420007877,251.65820840001106,251.15699420007877,251.65820840001106,251.15699420007877,251.65820840001106,251.15699420007877,251.65820840001106,248.1696140000131,None,251.65820840001106,251.65820840001106,3.0000000000000027,251.67446090001613,None,252.4262866000645,None,,,,,,,0,0.8700000000000003,0.6,11026,001,2024_Jan_10_0957,MFTM_A_new1021,2021.2.3,59.993400703609076,
,,,,,,,,stim/Instruction_adaptive.png,conditions/adaptive.xlsx,test,-0.6,-0.6,-0.6,0.6,0.6,left,L,,,,,0,1,1,1,0,25,25,75,,,,,,,,,,,,,,,,,,,,,,,,,,,,,,,,,,,,,,,,,,,,252.92642050003633,None,left,1,2.4110530000180006,253.42762509989552,None,253.42762509989552,256.43162470008247,253.42762509989552,256.43162470008247,253.42762509989552,256.43162470008247,253.42762509989552,256.43162470008247,253.42762509989552,256.43162470008247,256.4152009000536,256.9159115999937,256.4152009000536,256.9159115999937,256.4152009000536,256.9159115999937,256.4152009000536,256.9159115999937,256.4152009000536,256.9159115999937,256.4152009000536,256.9159115999937,256.4152009000536,256.9159115999937,256.4152009000536,256.9159115999937,253.42762509989552,None,256.9159115999937,256.9159115999937,3.0000000000000027,256.9321212999057,None,257.68426529993303,None,,,,,,,0,1.1500000000000006,0.6153846153846154,11026,001,2024_Jan_10_0957,MFTM_A_new1021,2021.2.3,59.993400703609076,
,,,,,,,,stim/Instruction_adaptive.png,conditions/adaptive.xlsx,test,0.6,0.6,0.6,-0.6,-0.6,right,R,,,,,0,1,1,1,0,26,26,20,,,,,,,,,,,,,,,,,,,,,,,,,,,,,,,,,,,,,,,,,,,,258.18474929989316,None,right,1,1.3458136999979615,258.6850958999712,None,258.6850958999712,261.6557280998677,258.6850958999712,261.6557280998677,258.6850958999712,261.6557280998677,258.6850958999712,261.6557280998677,258.6850958999712,261.6557280998677,261.62439289991744,262.1237494999077,261.62439289991744,262.1237494999077,261.62439289991744,262.1237494999077,261.62439289991744,262.1237494999077,261.62439289991744,262.1237494999077,261.62439289991744,262.1237494999077,261.62439289991744,262.1237494999077,261.62439289991744,262.1237494999077,258.6850958999712,None,262.1237494999077,262.1237494999077,2.9600000000000026,262.1576149999164,None,262.90786739997566,None,,,,,,,0,1.3600000000000008,0.6296296296296297,11026,001,2024_Jan_10_0957,MFTM_A_new1021,2021.2.3,59.993400703609076,
,,,,,,,,stim/Instruction_adaptive.png,conditions/adaptive.xlsx,test,-0.6,-0.6,-0.6,0.6,0.6,left,L,,,,,0,1,1,1,0,27,27,37,,,,,,,,,,,,,,,,,,,,,,,,,,,,,,,,,,,,,,,,,,,,263.4085331999231,None,left,1,1.8258585999719799,263.9094289999921,None,263.9094289999921,266.48003239999525,263.9094289999921,266.48003239999525,263.9094289999921,266.48003239999525,263.9094289999921,266.48003239999525,263.9094289999921,266.48003239999525,266.4462715999689,266.94759769993834,266.4462715999689,266.94759769993834,266.4462715999689,266.94759769993834,266.4462715999689,266.94759769993834,266.4462715999689,266.94759769993834,266.4462715999689,266.94759769993834,266.4462715999689,266.94759769993834,266.4462715999689,266.94759769993834,263.9094289999921,None,266.94759769993834,266.94759769993834,2.5600000000000023,266.9802381999325,None,267.7315966000315,None,,,,,,,0,1.520000000000001,0.6428571428571429,11026,001,2024_Jan_10_0957,MFTM_A_new1021,2021.2.3,59.993400703609076,
,,,,,,,,stim/Instruction_adaptive.png,conditions/adaptive.xlsx,test,-0.6,-0.6,-0.6,0.6,0.6,left,L,,,,,0,1,1,1,0,28,28,83,,,,,,,,,,,,,,,,,,,,,,,,,,,,,,,,,,,,,,,,,,,,268.23248900007457,None,left,1,1.7216419999022037,268.7330732999835,271.5371858999133,268.7330732999835,271.03658970003016,268.7330732999835,271.03658970003016,268.7330732999835,271.03658970003016,268.7330732999835,271.03658970003016,268.7330732999835,271.03658970003016,271.00310319988057,271.5037841000594,271.00310319988057,271.5037841000594,271.00310319988057,271.5037841000594,271.00310319988057,271.5037841000594,271.00310319988057,271.5037841000594,271.00310319988057,271.5037841000594,271.00310319988057,271.5037841000594,271.00310319988057,271.5037841000594,268.7330732999835,None,271.5037841000594,271.72134539997205,2.290000000000002,271.73744080006145,None,272.4887506000232,None,,,,,,,[[0.21]],1.660000000000001,0.6551724137931034,11026,001,2024_Jan_10_0957,MFTM_A_new1021,2021.2.3,59.993400703609076,
,,,,,,,,stim/Instruction_adaptive.png,conditions/adaptive.xlsx,test,0.6,0.6,0.6,-0.6,-0.6,right,R,,,,,0,1,1,1,0,29,29,52,,,,,,,,,,,,,,,,,,,,,,,,,,,,,,,,,,,,,,,,,,,,272.9903007000685,None,right,1,1.4441168000921607,273.490731399972,276.0775609998964,273.490731399972,275.57668639998883,273.490731399972,275.57668639998883,273.490731399972,275.57668639998883,273.490731399972,275.57668639998883,273.490731399972,275.57668639998883,275.5605438000057,276.0605689000804,275.5605438000057,276.0605689000804,275.5605438000057,276.0605689000804,275.5605438000057,276.0605689000804,275.5605438000057,276.0605689000804,275.5605438000057,276.0605689000804,275.5605438000057,276.0605689000804,275.5605438000057,276.0605689000804,273.490731399972,None,276.0444193999283,276.4782932000235,2.080000000000002,276.4945994000882,None,277.2460052999668,None,,,,,,,[[0.42]],1.7800000000000011,0.6666666666666666,11026,001,2024_Jan_10_0957,MFTM_A_new1021,2021.2.3,59.993400703609076,
,,,,,,,,stim/Instruction_adaptive.png,conditions/adaptive.xlsx,test,-0.6,-0.6,-0.6,0.6,0.6,left,L,,,,,0,1,1,1,0,30,30,77,,,,,,,,,,,,,,,,,,,,,,,,,,,,,,,,,,,,,,,,,,,,277.7472703999374,None,left,1,2.2474112000782043,278.24738309998065,280.66807799995877,278.24738309998065,280.16674100002274,278.24738309998065,280.16674100002274,278.24738309998065,280.16674100002274,278.24738309998065,280.16674100002274,278.24738309998065,280.16674100002274,280.1499741000589,280.6513636999298,280.1499741000589,280.6513636999298,280.1499741000589,280.6513636999298,280.1499741000589,280.6513636999298,280.1499741000589,280.6513636999298,280.1499741000589,280.6513636999298,280.1499741000589,280.6513636999298,280.1499741000589,280.6513636999298,278.24738309998065,None,280.6513636999298,281.23492769990116,1.9200000000000015,281.2515847000759,None,282.0033181000035,None,,,,,,,[[0.58]],1.8800000000000012,0.6774193548387096,11026,001,2024_Jan_10_0957,MFTM_A_new1021,2021.2.3,59.993400703609076,
,,,,,,,,stim/Instruction_adaptive.png,conditions/adaptive.xlsx,test,0.6,0.6,0.6,-0.6,-0.6,right,R,,,,,0,1,1,1,0,31,31,8,,,,,,,,,,,,,,,,,,,,,,,,,,,,,,,,,,,,,,,,,,,,282.5038503999822,None,right,1,1.1865771000739187,283.00421299994923,285.30763530009426,283.00421299994923,284.8068699000869,283.00421299994923,284.8068699000869,283.00421299994923,284.8068699000869,283.00421299994923,284.8068699000869,283.00421299994923,284.8068699000869,284.7744467998855,285.2749477000907,284.7744467998855,285.2749477000907,284.7744467998855,285.2749477000907,284.7744467998855,285.2749477000907,284.7744467998855,285.2749477000907,284.7744467998855,285.2749477000907,284.7744467998855,285.2749477000907,284.7744467998855,285.2749477000907,283.00421299994923,None,285.2749477000907,285.99244059994817,1.7900000000000014,286.0089507000521,None,286.7597870999016,None,,,,,,,[[0.71]],1.9800000000000013,0.6875,11026,001,2024_Jan_10_0957,MFTM_A_new1021,2021.2.3,59.993400703609076,
,,,,,,,,stim/Instruction_adaptive.png,conditions/adaptive.xlsx,test,0.6,0.6,0.6,-0.6,-0.6,right,R,,,,,0,1,1,1,0,32,32,32,,,,,,,,,,,,,,,,,,,,,,,,,,,,,,,,,,,,,,,,,,,,287.26101409993134,None,right,1,1.1414717000443488,287.76155869988725,289.93093959987164,287.76155869988725,289.4478203000035,287.76155869988725,289.4478203000035,287.76155869988725,289.4478203000035,287.76155869988725,289.4478203000035,287.76155869988725,289.4478203000035,289.4137995999772,289.91461890004575,289.4137995999772,289.91461890004575,289.4137995999772,289.91461890004575,289.4137995999772,289.91461890004575,289.4137995999772,289.91461890004575,289.4137995999772,289.91461890004575,289.4137995999772,289.91461890004575,289.4137995999772,289.91461890004575,287.76155869988725,None,289.91461890004575,290.7490012999624,1.6700000000000013,290.7657349999063,None,291.51883310009725,None,,,,,,,[[0.83]],2.070000000000001,0.696969696969697,11026,001,2024_Jan_10_0957,MFTM_A_new1021,2021.2.3,59.993400703609076,
,,,,,,,,stim/Instruction_adaptive.png,conditions/adaptive.xlsx,test,0.6,0.6,0.6,-0.6,-0.6,right,R,,,,,0,1,1,1,0,33,33,34,,,,,,,,,,,,,,,,,,,,,,,,,,,,,,,,,,,,,,,,,,,,292.0182360999752,None,right,1,0.9683186998590827,292.51931639993563,294.58796430006623,292.51931639993563,294.10519020003267,292.51931639993563,294.10519020003267,292.51931639993563,294.10519020003267,292.51931639993563,294.10519020003267,292.51931639993563,294.10519020003267,294.07158609991893,294.5720432999078,294.07158609991893,294.5720432999078,294.07158609991893,294.5720432999078,294.07158609991893,294.5720432999078,294.07158609991893,294.5720432999078,294.07158609991893,294.5720432999078,294.07158609991893,294.5720432999078,294.07158609991893,294.5720432999078,292.51931639993563,None,294.5720432999078,295.5060010999441,1.5700000000000012,295.52310019987635,None,296.2738713999279,None,,,,,,,[[0.93]],2.1500000000000012,0.7058823529411765,11026,001,2024_Jan_10_0957,MFTM_A_new1021,2021.2.3,59.993400703609076,
,,,,,,,,stim/Instruction_adaptive.png,conditions/adaptive.xlsx,test,-0.6,-0.6,-0.6,0.6,0.6,left,L,,,,,0,1,1,1,0,34,34,31,,,,,,,,,,,,,,,,,,,,,,,,,,,,,,,,,,,,,,,,,,,,296.7753435000777,None,right,0,1.9393974000122398,297.2755229000468,299.2622970000375,297.2755229000468,298.7610508000944,297.2755229000468,298.7610508000944,297.2755229000468,298.7610508000944,297.2755229000468,298.7610508000944,297.2755229000468,298.7610508000944,298.74434640002437,299.2457039000001,298.74434640002437,299.2457039000001,298.74434640002437,299.2457039000001,298.74434640002437,299.2457039000001,298.74434640002437,299.2457039000001,298.74434640002437,299.2457039000001,298.74434640002437,299.2457039000001,298.74434640002437,299.2457039000001,297.2755229000468,None,299.2457039000001,None,1.480000000000001,300.2797353998758,None,301.03075929987244,None,,,,,,,[[1.02]],1.9300000000000013,0.6857142857142857,11026,001,2024_Jan_10_0957,MFTM_A_new1021,2021.2.3,59.993400703609076,
,,,,,,,,stim/Instruction_adaptive.png,conditions/adaptive.xlsx,test,0.6,0.6,0.6,-0.6,-0.6,right,R,,,,,0,1,1,1,0,35,35,26,,,,,,,,,,,,,,,,,,,,,,,,,,,,,,,,,,,,,,,,,,,,301.5316061999183,None,right,1,3.142528799828142,302.0322380999569,304.26922270003706,302.0322380999569,303.7681869000662,302.0322380999569,303.7681869000662,302.0322380999569,303.7681869000662,302.0322380999569,303.7681869000662,302.0322380999569,303.7681869000662,303.7524780998938,304.25257780007087,303.7524780998938,304.25257780007087,303.7524780998938,304.25257780007087,303.7524780998938,304.25257780007087,303.7524780998938,304.25257780007087,303.7524780998938,304.25257780007087,303.7524780998938,304.25257780007087,303.7524780998938,304.25257780007087,302.0322380999569,None,304.25257780007087,305.2043230999261,1.7300000000000013,305.2203840999864,None,305.9714210999664,None,,,,,,,[[0.77]],2.0100000000000016,0.6944444444444444,11026,001,2024_Jan_10_0957,MFTM_A_new1021,2021.2.3,59.993400703609076,
,,,,,,,,stim/Instruction_adaptive.png,conditions/adaptive.xlsx,test,0.6,0.6,0.6,-0.6,-0.6,right,R,,,,,0,1,1,1,0,36,36,46,,,,,,,,,,,,,,,,,,,,,,,,,,,,,,,,,,,,,,,,,,,,306.4722046998795,None,right,1,2.3207763999234885,306.97460229997523,309.11041309987195,306.97460229997523,308.60867680003867,306.97460229997523,308.60867680003867,306.97460229997523,308.60867680003867,306.97460229997523,308.60867680003867,306.97460229997523,308.60867680003867,308.59279879997484,309.09283860004507,308.59279879997484,309.09283860004507,308.59279879997484,309.09283860004507,308.59279879997484,309.09283860004507,308.59279879997484,309.09283860004507,308.59279879997484,309.09283860004507,308.59279879997484,309.09283860004507,308.59279879997484,309.09283860004507,306.97460229997523,None,309.09283860004507,None,1.6300000000000012,309.97756940010004,None,310.7285545999184,None,,,,,,,[[0.87]],2.0800000000000014,0.7027027027027027,11026,001,2024_Jan_10_0957,MFTM_A_new1021,2021.2.3,59.993400703609076,
,,,,,,,,stim/Instruction_adaptive.png,conditions/adaptive.xlsx,test,0.6,0.6,0.6,-0.6,-0.6,right,R,,,,,0,1,1,1,0,37,37,56,,,,,,,,,,,,,,,,,,,,,,,,,,,,,,,,,,,,,,,,,,,,311.22998709999956,None,right,1,2.428895100019872,311.7300096999388,313.79968259995803,311.7300096999388,313.2996859000996,311.7300096999388,313.2996859000996,311.7300096999388,313.2996859000996,311.7300096999388,313.2996859000996,311.7300096999388,313.2996859000996,313.28231239994057,313.78373520006426,313.28231239994057,313.78373520006426,313.28231239994057,313.78373520006426,313.28231239994057,313.78373520006426,313.28231239994057,313.78373520006426,313.28231239994057,313.78373520006426,313.28231239994057,313.78373520006426,313.28231239994057,313.78373520006426,311.7300096999388,None,313.76676640007645,314.7178821999114,1.5600000000000012,314.7345902000088,None,315.48608170007356,None,,,,,,,[[0.94]],2.1500000000000012,0.7105263157894737,11026,001,2024_Jan_10_0957,MFTM_A_new1021,2021.2.3,59.993400703609076,
,,,,,,,,stim/Instruction_adaptive.png,conditions/adaptive.xlsx,test,0.6,0.6,0.6,-0.6,-0.6,right,R,,,,,0,1,1,1,0,38,38,98,,,,,,,,,,,,,,,,,,,,,,,,,,,,,,,,,,,,,,,,,,,,315.9861910000909,None,left,0,3.399847700027749,316.487148999935,318.4733937000856,316.487148999935,317.97421079990454,316.487148999935,317.97421079990454,316.487148999935,317.97421079990454,316.487148999935,317.97421079990454,316.487148999935,317.97421079990454,317.9566416000016,318.458640600089,317.9566416000016,318.458640600089,317.9566416000016,318.458640600089,317.9566416000016,318.458640600089,317.9566416000016,318.458640600089,317.9566416000016,318.458640600089,317.9566416000016,318.458640600089,317.9566416000016,318.458640600089,316.487148999935,None,318.44003299996257,319.9094741998706,1.480000000000001,319.92549060005695,None,320.67683489993215,None,,,,,,,[[1.02]],1.9600000000000013,0.6923076923076923,11026,001,2024_Jan_10_0957,MFTM_A_new1021,2021.2.3,59.993400703609076,
,,,,,,,,stim/Instruction_adaptive.png,conditions/adaptive.xlsx,test,0.6,0.6,0.6,-0.6,-0.6,right,R,,,,,0,1,1,1,0,39,39,0,,,,,,,,,,,,,,,,,,,,,,,,,,,,,,,,,,,,,,,,,,,,321.17744569992647,None,right,1,2.296449799789116,321.6783092999831,323.881548400037,321.6783092999831,323.3815242999699,321.6783092999831,323.3815242999699,321.6783092999831,323.3815242999699,321.6783092999831,323.3815242999699,321.6783092999831,323.3815242999699,323.3478415000718,323.84801890002564,323.3478415000718,323.84801890002564,323.3478415000718,323.84801890002564,323.3478415000718,323.84801890002564,323.3478415000718,323.84801890002564,323.3478415000718,323.84801890002564,323.3478415000718,323.84801890002564,323.3478415000718,323.84801890002564,321.6783092999831,None,323.84801890002564,324.66654979996383,1.6900000000000013,324.6826516999863,None,325.4335578000173,None,,,,,,,[[0.81]],2.0200000000000014,0.7,11026,001,2024_Jan_10_0957,MFTM_A_new1021,2021.2.3,59.993400703609076,
,,,,,,,,stim/Instruction_adaptive.png,conditions/adaptive.xlsx,test,-0.6,-0.6,-0.6,0.6,0.6,left,L,,,,,0,1,1,1,0,40,40,23,,,,,,,,,,,,,,,,,,,,,,,,,,,,,,,,,,,,,,,,,,,,325.93525639991276,None,right,0,2.3790957999881357,326.4357288000174,328.55494789988734,326.4357288000174,328.0710897000972,326.4357288000174,328.0710897000972,326.4357288000174,328.0710897000972,326.4357288000174,328.0710897000972,326.4357288000174,328.0710897000972,328.0378658999689,328.53825849993154,328.0378658999689,328.53825849993154,328.0378658999689,328.53825849993154,328.0378658999689,328.53825849993154,328.0378658999689,328.53825849993154,328.0378658999689,328.53825849993154,328.0378658999689,328.53825849993154,328.0378658999689,328.53825849993154,326.4357288000174,None,328.53825849993154,329.4231507999357,1.6200000000000012,329.4395834999159,None,330.1908688999247,None,,,,,,,[[0.88]],1.8300000000000012,0.6829268292682927,11026,001,2024_Jan_10_0957,MFTM_A_new1021,2021.2.3,59.993400703609076,
,,,,,,,,stim/Instruction_adaptive.png,conditions/adaptive.xlsx,test,-0.6,-0.6,-0.6,0.6,0.6,left,L,,,,,0,1,1,1,0,41,41,25,,,,,,,,,,,,,,,,,,,,,,,,,,,,,,,,,,,,,,,,,,,,330.6922961000819,None,left,1,2.0230288000311702,331.1924032999668,333.54598969989456,331.1924032999668,333.04497479996644,331.1924032999668,333.04497479996644,331.1924032999668,333.04497479996644,331.1924032999668,333.04497479996644,331.1924032999668,333.04497479996644,333.02822360000573,333.529162599938,333.02822360000573,333.529162599938,333.02822360000573,333.529162599938,333.02822360000573,333.529162599938,333.02822360000573,333.529162599938,333.02822360000573,333.529162599938,333.02822360000573,333.529162599938,333.02822360000573,333.529162599938,331.1924032999668,None,333.529162599938,334.1806741999462,1.8500000000000014,334.19667529989965,None,334.94785979995504,None,,,,,,,[[0.65]],1.9000000000000012,0.6904761904761905,11026,001,2024_Jan_10_0957,MFTM_A_new1021,2021.2.3,59.993400703609076,
,,,,,,,,stim/Instruction_adaptive.png,conditions/adaptive.xlsx,test,-0.6,-0.6,-0.6,0.6,0.6,left,L,,,,,0,1,1,1,0,42,42,85,,,,,,,,,,,,,,,,,,,,,,,,,,,,,,,,,,,,,,,,,,,,335.4483534998726,None,left,1,1.489723299862817,335.94923230004497,338.21915989997797,335.94923230004497,337.7192599000409,335.94923230004497,337.7192599000409,335.94923230004497,337.7192599000409,335.94923230004497,337.7192599000409,335.94923230004497,337.7192599000409,337.70223490009084,338.20247110002674,337.70223490009084,338.20247110002674,337.70223490009084,338.20247110002674,337.70223490009084,338.20247110002674,337.70223490009084,338.20247110002674,337.70223490009084,338.20247110002674,337.70223490009084,338.20247110002674,337.70223490009084,338.20247110002674,335.94923230004497,None,338.18597680004314,338.9369991000276,1.7600000000000013,338.95380840008147,None,339.70532119995914,None,,,,,,,[[0.74]],1.9600000000000013,0.6976744186046512,11026,001,2024_Jan_10_0957,MFTM_A_new1021,2021.2.3,59.993400703609076,
,,,,,,,,stim/Instruction_adaptive.png,conditions/adaptive.xlsx,test,0.6,0.6,0.6,-0.6,-0.6,right,R,,,,,0,1,1,1,0,43,43,92,,,,,,,,,,,,,,,,,,,,,,,,,,,,,,,,,,,,,,,,,,,,340.20577699993737,None,right,1,2.788470200030133,340.70635059988126,342.9094271999784,340.70635059988126,342.40995100000873,340.70635059988126,342.40995100000873,340.70635059988126,342.40995100000873,340.70635059988126,342.40995100000873,340.70635059988126,342.40995100000873,342.3753178000916,342.87686580000445,342.3753178000916,342.87686580000445,342.3753178000916,342.87686580000445,342.3753178000916,342.87686580000445,342.3753178000916,342.87686580000445,342.3753178000916,342.87686580000445,342.3753178000916,342.87686580000445,342.3753178000916,342.87686580000445,340.70635059988126,None,342.87686580000445,343.6943359998986,1.6900000000000013,343.71077149990015,None,344.4620338000823,None,,,,,,,[[0.81]],2.0200000000000014,0.7045454545454546,11026,001,2024_Jan_10_0957,MFTM_A_new1021,2021.2.3,59.993400703609076,
,,,,,,,,stim/Instruction_adaptive.png,conditions/adaptive.xlsx,test,-0.6,-0.6,-0.6,0.6,0.6,left,L,,,,,0,1,1,1,0,44,44,1,,,,,,,,,,,,,,,,,,,,,,,,,,,,,,,,,,,,,,,,,,,,344.96355249988846,None,left,1,1.1438487998675555,345.4634052000474,347.5832493000198,345.4634052000474,347.0827909000218,345.4634052000474,347.0827909000218,345.4634052000474,347.0827909000218,345.4634052000474,347.0827909000218,345.4634052000474,347.0827909000218,347.0657933000475,347.56650210008956,347.0657933000475,347.56650210008956,347.0657933000475,347.56650210008956,347.0657933000475,347.56650210008956,347.0657933000475,347.56650210008956,347.0657933000475,347.56650210008956,347.0657933000475,347.56650210008956,347.0657933000475,347.56650210008956,345.4634052000474,None,347.56650210008956,348.4523797999136,1.6200000000000012,348.4676627998706,None,349.2189442999661,None,,,,,,,[[0.88]],2.0800000000000014,0.7111111111111111,11026,001,2024_Jan_10_0957,MFTM_A_new1021,2021.2.3,59.993400703609076,
,,,,,,,,stim/Instruction_adaptive.png,conditions/adaptive.xlsx,test,-0.6,-0.6,-0.6,0.6,0.6,left,L,,,,,0,1,1,1,0,45,45,49,,,,,,,,,,,,,,,,,,,,,,,,,,,,,,,,,,,,,,,,,,,,349.7196432000492,None,right,0,2.4104289999231696,350.2204583999701,352.2901625998784,350.2204583999701,351.78965819999576,350.2204583999701,351.78965819999576,350.2204583999701,351.78965819999576,350.2204583999701,351.78965819999576,350.2204583999701,351.78965819999576,351.7727558000479,352.2733944999054,351.7727558000479,352.2733944999054,351.7727558000479,352.2733944999054,351.7727558000479,352.2733944999054,351.7727558000479,352.2733944999054,351.7727558000479,352.2733944999054,351.7727558000479,352.2733944999054,351.7727558000479,352.2733944999054,350.2204583999701,None,352.2733944999054,None,1.5600000000000012,353.2247397999745,None,353.97672510007396,None,,,,,,,[[0.94]],1.9200000000000013,0.6956521739130435,11026,001,2024_Jan_10_0957,MFTM_A_new1021,2021.2.3,59.993400703609076,
,,,,,,,,stim/Instruction_adaptive.png,conditions/adaptive.xlsx,test,-0.6,-0.6,-0.6,0.6,0.6,left,L,,,,,0,1,1,1,0,46,46,55,,,,,,,,,,,,,,,,,,,,,,,,,,,,,,,,,,,,,,,,,,,,354.47755310009234,None,left,1,1.4768052999861538,354.97809659992345,357.23147840006277,354.97809659992345,356.7300197998993,354.97809659992345,356.7300197998993,354.97809659992345,356.7300197998993,354.97809659992345,356.7300197998993,354.97809659992345,356.7300197998993,356.6967484999914,357.1983781999443,356.6967484999914,357.1983781999443,356.6967484999914,357.1983781999443,356.6967484999914,357.1983781999443,356.6967484999914,357.1983781999443,356.6967484999914,357.1983781999443,356.6967484999914,357.1983781999443,356.6967484999914,357.1983781999443,354.97809659992345,None,357.1983781999443,357.9650395999197,1.7400000000000013,357.9818637999706,None,358.7336774999276,None,,,,,,,[[0.76]],1.9800000000000013,0.7021276595744681,11026,001,2024_Jan_10_0957,MFTM_A_new1021,2021.2.3,59.993400703609076,
,,,,,,,,stim/Instruction_adaptive.png,conditions/adaptive.xlsx,test,-0.6,-0.6,-0.6,0.6,0.6,left,L,,,,,0,1,1,1,0,47,47,9,,,,,,,,,,,,,,,,,,,,,,,,,,,,,,,,,,,,,,,,,,,,359.23423879989423,None,left,1,2.0085287999827415,359.73456140002236,361.9050874998793,359.73456140002236,361.404132100055,359.73456140002236,361.404132100055,359.73456140002236,361.404132100055,359.73456140002236,361.404132100055,359.73456140002236,361.404132100055,361.38710179994814,361.88808359997347,361.38710179994814,361.88808359997347,361.38710179994814,361.88808359997347,361.38710179994814,361.88808359997347,361.38710179994814,361.88808359997347,361.38710179994814,361.88808359997347,361.38710179994814,361.88808359997347,361.38710179994814,361.88808359997347,359.73456140002236,None,361.88808359997347,362.7231932999566,1.6700000000000013,362.73877059994265,None,363.4900048999116,None,,,,,,,[[0.83]],2.030000000000001,0.7083333333333334,11026,001,2024_Jan_10_0957,MFTM_A_new1021,2021.2.3,59.993400703609076,
,,,,,,,,stim/Instruction_adaptive.png,conditions/adaptive.xlsx,test,-0.6,-0.6,-0.6,0.6,0.6,left,L,,,,,0,1,1,1,0,48,48,65,,,,,,,,,,,,,,,,,,,,,,,,,,,,,,,,,,,,,,,,,,,,363.99074569996446,None,left,1,1.0755056000780314,364.49158579995856,366.6126705999486,364.49158579995856,366.1112597999163,364.49158579995856,366.1112597999163,364.49158579995856,366.1112597999163,364.49158579995856,366.1112597999163,364.49158579995856,366.1112597999163,366.09397489996627,366.5956514000427,366.09397489996627,366.5956514000427,366.09397489996627,366.5956514000427,366.09397489996627,366.5956514000427,366.09397489996627,366.5956514000427,366.09397489996627,366.5956514000427,366.09397489996627,366.5956514000427,366.09397489996627,366.5956514000427,364.49158579995856,None,366.57783249998465,367.47930609993637,1.6100000000000012,367.49747859989293,None,368.24710729997605,None,,,,,,,[[0.89]],2.0800000000000014,0.7142857142857143,11026,001,2024_Jan_10_0957,MFTM_A_new1021,2021.2.3,59.993400703609076,
,,,,,,,,stim/Instruction_adaptive.png,conditions/adaptive.xlsx,test,0.6,0.6,0.6,-0.6,-0.6,right,R,,,,,0,1,1,1,0,49,49,68,,,,,,,,,,,,,,,,,,,,,,,,,,,,,,,,,,,,,,,,,,,,368.7507350000087,None,right,1,2.6928568000439554,369.265996000031,371.3349671000615,369.265996000031,370.83542410004884,369.265996000031,370.83542410004884,369.265996000031,370.83542410004884,369.265996000031,370.83542410004884,369.265996000031,370.83542410004884,370.80234819999896,371.3017498999834,370.80234819999896,371.3017498999834,370.80234819999896,371.3017498999834,370.80234819999896,371.3017498999834,370.80234819999896,371.3017498999834,370.80234819999896,371.3017498999834,370.80234819999896,371.3017498999834,370.80234819999896,371.3017498999834,369.265996000031,None,371.3017498999834,372.25335759995505,1.5600000000000012,372.2696147998795,None,373.0218358999118,None,,,,,,,[[0.94]],2.1300000000000017,0.72,11026,001,2024_Jan_10_0957,MFTM_A_new1021,2021.2.3,59.993400703609076,
,,,,,,,,stim/Instruction_adaptive.png,conditions/adaptive.xlsx,test,-0.6,-0.6,-0.6,0.6,0.6,left,L,,,,,0,1,1,1,0,50,50,91,,,,,,,,,,,,,,,,,,,,,,,,,,,,,,,,,,,,,,,,,,,,373.5216478998773,None,left,1,1.0726798998657614,374.02240330004133,376.02543370006606,374.02240330004133,375.5254979999736,374.02240330004133,375.5254979999736,374.02240330004133,375.5254979999736,374.02240330004133,375.5254979999736,374.02240330004133,375.5254979999736,375.5079902000725,376.008727400098,375.5079902000725,376.008727400098,375.5079902000725,376.008727400098,375.5079902000725,376.008727400098,375.5079902000725,376.008727400098,375.5079902000725,376.008727400098,375.5079902000725,376.008727400098,375.5079902000725,376.008727400098,374.02240330004133,None,376.008727400098,377.01022389996797,1.500000000000001,377.02665799995884,None,377.77782479999587,None,,,,,,,[[1.]],2.1700000000000017,0.7254901960784313,11026,001,2024_Jan_10_0957,MFTM_A_new1021,2021.2.3,59.993400703609076,
,,,,,,,,stim/Instruction_adaptive.png,conditions/adaptive.xlsx,test,-0.6,-0.6,-0.6,0.6,0.6,left,L,,,,,0,1,1,1,0,51,51,47,,,,,,,,,,,,,,,,,,,,,,,,,,,,,,,,,,,,,,,,,,,,378.2789537999779,None,left,1,0.8434826999437064,378.7793982999865,380.7491520999465,378.7793982999865,380.2485982000362,378.7793982999865,380.2485982000362,378.7793982999865,380.2485982000362,378.7793982999865,380.2485982000362,378.7793982999865,380.2485982000362,380.2148376998957,380.71530060004443,380.2148376998957,380.71530060004443,380.2148376998957,380.71530060004443,380.2148376998957,380.71530060004443,380.2148376998957,380.71530060004443,380.2148376998957,380.71530060004443,380.2148376998957,380.71530060004443,380.2148376998957,380.71530060004443,378.7793982999865,None,380.71530060004443,381.7505679000169,1.460000000000001,381.7847088999115,None,382.5348143998999,None,,,,,,,[1.03173077],2.2200000000000015,0.7307692307692307,11026,001,2024_Jan_10_0957,MFTM_A_new1021,2021.2.3,59.993400703609076,
,,,,,,,,stim/Instruction_adaptive.png,conditions/adaptive.xlsx,test,-0.6,-0.6,-0.6,0.6,0.6,left,L,,,,,0,1,1,1,0,52,52,19,,,,,,,,,,,,,,,,,,,,,,,,,,,,,,,,,,,,,,,,,,,,383.03600939991884,None,left,1,1.0308651998639107,383.5364566000644,385.45589530002326,383.5364566000644,384.95509659987874,383.5364566000644,384.95509659987874,383.5364566000644,384.95509659987874,383.5364566000644,384.95509659987874,383.5364566000644,384.95509659987874,384.92176069994457,385.4225850000512,384.92176069994457,385.4225850000512,384.92176069994457,385.4225850000512,384.92176069994457,385.4225850000512,384.92176069994457,385.4225850000512,384.92176069994457,385.4225850000512,384.92176069994457,385.4225850000512,384.92176069994457,385.4225850000512,383.5364566000644,None,385.4225850000512,386.4584047999233,1.410000000000001,386.49079880001955,None,387.2416872000322,None,,,,,,,[1.03283019],2.2600000000000016,0.7358490566037735,11026,001,2024_Jan_10_0957,MFTM_A_new1021,2021.2.3,59.993400703609076,
,,,,,,,,stim/Instruction_adaptive.png,conditions/adaptive.xlsx,test,-0.6,-0.6,-0.6,0.6,0.6,left,L,,,,,0,1,1,1,0,53,53,35,,,,,,,,,,,,,,,,,,,,,,,,,,,,,,,,,,,,,,,,,,,,387.7434626999311,None,left,1,1.1237932001240551,388.24331000004895,390.1128006000072,388.24331000004895,389.6289003000129,388.24331000004895,389.6289003000129,388.24331000004895,389.6289003000129,388.24331000004895,389.6289003000129,388.24331000004895,389.6289003000129,389.5956099999603,390.09621079987846,389.5956099999603,390.09621079987846,389.5956099999603,390.09621079987846,389.5956099999603,390.09621079987846,389.5956099999603,390.09621079987846,389.5956099999603,390.09621079987846,389.5956099999603,390.09621079987846,389.5956099999603,390.09621079987846,388.24331000004895,None,390.09621079987846,391.132031199988,1.370000000000001,391.14756909990683,None,391.8987966000568,None,,,,,,,[1.03462963],2.3000000000000016,0.7407407407407407,11026,001,2024_Jan_10_0957,MFTM_A_new1021,2021.2.3,59.993400703609076,
,,,,,,,,stim/Instruction_adaptive.png,conditions/adaptive.xlsx,test,-0.6,-0.6,-0.6,0.6,0.6,left,L,,,,,0,1,1,1,0,54,54,13,,,,,,,,,,,,,,,,,,,,,,,,,,,,,,,,,,,,,,,,,,,,392.4001680999063,None,left,1,1.0351765998639166,392.90040079993196,394.753107199911,392.90040079993196,394.25223920005374,392.90040079993196,394.25223920005374,392.90040079993196,394.25223920005374,392.90040079993196,394.25223920005374,392.90040079993196,394.25223920005374,394.21906959987246,394.7204577999655,394.21906959987246,394.7204577999655,394.21906959987246,394.7204577999655,394.21906959987246,394.7204577999655,394.21906959987246,394.7204577999655,394.21906959987246,394.7204577999655,394.21906959987246,394.7204577999655,394.21906959987246,394.7204577999655,392.90040079993196,None,394.7204577999655,395.77233049995266,1.340000000000001,395.7879121999722,None,396.53915189998224,None,,,,,,,[1.03690909],2.3400000000000016,0.7454545454545455,11026,001,2024_Jan_10_0957,MFTM_A_new1021,2021.2.3,59.993400703609076,
,,,,,,,,stim/Instruction_adaptive.png,conditions/adaptive.xlsx,test,-0.6,-0.6,-0.6,0.6,0.6,left,L,,,,,0,1,1,1,0,55,55,97,,,,,,,,,,,,,,,,,,,,,,,,,,,,,,,,,,,,,,,,,,,,397.0407203999348,None,left,1,2.098554400028661,397.5408711999189,399.34316849987954,397.5408711999189,398.8432942999061,397.5408711999189,398.8432942999061,397.5408711999189,398.8432942999061,397.5408711999189,398.8432942999061,397.5408711999189,398.8432942999061,398.82584060006775,399.32657100004144,398.82584060006775,399.32657100004144,398.82584060006775,399.32657100004144,398.82584060006775,399.32657100004144,398.82584060006775,399.32657100004144,398.82584060006775,399.32657100004144,398.82584060006775,399.32657100004144,398.82584060006775,399.32657100004144,397.5408711999189,None,399.32657100004144,400.3785643998999,1.300000000000001,400.39485789998434,None,401.1461743998807,None,,,,,,,[1.03982143],2.3800000000000017,0.75,11026,001,2024_Jan_10_0957,MFTM_A_new1021,2021.2.3,59.993400703609076,
,,,,,,,,stim/Instruction_adaptive.png,conditions/adaptive.xlsx,test,0.6,0.6,0.6,-0.6,-0.6,right,R,,,,,0,1,1,1,0,56,56,22,,,,,,,,,,,,,,,,,,,,,,,,,,,,,,,,,,,,,,,,,,,,401.6478355000727,None,right,1,1.4206797999795526,402.1474017999135,403.9167720999103,402.1474017999135,403.41654170001857,402.1474017999135,403.41654170001857,402.1474017999135,403.41654170001857,402.1474017999135,403.41654170001857,402.1474017999135,403.41654170001857,403.4001718000509,403.9009388999548,403.4001718000509,403.9009388999548,403.4001718000509,403.9009388999548,403.4001718000509,403.9009388999548,403.4001718000509,403.9009388999548,403.4001718000509,403.9009388999548,403.4001718000509,403.9009388999548,403.4001718000509,403.9009388999548,402.1474017999135,None,403.9009388999548,None,1.260000000000001,404.9528534999117,None,405.70350389997475,None,,,,,,,[1.04333333],2.410000000000002,0.7543859649122807,11026,001,2024_Jan_10_0957,MFTM_A_new1021,2021.2.3,59.993400703609076,
,,,,,,,,stim/Instruction_adaptive.png,conditions/adaptive.xlsx,test,0.6,0.6,0.6,-0.6,-0.6,right,R,,,,,0,1,1,1,0,57,57,58,,,,,,,,,,,,,,,,,,,,,,,,,,,,,,,,,,,,,,,,,,,,406.2032065000385,None,right,1,1.5035711999516934,406.7041517999023,408.4567563000601,406.7041517999023,407.9560038000345,406.7041517999023,407.9560038000345,406.7041517999023,407.9560038000345,406.7041517999023,407.9560038000345,406.7041517999023,407.9560038000345,407.92255400004797,408.42337700002827,407.92255400004797,408.42337700002827,407.92255400004797,408.42337700002827,407.92255400004797,408.42337700002827,407.92255400004797,408.42337700002827,407.92255400004797,408.42337700002827,407.92255400004797,408.42337700002827,407.92255400004797,408.42337700002827,406.7041517999023,None,408.42337700002827,409.4748951999936,1.2400000000000009,409.49230819987133,None,410.24268279992975,None,,,,,,,[1.04706897],2.450000000000002,0.7586206896551724,11026,001,2024_Jan_10_0957,MFTM_A_new1021,2021.2.3,59.993400703609076,
,,,,,,,,stim/Instruction_adaptive.png,conditions/adaptive.xlsx,test,0.6,0.6,0.6,-0.6,-0.6,right,R,,,,,0,1,1,1,0,58,58,86,,,,,,,,,,,,,,,,,,,,,,,,,,,,,,,,,,,,,,,,,,,,410.74357230006717,None,right,1,2.307050400180742,411.2441549000796,412.94688470009714,411.2441549000796,412.44586710003205,411.2441549000796,412.44586710003205,411.2441549000796,412.44586710003205,411.2441549000796,412.44586710003205,411.2441549000796,412.44586710003205,412.42910519987345,412.9304802999832,412.42910519987345,412.9304802999832,412.42910519987345,412.9304802999832,412.42910519987345,412.9304802999832,412.42910519987345,412.9304802999832,412.42910519987345,412.9304802999832,412.42910519987345,412.9304802999832,412.42910519987345,412.9304802999832,411.2441549000796,None,412.9304802999832,413.9816199000925,1.2000000000000008,413.9989102000836,None,414.7499482999556,None,,,,,,,[1.05135593],2.4800000000000018,0.7627118644067796,11026,001,2024_Jan_10_0957,MFTM_A_new1021,2021.2.3,59.993400703609076,
,,,,,,,,stim/Instruction_adaptive.png,conditions/adaptive.xlsx,test,0.6,0.6,0.6,-0.6,-0.6,right,R,,,,,0,1,1,1,0,59,59,24,,,,,,,,,,,,,,,,,,,,,,,,,,,,,,,,,,,,,,,,,,,,415.250093099894,None,right,1,2.3922965999227017,415.7506484000478,417.43664239998907,415.7506484000478,416.93591540004127,415.7506484000478,416.93591540004127,415.7506484000478,416.93591540004127,415.7506484000478,416.93591540004127,415.7506484000478,416.93591540004127,416.9194650000427,417.42014269996434,416.9194650000427,417.42014269996434,416.9194650000427,417.42014269996434,416.9194650000427,417.42014269996434,416.9194650000427,417.42014269996434,416.9194650000427,417.42014269996434,416.9194650000427,417.42014269996434,416.9194650000427,417.42014269996434,415.7506484000478,None,417.42014269996434,None,1.1800000000000008,418.48889899998903,None,419.2391989000607,None,,,,,,,[1.05583333],2.5100000000000016,0.7666666666666667,11026,001,2024_Jan_10_0957,MFTM_A_new1021,2021.2.3,59.993400703609076,
,,,,,,,,stim/Instruction_adaptive.png,conditions/adaptive.xlsx,test,0.6,0.6,0.6,-0.6,-0.6,right,R,,,,,0,1,1,1,0,60,60,14,,,,,,,,,,,,,,,,,,,,,,,,,,,,,,,,,,,,,,,,,,,,419.74005550006405,None,right,1,1.8710012000519782,420.24078790005296,421.89407419995405,420.24078790005296,421.39262280007824,420.24078790005296,421.39262280007824,420.24078790005296,421.39262280007824,420.24078790005296,421.39262280007824,420.24078790005296,421.39262280007824,421.3762892000377,421.8771959999576,421.3762892000377,421.8771959999576,421.3762892000377,421.8771959999576,421.3762892000377,421.8771959999576,421.3762892000377,421.8771959999576,421.3762892000377,421.8771959999576,421.3762892000377,421.8771959999576,421.3762892000377,421.8771959999576,420.24078790005296,None,421.8771959999576,422.9450079998933,1.1500000000000008,422.96162219997495,None,423.7127837999724,None,,,,,,,[1.06065574],2.540000000000002,0.7704918032786885,11026,001,2024_Jan_10_0957,MFTM_A_new1021,2021.2.3,59.993400703609076,
,,,,,,,,stim/Instruction_adaptive.png,conditions/adaptive.xlsx,test,-0.6,-0.6,-0.6,0.6,0.6,left,L,,,,,0,1,1,1,0,61,61,33,,,,,,,,,,,,,,,,,,,,,,,,,,,,,,,,,,,,,,,,,,,,424.21340349991806,None,left,1,1.0530238000210375,424.7140784000512,426.35020119999535,424.7140784000512,425.8503308999352,424.7140784000512,425.8503308999352,424.7140784000512,425.8503308999352,424.7140784000512,425.8503308999352,424.7140784000512,425.8503308999352,425.83232480008155,426.33335400000215,425.83232480008155,426.33335400000215,425.83232480008155,426.33335400000215,425.83232480008155,426.33335400000215,425.83232480008155,426.33335400000215,425.83232480008155,426.33335400000215,425.83232480008155,426.33335400000215,425.83232480008155,426.33335400000215,424.7140784000512,None,426.33335400000215,427.40148700005375,1.1300000000000008,427.41816890006885,None,428.1700414000079,None,,,,,,,[1.06564516],2.570000000000002,0.7741935483870968,11026,001,2024_Jan_10_0957,MFTM_A_new1021,2021.2.3,59.993400703609076,
,,,,,,,,stim/Instruction_adaptive.png,conditions/adaptive.xlsx,test,-0.6,-0.6,-0.6,0.6,0.6,left,L,,,,,0,1,1,1,0,62,62,41,,,,,,,,,,,,,,,,,,,,,,,,,,,,,,,,,,,,,,,,,,,,428.6705583999865,None,left,1,1.3563860999420285,429.17061510006897,430.78966680006124,429.17061510006897,430.28901399997994,429.17061510006897,430.28901399997994,429.17061510006897,430.28901399997994,429.17061510006897,430.28901399997994,429.17061510006897,430.28901399997994,430.2725259999279,430.77326379995793,430.2725259999279,430.77326379995793,430.2725259999279,430.77326379995793,430.2725259999279,430.77326379995793,430.2725259999279,430.77326379995793,430.2725259999279,430.77326379995793,430.2725259999279,430.77326379995793,430.2725259999279,430.77326379995793,429.17061510006897,None,430.7565492000431,431.8422340999823,1.1100000000000008,431.85812469990924,None,432.60912979999557,None,,,,,,,[1.07079365],2.600000000000002,0.7777777777777778,11026,001,2024_Jan_10_0957,MFTM_A_new1021,2021.2.3,59.993400703609076,
,,,,,,,,stim/Instruction_adaptive.png,conditions/adaptive.xlsx,test,0.6,0.6,0.6,-0.6,-0.6,right,R,,,,,0,1,1,1,0,63,63,64,,,,,,,,,,,,,,,,,,,,,,,,,,,,,,,,,,,,,,,,,,,,433.1099246998783,None,None,0,0,433.61089819995686,435.21372819994576,433.61089819995686,434.7130007999949,433.61089819995686,434.7130007999949,433.61089819995686,434.7130007999949,433.61089819995686,434.7130007999949,433.61089819995686,434.7130007999949,434.67919560009614,435.17960690008476,434.67919560009614,435.17960690008476,434.67919560009614,435.17960690008476,434.67919560009614,435.17960690008476,434.67919560009614,435.17960690008476,434.67919560009614,435.17960690008476,434.67919560009614,435.17960690008476,434.67919560009614,435.17960690008476,433.61089819995686,None,435.17960690008476,437.0998509998899,1.0900000000000007,437.11584250000305,None,437.8676132000983,None,,,,,,,[[1.91]],2.520000000000002,0.765625,11026,001,2024_Jan_10_0957,MFTM_A_new1021,2021.2.3,59.993400703609076,
,,,,,,,,stim/Instruction_adaptive.png,conditions/adaptive.xlsx,test,-0.6,-0.6,-0.6,0.6,0.6,left,L,,,,,0,1,1,1,0,64,64,53,,,,,,,,,,,,,,,,,,,,,,,,,,,,,,,,,,,,,,,,,,,,438.3686083999928,None,left,1,0.8996562999673188,438.8683559000492,440.52167949988507,438.8683559000492,440.02071269997396,438.8683559000492,440.02071269997396,438.8683559000492,440.02071269997396,438.8683559000492,440.02071269997396,438.8683559000492,440.02071269997396,440.0033833999187,440.50410380004905,440.0033833999187,440.50410380004905,440.0033833999187,440.50410380004905,440.0033833999187,440.50410380004905,440.0033833999187,440.50410380004905,440.0033833999187,440.50410380004905,440.0033833999187,440.50410380004905,440.0033833999187,440.50410380004905,438.8683559000492,None,440.50410380004905,441.58992230007425,1.1500000000000008,441.60563499992713,None,442.35700779990293,None,,,,,,,[1.08030769],2.5500000000000016,0.7692307692307693,11026,001,2024_Jan_10_0957,MFTM_A_new1021,2021.2.3,59.993400703609076,
,,,,,,,,stim/Instruction_adaptive.png,conditions/adaptive.xlsx,test,0.6,0.6,0.6,-0.6,-0.6,right,R,,,,,0,1,1,1,0,65,65,62,,,,,,,,,,,,,,,,,,,,,,,,,,,,,,,,,,,,,,,,,,,,442.85837129992433,None,right,1,1.4402278000488877,443.3589073999319,444.9775984999724,443.3589073999319,444.49359410000034,443.3589073999319,444.49359410000034,443.3589073999319,444.49359410000034,443.3589073999319,444.49359410000034,443.3589073999319,444.49359410000034,444.4601167999208,444.96158130001277,444.4601167999208,444.96158130001277,444.4601167999208,444.96158130001277,444.4601167999208,444.96158130001277,444.4601167999208,444.96158130001277,444.4601167999208,444.96158130001277,444.4601167999208,444.96158130001277,444.4601167999208,444.96158130001277,443.3589073999319,None,444.96158130001277,446.04587260005064,1.1200000000000008,446.07922030007467,None,446.83091920008883,None,,,,,,,[1.08484848],2.570000000000002,0.7727272727272727,11026,001,2024_Jan_10_0957,MFTM_A_new1021,2021.2.3,59.993400703609076,
,,,,,,,,stim/Instruction_adaptive.png,conditions/adaptive.xlsx,test,0.6,0.6,0.6,-0.6,-0.6,right,R,,,,,0,1,1,1,0,66,66,42,,,,,,,,,,,,,,,,,,,,,,,,,,,,,,,,,,,,,,,,,,,,447.3315725000575,None,right,1,1.5997216999530792,447.8315407000482,449.45094139990397,447.8315407000482,448.9499780999031,447.8315407000482,448.9499780999031,447.8315407000482,448.9499780999031,447.8315407000482,448.9499780999031,447.8315407000482,448.9499780999031,448.93419459997676,449.43419769988395,448.93419459997676,449.43419769988395,448.93419459997676,449.43419769988395,448.93419459997676,449.43419769988395,448.93419459997676,449.43419769988395,448.93419459997676,449.43419769988395,448.93419459997676,449.43419769988395,448.93419459997676,449.43419769988395,447.8315407000482,None,449.4181643000338,450.51913159992546,1.1100000000000008,450.53592729987577,None,451.28689109999686,None,,,,,,,[1.08940299],2.600000000000002,0.7761194029850746,11026,001,2024_Jan_10_0957,MFTM_A_new1021,2021.2.3,59.993400703609076,
,,,,,,,,stim/Instruction_adaptive.png,conditions/adaptive.xlsx,test,0.6,0.6,0.6,-0.6,-0.6,right,R,,,,,0,1,1,1,0,67,67,10,,,,,,,,,,,,,,,,,,,,,,,,,,,,,,,,,,,,,,,,,,,,451.78825249988586,None,right,1,1.6867043001111597,452.28838289994746,453.8906332999468,452.28838289994746,453.3900156999007,452.28838289994746,453.3900156999007,452.28838289994746,453.3900156999007,452.28838289994746,453.3900156999007,452.28838289994746,453.3900156999007,453.3566157000605,453.85773640009575,453.3566157000605,453.85773640009575,453.3566157000605,453.85773640009575,453.3566157000605,453.85773640009575,453.3566157000605,453.85773640009575,453.3566157000605,453.85773640009575,453.3566157000605,453.85773640009575,453.3566157000605,453.85773640009575,452.28838289994746,None,453.85773640009575,454.9590499000624,1.0900000000000007,454.97566820005886,None,455.72787249996327,None,,,,,,,[1.09411765],2.6300000000000017,0.7794117647058824,11026,001,2024_Jan_10_0957,MFTM_A_new1021,2021.2.3,59.993400703609076,
,,,,,,,,stim/Instruction_adaptive.png,conditions/adaptive.xlsx,test,0.6,0.6,0.6,-0.6,-0.6,right,R,,,,,0,1,1,1,0,68,68,80,,,,,,,,,,,,,,,,,,,,,,,,,,,,,,,,,,,,,,,,,,,,456.2278785998933,None,right,1,2.222338299965486,456.7286944000516,458.2972385000903,456.7286944000516,457.79682000004686,456.7286944000516,457.79682000004686,456.7286944000516,457.79682000004686,456.7286944000516,457.79682000004686,456.7286944000516,457.79682000004686,457.76297109993175,458.2639081000816,457.76297109993175,458.2639081000816,457.76297109993175,458.2639081000816,457.76297109993175,458.2639081000816,457.76297109993175,458.2639081000816,457.76297109993175,458.2639081000816,457.76297109993175,458.2639081000816,457.76297109993175,458.2639081000816,456.7286944000516,None,458.2639081000816,459.365271900082,1.0600000000000007,459.398688999936,None,460.1511812999379,None,,,,,,,[1.09913043],2.660000000000002,0.782608695652174,11026,001,2024_Jan_10_0957,MFTM_A_new1021,2021.2.3,59.993400703609076,
,,,,,,,,stim/Instruction_adaptive.png,conditions/adaptive.xlsx,test,-0.6,-0.6,-0.6,0.6,0.6,left,L,,,,,0,1,1,1,0,69,69,59,,,,,,,,,,,,,,,,,,,,,,,,,,,,,,,,,,,,,,,,,,,,460.65087220002897,None,left,1,1.494876799872145,461.1521822998766,462.70420280005783,461.1521822998766,462.2031505999621,461.1521822998766,462.2031505999621,461.1521822998766,462.2031505999621,461.1521822998766,462.2031505999621,461.1521822998766,462.2031505999621,462.1705493000336,462.67057790001854,462.1705493000336,462.67057790001854,462.1705493000336,462.67057790001854,462.1705493000336,462.67057790001854,462.1705493000336,462.67057790001854,462.1705493000336,462.67057790001854,462.1705493000336,462.67057790001854,462.1705493000336,462.67057790001854,461.1521822998766,None,462.67057790001854,463.78938629990444,1.0400000000000007,463.80534820002504,None,464.55644849990495,None,,,,,,,[1.10428571],2.680000000000002,0.7857142857142857,11026,001,2024_Jan_10_0957,MFTM_A_new1021,2021.2.3,59.993400703609076,
,,,,,,,,stim/Instruction_adaptive.png,conditions/adaptive.xlsx,test,0.6,0.6,0.6,-0.6,-0.6,right,R,,,,,0,1,1,1,0,70,70,6,,,,,,,,,,,,,,,,,,,,,,,,,,,,,,,,,,,,,,,,,,,,465.0574884999078,None,right,1,1.337681100005284,465.5579901000019,467.0948127999436,465.5579901000019,466.59375300002284,465.5579901000019,466.59375300002284,465.5579901000019,466.59375300002284,465.5579901000019,466.59375300002284,465.5579901000019,466.59375300002284,466.57654620008543,467.0775578999892,466.57654620008543,467.0775578999892,466.57654620008543,467.0775578999892,466.57654620008543,467.0775578999892,466.57654620008543,467.0775578999892,466.57654620008543,467.0775578999892,466.57654620008543,467.0775578999892,466.57654620008543,467.0775578999892,465.5579901000019,None,467.0775578999892,468.19525029999204,1.0300000000000007,468.2117695999332,None,468.96292409999296,None,,,,,,,[1.10943662],2.7100000000000017,0.7887323943661971,11026,001,2024_Jan_10_0957,MFTM_A_new1021,2021.2.3,59.993400703609076,
,,,,,,,,stim/Instruction_adaptive.png,conditions/adaptive.xlsx,test,0.6,0.6,0.6,-0.6,-0.6,right,R,,,,,0,1,1,1,0,71,71,66,,,,,,,,,,,,,,,,,,,,,,,,,,,,,,,,,,,,,,,,,,,,469.4641627999954,None,right,1,1.3386338998097926,469.9645688999444,471.483419300057,469.9645688999444,470.98252060008235,469.9645688999444,470.98252060008235,469.9645688999444,470.98252060008235,469.9645688999444,470.98252060008235,469.9645688999444,470.98252060008235,470.96578700002283,471.46674549998716,470.96578700002283,471.46674549998716,470.96578700002283,471.46674549998716,470.96578700002283,471.46674549998716,470.96578700002283,471.46674549998716,470.96578700002283,471.46674549998716,470.96578700002283,471.46674549998716,470.96578700002283,471.46674549998716,469.9645688999444,None,471.46674549998716,472.5850021999795,1.0100000000000007,472.6015562999528,None,473.3526614999864,None,,,,,,,[1.11472222],2.730000000000002,0.7916666666666666,11026,001,2024_Jan_10_0957,MFTM_A_new1021,2021.2.3,59.993400703609076,
,,,,,,,,stim/Instruction_adaptive.png,conditions/adaptive.xlsx,test,0.6,0.6,0.6,-0.6,-0.6,right,R,,,,,0,1,1,1,0,72,72,30,,,,,,,,,,,,,,,,,,,,,,,,,,,,,,,,,,,,,,,,,,,,473.8536702999845,None,right,1,1.5568031000439078,474.3544038000982,475.85666799987666,474.3544038000982,475.3556186000351,474.3544038000982,475.3556186000351,474.3544038000982,475.3556186000351,474.3544038000982,475.3556186000351,474.3544038000982,475.3556186000351,475.3225312998984,475.8232601999771,475.3225312998984,475.8232601999771,475.3225312998984,475.8232601999771,475.3225312998984,475.8232601999771,475.3225312998984,475.8232601999771,475.3225312998984,475.8232601999771,475.3225312998984,475.8232601999771,475.3225312998984,475.8232601999771,474.3544038000982,None,475.8232601999771,476.95831550005823,0.9900000000000007,476.974956799997,None,477.72605419997126,None,,,,,,,[1.12013699],2.760000000000002,0.7945205479452054,11026,001,2024_Jan_10_0957,MFTM_A_new1021,2021.2.3,59.993400703609076,
,,,,,,,,stim/Instruction_adaptive.png,conditions/adaptive.xlsx,test,-0.6,-0.6,-0.6,0.6,0.6,left,L,,,,,0,1,1,1,0,73,73,39,,,,,,,,,,,,,,,,,,,,,,,,,,,,,,,,,,,,,,,,,,,,478.2268352000974,None,left,1,1.3276384000200778,478.7275060999673,480.2130948000122,478.7275060999673,479.71266700001433,478.7275060999673,479.71266700001433,478.7275060999673,479.71266700001433,478.7275060999673,479.71266700001433,478.7275060999673,479.71266700001433,479.6788675999269,480.17955749994144,479.6788675999269,480.17955749994144,479.6788675999269,480.17955749994144,479.6788675999269,480.17955749994144,479.6788675999269,480.17955749994144,479.6788675999269,480.17955749994144,479.6788675999269,480.17955749994144,479.6788675999269,480.17955749994144,478.7275060999673,None,480.17955749994144,481.31492129992694,0.9700000000000006,481.3314080000855,None,482.0825453000143,None,,,,,,,[1.12567568],2.780000000000002,0.7972972972972973,11026,001,2024_Jan_10_0957,MFTM_A_new1021,2021.2.3,59.993400703609076,
,,,,,,,,stim/Instruction_adaptive.png,conditions/adaptive.xlsx,test,-0.6,-0.6,-0.6,0.6,0.6,left,L,,,,,0,1,1,1,0,74,74,57,,,,,,,,,,,,,,,,,,,,,,,,,,,,,,,,,,,,,,,,,,,,482.5831992998719,None,left,1,1.235542400041595,483.0837892999407,484.55269829998724,483.0837892999407,484.0519961998798,483.0837892999407,484.0519961998798,483.0837892999407,484.0519961998798,483.0837892999407,484.0519961998798,483.0837892999407,484.0519961998798,484.0187168000266,484.51923540001735,484.0187168000266,484.51923540001735,484.0187168000266,484.51923540001735,484.0187168000266,484.51923540001735,484.0187168000266,484.51923540001735,484.0187168000266,484.51923540001735,484.0187168000266,484.51923540001735,484.0187168000266,484.51923540001735,483.0837892999407,None,484.51923540001735,485.65443049999885,0.9600000000000006,485.68797490000725,None,486.4389515998773,None,,,,,,,[1.1312],2.800000000000002,0.8,11026,001,2024_Jan_10_0957,MFTM_A_new1021,2021.2.3,59.993400703609076,
,,,,,,,,stim/Instruction_adaptive.png,conditions/adaptive.xlsx,test,0.6,0.6,0.6,-0.6,-0.6,right,R,,,,,0,1,1,1,0,75,75,70,,,,,,,,,,,,,,,,,,,,,,,,,,,,,,,,,,,,,,,,,,,,486.93993990006857,None,right,1,1.126554299844429,487.4405259999912,488.89294330007397,487.4405259999912,488.391711599892,487.4405259999912,488.391711599892,487.4405259999912,488.391711599892,487.4405259999912,488.391711599892,487.4405259999912,488.391711599892,488.35839660000056,488.8592580999248,488.35839660000056,488.8592580999248,488.35839660000056,488.8592580999248,488.35839660000056,488.8592580999248,488.35839660000056,488.8592580999248,488.35839660000056,488.8592580999248,488.35839660000056,488.8592580999248,488.35839660000056,488.8592580999248,487.4405259999912,None,488.8592580999248,490.0109546999447,0.9400000000000006,490.0273978000041,None,490.77873590006493,None,,,,,,,[1.13684211],2.820000000000002,0.8026315789473685,11026,001,2024_Jan_10_0957,MFTM_A_new1021,2021.2.3,59.993400703609076,
,,,,,,,,stim/Instruction_adaptive.png,conditions/adaptive.xlsx,test,-0.6,-0.6,-0.6,0.6,0.6,left,L,,,,,0,1,1,1,0,76,76,69,,,,,,,,,,,,,,,,,,,,,,,,,,,,,,,,,,,,,,,,,,,,491.27972929994576,None,right,0,1.450757300015539,491.7801993000321,493.21561379986815,491.7801993000321,492.71521360008046,491.7801993000321,492.71521360008046,491.7801993000321,492.71521360008046,491.7801993000321,492.71521360008046,491.7801993000321,492.71521360008046,492.6981665000785,493.1988196000457,492.6981665000785,493.1988196000457,492.6981665000785,493.1988196000457,492.6981665000785,493.1988196000457,492.6981665000785,493.1988196000457,492.6981665000785,493.1988196000457,492.6981665000785,493.1988196000457,492.6981665000785,493.1988196000457,491.7801993000321,None,493.1988196000457,494.35065810009837,0.9300000000000006,494.3673092999961,None,495.11852600006387,None,,,,,,,[1.14246753],2.760000000000002,0.7922077922077922,11026,001,2024_Jan_10_0957,MFTM_A_new1021,2021.2.3,59.993400703609076,
,,,,,,,,stim/Instruction_adaptive.png,conditions/adaptive.xlsx,test,-0.6,-0.6,-0.6,0.6,0.6,left,L,,,,,0,1,1,1,0,77,77,93,,,,,,,,,,,,,,,,,,,,,,,,,,,,,,,,,,,,,,,,,,,,495.61915159993805,None,left,1,2.4314077999442816,496.1198764999863,497.6054235000629,496.1198764999863,497.10471519990824,496.1198764999863,497.10471519990824,496.1198764999863,497.10471519990824,496.1198764999863,497.10471519990824,496.1198764999863,497.10471519990824,497.07140600006096,497.5720341000706,497.07140600006096,497.5720341000706,497.07140600006096,497.5720341000706,497.07140600006096,497.5720341000706,497.07140600006096,497.5720341000706,497.07140600006096,497.5720341000706,497.07140600006096,497.5720341000706,497.07140600006096,497.5720341000706,496.1198764999863,None,497.5720341000706,498.7238602999132,0.9700000000000006,498.7404503999278,None,499.49162360001355,None,,,,,,,[1.1474359],2.780000000000002,0.7948717948717948,11026,001,2024_Jan_10_0957,MFTM_A_new1021,2021.2.3,59.993400703609076,
,,,,,,,,stim/Instruction_adaptive.png,conditions/adaptive.xlsx,test,-0.6,-0.6,-0.6,0.6,0.6,left,L,,,,,0,1,1,1,0,78,78,95,,,,,,,,,,,,,,,,,,,,,,,,,,,,,,,,,,,,,,,,,,,,499.99239180004224,None,left,1,2.178043299820274,500.4929659999907,501.9619259000756,500.4929659999907,501.46119549986906,500.4929659999907,501.46119549986906,500.4929659999907,501.46119549986906,500.4929659999907,501.46119549986906,500.4929659999907,501.46119549986906,501.44445879990235,501.9454182998743,501.44445879990235,501.9454182998743,501.44445879990235,501.9454182998743,501.44445879990235,501.9454182998743,501.44445879990235,501.9454182998743,501.44445879990235,501.9454182998743,501.44445879990235,501.9454182998743,501.44445879990235,501.9454182998743,500.4929659999907,None,501.9454182998743,503.0967927998863,0.9600000000000006,503.1138645000756,None,503.86482409993187,None,,,,,,,[1.15240506],2.800000000000002,0.7974683544303798,11026,001,2024_Jan_10_0957,MFTM_A_new1021,2021.2.3,59.993400703609076,
,,,,,,,,stim/Instruction_adaptive.png,conditions/adaptive.xlsx,test,-0.6,-0.6,-0.6,0.6,0.6,left,L,,,,,0,1,1,1,0,79,79,15,,,,,,,,,,,,,,,,,,,,,,,,,,,,,,,,,,,,,,,,,,,,504.365426100092,None,left,1,1.3807345998939127,504.8663413999602,506.31842810008675,504.8663413999602,505.81748760002665,504.8663413999602,505.81748760002665,504.8663413999602,505.81748760002665,504.8663413999602,505.81748760002665,504.8663413999602,505.81748760002665,505.7844020000193,506.28507640003227,505.7844020000193,506.28507640003227,505.7844020000193,506.28507640003227,505.7844020000193,506.28507640003227,505.7844020000193,506.28507640003227,505.7844020000193,506.28507640003227,505.7844020000193,506.28507640003227,505.7844020000193,506.28507640003227,504.8663413999602,None,506.28507640003227,507.453698300058,0.9400000000000006,507.4698948999867,None,508.22107709990814,None,,,,,,,[1.1575],2.820000000000002,0.8,11026,001,2024_Jan_10_0957,MFTM_A_new1021,2021.2.3,59.993400703609076,
,,,,,,,,stim/Instruction_adaptive.png,conditions/adaptive.xlsx,test,0.6,0.6,0.6,-0.6,-0.6,right,R,,,,,0,1,1,1,0,80,80,50,,,,,,,,,,,,,,,,,,,,,,,,,,,,,,,,,,,,,,,,,,,,508.72206500009634,None,right,1,1.256446700077504,509.22276740008965,510.6587783000432,509.22276740008965,510.15754249994643,509.22276740008965,510.15754249994643,509.22276740008965,510.15754249994643,509.22276740008965,510.15754249994643,509.22276740008965,510.15754249994643,510.1407771999948,510.6416168999858,510.1407771999948,510.6416168999858,510.1407771999948,510.6416168999858,510.1407771999948,510.6416168999858,510.1407771999948,510.6416168999858,510.1407771999948,510.6416168999858,510.1407771999948,510.6416168999858,510.1407771999948,510.6416168999858,509.22276740008965,None,510.6416168999858,511.8099595999811,0.9300000000000006,511.8265559000429,None,512.577829600079,None,,,,,,,[1.16259259],2.8500000000000023,0.8024691358024691,11026,001,2024_Jan_10_0957,MFTM_A_new1021,2021.2.3,59.993400703609076,
,,,,,,,,stim/Instruction_adaptive.png,conditions/adaptive.xlsx,test,0.6,0.6,0.6,-0.6,-0.6,right,R,,,,,0,1,1,1,0,81,81,94,,,,,,,,,,,,,,,,,,,,,,,,,,,,,,,,,,,,,,,,,,,,513.0785759999417,None,left,0,1.1160126000177115,513.5791038000025,514.9979437999427,513.5791038000025,514.4972685999237,513.5791038000025,514.4972685999237,513.5791038000025,514.4972685999237,513.5791038000025,514.4972685999237,513.5791038000025,514.4972685999237,514.4636341000441,514.9646312999539,514.4636341000441,514.9646312999539,514.4636341000441,514.9646312999539,514.4636341000441,514.9646312999539,514.4636341000441,514.9646312999539,514.4636341000441,514.9646312999539,514.4636341000441,514.9646312999539,514.4636341000441,514.9646312999539,513.5791038000025,None,514.9646312999539,516.1329318999778,0.9100000000000006,516.1665936999489,None,516.9174029999413,None,,,,,,,[1.16780488],2.780000000000002,0.7926829268292683,11026,001,2024_Jan_10_0957,MFTM_A_new1021,2021.2.3,59.993400703609076,
,,,,,,,,stim/Instruction_adaptive.png,conditions/adaptive.xlsx,test,0.6,0.6,0.6,-0.6,-0.6,right,R,,,,,0,1,1,1,0,82,82,28,,,,,,,,,,,,,,,,,,,,,,,,,,,,,,,,,,,,,,,,,,,,517.4180610999465,None,right,1,2.2243449999950826,517.9187280999031,519.3876251999754,517.9187280999031,518.8871587999165,517.9187280999031,518.8871587999165,517.9187280999031,518.8871587999165,517.9187280999031,518.8871587999165,517.9187280999031,518.8871587999165,518.8709249000531,519.3709025999997,518.8709249000531,519.3709025999997,518.8709249000531,519.3709025999997,518.8709249000531,519.3709025999997,518.8709249000531,519.3709025999997,518.8709249000531,519.3709025999997,518.8709249000531,519.3709025999997,518.8709249000531,519.3709025999997,517.9187280999031,None,519.3709025999997,None,0.9600000000000006,520.5561587000266,None,521.3079345000442,None,,,,,,,[1.17228916],2.8100000000000023,0.7951807228915663,11026,001,2024_Jan_10_0957,MFTM_A_new1021,2021.2.3,59.993400703609076,
,,,,,,,,stim/Instruction_adaptive.png,conditions/adaptive.xlsx,test,-0.6,-0.6,-0.6,0.6,0.6,left,L,,,,,0,1,1,1,0,83,83,63,,,,,,,,,,,,,,,,,,,,,,,,,,,,,,,,,,,,,,,,,,,,521.8087069999892,None,right,0,1.4098757000174373,522.309177499963,523.7608644999564,522.309177499963,523.2612264999188,522.309177499963,523.2612264999188,522.309177499963,523.2612264999188,522.309177499963,523.2612264999188,522.309177499963,523.2612264999188,523.2266152999364,523.7275831000879,523.2266152999364,523.7275831000879,523.2266152999364,523.7275831000879,523.2266152999364,523.7275831000879,523.2266152999364,523.7275831000879,523.2266152999364,523.7275831000879,523.2266152999364,523.7275831000879,523.2266152999364,523.7275831000879,522.309177499963,None,523.7275831000879,524.9129123000894,0.9400000000000006,524.9295439999551,None,525.680430999957,None,,,,,,,[1.17690476],2.740000000000002,0.7857142857142857,11026,001,2024_Jan_10_0957,MFTM_A_new1021,2021.2.3,59.993400703609076,
,,,,,,,,stim/Instruction_adaptive.png,conditions/adaptive.xlsx,test,-0.6,-0.6,-0.6,0.6,0.6,left,L,,,,,0,1,1,1,0,84,84,61,,,,,,,,,,,,,,,,,,,,,,,,,,,,,,,,,,,,,,,,,,,,526.1820632999297,None,left,1,1.4772852000314742,526.6818738000002,528.1674190000631,526.6818738000002,527.6668710999656,526.6818738000002,527.6668710999656,526.6818738000002,527.6668710999656,526.6818738000002,527.6668710999656,526.6818738000002,527.6668710999656,527.649937500013,528.1508651000913,527.649937500013,528.1508651000913,527.649937500013,528.1508651000913,527.649937500013,528.1508651000913,527.649937500013,528.1508651000913,527.649937500013,528.1508651000913,527.649937500013,528.1508651000913,527.649937500013,528.1508651000913,526.6818738000002,None,528.1508651000913,529.3362843000796,0.9800000000000006,529.3524897999596,None,530.103878099937,None,,,,,,,[1.18094118],2.760000000000002,0.788235294117647,11026,001,2024_Jan_10_0957,MFTM_A_new1021,2021.2.3,59.993400703609076,
,,,,,,,,stim/Instruction_adaptive.png,conditions/adaptive.xlsx,test,0.6,0.6,0.6,-0.6,-0.6,right,R,,,,,0,1,1,1,0,85,85,38,,,,,,,,,,,,,,,,,,,,,,,,,,,,,,,,,,,,,,,,,,,,530.6043366000522,None,right,1,1.2861231002025306,531.1058719998691,532.591464499943,531.1058719998691,532.0900934000965,531.1058719998691,532.0900934000965,531.1058719998691,532.0900934000965,531.1058719998691,532.0900934000965,531.1058719998691,532.0900934000965,532.0575105000753,532.5578544000164,532.0575105000753,532.5578544000164,532.0575105000753,532.5578544000164,532.0575105000753,532.5578544000164,532.0575105000753,532.5578544000164,532.0575105000753,532.5578544000164,532.0575105000753,532.5578544000164,532.0575105000753,532.5578544000164,531.1058719998691,None,532.5578544000164,533.7424671999179,0.9700000000000006,533.7757594999857,None,534.5268554999493,None,,,,,,,[1.185],2.790000000000002,0.7906976744186046,11026,001,2024_Jan_10_0957,MFTM_A_new1021,2021.2.3,59.993400703609076,
,,,,,,,,stim/Instruction_adaptive.png,conditions/adaptive.xlsx,test,-0.6,-0.6,-0.6,0.6,0.6,left,L,,,,,0,1,1,1,0,86,86,5,,,,,,,,,,,,,,,,,,,,,,,,,,,,,,,,,,,,,,,,,,,,535.0280104998965,None,left,1,1.2474924998823553,535.5284698000178,536.9806120998692,535.5284698000178,536.4804330000188,535.5284698000178,536.4804330000188,535.5284698000178,536.4804330000188,535.5284698000178,536.4804330000188,535.5284698000178,536.4804330000188,536.4640844000969,536.9638209999539,536.4640844000969,536.9638209999539,536.4640844000969,536.9638209999539,536.4640844000969,536.9638209999539,536.4640844000969,536.9638209999539,536.4640844000969,536.9638209999539,536.4640844000969,536.9638209999539,536.4640844000969,536.9638209999539,535.5284698000178,None,536.9638209999539,538.1664988000412,0.9500000000000006,538.1822319000494,None,538.9339306999464,None,,,,,,,[1.1891954],2.8100000000000023,0.7931034482758621,11026,001,2024_Jan_10_0957,MFTM_A_new1021,2021.2.3,59.993400703609076,
,,,,,,,,stim/Instruction_adaptive.png,conditions/adaptive.xlsx,test,-0.6,-0.6,-0.6,0.6,0.6,left,L,,,,,0,1,1,1,0,87,87,71,,,,,,,,,,,,,,,,,,,,,,,,,,,,,,,,,,,,,,,,,,,,539.4342282998841,None,left,1,0.8405098000075668,539.9347699999344,541.3868609000929,539.9347699999344,540.8862894000486,539.9347699999344,540.8862894000486,539.9347699999344,540.8862894000486,539.9347699999344,540.8862894000486,539.9347699999344,540.8862894000486,540.8535577000584,541.3543847000692,540.8535577000584,541.3543847000692,540.8535577000584,541.3543847000692,540.8535577000584,541.3543847000692,540.8535577000584,541.3543847000692,540.8535577000584,541.3543847000692,540.8535577000584,541.3543847000692,540.8535577000584,541.3543847000692,539.9347699999344,None,541.3543847000692,542.5553301000036,0.9400000000000006,542.5721563000698,None,543.324159400072,None,,,,,,,[1.19340909],2.830000000000002,0.7954545454545454,11026,001,2024_Jan_10_0957,MFTM_A_new1021,2021.2.3,59.993400703609076,
,,,,,,,,stim/Instruction_adaptive.png,conditions/adaptive.xlsx,test,-0.6,-0.6,-0.6,0.6,0.6,left,L,,,,,0,1,1,1,0,88,88,99,,,,,,,,,,,,,,,,,,,,,,,,,,,,,,,,,,,,,,,,,,,,543.8243416999467,None,left,1,0.7148415998090059,544.3246249000076,545.7609417000785,544.3246249000076,545.2594341000076,544.3246249000076,545.2594341000076,544.3246249000076,545.2594341000076,544.3246249000076,545.2594341000076,544.3246249000076,545.2594341000076,545.2425659999717,545.7442797000986,545.2425659999717,545.7442797000986,545.2425659999717,545.7442797000986,545.2425659999717,545.7442797000986,545.2425659999717,545.7442797000986,545.2425659999717,545.7442797000986,545.2425659999717,545.7442797000986,545.2425659999717,545.7442797000986,544.3246249000076,None,545.7442797000986,546.9452861000318,0.9300000000000006,546.9619400000665,None,547.7139985000249,None,,,,,,,[1.19764045],2.8500000000000023,0.797752808988764,11026,001,2024_Jan_10_0957,MFTM_A_new1021,2021.2.3,59.993400703609076,
,,,,,,,,stim/Instruction_adaptive.png,conditions/adaptive.xlsx,test,0.6,0.6,0.6,-0.6,-0.6,right,R,,,,,0,1,1,1,0,89,89,88,,,,,,,,,,,,,,,,,,,,,,,,,,,,,,,,,,,,,,,,,,,,548.2148732000496,None,right,1,1.0203333001118153,548.714670999907,550.1334641999565,548.714670999907,549.6325934000779,548.714670999907,549.6325934000779,548.714670999907,549.6325934000779,548.714670999907,549.6325934000779,548.714670999907,549.6325934000779,549.5992566000205,550.1005655999761,549.5992566000205,550.1005655999761,549.5992566000205,550.1005655999761,549.5992566000205,550.1005655999761,549.5992566000205,550.1005655999761,549.5992566000205,550.1005655999761,549.5992566000205,550.1005655999761,549.5992566000205,550.1005655999761,548.714670999907,None,550.1005655999761,551.3015680999961,0.9100000000000006,551.3351745998953,None,552.0863036999945,None,,,,,,,[1.202],2.860000000000002,0.8,11026,001,2024_Jan_10_0957,MFTM_A_new1021,2021.2.3,59.993400703609076,
,,,,,,,,stim/Instruction_adaptive.png,conditions/adaptive.xlsx,test,-0.6,-0.6,-0.6,0.6,0.6,left,L,,,,,0,1,1,1,0,90,90,7,,,,,,,,,,,,,,,,,,,,,,,,,,,,,,,,,,,,,,,,,,,,552.5869147998746,None,left,1,0.943304899847135,553.0877892998978,554.5064954999834,553.0877892998978,554.0056638999376,553.0877892998978,554.0056638999376,553.0877892998978,554.0056638999376,553.0877892998978,554.0056638999376,553.0877892998978,554.0056638999376,553.9892325999681,554.4902194999158,553.9892325999681,554.4902194999158,553.9892325999681,554.4902194999158,553.9892325999681,554.4902194999158,553.9892325999681,554.4902194999158,553.9892325999681,554.4902194999158,553.9892325999681,554.4902194999158,553.9892325999681,554.4902194999158,553.0877892998978,None,554.4902194999158,None,0.9100000000000006,555.7081434000283,None,556.4593682000414,None,,,,,,,[1.20626374],2.880000000000002,0.8021978021978022,11026,001,2024_Jan_10_0957,MFTM_A_new1021,2021.2.3,59.993400703609076,
,,,,,,,,stim/Instruction_adaptive.png,conditions/adaptive.xlsx,test,0.6,0.6,0.6,-0.6,-0.6,right,R,,,,,0,1,1,1,0,91,91,84,,,,,,,,,,,,,,,,,,,,,,,,,,,,,,,,,,,,,,,,,,,,556.9606168998871,None,right,1,0.7776168999262154,557.4615839000326,558.8634979000781,557.4615839000326,558.3627557998989,557.4615839000326,558.3627557998989,557.4615839000326,558.3627557998989,557.4615839000326,558.3627557998989,557.4615839000326,558.3627557998989,558.328837600071,558.8305130000226,558.328837600071,558.8305130000226,558.328837600071,558.8305130000226,558.328837600071,558.8305130000226,558.328837600071,558.8305130000226,558.328837600071,558.8305130000226,558.328837600071,558.8305130000226,558.328837600071,558.8305130000226,557.4615839000326,None,558.8305130000226,560.0480426000431,0.8900000000000006,560.065397300059,None,560.8159521000925,None,,,,,,,[1.21065217],2.900000000000002,0.8043478260869565,11026,001,2024_Jan_10_0957,MFTM_A_new1021,2021.2.3,59.993400703609076,
,,,,,,,,stim/Instruction_adaptive.png,conditions/adaptive.xlsx,test,-0.6,-0.6,-0.6,0.6,0.6,left,L,,,,,0,1,1,1,0,92,92,29,,,,,,,,,,,,,,,,,,,,,,,,,,,,,,,,,,,,,,,,,,,,561.3166354999412,None,left,1,0.8224396000150591,561.8172261000145,563.2025611000136,561.8172261000145,562.7035542998929,561.8172261000145,562.7035542998929,561.8172261000145,562.7035542998929,561.8172261000145,562.7035542998929,561.8172261000145,562.7035542998929,562.6852865000255,563.1863887000363,562.6852865000255,563.1863887000363,562.6852865000255,563.1863887000363,562.6852865000255,563.1863887000363,562.6852865000255,563.1863887000363,562.6852865000255,563.1863887000363,562.6852865000255,563.1863887000363,562.6852865000255,563.1863887000363,561.8172261000145,None,563.1863887000363,564.4060428999364,0.8800000000000006,564.4212472999934,None,565.1724556998815,None,,,,,,,[1.21505376],2.920000000000002,0.8064516129032258,11026,001,2024_Jan_10_0957,MFTM_A_new1021,2021.2.3,59.993400703609076,
,,,,,,,,stim/Instruction_adaptive.png,conditions/adaptive.xlsx,test,-0.6,-0.6,-0.6,0.6,0.6,left,L,,,,,0,1,1,1,0,93,93,87,,,,,,,,,,,,,,,,,,,,,,,,,,,,,,,,,,,,,,,,,,,,565.6732864000369,None,left,1,1.4344824000727385,566.1736679000314,567.5431413999759,566.1736679000314,567.0585392999928,566.1736679000314,567.0585392999928,566.1736679000314,567.0585392999928,566.1736679000314,567.0585392999928,566.1736679000314,567.0585392999928,567.0250893998891,567.5267036000732,567.0250893998891,567.5267036000732,567.0250893998891,567.5267036000732,567.0250893998891,567.5267036000732,567.0250893998891,567.5267036000732,567.0250893998891,567.5267036000732,567.0250893998891,567.5267036000732,567.0250893998891,567.5267036000732,566.1736679000314,None,567.5267036000732,568.761106699938,0.8700000000000006,568.7779510000255,None,569.5287120998837,None,,,,,,,[1.21946809],2.940000000000002,0.8085106382978723,11026,001,2024_Jan_10_0957,MFTM_A_new1021,2021.2.3,59.993400703609076,
