arrwidth1,arrwidth2,arrwidth3,arrwidth4,arrwidth5,keyb,type,orientation,instruction_image,block_filename,block_type,arrow11,arrow22,arrow33,arrow44,arrow55,keyb_3,orientation3,trials.thisRepN,trials.thisTrialN,trials.thisN,trials.thisIndex,trials_3.thisRepN,trials_3.thisTrialN,trials_3.thisN,trials_3.thisIndex,trials_2.thisRepN,trials_2.thisTrialN,trials_2.thisN,trials_2.thisIndex,welcome.started,welcome.stopped,key_resp.keys,key_resp.rt,key_resp.started,key_resp.stopped,instruction_example.started,instruction_example.stopped,key_resp_3.keys,key_resp_3.rt,key_resp_3.started,key_resp_3.stopped,instruction_task.started,instruction_task.stopped,key_resp_2.keys,key_resp_2.rt,key_resp_2.started,key_resp_2.stopped,text_2.started,text_2.stopped,A1.started,A1.stopped,A2.started,A2.stopped,A3.started,A3.stopped,A4.started,A4.stopped,A5.started,A5.stopped,key_resp_4.keys,key_resp_4.corr,key_resp_4.rt,key_resp_4.started,key_resp_4.stopped,fb.started,fb.stopped,instruction_block.started,instruction_block.stopped,key_resp_8.keys,key_resp_8.rt,key_resp_8.started,key_resp_8.stopped,text_8.started,text_8.stopped,key_resp_9.keys,key_resp_9.corr,key_resp_9.rt,text_5.started,text_5.stopped,A11_3.started,A11_3.stopped,A22_2.started,A22_2.stopped,A33_2.started,A33_2.stopped,A44_2.started,A44_2.stopped,A55_2.started,A55_2.stopped,M1_3.started,M1_3.stopped,M2_2.started,M2_2.stopped,M3_2.started,M3_2.stopped,M4_2.started,M4_2.stopped,M5_2.started,M5_2.stopped,M6_2.started,M6_2.stopped,M7_2.started,M7_2.stopped,M8_2.started,M8_2.stopped,key_resp_9.started,key_resp_9.stopped,fixation.started,fixation.stopped,ET,fb_3.started,fb_3.stopped,text_9.started,text_9.stopped,fb_4.started,fb_4.stopped,text_7.started,text_7.stopped,endtext.started,endtext.stopped,fixation_ITI,CCC,Acc,participant,session,date,expName,psychopyVersion,frameRate,
,,,,,,,,,,,,,,,,,,,,,,,,,,,,,,12.490865799947642,None,space,5.9501005000201985,12.490865799947642,None,,,,,,,,,,,,,,,,,,,,,,,,,,,,,,,,,,,,,,,,,,,,,,,,,,,,,,,,,,,,,,,,,,,,,,,,,,,,,,,,,,,,,,,,,11025,002,2024_Jan_08_1302,MFTM_A_new1021,2021.2.3,59.76232520394705,
,,,,,,,,,,,,,,,,,,,,,,,,,,,,,,,,,,,,18.465774999931455,None,space,1.9192494000308216,18.465774999931455,None,,,,,,,,,,,,,,,,,,,,,,,,,,,,,,,,,,,,,,,,,,,,,,,,,,,,,,,,,,,,,,,,,,,,,,,,,,,,,,,,,,,11025,002,2024_Jan_08_1302,MFTM_A_new1021,2021.2.3,59.76232520394705,
,,,,,,,,,,,,,,,,,,,,,,,,,,,,,,,,,,,,,,,,,,20.401827599969693,None,space,3.6471588000422344,20.401827599969693,None,,,,,,,,,,,,,,,,,,,,,,,,,,,,,,,,,,,,,,,,,,,,,,,,,,,,,,,,,,,,,,,,,,,,,,,,,,,,,11025,002,2024_Jan_08_1302,MFTM_A_new1021,2021.2.3,59.76232520394705,
-0.6,-0.6,-0.6,0.6,0.6,left,3:2,L,,,,,,,,,,,0,0,0,1,,,,,,,,,,,,,,,,,,,,,,,,,,,24.091057799989358,None,24.091057799989358,None,24.091057799989358,None,24.091057799989358,None,24.091057799989358,None,24.091057799989358,None,left,1,1.197784100077115,24.091057799989358,None,25.30876599997282,None,,,,,,,,,,,,,,,,,,,,,,,,,,,,,,,,,,,,,,,,,,,,,,,,,,,,,,,,,,11025,002,2024_Jan_08_1302,MFTM_A_new1021,2021.2.3,59.76232520394705,
0.6,0.6,0.6,-0.6,-0.6,right,3:2,R,,,,,,,,,,,0,1,1,0,,,,,,,,,,,,,,,,,,,,,,,,,,,26.060286699910648,None,26.060286699910648,None,26.060286699910648,None,26.060286699910648,None,26.060286699910648,None,26.060286699910648,None,left,0,1.9725821999600157,26.060286699910648,None,28.063022199901752,None,,,,,,,,,,,,,,,,,,,,,,,,,,,,,,,,,,,,,,,,,,,,,,,,,,,,,,,,,,11025,002,2024_Jan_08_1302,MFTM_A_new1021,2021.2.3,59.76232520394705,
0.6,0.6,0.6,-0.6,-0.6,right,3:2,R,,,,,,,,,,,1,0,2,0,,,,,,,,,,,,,,,,,,,,,,,,,,,28.814582599909045,None,28.814582599909045,None,28.814582599909045,None,28.814582599909045,None,28.814582599909045,None,28.814582599909045,None,right,1,1.0185108999721706,28.814582599909045,None,29.849529999890365,None,,,,,,,,,,,,,,,,,,,,,,,,,,,,,,,,,,,,,,,,,,,,,,,,,,,,,,,,,,11025,002,2024_Jan_08_1302,MFTM_A_new1021,2021.2.3,59.76232520394705,
-0.6,-0.6,-0.6,0.6,0.6,left,3:2,L,,,,,,,,,,,1,1,3,1,,,,,,,,,,,,,,,,,,,,,,,,,,,30.60074199992232,None,30.60074199992232,None,30.60074199992232,None,30.60074199992232,None,30.60074199992232,None,30.60074199992232,None,left,1,1.4162044000113383,30.60074199992232,None,32.03585879993625,None,,,,,,,,,,,,,,,,,,,,,,,,,,,,,,,,,,,,,,,,,,,,,,,,,,,,,,,,,,11025,002,2024_Jan_08_1302,MFTM_A_new1021,2021.2.3,59.76232520394705,
,,,,,,,,stim/Instruction_mask.png,conditions/adaptive.xlsx,practice,-0.6,-0.6,-0.6,0.6,0.6,left,L,,,,,0,0,0,0,0,0,0,21,,,,,,,,,,,,,,,,,,,,,,,,,,,,,,,,,,,,,,32.97056129993871,None,space,4.623008500086144,32.97056129993871,None,37.6941838999046,None,right,0,2.048999199992977,38.12792559992522,None,38.12792559992522,41.13253779988736,38.12792559992522,41.13253779988736,38.12792559992522,41.13253779988736,38.12792559992522,41.13253779988736,38.12792559992522,41.13253779988736,41.115824899985455,41.61649779998697,41.115824899985455,41.61649779998697,41.115824899985455,41.61649779998697,41.115824899985455,41.61649779998697,41.115824899985455,41.61649779998697,41.115824899985455,41.61649779998697,41.115824899985455,41.61649779998697,41.115824899985455,41.61649779998697,38.12792559992522,None,41.61649779998697,41.61649779998697,3,41.63311739999335,None,42.38436159992125,None,,,,,,,,,,11025,002,2024_Jan_08_1302,MFTM_A_new1021,2021.2.3,59.76232520394705,
,,,,,,,,stim/Instruction_mask.png,conditions/adaptive.xlsx,practice,0.6,0.6,0.6,-0.6,-0.6,right,R,,,,,0,0,0,0,0,1,1,40,,,,,,,,,,,,,,,,,,,,,,,,,,,,,,,,,,,,,,,,,,,,42.88555499992799,None,right,1,1.6387885001022369,43.38632669998333,45.389196099946275,43.38632669998333,44.88812889996916,43.38632669998333,44.88812889996916,43.38632669998333,44.88812889996916,43.38632669998333,44.88812889996916,43.38632669998333,44.88812889996916,44.87195169995539,45.37247979990207,44.87195169995539,45.37247979990207,44.87195169995539,45.37247979990207,44.87195169995539,45.37247979990207,44.87195169995539,45.37247979990207,44.87195169995539,45.37247979990207,44.87195169995539,45.37247979990207,44.87195169995539,45.37247979990207,43.38632669998333,None,45.37247979990207,46.874787199893035,1.5,46.8915845999727,None,47.64226209989283,None,,,,,,,,,,11025,002,2024_Jan_08_1302,MFTM_A_new1021,2021.2.3,59.76232520394705,
,,,,,,,,stim/Instruction_mask.png,conditions/adaptive.xlsx,practice,0.6,0.6,0.6,-0.6,-0.6,right,R,,,,,0,0,0,0,0,2,2,24,,,,,,,,,,,,,,,,,,,,,,,,,,,,,,,,,,,,,,,,,,,,48.14319909992628,None,right,1,1.2131945000728592,48.643881500000134,49.94560809992254,48.643881500000134,49.445314599899575,48.643881500000134,49.445314599899575,48.643881500000134,49.445314599899575,48.643881500000134,49.445314599899575,48.643881500000134,49.445314599899575,49.428547799936496,49.929169199895114,49.428547799936496,49.929169199895114,49.428547799936496,49.929169199895114,49.428547799936496,49.929169199895114,49.428547799936496,49.929169199895114,49.428547799936496,49.929169199895114,49.428547799936496,49.929169199895114,49.428547799936496,49.929169199895114,48.643881500000134,None,49.929169199895114,52.13223729992751,0.8,52.14886629988905,None,52.900305299903266,None,,,,,,,,,,11025,002,2024_Jan_08_1302,MFTM_A_new1021,2021.2.3,59.76232520394705,
,,,,,,,,stim/Instruction_mask.png,conditions/adaptive.xlsx,practice,-0.6,-0.6,-0.6,0.6,0.6,left,L,,,,,0,0,0,0,0,3,3,83,,,,,,,,,,,,,,,,,,,,,,,,,,,,,,,,,,,,,,,,,,,,53.40097149997018,None,left,1,0.6596411000937223,53.901341299992055,54.6525038999971,53.901341299992055,54.1518130999757,53.901341299992055,54.1518130999757,53.901341299992055,54.1518130999757,53.901341299992055,54.1518130999757,53.901341299992055,54.1518130999757,54.13514629995916,54.636426999932155,54.13514629995916,54.636426999932155,54.13514629995916,54.636426999932155,54.13514629995916,54.636426999932155,54.13514629995916,54.636426999932155,54.13514629995916,54.636426999932155,54.13514629995916,54.636426999932155,54.13514629995916,54.636426999932155,53.901341299992055,None,54.636426999932155,57.3898205999285,3,57.40662399993744,None,58.15802189998794,None,,,,,,,,,,11025,002,2024_Jan_08_1302,MFTM_A_new1021,2021.2.3,59.76232520394705,
,,,,,,,,stim/Instruction_mask.png,conditions/adaptive.xlsx,practice,,,,,,,,,,,,0,0,0,0,,,,,,,,,,,,,,,,,,,,,,,,,,,,,,,,,,,,,,,,,,,,,,,,,,,,,,,,,,,,,,,,,,,,,,,,,,,,,,,,,,,,,,,,,,58.6755343999248,59.676989599945955,59.66154759994242,59.66154759994242,59.66154759994242,None,,,,11025,002,2024_Jan_08_1302,MFTM_A_new1021,2021.2.3,59.76232520394705,
,,,,,,,,stim/Instruction_adaptive.png,conditions/adaptive.xlsx,test,0.6,0.6,0.6,-0.6,-0.6,right,R,,,,,0,1,1,1,0,0,0,66,,,,,,,,,,,,,,,,,,,,,,,,,,,,,,,,,,,,,,62.78131269989535,None,space,3.0758983999257907,62.78131269989535,None,65.90254369995091,None,right,1,1.3815017000306398,66.40357469988521,None,66.40357469988521,69.40807159990072,66.40357469988521,69.40807159990072,66.40357469988521,69.40807159990072,66.40357469988521,69.40807159990072,66.40357469988521,69.40807159990072,69.37440109997988,69.87538789992686,69.37440109997988,69.87538789992686,69.37440109997988,69.87538789992686,69.37440109997988,69.87538789992686,69.37440109997988,69.87538789992686,69.37440109997988,69.87538789992686,69.37440109997988,69.87538789992686,69.37440109997988,69.87538789992686,66.40357469988521,None,69.87538789992686,69.87538789992686,3,69.90878959989641,None,70.65989679994527,None,,,,,,,0,6.000000000000005,1.0,11025,002,2024_Jan_08_1302,MFTM_A_new1021,2021.2.3,59.76232520394705,
,,,,,,,,stim/Instruction_adaptive.png,conditions/adaptive.xlsx,test,0.6,0.6,0.6,-0.6,-0.6,right,R,,,,,0,1,1,1,0,1,1,30,,,,,,,,,,,,,,,,,,,,,,,,,,,,,,,,,,,,,,,,,,,,71.16060169995762,None,left,0,1.3803024999797344,71.66113119991496,72.41317959991284,71.66113119991496,71.91167709999718,71.66113119991496,71.91167709999718,71.66113119991496,71.91167709999718,71.66113119991496,71.91167709999718,71.66113119991496,71.91167709999718,71.89503789995797,72.39636139990762,71.89503789995797,72.39636139990762,71.89503789995797,72.39636139990762,71.89503789995797,72.39636139990762,71.89503789995797,72.39636139990762,71.89503789995797,72.39636139990762,71.89503789995797,72.39636139990762,71.89503789995797,72.39636139990762,71.66113119991496,None,72.39636139990762,73.28084829996806,0.25,73.29668929998297,None,74.04921499988995,None,,,,,,,[0.875],2.570000000000002,0.5,11025,002,2024_Jan_08_1302,MFTM_A_new1021,2021.2.3,59.76232520394705,
,,,,,,,,stim/Instruction_adaptive.png,conditions/adaptive.xlsx,test,-0.6,-0.6,-0.6,0.6,0.6,left,L,,,,,0,1,1,1,0,2,2,59,,,,,,,,,,,,,,,,,,,,,,,,,,,,,,,,,,,,,,,,,,,,74.54941039998084,None,left,1,1.8797824999783188,75.04971629998181,76.66947569989134,75.04971629998181,76.16844359994866,75.04971629998181,76.16844359994866,75.04971629998181,76.16844359994866,75.04971629998181,76.16844359994866,75.04971629998181,76.16844359994866,76.15165409992915,76.6528378999792,76.15165409992915,76.6528378999792,76.15165409992915,76.6528378999792,76.15165409992915,76.6528378999792,76.15165409992915,76.6528378999792,76.15165409992915,76.6528378999792,76.15165409992915,76.6528378999792,76.15165409992915,76.6528378999792,75.04971629998181,None,76.6528378999792,77.70408389996737,1.1100000000000008,77.72017939994112,None,78.47121229988988,None,,,,,,,[1.04666667],3.3800000000000026,0.6666666666666666,11025,002,2024_Jan_08_1302,MFTM_A_new1021,2021.2.3,59.76232520394705,
,,,,,,,,stim/Instruction_adaptive.png,conditions/adaptive.xlsx,test,-0.6,-0.6,-0.6,0.6,0.6,left,L,,,,,0,1,1,1,0,3,3,87,,,,,,,,,,,,,,,,,,,,,,,,,,,,,,,,,,,,,,,,,,,,78.97206829988863,None,right,0,1.2806240000063553,79.47292409988586,80.60790939989965,79.47292409988586,80.10756719997153,79.47292409988586,80.10756719997153,79.47292409988586,80.10756719997153,79.47292409988586,80.10756719997153,79.47292409988586,80.10756719997153,80.09066529991105,80.5913533999119,80.09066529991105,80.5913533999119,80.09066529991105,80.5913533999119,80.09066529991105,80.5913533999119,80.09066529991105,80.5913533999119,80.09066529991105,80.5913533999119,80.09066529991105,80.5913533999119,80.09066529991105,80.5913533999119,79.47292409988586,None,80.5913533999119,81.84358609991614,0.6300000000000003,81.85905719990842,None,82.61163629998919,None,,,,,,,[1.2525],2.1700000000000017,0.5,11025,002,2024_Jan_08_1302,MFTM_A_new1021,2021.2.3,59.76232520394705,
,,,,,,,,stim/Instruction_adaptive.png,conditions/adaptive.xlsx,test,0.6,0.6,0.6,-0.6,-0.6,right,R,,,,,0,1,1,1,0,4,4,78,,,,,,,,,,,,,,,,,,,,,,,,,,,,,,,,,,,,,,,,,,,,83.11291529994924,None,right,1,1.2763633000431582,83.61295159999281,85.58252879988868,83.61295159999281,85.08181299990974,83.61295159999281,85.08181299990974,83.61295159999281,85.08181299990974,83.61295159999281,85.08181299990974,83.61295159999281,85.08181299990974,85.06432559993118,85.56583399989177,85.06432559993118,85.56583399989177,85.06432559993118,85.56583399989177,85.06432559993118,85.56583399989177,85.06432559993118,85.56583399989177,85.06432559993118,85.56583399989177,85.06432559993118,85.56583399989177,85.06432559993118,85.56583399989177,83.61295159999281,None,85.54910549998749,86.60081859992351,1.460000000000001,86.61727029993199,None,87.36808659997769,None,,,,,,,[[1.04]],2.690000000000002,0.6,11025,002,2024_Jan_08_1302,MFTM_A_new1021,2021.2.3,59.76232520394705,
,,,,,,,,stim/Instruction_adaptive.png,conditions/adaptive.xlsx,test,0.6,0.6,0.6,-0.6,-0.6,right,R,,,,,0,1,1,1,0,5,5,10,,,,,,,,,,,,,,,,,,,,,,,,,,,,,,,,,,,,,,,,,,,,87.86894199997187,None,right,1,1.2636766999494284,88.36943249998149,89.8889191999333,88.36943249998149,89.40418319997843,88.36943249998149,89.40418319997843,88.36943249998149,89.40418319997843,88.36943249998149,89.40418319997843,88.36943249998149,89.40418319997843,89.3708415000001,89.87189569999464,89.3708415000001,89.87189569999464,89.3708415000001,89.87189569999464,89.3708415000001,89.87189569999464,89.3708415000001,89.87189569999464,89.3708415000001,89.87189569999464,89.3708415000001,89.87189569999464,89.3708415000001,89.87189569999464,88.36943249998149,None,89.87189569999464,91.14071669999976,1.0200000000000007,91.15667519997805,None,91.90854829992168,None,,,,,,,[1.255],3.0400000000000023,0.6666666666666666,11025,002,2024_Jan_08_1302,MFTM_A_new1021,2021.2.3,59.76232520394705,
,,,,,,,,stim/Instruction_adaptive.png,conditions/adaptive.xlsx,test,0.6,0.6,0.6,-0.6,-0.6,right,R,,,,,0,1,1,1,0,6,6,84,,,,,,,,,,,,,,,,,,,,,,,,,,,,,,,,,,,,,,,,,,,,92.40959749999456,None,right,1,0.7796216999413446,92.90941659989767,94.21165089996066,92.90941659989767,93.7112433000002,92.90941659989767,93.7112433000002,92.90941659989767,93.7112433000002,92.90941659989767,93.7112433000002,92.90941659989767,93.7112433000002,93.69399119995069,94.19568699994124,93.69399119995069,94.19568699994124,93.69399119995069,94.19568699994124,93.69399119995069,94.19568699994124,93.69399119995069,94.19568699994124,93.69399119995069,94.19568699994124,93.69399119995069,94.19568699994124,93.69399119995069,94.19568699994124,92.90941659989767,None,94.19568699994124,95.51436999998987,0.8000000000000005,95.53052109992132,None,96.28208719997201,None,,,,,,,[1.31857143],3.3200000000000025,0.7142857142857143,11025,002,2024_Jan_08_1302,MFTM_A_new1021,2021.2.3,59.76232520394705,
,,,,,,,,stim/Instruction_adaptive.png,conditions/adaptive.xlsx,test,-0.6,-0.6,-0.6,0.6,0.6,left,L,,,,,0,1,1,1,0,7,7,47,,,,,,,,,,,,,,,,,,,,,,,,,,,,,,,,,,,,,,,,,,,,96.78286369994748,None,left,1,1.5509583000093699,97.282501699985,98.45206589996815,97.282501699985,97.95112139999401,97.282501699985,97.95112139999401,97.282501699985,97.95112139999401,97.282501699985,97.95112139999401,97.282501699985,97.95112139999401,97.93338869989384,98.43518009991385,97.93338869989384,98.43518009991385,97.93338869989384,98.43518009991385,97.93338869989384,98.43518009991385,97.93338869989384,98.43518009991385,97.93338869989384,98.43518009991385,97.93338869989384,98.43518009991385,97.93338869989384,98.43518009991385,97.282501699985,None,98.43518009991385,99.82035499997437,0.6600000000000004,99.83625529997516,None,100.58782349992543,None,,,,,,,[1.38375],3.5400000000000027,0.75,11025,002,2024_Jan_08_1302,MFTM_A_new1021,2021.2.3,59.76232520394705,
,,,,,,,,stim/Instruction_adaptive.png,conditions/adaptive.xlsx,test,-0.6,-0.6,-0.6,0.6,0.6,left,L,,,,,0,1,1,1,0,8,8,89,,,,,,,,,,,,,,,,,,,,,,,,,,,,,,,,,,,,,,,,,,,,101.08825529995374,None,left,1,1.3405139999231324,101.58879159996286,102.67504449991975,101.58879159996286,102.17385769996326,101.58879159996286,102.17385769996326,101.58879159996286,102.17385769996326,101.58879159996286,102.17385769996326,101.58879159996286,102.17385769996326,102.13985549996141,102.64039039995987,102.13985549996141,102.64039039995987,102.13985549996141,102.64039039995987,102.13985549996141,102.64039039995987,102.13985549996141,102.64039039995987,102.13985549996141,102.64039039995987,102.13985549996141,102.64039039995987,102.13985549996141,102.64039039995987,101.58879159996286,None,102.64039039995987,104.09348709997721,0.5700000000000003,104.10998199996538,None,104.8615655999165,None,,,,,,,[1.44444444],3.730000000000003,0.7777777777777778,11025,002,2024_Jan_08_1302,MFTM_A_new1021,2021.2.3,59.76232520394705,
,,,,,,,,stim/Instruction_adaptive.png,conditions/adaptive.xlsx,test,-0.6,-0.6,-0.6,0.6,0.6,left,L,,,,,0,1,1,1,0,9,9,69,,,,,,,,,,,,,,,,,,,,,,,,,,,,,,,,,,,,,,,,,,,,105.36182079999708,None,right,0,1.3069249000400305,105.86257239989936,106.86357569997199,105.86257239989936,106.36257869994733,105.86257239989936,106.36257869994733,105.86257239989936,106.36257869994733,105.86257239989936,106.36257869994733,105.86257239989936,106.36257869994733,106.34692509996239,106.84736869996414,106.34692509996239,106.84736869996414,106.34692509996239,106.84736869996414,106.34692509996239,106.84736869996414,106.34692509996239,106.84736869996414,106.34692509996239,106.84736869996414,106.34692509996239,106.84736869996414,106.34692509996239,106.84736869996414,105.86257239989936,None,106.84736869996414,108.34999259992037,0.5000000000000002,108.36541039997246,None,109.11668399989139,None,,,,,,,[1.5],3.2600000000000025,0.7,11025,002,2024_Jan_08_1302,MFTM_A_new1021,2021.2.3,59.76232520394705,
,,,,,,,,stim/Instruction_adaptive.png,conditions/adaptive.xlsx,test,-0.6,-0.6,-0.6,0.6,0.6,left,L,,,,,0,1,1,1,0,10,10,3,,,,,,,,,,,,,,,,,,,,,,,,,,,,,,,,,,,,,,,,,,,,109.61773569998331,None,right,0,1.4995410999981686,110.11822079995181,111.32106969994493,110.11822079995181,110.81949509994593,110.11822079995181,110.81949509994593,110.11822079995181,110.81949509994593,110.11822079995181,110.81949509994593,110.11822079995181,110.81949509994593,110.78591139998753,111.28719939989969,110.78591139998753,111.28719939989969,110.78591139998753,111.28719939989969,110.78591139998753,111.28719939989969,110.78591139998753,111.28719939989969,110.78591139998753,111.28719939989969,110.78591139998753,111.28719939989969,110.78591139998753,111.28719939989969,110.11822079995181,None,111.28719939989969,112.82287469995208,0.6900000000000004,112.83892019989435,None,113.59025679994375,None,,,,,,,[1.52818182],2.7500000000000018,0.6363636363636364,11025,002,2024_Jan_08_1302,MFTM_A_new1021,2021.2.3,59.76232520394705,
,,,,,,,,stim/Instruction_adaptive.png,conditions/adaptive.xlsx,test,-0.6,-0.6,-0.6,0.6,0.6,left,L,,,,,0,1,1,1,0,11,11,39,,,,,,,,,,,,,,,,,,,,,,,,,,,,,,,,,,,,,,,,,,,,114.09152179991361,None,left,1,0.9777919000480324,114.59140339994337,116.07820299989544,114.59140339994337,115.57762129988987,114.59140339994337,115.57762129988987,114.59140339994337,115.57762129988987,114.59140339994337,115.57762129988987,114.59140339994337,115.57762129988987,115.55962899990845,116.06099499994889,115.55962899990845,116.06099499994889,115.55962899990845,116.06099499994889,115.55962899990845,116.06099499994889,115.55962899990845,116.06099499994889,115.55962899990845,116.06099499994889,115.55962899990845,116.06099499994889,115.55962899990845,116.06099499994889,114.59140339994337,None,116.06099499994889,None,0.9800000000000006,117.59579429996666,None,118.34766639990266,None,,,,,,,[[1.52]],2.950000000000002,0.6666666666666666,11025,002,2024_Jan_08_1302,MFTM_A_new1021,2021.2.3,59.76232520394705,
,,,,,,,,stim/Instruction_adaptive.png,conditions/adaptive.xlsx,test,0.6,0.6,0.6,-0.6,-0.6,right,R,,,,,0,1,1,1,0,12,12,44,,,,,,,,,,,,,,,,,,,,,,,,,,,,,,,,,,,,,,,,,,,,118.84884499991313,None,right,1,1.532548199989833,119.34861049999017,120.70173439988866,119.34861049999017,120.19969439995475,119.34861049999017,120.19969439995475,119.34861049999017,120.19969439995475,119.34861049999017,120.19969439995475,119.34861049999017,120.19969439995475,120.18297119997442,120.68518989998847,120.18297119997442,120.68518989998847,120.18297119997442,120.68518989998847,120.18297119997442,120.68518989998847,120.18297119997442,120.68518989998847,120.18297119997442,120.68518989998847,120.18297119997442,120.68518989998847,120.18297119997442,120.68518989998847,119.34861049999017,None,120.68518989998847,None,0.8500000000000005,122.23619599989615,None,122.98787699989043,None,,,,,,,[1.53692308],3.110000000000002,0.6923076923076923,11025,002,2024_Jan_08_1302,MFTM_A_new1021,2021.2.3,59.76232520394705,
,,,,,,,,stim/Instruction_adaptive.png,conditions/adaptive.xlsx,test,0.6,0.6,0.6,-0.6,-0.6,right,R,,,,,0,1,1,1,0,13,13,90,,,,,,,,,,,,,,,,,,,,,,,,,,,,,,,,,,,,,,,,,,,,123.48836259997915,None,right,1,0.9570399000076577,123.98863939999137,125.25843229994643,123.98863939999137,124.75728359993082,123.98863939999137,124.75728359993082,123.98863939999137,124.75728359993082,123.98863939999137,124.75728359993082,123.98863939999137,124.75728359993082,124.73979429993778,125.24163269996643,124.73979429993778,125.24163269996643,124.73979429993778,125.24163269996643,124.73979429993778,125.24163269996643,124.73979429993778,125.24163269996643,124.73979429993778,125.24163269996643,124.73979429993778,125.24163269996643,124.73979429993778,125.24163269996643,123.98863939999137,None,125.24163269996643,126.79361319995951,0.7600000000000005,126.80956039996818,None,127.56157289992552,None,,,,,,,[1.55142857],3.2600000000000025,0.7142857142857143,11025,002,2024_Jan_08_1302,MFTM_A_new1021,2021.2.3,59.76232520394705,
,,,,,,,,stim/Instruction_adaptive.png,conditions/adaptive.xlsx,test,0.6,0.6,0.6,-0.6,-0.6,right,R,,,,,0,1,1,1,0,14,14,96,,,,,,,,,,,,,,,,,,,,,,,,,,,,,,,,,,,,,,,,,,,,128.06134609994479,None,right,1,0.8711960000218824,128.56215439992957,129.7645157999359,128.56215439992957,129.2636371999979,128.56215439992957,129.2636371999979,128.56215439992957,129.2636371999979,128.56215439992957,129.2636371999979,128.56215439992957,129.2636371999979,129.2307499999879,129.7310660999501,129.2307499999879,129.7310660999501,129.2307499999879,129.7310660999501,129.2307499999879,129.7310660999501,129.2307499999879,129.7310660999501,129.2307499999879,129.7310660999501,129.2307499999879,129.7310660999501,129.2307499999879,129.7310660999501,128.56215439992957,None,129.7310660999501,131.30046529998071,0.6900000000000004,131.333794199978,None,132.0847364999354,None,,,,,,,[1.56866667],3.3800000000000026,0.7333333333333333,11025,002,2024_Jan_08_1302,MFTM_A_new1021,2021.2.3,59.76232520394705,
,,,,,,,,stim/Instruction_adaptive.png,conditions/adaptive.xlsx,test,0.6,0.6,0.6,-0.6,-0.6,right,R,,,,,0,1,1,1,0,15,15,64,,,,,,,,,,,,,,,,,,,,,,,,,,,,,,,,,,,,,,,,,,,,132.58571149990894,None,right,1,1.0267207000870258,133.08647919993382,134.22130139998626,133.08647919993382,133.72002489992883,133.08647919993382,133.72002489992883,133.08647919993382,133.72002489992883,133.08647919993382,133.72002489992883,133.08647919993382,133.72002489992883,133.7039991999045,134.2049502999289,133.7039991999045,134.2049502999289,133.7039991999045,134.2049502999289,133.7039991999045,134.2049502999289,133.7039991999045,134.2049502999289,133.7039991999045,134.2049502999289,133.7039991999045,134.2049502999289,133.7039991999045,134.2049502999289,133.08647919993382,None,134.2049502999289,None,0.6300000000000003,135.80687179998495,None,136.55795999988914,None,,,,,,,[1.5875],3.490000000000003,0.75,11025,002,2024_Jan_08_1302,MFTM_A_new1021,2021.2.3,59.76232520394705,
,,,,,,,,stim/Instruction_adaptive.png,conditions/adaptive.xlsx,test,0.6,0.6,0.6,-0.6,-0.6,right,R,,,,,0,1,1,1,0,16,16,38,,,,,,,,,,,,,,,,,,,,,,,,,,,,,,,,,,,,,,,,,,,,137.05860969994683,None,right,1,0.9774816000135615,137.55969259992708,138.66112449998036,137.55969259992708,138.15971729997545,137.55969259992708,138.15971729997545,137.55969259992708,138.15971729997545,137.55969259992708,138.15971729997545,137.55969259992708,138.15971729997545,138.12802489998285,138.62831599998754,138.12802489998285,138.62831599998754,138.12802489998285,138.62831599998754,138.12802489998285,138.62831599998754,138.12802489998285,138.62831599998754,138.12802489998285,138.62831599998754,138.12802489998285,138.62831599998754,138.12802489998285,138.62831599998754,137.55969259992708,None,138.62831599998754,140.24688059999608,0.5900000000000003,140.26372249994893,None,141.01531149994116,None,,,,,,,[1.60647059],3.6000000000000028,0.7647058823529411,11025,002,2024_Jan_08_1302,MFTM_A_new1021,2021.2.3,59.76232520394705,
,,,,,,,,stim/Instruction_adaptive.png,conditions/adaptive.xlsx,test,-0.6,-0.6,-0.6,0.6,0.6,left,L,,,,,0,1,1,1,0,17,17,5,,,,,,,,,,,,,,,,,,,,,,,,,,,,,,,,,,,,,,,,,,,,141.51546389993746,None,left,1,1.4739246000535786,142.01544519991148,143.06804199994076,142.01544519991148,142.56679039995652,142.01544519991148,142.56679039995652,142.01544519991148,142.56679039995652,142.01544519991148,142.56679039995652,142.01544519991148,142.56679039995652,142.53393239993602,143.0342814999167,142.53393239993602,143.0342814999167,142.53393239993602,143.0342814999167,142.53393239993602,143.0342814999167,142.53393239993602,143.0342814999167,142.53393239993602,143.0342814999167,142.53393239993602,143.0342814999167,142.53393239993602,143.0342814999167,142.01544519991148,None,143.0342814999167,144.67119949997868,0.5400000000000003,144.68597499991301,None,145.43855389999226,None,,,,,,,[1.62611111],3.690000000000003,0.7777777777777778,11025,002,2024_Jan_08_1302,MFTM_A_new1021,2021.2.3,59.76232520394705,
,,,,,,,,stim/Instruction_adaptive.png,conditions/adaptive.xlsx,test,0.6,0.6,0.6,-0.6,-0.6,right,R,,,,,0,1,1,1,0,18,18,42,,,,,,,,,,,,,,,,,,,,,,,,,,,,,,,,,,,,,,,,,,,,145.9387542998884,None,right,1,0.6904923999682069,146.43862739996985,147.45686579996254,146.43862739996985,146.95607229997404,146.43862739996985,146.95607229997404,146.43862739996985,146.95607229997404,146.43862739996985,146.95607229997404,146.43862739996985,146.95607229997404,146.9393881999422,147.44023609999567,146.9393881999422,147.44023609999567,146.9393881999422,147.44023609999567,146.9393881999422,147.44023609999567,146.9393881999422,147.44023609999567,146.9393881999422,147.44023609999567,146.9393881999422,147.44023609999567,146.9393881999422,147.44023609999567,146.43862739996985,None,147.44023609999567,None,0.5100000000000002,149.09254409989808,None,149.84426629997324,None,,,,,,,[1.64526316],3.780000000000003,0.7894736842105263,11025,002,2024_Jan_08_1302,MFTM_A_new1021,2021.2.3,59.76232520394705,
,,,,,,,,stim/Instruction_adaptive.png,conditions/adaptive.xlsx,test,0.6,0.6,0.6,-0.6,-0.6,right,R,,,,,0,1,1,1,0,19,19,0,,,,,,,,,,,,,,,,,,,,,,,,,,,,,,,,,,,,,,,,,,,,150.34454319998622,None,left,0,1.8200807999819517,150.84556639997754,151.83072989992797,150.84556639997754,151.3296578999143,150.84556639997754,151.3296578999143,150.84556639997754,151.3296578999143,150.84556639997754,151.3296578999143,150.84556639997754,151.3296578999143,151.3124856998911,151.81317399989348,151.3124856998911,151.81317399989348,151.3124856998911,151.81317399989348,151.3124856998911,151.81317399989348,151.3124856998911,151.81317399989348,151.3124856998911,151.81317399989348,151.3124856998911,151.81317399989348,151.3124856998911,151.81317399989348,150.84556639997754,None,151.81317399989348,153.4831809999887,0.4800000000000002,153.4989704999607,None,154.2504079999635,None,,,,,,,[1.664],3.5400000000000027,0.75,11025,002,2024_Jan_08_1302,MFTM_A_new1021,2021.2.3,59.76232520394705,
,,,,,,,,stim/Instruction_adaptive.png,conditions/adaptive.xlsx,test,-0.6,-0.6,-0.6,0.6,0.6,left,L,,,,,0,1,1,1,0,20,20,1,,,,,,,,,,,,,,,,,,,,,,,,,,,,,,,,,,,,,,,,,,,,154.75213399995118,None,left,1,1.005084199947305,155.2523245998891,156.32148669997696,155.2523245998891,155.83661399991252,155.2523245998891,155.83661399991252,155.2523245998891,155.83661399991252,155.2523245998891,155.83661399991252,155.2523245998891,155.83661399991252,155.80267139989883,156.30486089992337,155.80267139989883,156.30486089992337,155.80267139989883,156.30486089992337,155.80267139989883,156.30486089992337,155.80267139989883,156.30486089992337,155.80267139989883,156.30486089992337,155.80267139989883,156.30486089992337,155.80267139989883,156.30486089992337,155.2523245998891,None,156.30486089992337,157.98914259998128,0.5700000000000003,158.0064988998929,None,158.75762119994033,None,,,,,,,[1.67666667],3.6300000000000026,0.7619047619047619,11025,002,2024_Jan_08_1302,MFTM_A_new1021,2021.2.3,59.76232520394705,
,,,,,,,,stim/Instruction_adaptive.png,conditions/adaptive.xlsx,test,0.6,0.6,0.6,-0.6,-0.6,right,R,,,,,0,1,1,1,0,21,21,76,,,,,,,,,,,,,,,,,,,,,,,,,,,,,,,,,,,,,,,,,,,,159.2591192999389,None,right,1,1.1227887000422925,159.7584388999967,160.7941932999529,159.7584388999967,160.2925065999152,159.7584388999967,160.2925065999152,159.7584388999967,160.2925065999152,159.7584388999967,160.2925065999152,159.7584388999967,160.2925065999152,160.27641789999325,160.77729449991602,160.27641789999325,160.77729449991602,160.27641789999325,160.77729449991602,160.27641789999325,160.77729449991602,160.27641789999325,160.77729449991602,160.27641789999325,160.77729449991602,160.27641789999325,160.77729449991602,160.27641789999325,160.77729449991602,159.7584388999967,None,160.77729449991602,None,0.5300000000000002,162.47888909990434,None,163.23159559990745,None,,,,,,,[1.69],3.700000000000003,0.7727272727272727,11025,002,2024_Jan_08_1302,MFTM_A_new1021,2021.2.3,59.76232520394705,
,,,,,,,,stim/Instruction_adaptive.png,conditions/adaptive.xlsx,test,0.6,0.6,0.6,-0.6,-0.6,right,R,,,,,0,1,1,1,0,22,22,98,,,,,,,,,,,,,,,,,,,,,,,,,,,,,,,,,,,,,,,,,,,,163.73183599999174,None,right,1,1.2894798000343144,164.23170549992938,165.25065159995575,164.23170549992938,164.7495893999003,164.23170549992938,164.7495893999003,164.23170549992938,164.7495893999003,164.23170549992938,164.7495893999003,164.23170549992938,164.7495893999003,164.71586239989847,165.21725779992994,164.71586239989847,165.21725779992994,164.71586239989847,165.21725779992994,164.71586239989847,165.21725779992994,164.71586239989847,165.21725779992994,164.71586239989847,165.21725779992994,164.71586239989847,165.21725779992994,164.71586239989847,165.21725779992994,164.23170549992938,None,165.21725779992994,166.92013489990495,0.5100000000000002,166.95218739996199,None,167.70384529989678,None,,,,,,,[1.70304348],3.780000000000003,0.782608695652174,11025,002,2024_Jan_08_1302,MFTM_A_new1021,2021.2.3,59.76232520394705,
,,,,,,,,stim/Instruction_adaptive.png,conditions/adaptive.xlsx,test,-0.6,-0.6,-0.6,0.6,0.6,left,L,,,,,0,1,1,1,0,23,23,81,,,,,,,,,,,,,,,,,,,,,,,,,,,,,,,,,,,,,,,,,,,,168.20439669990446,None,left,1,1.8235312999458984,168.70590899989475,169.69057009997778,168.70590899989475,169.18907159997616,168.70590899989475,169.18907159997616,168.70590899989475,169.18907159997616,168.70590899989475,169.18907159997616,168.70590899989475,169.18907159997616,169.1737522999756,169.67364809999708,169.1737522999756,169.67364809999708,169.1737522999756,169.67364809999708,169.1737522999756,169.67364809999708,169.1737522999756,169.67364809999708,169.1737522999756,169.67364809999708,169.1737522999756,169.67364809999708,169.1737522999756,169.67364809999708,168.70590899989475,None,169.67364809999708,171.3931899999734,0.4800000000000002,171.40952919994015,None,172.16073219990358,None,,,,,,,[1.71625],3.840000000000003,0.7916666666666666,11025,002,2024_Jan_08_1302,MFTM_A_new1021,2021.2.3,59.76232520394705,
,,,,,,,,stim/Instruction_adaptive.png,conditions/adaptive.xlsx,test,0.6,0.6,0.6,-0.6,-0.6,right,R,,,,,0,1,1,1,0,24,24,52,,,,,,,,,,,,,,,,,,,,,,,,,,,,,,,,,,,,,,,,,,,,172.66082159988582,None,right,1,0.6402378999628127,173.16178469988517,174.1302114999853,173.16178469988517,173.6297454999294,173.16178469988517,173.6297454999294,173.16178469988517,173.6297454999294,173.16178469988517,173.6297454999294,173.16178469988517,173.6297454999294,173.61303449992556,174.11307929991744,173.61303449992556,174.11307929991744,173.61303449992556,174.11307929991744,173.61303449992556,174.11307929991744,173.61303449992556,174.11307929991744,173.61303449992556,174.11307929991744,173.61303449992556,174.11307929991744,173.61303449992556,174.11307929991744,173.16178469988517,None,174.11307929991744,175.8498592999531,0.4600000000000002,175.86617269995622,None,176.61792359990068,None,,,,,,,[1.7292],3.910000000000003,0.8,11025,002,2024_Jan_08_1302,MFTM_A_new1021,2021.2.3,59.76232520394705,
,,,,,,,,stim/Instruction_adaptive.png,conditions/adaptive.xlsx,test,0.6,0.6,0.6,-0.6,-0.6,right,R,,,,,0,1,1,1,0,25,25,14,,,,,,,,,,,,,,,,,,,,,,,,,,,,,,,,,,,,,,,,,,,,177.11829079990275,None,right,1,0.6862762999953702,177.61884949996602,178.5697450999869,177.61884949996602,178.07011179998517,177.61884949996602,178.07011179998517,177.61884949996602,178.07011179998517,177.61884949996602,178.07011179998517,177.61884949996602,178.07011179998517,178.0363465999253,178.5362291999627,178.0363465999253,178.5362291999627,178.0363465999253,178.5362291999627,178.0363465999253,178.5362291999627,178.0363465999253,178.5362291999627,178.0363465999253,178.5362291999627,178.0363465999253,178.5362291999627,178.0363465999253,178.5362291999627,177.61884949996602,None,178.5362291999627,180.28884349996224,0.44000000000000017,180.30694999999832,None,181.0566876999801,None,,,,,,,[1.74192308],3.9700000000000033,0.8076923076923077,11025,002,2024_Jan_08_1302,MFTM_A_new1021,2021.2.3,59.76232520394705,
,,,,,,,,stim/Instruction_adaptive.png,conditions/adaptive.xlsx,test,-0.6,-0.6,-0.6,0.6,0.6,left,L,,,,,0,1,1,1,0,26,26,55,,,,,,,,,,,,,,,,,,,,,,,,,,,,,,,,,,,,,,,,,,,,181.557582099922,None,left,1,1.1429669000208378,182.05822419992182,182.99379249999765,182.05822419992182,182.49216149991844,182.05822419992182,182.49216149991844,182.05822419992182,182.49216149991844,182.05822419992182,182.49216149991844,182.05822419992182,182.49216149991844,182.4586805999279,182.96027289994527,182.4586805999279,182.96027289994527,182.4586805999279,182.96027289994527,182.4586805999279,182.96027289994527,182.4586805999279,182.96027289994527,182.4586805999279,182.96027289994527,182.4586805999279,182.96027289994527,182.4586805999279,182.96027289994527,182.05822419992182,None,182.96027289994527,184.72947639995255,0.42000000000000015,184.74602779990528,None,185.4970005999785,None,,,,,,,[1.75444444],4.030000000000003,0.8148148148148148,11025,002,2024_Jan_08_1302,MFTM_A_new1021,2021.2.3,59.76232520394705,
,,,,,,,,stim/Instruction_adaptive.png,conditions/adaptive.xlsx,test,-0.6,-0.6,-0.6,0.6,0.6,left,L,,,,,0,1,1,1,0,27,27,25,,,,,,,,,,,,,,,,,,,,,,,,,,,,,,,,,,,,,,,,,,,,185.99854009994306,None,right,0,1.2475177000742406,186.49804539990146,187.40011719998438,186.49804539990146,186.89961449999828,186.49804539990146,186.89961449999828,186.49804539990146,186.89961449999828,186.49804539990146,186.89961449999828,186.49804539990146,186.89961449999828,186.8830064999638,187.3832763999235,186.8830064999638,187.3832763999235,186.8830064999638,187.3832763999235,186.8830064999638,187.3832763999235,186.8830064999638,187.3832763999235,186.8830064999638,187.3832763999235,186.8830064999638,187.3832763999235,186.8830064999638,187.3832763999235,186.49804539990146,None,187.3832763999235,189.15349709999282,0.40000000000000013,189.1686434999574,None,189.92035329993814,None,,,,,,,[1.76678571],3.8700000000000028,0.7857142857142857,11025,002,2024_Jan_08_1302,MFTM_A_new1021,2021.2.3,59.76232520394705,
,,,,,,,,stim/Instruction_adaptive.png,conditions/adaptive.xlsx,test,-0.6,-0.6,-0.6,0.6,0.6,left,L,,,,,0,1,1,1,0,28,28,43,,,,,,,,,,,,,,,,,,,,,,,,,,,,,,,,,,,,,,,,,,,,190.42103339999449,None,left,1,1.288323999964632,190.9210622999817,191.87386229995172,190.9210622999817,191.3718923999695,190.9210622999817,191.3718923999695,190.9210622999817,191.3718923999695,190.9210622999817,191.3718923999695,190.9210622999817,191.3718923999695,191.35556359996554,191.85601779993158,191.35556359996554,191.85601779993158,191.35556359996554,191.85601779993158,191.35556359996554,191.85601779993158,191.35556359996554,191.85601779993158,191.35556359996554,191.85601779993158,191.35556359996554,191.85601779993158,191.35556359996554,191.85601779993158,190.9210622999817,None,191.85601779993158,193.64276279998012,0.4500000000000002,193.6585911998991,None,194.40983959997538,None,,,,,,,[1.77655172],3.920000000000003,0.7931034482758621,11025,002,2024_Jan_08_1302,MFTM_A_new1021,2021.2.3,59.76232520394705,
,,,,,,,,stim/Instruction_adaptive.png,conditions/adaptive.xlsx,test,-0.6,-0.6,-0.6,0.6,0.6,left,L,,,,,0,1,1,1,0,29,29,37,,,,,,,,,,,,,,,,,,,,,,,,,,,,,,,,,,,,,,,,,,,,194.91150439996272,None,left,1,1.3336495000403374,195.41195139999036,196.34677409997676,195.41195139999036,195.84638879995327,195.41195139999036,195.84638879995327,195.41195139999036,195.84638879995327,195.41195139999036,195.84638879995327,195.41195139999036,195.84638879995327,195.82861929992214,196.33005909994245,195.82861929992214,196.33005909994245,195.82861929992214,196.33005909994245,195.82861929992214,196.33005909994245,195.82861929992214,196.33005909994245,195.82861929992214,196.33005909994245,195.82861929992214,196.33005909994245,195.82861929992214,196.33005909994245,195.41195139999036,None,196.33005909994245,198.11523299990222,0.43000000000000016,198.13193239993416,None,198.88439159991685,None,,,,,,,[1.78633333],3.980000000000003,0.8,11025,002,2024_Jan_08_1302,MFTM_A_new1021,2021.2.3,59.76232520394705,
,,,,,,,,stim/Instruction_adaptive.png,conditions/adaptive.xlsx,test,0.6,0.6,0.6,-0.6,-0.6,right,R,,,,,0,1,1,1,0,30,30,20,,,,,,,,,,,,,,,,,,,,,,,,,,,,,,,,,,,,,,,,,,,,199.3844654998975,None,right,1,0.9086483999853954,199.88446329999715,200.82008569990285,199.88446329999715,200.31900159991346,199.88446329999715,200.31900159991346,199.88446329999715,200.31900159991346,199.88446329999715,200.31900159991346,199.88446329999715,200.31900159991346,200.28491489996668,200.78621529997326,200.28491489996668,200.78621529997326,200.28491489996668,200.78621529997326,200.28491489996668,200.78621529997326,200.28491489996668,200.78621529997326,200.28491489996668,200.78621529997326,200.28491489996668,200.78621529997326,200.28491489996668,200.78621529997326,199.88446329999715,None,200.78621529997326,202.58951989992056,0.42000000000000015,202.6047142999014,None,203.35646399995312,None,,,,,,,[1.79580645],4.030000000000003,0.8064516129032258,11025,002,2024_Jan_08_1302,MFTM_A_new1021,2021.2.3,59.76232520394705,
,,,,,,,,stim/Instruction_adaptive.png,conditions/adaptive.xlsx,test,0.6,0.6,0.6,-0.6,-0.6,right,R,,,,,0,1,1,1,0,31,31,54,,,,,,,,,,,,,,,,,,,,,,,,,,,,,,,,,,,,,,,,,,,,203.8579705999,None,right,1,1.1397211999865249,204.35791069990955,205.25977579993196,204.35791069990955,204.75842759991065,204.35791069990955,204.75842759991065,204.35791069990955,204.75842759991065,204.35791069990955,204.75842759991065,204.35791069990955,204.75842759991065,204.74171549989842,205.2426596999867,204.74171549989842,205.2426596999867,204.74171549989842,205.2426596999867,204.74171549989842,205.2426596999867,204.74171549989842,205.2426596999867,204.74171549989842,205.2426596999867,204.74171549989842,205.2426596999867,204.74171549989842,205.2426596999867,204.35791069990955,None,205.2426596999867,None,0.40000000000000013,207.06260959990323,None,207.81394919997547,None,,,,,,,[1.8053125],4.080000000000004,0.8125,11025,002,2024_Jan_08_1302,MFTM_A_new1021,2021.2.3,59.76232520394705,
,,,,,,,,stim/Instruction_adaptive.png,conditions/adaptive.xlsx,test,-0.6,-0.6,-0.6,0.6,0.6,left,L,,,,,0,1,1,1,0,32,32,21,,,,,,,,,,,,,,,,,,,,,,,,,,,,,,,,,,,,,,,,,,,,208.3145671999082,None,left,1,1.3151811000425369,208.81447359989397,209.7163704999257,208.81447359989397,209.2157774999505,208.81447359989397,209.2157774999505,208.81447359989397,209.2157774999505,208.81447359989397,209.2157774999505,208.81447359989397,209.2157774999505,209.1823867999483,209.68329399998765,209.1823867999483,209.68329399998765,209.1823867999483,209.68329399998765,209.1823867999483,209.68329399998765,209.1823867999483,209.68329399998765,209.1823867999483,209.68329399998765,209.1823867999483,209.68329399998765,209.1823867999483,209.68329399998765,208.81447359989397,None,209.68329399998765,211.50234779994935,0.3900000000000001,211.51909259997774,None,212.27002989989705,None,,,,,,,[1.81454545],4.1300000000000034,0.8181818181818182,11025,002,2024_Jan_08_1302,MFTM_A_new1021,2021.2.3,59.76232520394705,
,,,,,,,,stim/Instruction_adaptive.png,conditions/adaptive.xlsx,test,-0.6,-0.6,-0.6,0.6,0.6,left,L,,,,,0,1,1,1,0,33,33,61,,,,,,,,,,,,,,,,,,,,,,,,,,,,,,,,,,,,,,,,,,,,212.77112269995268,None,left,1,1.6258538999827579,213.27140609989874,214.15626459999476,213.27140609989874,213.6558463999536,213.27140609989874,213.6558463999536,213.27140609989874,213.6558463999536,213.27140609989874,213.6558463999536,213.27140609989874,213.6558463999536,213.63925539993215,214.14012289990205,213.63925539993215,214.14012289990205,213.63925539993215,214.14012289990205,213.63925539993215,214.14012289990205,213.63925539993215,214.14012289990205,213.63925539993215,214.14012289990205,213.63925539993215,214.14012289990205,213.63925539993215,214.14012289990205,213.27140609989874,None,214.14012289990205,None,0.3800000000000001,215.9750848999247,None,216.72621519991662,None,,,,,,,[1.82352941],4.1700000000000035,0.8235294117647058,11025,002,2024_Jan_08_1302,MFTM_A_new1021,2021.2.3,59.76232520394705,
,,,,,,,,stim/Instruction_adaptive.png,conditions/adaptive.xlsx,test,0.6,0.6,0.6,-0.6,-0.6,right,R,,,,,0,1,1,1,0,34,34,88,,,,,,,,,,,,,,,,,,,,,,,,,,,,,,,,,,,,,,,,,,,,217.2275929999305,None,left,0,1.6260080999927595,217.72770729998592,218.6137339998968,217.72770729998592,218.11267149995547,217.72770729998592,218.11267149995547,217.72770729998592,218.11267149995547,217.72770729998592,218.11267149995547,217.72770729998592,218.11267149995547,218.07836149993818,218.580009499914,218.07836149993818,218.580009499914,218.07836149993818,218.580009499914,218.07836149993818,218.580009499914,218.07836149993818,218.580009499914,218.07836149993818,218.580009499914,218.07836149993818,218.580009499914,218.07836149993818,218.580009499914,217.72770729998592,None,218.580009499914,220.41614309989382,0.3700000000000001,220.431653299951,None,221.18367279996164,None,,,,,,,[1.83228571],4.040000000000003,0.8,11025,002,2024_Jan_08_1302,MFTM_A_new1021,2021.2.3,59.76232520394705,
,,,,,,,,stim/Instruction_adaptive.png,conditions/adaptive.xlsx,test,0.6,0.6,0.6,-0.6,-0.6,right,R,,,,,0,1,1,1,0,35,35,22,,,,,,,,,,,,,,,,,,,,,,,,,,,,,,,,,,,,,,,,,,,,221.68442309997045,None,right,1,1.632556099910289,222.1847193998983,223.08615799993277,222.1847193998983,222.58564649999607,222.1847193998983,222.58564649999607,222.1847193998983,222.58564649999607,222.1847193998983,222.58564649999607,222.1847193998983,222.58564649999607,222.56881839991547,223.0688581999857,222.56881839991547,223.0688581999857,222.56881839991547,223.0688581999857,222.56881839991547,223.0688581999857,222.56881839991547,223.0688581999857,222.56881839991547,223.0688581999857,222.56881839991547,223.0688581999857,222.56881839991547,223.0688581999857,222.1847193998983,None,223.0688581999857,224.92262209998444,0.40000000000000013,224.93810169992503,None,225.6899971999228,None,,,,,,,[1.83972222],4.090000000000003,0.8055555555555556,11025,002,2024_Jan_08_1302,MFTM_A_new1021,2021.2.3,59.76232520394705,
,,,,,,,,stim/Instruction_adaptive.png,conditions/adaptive.xlsx,test,0.6,0.6,0.6,-0.6,-0.6,right,R,,,,,0,1,1,1,0,36,36,74,,,,,,,,,,,,,,,,,,,,,,,,,,,,,,,,,,,,,,,,,,,,226.19026519998442,None,right,1,1.4776606000959873,226.69151579996105,227.59315109997988,226.69151579996105,227.09142469998915,226.69151579996105,227.09142469998915,226.69151579996105,227.09142469998915,226.69151579996105,227.09142469998915,226.69151579996105,227.09142469998915,227.05918499990366,227.5591253999155,227.05918499990366,227.5591253999155,227.05918499990366,227.5591253999155,227.05918499990366,227.5591253999155,227.05918499990366,227.5591253999155,227.05918499990366,227.5591253999155,227.05918499990366,227.5591253999155,227.05918499990366,227.5591253999155,226.69151579996105,None,227.5591253999155,229.41216349997558,0.3900000000000001,229.42898409999907,None,230.18035869998857,None,,,,,,,[1.84702703],4.1300000000000034,0.8108108108108109,11025,002,2024_Jan_08_1302,MFTM_A_new1021,2021.2.3,59.76232520394705,
,,,,,,,,stim/Instruction_adaptive.png,conditions/adaptive.xlsx,test,-0.6,-0.6,-0.6,0.6,0.6,left,L,,,,,0,1,1,1,0,37,37,33,,,,,,,,,,,,,,,,,,,,,,,,,,,,,,,,,,,,,,,,,,,,230.68120819993783,None,right,0,1.1797258999431506,231.18173049995676,232.06591189990286,231.18173049995676,231.5653642999241,231.18173049995676,231.5653642999241,231.18173049995676,231.5653642999241,231.18173049995676,231.5653642999241,231.18173049995676,231.5653642999241,231.5488865999505,232.04898479999974,231.5488865999505,232.04898479999974,231.5488865999505,232.04898479999974,231.5488865999505,232.04898479999974,231.5488865999505,232.04898479999974,231.5488865999505,232.04898479999974,231.5488865999505,232.04898479999974,231.5488865999505,232.04898479999974,231.18173049995676,None,232.04898479999974,233.90236179996282,0.3800000000000001,233.91829829989,None,234.66945919999853,None,,,,,,,[1.85421053],4.0000000000000036,0.7894736842105263,11025,002,2024_Jan_08_1302,MFTM_A_new1021,2021.2.3,59.76232520394705,
,,,,,,,,stim/Instruction_adaptive.png,conditions/adaptive.xlsx,test,0.6,0.6,0.6,-0.6,-0.6,right,R,,,,,0,1,1,1,0,38,38,32,,,,,,,,,,,,,,,,,,,,,,,,,,,,,,,,,,,,,,,,,,,,235.17020769999363,None,right,1,1.8509055000031367,235.67117479990702,236.59012660000008,235.67117479990702,236.08837789995596,235.67117479990702,236.08837789995596,235.67117479990702,236.08837789995596,235.67117479990702,236.08837789995596,235.67117479990702,236.08837789995596,236.0716115999967,236.5722086998867,236.0716115999967,236.5722086998867,236.0716115999967,236.5722086998867,236.0716115999967,236.5722086998867,236.0716115999967,236.5722086998867,236.0716115999967,236.5722086998867,236.0716115999967,236.5722086998867,236.0716115999967,236.5722086998867,235.67117479990702,None,236.5722086998867,None,0.41000000000000014,238.44150529999752,None,239.19445829989854,None,,,,,,,[1.86025641],4.050000000000003,0.7948717948717948,11025,002,2024_Jan_08_1302,MFTM_A_new1021,2021.2.3,59.76232520394705,
,,,,,,,,stim/Instruction_adaptive.png,conditions/adaptive.xlsx,test,0.6,0.6,0.6,-0.6,-0.6,right,R,,,,,0,1,1,1,0,39,39,60,,,,,,,,,,,,,,,,,,,,,,,,,,,,,,,,,,,,,,,,,,,,239.6944306999212,None,right,1,1.390572699951008,240.1949799999129,241.09633249999024,240.1949799999129,240.5950088999234,240.1949799999129,240.5950088999234,240.1949799999129,240.5950088999234,240.1949799999129,240.5950088999234,240.1949799999129,240.5950088999234,240.5791945999954,241.07968269998673,240.5791945999954,241.07968269998673,240.5791945999954,241.07968269998673,240.5791945999954,241.07968269998673,240.5791945999954,241.07968269998673,240.5791945999954,241.07968269998673,240.5791945999954,241.07968269998673,240.5791945999954,241.07968269998673,240.1949799999129,None,241.07968269998673,242.9485483999597,0.40000000000000013,242.96524949988816,None,243.71694779989775,None,,,,,,,[1.86625],4.090000000000003,0.8,11025,002,2024_Jan_08_1302,MFTM_A_new1021,2021.2.3,59.76232520394705,
,,,,,,,,stim/Instruction_adaptive.png,conditions/adaptive.xlsx,test,-0.6,-0.6,-0.6,0.6,0.6,left,L,,,,,0,1,1,1,0,40,40,29,,,,,,,,,,,,,,,,,,,,,,,,,,,,,,,,,,,,,,,,,,,,244.21746299997903,None,left,1,0.9542608000338078,244.7189897999633,245.61948709993158,244.7189897999633,245.11820339993574,244.7189897999633,245.11820339993574,244.7189897999633,245.11820339993574,244.7189897999633,245.11820339993574,244.7189897999633,245.11820339993574,245.08510649995878,245.58650939993095,245.08510649995878,245.58650939993095,245.08510649995878,245.58650939993095,245.08510649995878,245.58650939993095,245.08510649995878,245.58650939993095,245.08510649995878,245.58650939993095,245.08510649995878,245.58650939993095,245.08510649995878,245.58650939993095,244.7189897999633,None,245.58650939993095,247.47245119989384,0.3900000000000001,247.48832659993786,None,248.24023699993268,None,,,,,,,[1.87219512],4.1300000000000034,0.8048780487804879,11025,002,2024_Jan_08_1302,MFTM_A_new1021,2021.2.3,59.76232520394705,
,,,,,,,,stim/Instruction_adaptive.png,conditions/adaptive.xlsx,test,0.6,0.6,0.6,-0.6,-0.6,right,R,,,,,0,1,1,1,0,41,41,56,,,,,,,,,,,,,,,,,,,,,,,,,,,,,,,,,,,,,,,,,,,,248.74043259990867,None,right,1,1.0166473999852315,249.24155909998808,250.1261440999806,249.24155909998808,249.6255230999086,249.24155909998808,249.6255230999086,249.24155909998808,249.6255230999086,249.24155909998808,249.6255230999086,249.24155909998808,249.6255230999086,249.60893649992067,250.10965689993463,249.60893649992067,250.10965689993463,249.60893649992067,250.10965689993463,249.60893649992067,250.10965689993463,249.60893649992067,250.10965689993463,249.60893649992067,250.10965689993463,249.60893649992067,250.10965689993463,249.60893649992067,250.10965689993463,249.24155909998808,None,250.10965689993463,251.9961932998849,0.3800000000000001,252.01258349989075,None,252.76296649989672,None,,,,,,,[1.87809524],4.1700000000000035,0.8095238095238095,11025,002,2024_Jan_08_1302,MFTM_A_new1021,2021.2.3,59.76232520394705,
,,,,,,,,stim/Instruction_adaptive.png,conditions/adaptive.xlsx,test,0.6,0.6,0.6,-0.6,-0.6,right,R,,,,,0,1,1,1,0,42,42,8,,,,,,,,,,,,,,,,,,,,,,,,,,,,,,,,,,,,,,,,,,,,253.26435219997074,None,right,1,1.132701399968937,253.76474379992578,254.64927589998115,253.76474379992578,254.14905019989237,253.76474379992578,254.14905019989237,253.76474379992578,254.14905019989237,253.76474379992578,254.14905019989237,253.76474379992578,254.14905019989237,254.11543009988964,254.6169126998866,254.11543009988964,254.6169126998866,254.11543009988964,254.6169126998866,254.11543009988964,254.6169126998866,254.11543009988964,254.6169126998866,254.11543009988964,254.6169126998866,254.11543009988964,254.6169126998866,254.11543009988964,254.6169126998866,253.76474379992578,None,254.6169126998866,256.5022803999018,0.3700000000000001,256.5190633999882,None,257.2702843999723,None,,,,,,,[1.88395349],4.200000000000003,0.813953488372093,11025,002,2024_Jan_08_1302,MFTM_A_new1021,2021.2.3,59.76232520394705,
,,,,,,,,stim/Instruction_adaptive.png,conditions/adaptive.xlsx,test,-0.6,-0.6,-0.6,0.6,0.6,left,L,,,,,0,1,1,1,0,43,43,63,,,,,,,,,,,,,,,,,,,,,,,,,,,,,,,,,,,,,,,,,,,,257.77092819998506,None,left,1,0.874293899978511,258.2712762999581,259.13978119997773,258.2712762999581,258.6395163999405,258.2712762999581,258.6395163999405,258.2712762999581,258.6395163999405,258.2712762999581,258.6395163999405,258.2712762999581,258.6395163999405,258.6057036999846,259.1060948999366,258.6057036999846,259.1060948999366,258.6057036999846,259.1060948999366,258.6057036999846,259.1060948999366,258.6057036999846,259.1060948999366,258.6057036999846,259.1060948999366,258.6057036999846,259.1060948999366,258.6057036999846,259.1060948999366,258.2712762999581,None,259.1060948999366,261.0090377999004,0.3600000000000001,261.02516199997626,None,261.7762784999795,None,,,,,,,[1.88977273],4.240000000000004,0.8181818181818182,11025,002,2024_Jan_08_1302,MFTM_A_new1021,2021.2.3,59.76232520394705,
,,,,,,,,stim/Instruction_adaptive.png,conditions/adaptive.xlsx,test,-0.6,-0.6,-0.6,0.6,0.6,left,L,,,,,0,1,1,1,0,44,44,45,,,,,,,,,,,,,,,,,,,,,,,,,,,,,,,,,,,,,,,,,,,,262.2777457999764,None,left,1,0.9912186999572441,262.77841989998706,263.6290303999558,262.77841989998706,263.12899869994726,262.77841989998706,263.12899869994726,262.77841989998706,263.12899869994726,262.77841989998706,263.12899869994726,262.77841989998706,263.12899869994726,263.1123862999957,263.6130503999302,263.1123862999957,263.6130503999302,263.1123862999957,263.6130503999302,263.1123862999957,263.6130503999302,263.1123862999957,263.6130503999302,263.1123862999957,263.6130503999302,263.1123862999957,263.6130503999302,263.1123862999957,263.6130503999302,262.77841989998706,None,263.6130503999302,265.51522999990266,0.3500000000000001,265.53190439997707,None,266.2841055999743,None,,,,,,,[1.89555556],4.270000000000003,0.8222222222222222,11025,002,2024_Jan_08_1302,MFTM_A_new1021,2021.2.3,59.76232520394705,
,,,,,,,,stim/Instruction_adaptive.png,conditions/adaptive.xlsx,test,-0.6,-0.6,-0.6,0.6,0.6,left,L,,,,,0,1,1,1,0,45,45,93,,,,,,,,,,,,,,,,,,,,,,,,,,,,,,,,,,,,,,,,,,,,266.78436549997423,None,right,0,1.3571220999583602,267.28461069997866,268.13568759988993,267.28461069997866,267.6350788999116,267.28461069997866,267.6350788999116,267.28461069997866,267.6350788999116,267.28461069997866,267.6350788999116,267.28461069997866,267.6350788999116,267.6026390999323,268.10318019997794,267.6026390999323,268.10318019997794,267.6026390999323,268.10318019997794,267.6026390999323,268.10318019997794,267.6026390999323,268.10318019997794,267.6026390999323,268.10318019997794,267.6026390999323,268.10318019997794,267.6026390999323,268.10318019997794,267.28461069997866,None,268.10318019997794,270.00578129990026,0.3400000000000001,270.0381612998899,None,270.7896107999841,None,,,,,,,[1.90130435],4.1700000000000035,0.8043478260869565,11025,002,2024_Jan_08_1302,MFTM_A_new1021,2021.2.3,59.76232520394705,
,,,,,,,,stim/Instruction_adaptive.png,conditions/adaptive.xlsx,test,0.6,0.6,0.6,-0.6,-0.6,right,R,,,,,0,1,1,1,0,46,46,18,,,,,,,,,,,,,,,,,,,,,,,,,,,,,,,,,,,,,,,,,,,,271.2906111999182,None,right,1,0.9059622000204399,271.7918310998939,272.6768225999549,271.7918310998939,272.17515449994244,271.7918310998939,272.17515449994244,271.7918310998939,272.17515449994244,271.7918310998939,272.17515449994244,271.7918310998939,272.17515449994244,272.1418199999025,272.64260719995946,272.1418199999025,272.64260719995946,272.1418199999025,272.64260719995946,272.1418199999025,272.64260719995946,272.1418199999025,272.64260719995946,272.1418199999025,272.64260719995946,272.1418199999025,272.64260719995946,272.1418199999025,272.64260719995946,271.7918310998939,None,272.64260719995946,274.5630836999044,0.3700000000000001,274.5780610999791,None,275.331044999999,None,,,,,,,[1.90617021],4.2100000000000035,0.8085106382978723,11025,002,2024_Jan_08_1302,MFTM_A_new1021,2021.2.3,59.76232520394705,
,,,,,,,,stim/Instruction_adaptive.png,conditions/adaptive.xlsx,test,-0.6,-0.6,-0.6,0.6,0.6,left,L,,,,,0,1,1,1,0,47,47,97,,,,,,,,,,,,,,,,,,,,,,,,,,,,,,,,,,,,,,,,,,,,275.83117779996246,None,left,1,1.5176592000061646,276.33196719991975,277.19990629993845,276.33196719991975,276.6998246998992,276.33196719991975,276.6998246998992,276.33196719991975,276.6998246998992,276.33196719991975,276.6998246998992,276.33196719991975,276.6998246998992,276.6817028999794,277.18373639998026,276.6817028999794,277.18373639998026,276.6817028999794,277.18373639998026,276.6817028999794,277.18373639998026,276.6817028999794,277.18373639998026,276.6817028999794,277.18373639998026,276.6817028999794,277.18373639998026,276.6817028999794,277.18373639998026,276.33196719991975,None,277.18373639998026,279.10200239997357,0.3600000000000001,279.1186720998958,None,279.86998499999754,None,,,,,,,[1.91104167],4.240000000000004,0.8125,11025,002,2024_Jan_08_1302,MFTM_A_new1021,2021.2.3,59.76232520394705,
,,,,,,,,stim/Instruction_adaptive.png,conditions/adaptive.xlsx,test,0.6,0.6,0.6,-0.6,-0.6,right,R,,,,,0,1,1,1,0,48,48,68,,,,,,,,,,,,,,,,,,,,,,,,,,,,,,,,,,,,,,,,,,,,280.37138229992706,None,right,1,1.2656786000588909,280.8720921999775,281.722729699919,280.8720921999775,281.2230802999111,280.8720921999775,281.2230802999111,280.8720921999775,281.2230802999111,280.8720921999775,281.2230802999111,280.8720921999775,281.2230802999111,281.20501429995056,281.70659749989863,281.20501429995056,281.70659749989863,281.20501429995056,281.70659749989863,281.20501429995056,281.70659749989863,281.20501429995056,281.70659749989863,281.20501429995056,281.70659749989863,281.20501429995056,281.70659749989863,281.20501429995056,281.70659749989863,280.8720921999775,None,281.70659749989863,283.62574989988934,0.3500000000000001,283.64209139999,None,284.3938792999834,None,,,,,,,[1.91591837],4.270000000000003,0.8163265306122449,11025,002,2024_Jan_08_1302,MFTM_A_new1021,2021.2.3,59.76232520394705,
,,,,,,,,stim/Instruction_adaptive.png,conditions/adaptive.xlsx,test,0.6,0.6,0.6,-0.6,-0.6,right,R,,,,,0,1,1,1,0,49,49,28,,,,,,,,,,,,,,,,,,,,,,,,,,,,,,,,,,,,,,,,,,,,284.89467679988593,None,left,0,1.0947385999606922,285.3946155998856,286.24626539996825,285.3946155998856,285.74579059996177,285.3946155998856,285.74579059996177,285.3946155998856,285.74579059996177,285.3946155998856,285.74579059996177,285.3946155998856,285.74579059996177,285.71205119998194,286.21321099996567,285.71205119998194,286.21321099996567,285.71205119998194,286.21321099996567,285.71205119998194,286.21321099996567,285.71205119998194,286.21321099996567,285.71205119998194,286.21321099996567,285.71205119998194,286.21321099996567,285.71205119998194,286.21321099996567,285.3946155998856,None,286.21321099996567,288.1485132999951,0.3400000000000001,288.1652253998909,None,288.9173127999529,None,,,,,,,[1.9208],4.180000000000003,0.8,11025,002,2024_Jan_08_1302,MFTM_A_new1021,2021.2.3,59.76232520394705,
,,,,,,,,stim/Instruction_adaptive.png,conditions/adaptive.xlsx,test,0.6,0.6,0.6,-0.6,-0.6,right,R,,,,,0,1,1,1,0,50,50,36,,,,,,,,,,,,,,,,,,,,,,,,,,,,,,,,,,,,,,,,,,,,289.4180833999999,None,right,1,1.0663951999740675,289.9188941998873,290.7865732999053,289.9188941998873,290.2859561999794,289.9188941998873,290.2859561999794,289.9188941998873,290.2859561999794,289.9188941998873,290.2859561999794,289.9188941998873,290.2859561999794,290.25254229991697,290.75307279999834,290.25254229991697,290.75307279999834,290.25254229991697,290.75307279999834,290.25254229991697,290.75307279999834,290.25254229991697,290.75307279999834,290.25254229991697,290.75307279999834,290.25254229991697,290.75307279999834,290.25254229991697,290.75307279999834,289.9188941998873,None,290.75307279999834,292.68927939992864,0.3600000000000001,292.705250699888,None,293.4574327999726,None,,,,,,,[1.92509804],4.2100000000000035,0.803921568627451,11025,002,2024_Jan_08_1302,MFTM_A_new1021,2021.2.3,59.76232520394705,
,,,,,,,,stim/Instruction_adaptive.png,conditions/adaptive.xlsx,test,0.6,0.6,0.6,-0.6,-0.6,right,R,,,,,0,1,1,1,0,51,51,46,,,,,,,,,,,,,,,,,,,,,,,,,,,,,,,,,,,,,,,,,,,,293.95795939990785,None,left,0,1.6315803000470623,294.4581057999749,295.32690699992236,294.4581057999749,294.82587579998653,294.4581057999749,294.82587579998653,294.4581057999749,294.82587579998653,294.4581057999749,294.82587579998653,294.4581057999749,294.82587579998653,294.7933006999083,295.2937344999518,294.7933006999083,295.2937344999518,294.7933006999083,295.2937344999518,294.7933006999083,295.2937344999518,294.7933006999083,295.2937344999518,294.7933006999083,295.2937344999518,294.7933006999083,295.2937344999518,294.7933006999083,295.2937344999518,294.4581057999749,None,295.2937344999518,297.2294034999795,0.3600000000000001,297.2620263999561,None,298.01424709998537,None,,,,,,,[1.92923077],4.120000000000003,0.7884615384615384,11025,002,2024_Jan_08_1302,MFTM_A_new1021,2021.2.3,59.76232520394705,
,,,,,,,,stim/Instruction_adaptive.png,conditions/adaptive.xlsx,test,0.6,0.6,0.6,-0.6,-0.6,right,R,,,,,0,1,1,1,0,52,52,2,,,,,,,,,,,,,,,,,,,,,,,,,,,,,,,,,,,,,,,,,,,,298.51406499999575,None,right,1,1.4426962999859825,299.01476229995023,299.9000836999621,299.01476229995023,299.39940209989436,299.01476229995023,299.39940209989436,299.01476229995023,299.39940209989436,299.01476229995023,299.39940209989436,299.01476229995023,299.39940209989436,299.38267649989575,299.88366299995687,299.38267649989575,299.88366299995687,299.38267649989575,299.88366299995687,299.38267649989575,299.88366299995687,299.38267649989575,299.88366299995687,299.38267649989575,299.88366299995687,299.38267649989575,299.88366299995687,299.38267649989575,299.88366299995687,299.01476229995023,None,299.88366299995687,301.81971569999587,0.3800000000000001,301.83518629998434,None,302.58785709994845,None,,,,,,,[1.93283019],4.150000000000003,0.7924528301886793,11025,002,2024_Jan_08_1302,MFTM_A_new1021,2021.2.3,59.76232520394705,
,,,,,,,,stim/Instruction_adaptive.png,conditions/adaptive.xlsx,test,-0.6,-0.6,-0.6,0.6,0.6,left,L,,,,,0,1,1,1,0,53,53,79,,,,,,,,,,,,,,,,,,,,,,,,,,,,,,,,,,,,,,,,,,,,303.0880116999615,None,left,1,0.8931248000590131,303.588269699947,304.45723579998594,303.588269699947,303.9734978999477,303.588269699947,303.9734978999477,303.588269699947,303.9734978999477,303.588269699947,303.9734978999477,303.588269699947,303.9734978999477,303.93970419990364,304.4406224999111,303.93970419990364,304.4406224999111,303.93970419990364,304.4406224999111,303.93970419990364,304.4406224999111,303.93970419990364,304.4406224999111,303.93970419990364,304.4406224999111,303.93970419990364,304.4406224999111,303.93970419990364,304.4406224999111,303.588269699947,None,304.4406224999111,306.39250369998626,0.3700000000000001,306.4094154998893,None,307.16074959991965,None,,,,,,,[1.93648148],4.180000000000003,0.7962962962962963,11025,002,2024_Jan_08_1302,MFTM_A_new1021,2021.2.3,59.76232520394705,
,,,,,,,,stim/Instruction_adaptive.png,conditions/adaptive.xlsx,test,-0.6,-0.6,-0.6,0.6,0.6,left,L,,,,,0,1,1,1,0,54,54,57,,,,,,,,,,,,,,,,,,,,,,,,,,,,,,,,,,,,,,,,,,,,307.6609445998911,None,left,1,0.8077172000193968,308.16165329993237,309.030172699946,308.16165329993237,308.5299286999507,308.16165329993237,308.5299286999507,308.16165329993237,308.5299286999507,308.16165329993237,308.5299286999507,308.16165329993237,308.5299286999507,308.49545329995453,308.99695749999955,308.49545329995453,308.99695749999955,308.49545329995453,308.99695749999955,308.49545329995453,308.99695749999955,308.49545329995453,308.99695749999955,308.49545329995453,308.99695749999955,308.49545329995453,308.99695749999955,308.49545329995453,308.99695749999955,308.16165329993237,None,309.01341999997385,None,0.3600000000000001,310.9662138998974,None,311.7177783999359,None,,,,,,,[1.94018182],4.2100000000000035,0.8,11025,002,2024_Jan_08_1302,MFTM_A_new1021,2021.2.3,59.76232520394705,
,,,,,,,,stim/Instruction_adaptive.png,conditions/adaptive.xlsx,test,0.6,0.6,0.6,-0.6,-0.6,right,R,,,,,0,1,1,1,0,55,55,12,,,,,,,,,,,,,,,,,,,,,,,,,,,,,,,,,,,,,,,,,,,,312.21782329992857,None,right,1,0.9948343000141904,312.71861269988585,313.5871210999321,312.71861269988585,313.085487299948,312.71861269988585,313.085487299948,312.71861269988585,313.085487299948,312.71861269988585,313.085487299948,312.71861269988585,313.085487299948,313.06901639990974,313.57036309991963,313.06901639990974,313.57036309991963,313.06901639990974,313.57036309991963,313.06901639990974,313.57036309991963,313.06901639990974,313.57036309991963,313.06901639990974,313.57036309991963,313.06901639990974,313.57036309991963,313.06901639990974,313.57036309991963,312.71861269988585,None,313.57036309991963,None,0.3600000000000001,315.5238741999492,None,316.27398739999626,None,,,,,,,[1.94375],4.240000000000004,0.8035714285714286,11025,002,2024_Jan_08_1302,MFTM_A_new1021,2021.2.3,59.76232520394705,
,,,,,,,,stim/Instruction_adaptive.png,conditions/adaptive.xlsx,test,0.6,0.6,0.6,-0.6,-0.6,right,R,,,,,0,1,1,1,0,56,56,94,,,,,,,,,,,,,,,,,,,,,,,,,,,,,,,,,,,,,,,,,,,,316.77488289994653,None,right,1,0.7584336999570951,317.27511309995316,318.1271796999499,317.27511309995316,317.6263724999735,317.27511309995316,317.6263724999735,317.27511309995316,317.6263724999735,317.27511309995316,317.6263724999735,317.27511309995316,317.6263724999735,317.60971969994716,318.10974979994353,317.60971969994716,318.10974979994353,317.60971969994716,318.10974979994353,317.60971969994716,318.10974979994353,317.60971969994716,318.10974979994353,317.60971969994716,318.10974979994353,317.60971969994716,318.10974979994353,317.60971969994716,318.10974979994353,317.27511309995316,None,318.10974979994353,320.0634134999709,0.3500000000000001,320.0793663999066,None,320.8309603999369,None,,,,,,,[1.94736842],4.270000000000003,0.8070175438596491,11025,002,2024_Jan_08_1302,MFTM_A_new1021,2021.2.3,59.76232520394705,
,,,,,,,,stim/Instruction_adaptive.png,conditions/adaptive.xlsx,test,0.6,0.6,0.6,-0.6,-0.6,right,R,,,,,0,1,1,1,0,57,57,70,,,,,,,,,,,,,,,,,,,,,,,,,,,,,,,,,,,,,,,,,,,,321.3317656998988,None,left,0,1.1693958999821916,321.8328816998983,322.6839194999775,321.8328816998983,322.1824607999297,321.8328816998983,322.1824607999297,321.8328816998983,322.1824607999297,321.8328816998983,322.1824607999297,321.8328816998983,322.1824607999297,322.14899329992477,322.6496581999818,322.14899329992477,322.6496581999818,322.14899329992477,322.6496581999818,322.14899329992477,322.6496581999818,322.14899329992477,322.6496581999818,322.14899329992477,322.6496581999818,322.14899329992477,322.6496581999818,322.14899329992477,322.6496581999818,321.8328816998983,None,322.6496581999818,324.6031417999184,0.3400000000000001,324.63590149988886,None,325.3883846999379,None,,,,,,,[1.95103448],4.190000000000003,0.7931034482758621,11025,002,2024_Jan_08_1302,MFTM_A_new1021,2021.2.3,59.76232520394705,
,,,,,,,,stim/Instruction_adaptive.png,conditions/adaptive.xlsx,test,0.6,0.6,0.6,-0.6,-0.6,right,R,,,,,0,1,1,1,0,58,58,48,,,,,,,,,,,,,,,,,,,,,,,,,,,,,,,,,,,,,,,,,,,,325.8888365998864,None,right,1,1.1891956999897957,326.3886748999357,327.2568998999195,326.3886748999357,326.75599119998515,326.3886748999357,326.75599119998515,326.3886748999357,326.75599119998515,326.3886748999357,326.75599119998515,326.3886748999357,326.75599119998515,326.72310319996905,327.224352399935,326.72310319996905,327.224352399935,326.72310319996905,327.224352399935,326.72310319996905,327.224352399935,326.72310319996905,327.224352399935,326.72310319996905,327.224352399935,326.72310319996905,327.224352399935,326.72310319996905,327.224352399935,326.3886748999357,None,327.224352399935,329.19381359999534,0.3600000000000001,329.2090652999468,None,329.96130369999446,None,,,,,,,[1.95423729],4.220000000000003,0.7966101694915254,11025,002,2024_Jan_08_1302,MFTM_A_new1021,2021.2.3,59.76232520394705,
,,,,,,,,stim/Instruction_adaptive.png,conditions/adaptive.xlsx,test,-0.6,-0.6,-0.6,0.6,0.6,left,L,,,,,0,1,1,1,0,59,59,71,,,,,,,,,,,,,,,,,,,,,,,,,,,,,,,,,,,,,,,,,,,,330.46161259990185,None,left,1,1.5589693000074476,330.96234999992885,331.8142897998914,330.96234999992885,331.3131269000005,330.96234999992885,331.3131269000005,330.96234999992885,331.3131269000005,330.96234999992885,331.3131269000005,330.96234999992885,331.3131269000005,331.29757079994306,331.7971396999201,331.29757079994306,331.7971396999201,331.29757079994306,331.7971396999201,331.29757079994306,331.7971396999201,331.29757079994306,331.7971396999201,331.29757079994306,331.7971396999201,331.29757079994306,331.7971396999201,331.29757079994306,331.7971396999201,330.96234999992885,None,331.7971396999201,333.7672360999277,0.3500000000000001,333.783018099959,None,334.53408159990795,None,,,,,,,[1.9575],4.240000000000004,0.8,11025,002,2024_Jan_08_1302,MFTM_A_new1021,2021.2.3,59.76232520394705,
,,,,,,,,stim/Instruction_adaptive.png,conditions/adaptive.xlsx,test,0.6,0.6,0.6,-0.6,-0.6,right,R,,,,,0,1,1,1,0,60,60,80,,,,,,,,,,,,,,,,,,,,,,,,,,,,,,,,,,,,,,,,,,,,335.03529869997874,None,right,1,1.282531899982132,335.5355352999177,336.3871619999409,335.5355352999177,335.88614599988796,335.5355352999177,335.88614599988796,335.5355352999177,335.88614599988796,335.5355352999177,335.88614599988796,335.5355352999177,335.88614599988796,335.87051379994955,336.37014689994976,335.87051379994955,336.37014689994976,335.87051379994955,336.37014689994976,335.87051379994955,336.37014689994976,335.87051379994955,336.37014689994976,335.87051379994955,336.37014689994976,335.87051379994955,336.37014689994976,335.87051379994955,336.37014689994976,335.5355352999177,None,336.37014689994976,338.34011739993,0.3500000000000001,338.3587027998874,None,339.10853609989863,None,,,,,,,[1.96065574],4.270000000000003,0.8032786885245902,11025,002,2024_Jan_08_1302,MFTM_A_new1021,2021.2.3,59.76232520394705,
,,,,,,,,stim/Instruction_adaptive.png,conditions/adaptive.xlsx,test,-0.6,-0.6,-0.6,0.6,0.6,left,L,,,,,0,1,1,1,0,61,61,65,,,,,,,,,,,,,,,,,,,,,,,,,,,,,,,,,,,,,,,,,,,,339.60836189996917,None,left,1,0.859931500046514,340.1093779999064,340.9612003999064,340.1093779999064,340.4594603999285,340.1093779999064,340.4594603999285,340.1093779999064,340.4594603999285,340.1093779999064,340.4594603999285,340.1093779999064,340.4594603999285,340.4261814999627,340.92806179996114,340.4261814999627,340.92806179996114,340.4261814999627,340.92806179996114,340.4261814999627,340.92806179996114,340.4261814999627,340.92806179996114,340.4261814999627,340.92806179996114,340.4261814999627,340.92806179996114,340.4261814999627,340.92806179996114,340.1093779999064,None,340.92806179996114,342.8966059999075,0.3400000000000001,342.913230999955,None,343.66439199994784,None,,,,,,,[1.96387097],4.300000000000003,0.8064516129032258,11025,002,2024_Jan_08_1302,MFTM_A_new1021,2021.2.3,59.76232520394705,
,,,,,,,,stim/Instruction_adaptive.png,conditions/adaptive.xlsx,test,-0.6,-0.6,-0.6,0.6,0.6,left,L,,,,,0,1,1,1,0,62,62,41,,,,,,,,,,,,,,,,,,,,,,,,,,,,,,,,,,,,,,,,,,,,344.16529909998644,None,right,0,0.9514618000248447,344.6669573999243,345.5012837999966,344.6669573999243,344.999597899965,344.6669573999243,344.999597899965,344.6669573999243,344.999597899965,344.6669573999243,344.999597899965,344.6669573999243,344.999597899965,344.98355259990785,345.4839844999369,344.98355259990785,345.4839844999369,344.98355259990785,345.4839844999369,344.98355259990785,345.4839844999369,344.98355259990785,345.4839844999369,344.98355259990785,345.4839844999369,344.98355259990785,345.4839844999369,344.98355259990785,345.4839844999369,344.6669573999243,None,345.4839844999369,347.45365499996115,0.33000000000000007,347.4706670999294,None,348.2218016999541,None,,,,,,,[1.96714286],4.220000000000003,0.7936507936507936,11025,002,2024_Jan_08_1302,MFTM_A_new1021,2021.2.3,59.76232520394705,
,,,,,,,,stim/Instruction_adaptive.png,conditions/adaptive.xlsx,test,-0.6,-0.6,-0.6,0.6,0.6,left,L,,,,,0,1,1,1,0,63,63,23,,,,,,,,,,,,,,,,,,,,,,,,,,,,,,,,,,,,,,,,,,,,348.7217866999563,None,right,0,1.4195027999812737,349.22265789995436,350.07454669999424,349.22265789995436,349.5739665000001,349.22265789995436,349.5739665000001,349.22265789995436,349.5739665000001,349.22265789995436,349.5739665000001,349.22265789995436,349.5739665000001,349.5571590999607,350.05790409992915,349.5571590999607,350.05790409992915,349.5571590999607,350.05790409992915,349.5571590999607,350.05790409992915,349.5571590999607,350.05790409992915,349.5571590999607,350.05790409992915,349.5571590999607,350.05790409992915,349.5571590999607,350.05790409992915,349.22265789995436,None,350.05790409992915,352.0272673999425,0.3500000000000001,352.0432403999148,None,352.7945730999345,None,,,,,,,[1.97],4.140000000000003,0.78125,11025,002,2024_Jan_08_1302,MFTM_A_new1021,2021.2.3,59.76232520394705,
,,,,,,,,stim/Instruction_adaptive.png,conditions/adaptive.xlsx,test,0.6,0.6,0.6,-0.6,-0.6,right,R,,,,,0,1,1,1,0,64,64,92,,,,,,,,,,,,,,,,,,,,,,,,,,,,,,,,,,,,,,,,,,,,353.29651549994014,None,right,1,0.8128230000147596,353.7965295999311,354.6824638999533,353.7965295999311,354.18092069996055,353.7965295999311,354.18092069996055,353.7965295999311,354.18092069996055,353.7965295999311,354.18092069996055,353.7965295999311,354.18092069996055,354.1467618999304,354.6479828999145,354.1467618999304,354.6479828999145,354.1467618999304,354.6479828999145,354.1467618999304,354.6479828999145,354.1467618999304,354.6479828999145,354.1467618999304,354.6479828999145,354.1467618999304,354.6479828999145,354.1467618999304,354.6479828999145,353.7965295999311,None,354.6479828999145,356.6341626999201,0.3700000000000001,356.6502858999884,None,357.40199429995846,None,,,,,,,[1.97246154],4.1700000000000035,0.7846153846153846,11025,002,2024_Jan_08_1302,MFTM_A_new1021,2021.2.3,59.76232520394705,
,,,,,,,,stim/Instruction_adaptive.png,conditions/adaptive.xlsx,test,0.6,0.6,0.6,-0.6,-0.6,right,R,,,,,0,1,1,1,0,65,65,24,,,,,,,,,,,,,,,,,,,,,,,,,,,,,,,,,,,,,,,,,,,,357.90214909997303,None,right,1,1.3508061999455094,358.4026614999166,359.28843439999036,358.4026614999166,358.78737549996004,358.4026614999166,358.78737549996004,358.4026614999166,358.78737549996004,358.4026614999166,358.78737549996004,358.4026614999166,358.78737549996004,358.7533227999229,359.25483849993907,358.7533227999229,359.25483849993907,358.7533227999229,359.25483849993907,358.7533227999229,359.25483849993907,358.7533227999229,359.25483849993907,358.7533227999229,359.25483849993907,358.7533227999229,359.25483849993907,358.7533227999229,359.25483849993907,358.4026614999166,None,359.25483849993907,361.2403142999392,0.3700000000000001,361.25701760000084,None,362.0081841999199,None,,,,,,,[1.97484848],4.200000000000003,0.7878787878787878,11025,002,2024_Jan_08_1302,MFTM_A_new1021,2021.2.3,59.76232520394705,
,,,,,,,,stim/Instruction_adaptive.png,conditions/adaptive.xlsx,test,-0.6,-0.6,-0.6,0.6,0.6,left,L,,,,,0,1,1,1,0,66,66,35,,,,,,,,,,,,,,,,,,,,,,,,,,,,,,,,,,,,,,,,,,,,362.5089425999904,None,left,1,1.4639932999853045,363.01002009992953,363.87756249995437,363.01002009992953,363.3768974998966,363.01002009992953,363.3768974998966,363.01002009992953,363.3768974998966,363.01002009992953,363.3768974998966,363.01002009992953,363.3768974998966,363.35997479991056,363.8620462999679,363.35997479991056,363.8620462999679,363.35997479991056,363.8620462999679,363.35997479991056,363.8620462999679,363.35997479991056,363.8620462999679,363.35997479991056,363.8620462999679,363.35997479991056,363.8620462999679,363.35997479991056,363.8620462999679,363.01002009992953,None,363.8620462999679,None,0.3600000000000001,365.84762919996865,None,366.59856059995946,None,,,,,,,[1.97731343],4.220000000000003,0.7910447761194029,11025,002,2024_Jan_08_1302,MFTM_A_new1021,2021.2.3,59.76232520394705,
,,,,,,,,stim/Instruction_adaptive.png,conditions/adaptive.xlsx,test,-0.6,-0.6,-0.6,0.6,0.6,left,L,,,,,0,1,1,1,0,67,67,85,,,,,,,,,,,,,,,,,,,,,,,,,,,,,,,,,,,,,,,,,,,,367.0993474998977,None,left,1,1.2244440999347717,367.6009885999374,368.45183999999426,367.6009885999374,367.95019009988755,367.6009885999374,367.95019009988755,367.6009885999374,367.95019009988755,367.6009885999374,367.95019009988755,367.6009885999374,367.95019009988755,367.9336811999092,368.4354154999601,367.9336811999092,368.4354154999601,367.9336811999092,368.4354154999601,367.9336811999092,368.4354154999601,367.9336811999092,368.4354154999601,367.9336811999092,368.4354154999601,367.9336811999092,368.4354154999601,367.9336811999092,368.4354154999601,367.6009885999374,None,368.4354154999601,370.4215752999298,0.3500000000000001,370.43804109992925,None,371.1885467999382,None,,,,,,,[1.97985294],4.2500000000000036,0.7941176470588235,11025,002,2024_Jan_08_1302,MFTM_A_new1021,2021.2.3,59.76232520394705,
,,,,,,,,stim/Instruction_adaptive.png,conditions/adaptive.xlsx,test,0.6,0.6,0.6,-0.6,-0.6,right,R,,,,,0,1,1,1,0,68,68,62,,,,,,,,,,,,,,,,,,,,,,,,,,,,,,,,,,,,,,,,,,,,371.6891467999667,None,right,1,0.9557668999768794,372.18992539995816,373.04136939998716,372.18992539995816,372.5417214999907,372.18992539995816,372.5417214999907,372.18992539995816,372.5417214999907,372.18992539995816,372.5417214999907,372.18992539995816,372.5417214999907,372.5239204999525,373.0244738999754,372.5239204999525,373.0244738999754,372.5239204999525,373.0244738999754,372.5239204999525,373.0244738999754,372.5239204999525,373.0244738999754,372.5239204999525,373.0244738999754,372.5239204999525,373.0244738999754,372.5239204999525,373.0244738999754,372.18992539995816,None,373.0244738999754,375.0111251999624,0.3500000000000001,375.0275144999614,None,375.77926129999105,None,,,,,,,[1.98231884],4.270000000000003,0.7971014492753623,11025,002,2024_Jan_08_1302,MFTM_A_new1021,2021.2.3,59.76232520394705,
,,,,,,,,stim/Instruction_adaptive.png,conditions/adaptive.xlsx,test,0.6,0.6,0.6,-0.6,-0.6,right,R,,,,,0,1,1,1,0,69,69,6,,,,,,,,,,,,,,,,,,,,,,,,,,,,,,,,,,,,,,,,,,,,376.28008329996374,None,left,0,1.4852880999678746,376.78060869988985,377.6318545999238,376.78060869988985,377.1309879999608,376.78060869988985,377.1309879999608,376.78060869988985,377.1309879999608,376.78060869988985,377.1309879999608,376.78060869988985,377.1309879999608,377.09715179994237,377.599010399892,377.09715179994237,377.599010399892,377.09715179994237,377.599010399892,377.09715179994237,377.599010399892,377.09715179994237,377.599010399892,377.09715179994237,377.599010399892,377.09715179994237,377.599010399892,377.09715179994237,377.599010399892,376.78060869988985,None,377.599010399892,379.5851253999863,0.3400000000000001,379.6173260998912,None,380.3687315999996,None,,,,,,,[1.98485714],4.200000000000003,0.7857142857142857,11025,002,2024_Jan_08_1302,MFTM_A_new1021,2021.2.3,59.76232520394705,
,,,,,,,,stim/Instruction_adaptive.png,conditions/adaptive.xlsx,test,0.6,0.6,0.6,-0.6,-0.6,right,R,,,,,0,1,1,1,0,70,70,40,,,,,,,,,,,,,,,,,,,,,,,,,,,,,,,,,,,,,,,,,,,,380.87035209999885,None,right,1,0.990557299926877,381.37084959994536,382.2388464999385,381.37084959994536,381.7375368999783,381.37084959994536,381.7375368999783,381.37084959994536,381.7375368999783,381.37084959994536,381.7375368999783,381.37084959994536,381.7375368999783,381.7206771998899,382.222088099923,381.7206771998899,382.222088099923,381.7206771998899,382.222088099923,381.7206771998899,382.222088099923,381.7206771998899,382.222088099923,381.7206771998899,382.222088099923,381.7206771998899,382.222088099923,381.7206771998899,382.222088099923,381.37084959994536,None,382.222088099923,None,0.3600000000000001,384.22443619999103,None,384.9752379999263,None,,,,,,,[1.98704225],4.220000000000003,0.7887323943661971,11025,002,2024_Jan_08_1302,MFTM_A_new1021,2021.2.3,59.76232520394705,
,,,,,,,,stim/Instruction_adaptive.png,conditions/adaptive.xlsx,test,0.6,0.6,0.6,-0.6,-0.6,right,R,,,,,0,1,1,1,0,71,71,34,,,,,,,,,,,,,,,,,,,,,,,,,,,,,,,,,,,,,,,,,,,,385.47642189997714,None,left,0,1.487968000001274,385.97759799996857,386.82930459990166,385.97759799996857,386.3277063999558,385.97759799996857,386.3277063999558,385.97759799996857,386.3277063999558,385.97759799996857,386.3277063999558,385.97759799996857,386.3277063999558,386.3109449999174,386.81244859995786,386.3109449999174,386.81244859995786,386.3109449999174,386.81244859995786,386.3109449999174,386.81244859995786,386.3109449999174,386.81244859995786,386.3109449999174,386.81244859995786,386.3109449999174,386.81244859995786,386.3109449999174,386.81244859995786,385.97759799996857,None,386.81244859995786,388.81582349992823,0.3500000000000001,388.8306035998976,None,389.5831017999444,None,,,,,,,[1.98930556],4.150000000000003,0.7777777777777778,11025,002,2024_Jan_08_1302,MFTM_A_new1021,2021.2.3,59.76232520394705,
,,,,,,,,stim/Instruction_adaptive.png,conditions/adaptive.xlsx,test,-0.6,-0.6,-0.6,0.6,0.6,left,L,,,,,0,1,1,1,0,72,72,49,,,,,,,,,,,,,,,,,,,,,,,,,,,,,,,,,,,,,,,,,,,,390.0831907999236,None,left,1,1.0497230000328273,390.5837389999069,391.46902689989656,390.5837389999069,390.9682376999408,390.5837389999069,390.9682376999408,390.5837389999069,390.9682376999408,390.5837389999069,390.9682376999408,390.5837389999069,390.9682376999408,390.93452349992003,391.4352974999929,390.93452349992003,391.4352974999929,390.93452349992003,391.4352974999929,390.93452349992003,391.4352974999929,390.93452349992003,391.4352974999929,390.93452349992003,391.4352974999929,390.93452349992003,391.4352974999929,390.93452349992003,391.4352974999929,390.5837389999069,None,391.4352974999929,393.4384924999904,0.3700000000000001,393.4546899999259,None,394.20728569990024,None,,,,,,,[1.99123288],4.180000000000003,0.7808219178082192,11025,002,2024_Jan_08_1302,MFTM_A_new1021,2021.2.3,59.76232520394705,
,,,,,,,,stim/Instruction_adaptive.png,conditions/adaptive.xlsx,test,-0.6,-0.6,-0.6,0.6,0.6,left,L,,,,,0,1,1,1,0,73,73,73,,,,,,,,,,,,,,,,,,,,,,,,,,,,,,,,,,,,,,,,,,,,394.7073126999894,None,right,0,0.8015608000569046,395.2081669999752,396.0759655999718,395.2081669999752,395.5746033999603,395.2081669999752,395.5746033999603,395.2081669999752,395.5746033999603,395.2081669999752,395.5746033999603,395.2081669999752,395.5746033999603,395.558567799977,396.0599129999755,395.558567799977,396.0599129999755,395.558567799977,396.0599129999755,395.558567799977,396.0599129999755,395.558567799977,396.0599129999755,395.558567799977,396.0599129999755,395.558567799977,396.0599129999755,395.558567799977,396.0599129999755,395.2081669999752,None,396.0599129999755,None,0.3600000000000001,398.0628853999078,None,398.8134686999256,None,,,,,,,[1.99324324],4.110000000000003,0.7702702702702703,11025,002,2024_Jan_08_1302,MFTM_A_new1021,2021.2.3,59.76232520394705,
,,,,,,,,stim/Instruction_adaptive.png,conditions/adaptive.xlsx,test,-0.6,-0.6,-0.6,0.6,0.6,left,L,,,,,0,1,1,1,0,74,74,53,,,,,,,,,,,,,,,,,,,,,,,,,,,,,,,,,,,,,,,,,,,,399.31442139996216,None,left,1,1.3946043000323698,399.81500919989776,400.6994831999764,399.81500919989776,400.1980016999878,399.81500919989776,400.1980016999878,399.81500919989776,400.1980016999878,399.81500919989776,400.1980016999878,399.81500919989776,400.1980016999878,400.1816954999231,400.68214789999183,400.1816954999231,400.68214789999183,400.1816954999231,400.68214789999183,400.1816954999231,400.68214789999183,400.1816954999231,400.68214789999183,400.1816954999231,400.68214789999183,400.1816954999231,400.68214789999183,400.1816954999231,400.68214789999183,399.81500919989776,None,400.68214789999183,402.68509779998567,0.3800000000000001,402.70182679989375,None,403.45394659996964,None,,,,,,,[1.99493333],4.1300000000000034,0.7733333333333333,11025,002,2024_Jan_08_1302,MFTM_A_new1021,2021.2.3,59.76232520394705,
,,,,,,,,stim/Instruction_adaptive.png,conditions/adaptive.xlsx,test,-0.6,-0.6,-0.6,0.6,0.6,left,L,,,,,0,1,1,1,0,75,75,13,,,,,,,,,,,,,,,,,,,,,,,,,,,,,,,,,,,,,,,,,,,,403.9543709999416,None,left,1,1.6098311999812722,404.4556232999312,405.33900949999224,404.4556232999312,404.83841509988997,404.4556232999312,404.83841509988997,404.4556232999312,404.83841509988997,404.4556232999312,404.83841509988997,404.4556232999312,404.83841509988997,404.82157419994473,405.32235469995067,404.82157419994473,405.32235469995067,404.82157419994473,405.32235469995067,404.82157419994473,405.32235469995067,404.82157419994473,405.32235469995067,404.82157419994473,405.32235469995067,404.82157419994473,405.32235469995067,404.82157419994473,405.32235469995067,404.4556232999312,None,405.32235469995067,407.3265003999695,0.3800000000000001,407.34195139992516,None,408.0940355999628,None,,,,,,,[1.99657895],4.150000000000003,0.7763157894736842,11025,002,2024_Jan_08_1302,MFTM_A_new1021,2021.2.3,59.76232520394705,
,,,,,,,,stim/Instruction_adaptive.png,conditions/adaptive.xlsx,test,0.6,0.6,0.6,-0.6,-0.6,right,R,,,,,0,1,1,1,0,76,76,86,,,,,,,,,,,,,,,,,,,,,,,,,,,,,,,,,,,,,,,,,,,,408.59446419996675,None,right,1,1.7308025000384077,409.0949134998955,409.97971189999953,409.0949134998955,409.47859699989203,409.0949134998955,409.47859699989203,409.0949134998955,409.47859699989203,409.0949134998955,409.47859699989203,409.0949134998955,409.47859699989203,409.44513559993356,409.9458078999305,409.44513559993356,409.9458078999305,409.44513559993356,409.9458078999305,409.44513559993356,409.9458078999305,409.44513559993356,409.9458078999305,409.44513559993356,409.9458078999305,409.44513559993356,409.9458078999305,409.44513559993356,409.9458078999305,409.0949134998955,None,409.9458078999305,411.94959869992454,0.3700000000000001,411.9656527999323,None,412.71667379990686,None,,,,,,,[1.99831169],4.180000000000003,0.7792207792207793,11025,002,2024_Jan_08_1302,MFTM_A_new1021,2021.2.3,59.76232520394705,
,,,,,,,,stim/Instruction_adaptive.png,conditions/adaptive.xlsx,test,-0.6,-0.6,-0.6,0.6,0.6,left,L,,,,,0,1,1,1,0,77,77,99,,,,,,,,,,,,,,,,,,,,,,,,,,,,,,,,,,,,,,,,,,,,413.2197545999661,None,right,0,1.7298781001009047,413.73557769996114,414.6030982999364,413.73557769996114,414.1026069999207,413.73557769996114,414.1026069999207,413.73557769996114,414.1026069999207,413.73557769996114,414.1026069999207,413.73557769996114,414.1026069999207,414.0686610999983,414.5693737999536,414.0686610999983,414.5693737999536,414.0686610999983,414.5693737999536,414.0686610999983,414.5693737999536,414.0686610999983,414.5693737999536,414.0686610999983,414.5693737999536,414.0686610999983,414.5693737999536,414.0686610999983,414.5693737999536,413.73557769996114,None,414.5693737999536,416.57331639993936,0.3600000000000001,416.60515109996777,None,417.35706669988576,None,,,,,,,[2.00012821],4.110000000000003,0.7692307692307693,11025,002,2024_Jan_08_1302,MFTM_A_new1021,2021.2.3,59.76232520394705,
,,,,,,,,stim/Instruction_adaptive.png,conditions/adaptive.xlsx,test,-0.6,-0.6,-0.6,0.6,0.6,left,L,,,,,0,1,1,1,0,78,78,7,,,,,,,,,,,,,,,,,,,,,,,,,,,,,,,,,,,,,,,,,,,,417.857641999959,None,left,1,1.555360599886626,418.3581410999177,419.24348869989626,418.3581410999177,418.74253119993955,418.3581410999177,418.74253119993955,418.3581410999177,418.74253119993955,418.3581410999177,418.74253119993955,418.3581410999177,418.74253119993955,418.72610779991373,419.2268736999249,418.72610779991373,419.2268736999249,418.72610779991373,419.2268736999249,418.72610779991373,419.2268736999249,418.72610779991373,419.2268736999249,418.72610779991373,419.2268736999249,418.72610779991373,419.2268736999249,418.72610779991373,419.2268736999249,418.3581410999177,None,419.2268736999249,421.22987329994794,0.3800000000000001,421.2459117999533,None,421.99792409990914,None,,,,,,,[2.00164557],4.1300000000000034,0.7721518987341772,11025,002,2024_Jan_08_1302,MFTM_A_new1021,2021.2.3,59.76232520394705,
,,,,,,,,stim/Instruction_adaptive.png,conditions/adaptive.xlsx,test,0.6,0.6,0.6,-0.6,-0.6,right,R,,,,,0,1,1,1,0,79,79,16,,,,,,,,,,,,,,,,,,,,,,,,,,,,,,,,,,,,,,,,,,,,422.49815020000096,None,left,0,1.994645099970512,422.9988589999266,423.88454789994285,422.9988589999266,423.38327229989227,422.9988589999266,423.38327229989227,422.9988589999266,423.38327229989227,422.9988589999266,423.38327229989227,422.9988589999266,423.38327229989227,423.36689219996333,423.8675294999266,423.36689219996333,423.8675294999266,423.36689219996333,423.8675294999266,423.36689219996333,423.8675294999266,423.36689219996333,423.8675294999266,423.36689219996333,423.8675294999266,423.36689219996333,423.8675294999266,423.36689219996333,423.8675294999266,422.9988589999266,None,423.8675294999266,425.87050709989853,0.3800000000000001,425.8856022999389,None,426.63772629993036,None,,,,,,,[2.003125],4.060000000000003,0.7625,11025,002,2024_Jan_08_1302,MFTM_A_new1021,2021.2.3,59.76232520394705,
,,,,,,,,stim/Instruction_adaptive.png,conditions/adaptive.xlsx,test,-0.6,-0.6,-0.6,0.6,0.6,left,L,,,,,0,1,1,1,0,80,80,9,,,,,,,,,,,,,,,,,,,,,,,,,,,,,,,,,,,,,,,,,,,,427.13845049997326,None,right,0,1.5703241000883281,427.6394712999463,428.5400628999341,427.6394712999463,428.03950089996215,427.6394712999463,428.03950089996215,427.6394712999463,428.03950089996215,427.6394712999463,428.03950089996215,427.6394712999463,428.03950089996215,428.00601699994877,428.50656349991914,428.00601699994877,428.50656349991914,428.00601699994877,428.50656349991914,428.00601699994877,428.50656349991914,428.00601699994877,428.50656349991914,428.00601699994877,428.50656349991914,428.00601699994877,428.50656349991914,428.00601699994877,428.50656349991914,427.6394712999463,None,428.50656349991914,430.5098431999795,0.3900000000000001,430.5433078999631,None,431.29493589990307,None,,,,,,,[2.00444444],3.990000000000003,0.7530864197530864,11025,002,2024_Jan_08_1302,MFTM_A_new1021,2021.2.3,59.76232520394705,
,,,,,,,,stim/Instruction_adaptive.png,conditions/adaptive.xlsx,test,-0.6,-0.6,-0.6,0.6,0.6,left,L,,,,,0,1,1,1,0,81,81,19,,,,,,,,,,,,,,,,,,,,,,,,,,,,,,,,,,,,,,,,,,,,431.79539619991556,None,left,1,1.3695349999470636,432.2962625999935,433.21416499989573,432.2962625999935,432.71294449991547,432.2962625999935,432.71294449991547,432.2962625999935,432.71294449991547,432.2962625999935,432.71294449991547,432.2962625999935,432.71294449991547,432.68056829995476,433.18047539994586,432.68056829995476,433.18047539994586,432.68056829995476,433.18047539994586,432.68056829995476,433.18047539994586,432.68056829995476,433.18047539994586,432.68056829995476,433.18047539994586,432.68056829995476,433.18047539994586,432.68056829995476,433.18047539994586,432.2962625999935,None,433.18047539994586,435.2001223999541,0.41000000000000014,435.21667949995026,None,435.96869659994263,None,,,,,,,[2.0054878],4.020000000000003,0.7560975609756098,11025,002,2024_Jan_08_1302,MFTM_A_new1021,2021.2.3,59.76232520394705,
,,,,,,,,stim/Instruction_adaptive.png,conditions/adaptive.xlsx,test,-0.6,-0.6,-0.6,0.6,0.6,left,L,,,,,0,1,1,1,0,82,82,15,,,,,,,,,,,,,,,,,,,,,,,,,,,,,,,,,,,,,,,,,,,,436.46932109992485,None,right,0,1.6876703000161797,436.96991409990005,437.88799749989994,436.96991409990005,437.3867163999239,436.96991409990005,437.3867163999239,436.96991409990005,437.3867163999239,436.96991409990005,437.3867163999239,436.96991409990005,437.3867163999239,437.37013449997175,437.8712889999151,437.37013449997175,437.8712889999151,437.37013449997175,437.8712889999151,437.37013449997175,437.8712889999151,437.37013449997175,437.8712889999151,437.37013449997175,437.8712889999151,437.37013449997175,437.8712889999151,437.37013449997175,437.8712889999151,436.96991409990005,None,437.8554425999755,439.87491549993865,0.41000000000000014,439.8899359999923,None,440.6417785999365,None,,,,,,,[2.00650602],3.950000000000003,0.7469879518072289,11025,002,2024_Jan_08_1302,MFTM_A_new1021,2021.2.3,59.76232520394705,
,,,,,,,,stim/Instruction_adaptive.png,conditions/adaptive.xlsx,test,0.6,0.6,0.6,-0.6,-0.6,right,R,,,,,0,1,1,1,0,83,83,26,,,,,,,,,,,,,,,,,,,,,,,,,,,,,,,,,,,,,,,,,,,,441.1425495999865,None,left,0,1.7189213000237942,441.64348689990584,442.57863189990167,441.64348689990584,442.07777839992195,441.64348689990584,442.07777839992195,441.64348689990584,442.07777839992195,441.64348689990584,442.07777839992195,441.64348689990584,442.07777839992195,442.0605670999503,442.5615496999817,442.0605670999503,442.5615496999817,442.0605670999503,442.5615496999817,442.0605670999503,442.5615496999817,442.0605670999503,442.5615496999817,442.0605670999503,442.5615496999817,442.0605670999503,442.5615496999817,442.0605670999503,442.5615496999817,441.64348689990584,None,442.5615496999817,None,0.43000000000000016,444.5812100999756,None,445.33235739998054,None,,,,,,,[2.0072619],3.8700000000000028,0.7380952380952381,11025,002,2024_Jan_08_1302,MFTM_A_new1021,2021.2.3,59.76232520394705,
,,,,,,,,stim/Instruction_adaptive.png,conditions/adaptive.xlsx,test,-0.6,-0.6,-0.6,0.6,0.6,left,L,,,,,0,1,1,1,0,84,84,91,,,,,,,,,,,,,,,,,,,,,,,,,,,,,,,,,,,,,,,,,,,,445.83295709989034,None,right,0,2.308565799961798,446.33317439991515,447.28644459997304,446.33317439991515,446.78356129990425,446.33317439991515,446.78356129990425,446.33317439991515,446.78356129990425,446.33317439991515,446.78356129990425,446.33317439991515,446.78356129990425,446.76764089998323,447.26762399997097,446.76764089998323,447.26762399997097,446.76764089998323,447.26762399997097,446.76764089998323,447.26762399997097,446.76764089998323,447.26762399997097,446.76764089998323,447.26762399997097,446.76764089998323,447.26762399997097,446.76764089998323,447.26762399997097,446.33317439991515,None,447.26762399997097,449.28841499995906,0.4500000000000002,449.3048781999387,None,450.0561277999077,None,,,,,,,[2.00776471],3.7900000000000027,0.7294117647058823,11025,002,2024_Jan_08_1302,MFTM_A_new1021,2021.2.3,59.76232520394705,
,,,,,,,,stim/Instruction_adaptive.png,conditions/adaptive.xlsx,test,-0.6,-0.6,-0.6,0.6,0.6,left,L,,,,,0,1,1,1,0,85,85,27,,,,,,,,,,,,,,,,,,,,,,,,,,,,,,,,,,,,,,,,,,,,450.55651449994184,None,left,1,0.9366550000850111,451.0569416999351,452.0421575999353,451.0569416999351,451.54087059991434,451.0569416999351,451.54087059991434,451.0569416999351,451.54087059991434,451.0569416999351,451.54087059991434,451.0569416999351,451.54087059991434,451.52420339989476,452.02554439997766,451.52420339989476,452.02554439997766,451.52420339989476,452.02554439997766,451.52420339989476,452.02554439997766,451.52420339989476,452.02554439997766,451.52420339989476,452.02554439997766,451.52420339989476,452.02554439997766,451.52420339989476,452.02554439997766,451.0569416999351,None,452.02554439997766,None,0.4800000000000002,454.04507569991983,None,454.79621409997344,None,,,,,,,[2.00790698],3.820000000000003,0.7325581395348837,11025,002,2024_Jan_08_1302,MFTM_A_new1021,2021.2.3,59.76232520394705,
,,,,,,,,stim/Instruction_adaptive.png,conditions/adaptive.xlsx,test,-0.6,-0.6,-0.6,0.6,0.6,left,L,,,,,0,1,1,1,0,86,86,11,,,,,,,,,,,,,,,,,,,,,,,,,,,,,,,,,,,,,,,,,,,,455.29719259997364,None,left,1,1.6278428999939933,455.7980190999806,456.78226149990223,455.7980190999806,456.2819717999082,455.7980190999806,456.2819717999082,455.7980190999806,456.2819717999082,455.7980190999806,456.2819717999082,455.7980190999806,456.2819717999082,456.24871169996914,456.7491292998893,456.24871169996914,456.7491292998893,456.24871169996914,456.7491292998893,456.24871169996914,456.7491292998893,456.24871169996914,456.7491292998893,456.24871169996914,456.7491292998893,456.24871169996914,456.7491292998893,456.24871169996914,456.7491292998893,455.7980190999806,None,456.7491292998893,458.76876789995003,0.4700000000000002,458.78503399994224,None,459.53619019989856,None,,,,,,,[2.00816092],3.850000000000003,0.735632183908046,11025,002,2024_Jan_08_1302,MFTM_A_new1021,2021.2.3,59.76232520394705,
,,,,,,,,stim/Instruction_adaptive.png,conditions/adaptive.xlsx,test,-0.6,-0.6,-0.6,0.6,0.6,left,L,,,,,0,1,1,1,0,87,87,75,,,,,,,,,,,,,,,,,,,,,,,,,,,,,,,,,,,,,,,,,,,,460.03785069996957,None,left,1,1.9047043999889866,460.537401999929,461.50548169994727,460.537401999929,461.005442499998,460.537401999929,461.005442499998,460.537401999929,461.005442499998,460.537401999929,461.005442499998,460.537401999929,461.005442499998,460.97263439989183,461.47206289996393,460.97263439989183,461.47206289996393,460.97263439989183,461.47206289996393,460.97263439989183,461.47206289996393,460.97263439989183,461.47206289996393,460.97263439989183,461.47206289996393,460.97263439989183,461.47206289996393,460.97263439989183,461.47206289996393,460.537401999929,None,461.47206289996393,463.49285669997334,0.4600000000000002,463.5083712999476,None,464.26041849993635,None,,,,,,,[2.00852273],3.8700000000000028,0.7386363636363636,11025,002,2024_Jan_08_1302,MFTM_A_new1021,2021.2.3,59.76232520394705,
,,,,,,,,stim/Instruction_adaptive.png,conditions/adaptive.xlsx,test,0.6,0.6,0.6,-0.6,-0.6,right,R,,,,,0,1,1,1,0,88,88,82,,,,,,,,,,,,,,,,,,,,,,,,,,,,,,,,,,,,,,,,,,,,464.76047619991004,None,right,1,1.3164423999842256,465.2611611998873,466.2135825000005,465.2611611998873,465.71277529990766,465.2611611998873,465.71277529990766,465.2611611998873,465.71277529990766,465.2611611998873,465.71277529990766,465.2611611998873,465.71277529990766,465.69499669992365,466.19671389996074,465.69499669992365,466.19671389996074,465.69499669992365,466.19671389996074,465.69499669992365,466.19671389996074,465.69499669992365,466.19671389996074,465.69499669992365,466.19671389996074,465.69499669992365,466.19671389996074,465.69499669992365,466.19671389996074,465.2611611998873,None,466.19671389996074,468.21658139990177,0.4500000000000002,468.2329071999993,None,468.98438359994907,None,,,,,,,[2.00898876],3.900000000000003,0.7415730337078652,11025,002,2024_Jan_08_1302,MFTM_A_new1021,2021.2.3,59.76232520394705,
,,,,,,,,stim/Instruction_adaptive.png,conditions/adaptive.xlsx,test,-0.6,-0.6,-0.6,0.6,0.6,left,L,,,,,0,1,1,1,0,89,89,51,,,,,,,,,,,,,,,,,,,,,,,,,,,,,,,,,,,,,,,,,,,,469.4850212999154,None,left,1,1.104351699934341,469.9854866999667,470.9368590998929,469.9854866999667,470.43655369989574,469.9854866999667,470.43655369989574,469.9854866999667,470.43655369989574,469.9854866999667,470.43655369989574,469.9854866999667,470.43655369989574,470.40263469994534,470.9033676999388,470.40263469994534,470.9033676999388,470.40263469994534,470.9033676999388,470.40263469994534,470.9033676999388,470.40263469994534,470.9033676999388,470.40263469994534,470.9033676999388,470.40263469994534,470.9033676999388,470.40263469994534,470.9033676999388,469.9854866999667,None,470.9033676999388,472.9230891999323,0.44000000000000017,472.9391671998892,None,473.69104669999797,None,,,,,,,[2.00955556],3.920000000000003,0.7444444444444445,11025,002,2024_Jan_08_1302,MFTM_A_new1021,2021.2.3,59.76232520394705,
,,,,,,,,stim/Instruction_adaptive.png,conditions/adaptive.xlsx,test,-0.6,-0.6,-0.6,0.6,0.6,left,L,,,,,0,1,1,1,0,90,90,67,,,,,,,,,,,,,,,,,,,,,,,,,,,,,,,,,,,,,,,,,,,,474.1911704998929,None,left,1,1.3192957000574097,474.6915591999423,475.6278441998875,474.6915591999423,475.12604539992753,474.6915591999423,475.12604539992753,474.6915591999423,475.12604539992753,474.6915591999423,475.12604539992753,474.6915591999423,475.12604539992753,475.10942659992725,475.6109202998923,475.10942659992725,475.6109202998923,475.10942659992725,475.6109202998923,475.10942659992725,475.6109202998923,475.10942659992725,475.6109202998923,475.10942659992725,475.6109202998923,475.10942659992725,475.6109202998923,475.10942659992725,475.6109202998923,474.6915591999423,None,475.6109202998923,477.6296249999432,0.43000000000000016,477.64735479990486,None,478.39841919997707,None,,,,,,,[2.01021978],3.940000000000003,0.7472527472527473,11025,002,2024_Jan_08_1302,MFTM_A_new1021,2021.2.3,59.76232520394705,
,,,,,,,,stim/Instruction_adaptive.png,conditions/adaptive.xlsx,test,0.6,0.6,0.6,-0.6,-0.6,right,R,,,,,0,1,1,1,0,91,91,58,,,,,,,,,,,,,,,,,,,,,,,,,,,,,,,,,,,,,,,,,,,,478.89942259993404,None,right,1,1.2042710999958217,479.3987980999518,480.33462789992336,479.3987980999518,479.83363229990937,479.3987980999518,479.83363229990937,479.3987980999518,479.83363229990937,479.3987980999518,479.83363229990937,479.3987980999518,479.83363229990937,479.8158791998867,480.31776309991255,479.8158791998867,480.31776309991255,479.8158791998867,480.31776309991255,479.8158791998867,480.31776309991255,479.8158791998867,480.31776309991255,479.8158791998867,480.31776309991255,479.8158791998867,480.31776309991255,479.8158791998867,480.31776309991255,479.3987980999518,None,480.31776309991255,482.33788949996233,0.43000000000000016,482.3532353999326,None,483.1049403999932,None,,,,,,,[2.01086957],3.960000000000003,0.75,11025,002,2024_Jan_08_1302,MFTM_A_new1021,2021.2.3,59.76232520394705,
,,,,,,,,stim/Instruction_adaptive.png,conditions/adaptive.xlsx,test,0.6,0.6,0.6,-0.6,-0.6,right,R,,,,,0,1,1,1,0,92,92,72,,,,,,,,,,,,,,,,,,,,,,,,,,,,,,,,,,,,,,,,,,,,483.6055734999245,None,left,0,1.2801882000640035,484.1058358999435,485.04117559990846,484.1058358999435,484.5403736999724,484.1058358999435,484.5403736999724,484.1058358999435,484.5403736999724,484.1058358999435,484.5403736999724,484.1058358999435,484.5403736999724,484.5066313999705,485.00771839998197,484.5066313999705,485.00771839998197,484.5066313999705,485.00771839998197,484.5066313999705,485.00771839998197,484.5066313999705,485.00771839998197,484.5066313999705,485.00771839998197,484.5066313999705,485.00771839998197,484.5066313999705,485.00771839998197,484.1058358999435,None,485.00771839998197,487.02732469991315,0.42000000000000015,487.0433616999071,None,487.7954654999776,None,,,,,,,[2.0116129],3.900000000000003,0.7419354838709677,11025,002,2024_Jan_08_1302,MFTM_A_new1021,2021.2.3,59.76232520394705,
