arrwidth1,arrwidth2,arrwidth3,arrwidth4,arrwidth5,keyb,type,orientation,instruction_image,block_filename,block_type,arrow11,arrow22,arrow33,arrow44,arrow55,keyb_3,orientation3,trials.thisRepN,trials.thisTrialN,trials.thisN,trials.thisIndex,trials_3.thisRepN,trials_3.thisTrialN,trials_3.thisN,trials_3.thisIndex,trials_2.thisRepN,trials_2.thisTrialN,trials_2.thisN,trials_2.thisIndex,welcome.started,welcome.stopped,key_resp.keys,key_resp.rt,key_resp.started,key_resp.stopped,instruction_example.started,instruction_example.stopped,key_resp_3.keys,key_resp_3.rt,key_resp_3.started,key_resp_3.stopped,instruction_task.started,instruction_task.stopped,key_resp_2.keys,key_resp_2.rt,key_resp_2.started,key_resp_2.stopped,text_2.started,text_2.stopped,A1.started,A1.stopped,A2.started,A2.stopped,A3.started,A3.stopped,A4.started,A4.stopped,A5.started,A5.stopped,key_resp_4.keys,key_resp_4.corr,key_resp_4.rt,key_resp_4.started,key_resp_4.stopped,fb.started,fb.stopped,instruction_block.started,instruction_block.stopped,key_resp_8.keys,key_resp_8.rt,key_resp_8.started,key_resp_8.stopped,text_8.started,text_8.stopped,key_resp_9.keys,key_resp_9.corr,key_resp_9.rt,text_5.started,text_5.stopped,A11_3.started,A11_3.stopped,A22_2.started,A22_2.stopped,A33_2.started,A33_2.stopped,A44_2.started,A44_2.stopped,A55_2.started,A55_2.stopped,M1_3.started,M1_3.stopped,M2_2.started,M2_2.stopped,M3_2.started,M3_2.stopped,M4_2.started,M4_2.stopped,M5_2.started,M5_2.stopped,M6_2.started,M6_2.stopped,M7_2.started,M7_2.stopped,M8_2.started,M8_2.stopped,key_resp_9.started,key_resp_9.stopped,fixation.started,fixation.stopped,ET,fb_3.started,fb_3.stopped,text_9.started,text_9.stopped,fb_4.started,fb_4.stopped,text_7.started,text_7.stopped,endtext.started,endtext.stopped,fixation_ITI,CCC,Acc,participant,session,date,expName,psychopyVersion,frameRate,
,,,,,,,,,,,,,,,,,,,,,,,,,,,,,,10.26784299989231,None,space,8.057869200129062,10.26784299989231,None,,,,,,,,,,,,,,,,,,,,,,,,,,,,,,,,,,,,,,,,,,,,,,,,,,,,,,,,,,,,,,,,,,,,,,,,,,,,,,,,,,,,,,,,,11029,001,2024_Jan_10_1523,MFTM_A_new1021,2021.2.3,59.94930684303992,
,,,,,,,,,,,,,,,,,,,,,,,,,,,,,,,,,,,,18.346355199813843,None,space,7.387532799970359,18.346355199813843,None,,,,,,,,,,,,,,,,,,,,,,,,,,,,,,,,,,,,,,,,,,,,,,,,,,,,,,,,,,,,,,,,,,,,,,,,,,,,,,,,,,,11029,001,2024_Jan_10_1523,MFTM_A_new1021,2021.2.3,59.94930684303992,
,,,,,,,,,,,,,,,,,,,,,,,,,,,,,,,,,,,,,,,,,,25.7575270999223,None,space,3.8244044999592006,25.7575270999223,None,,,,,,,,,,,,,,,,,,,,,,,,,,,,,,,,,,,,,,,,,,,,,,,,,,,,,,,,,,,,,,,,,,,,,,,,,,,,,11029,001,2024_Jan_10_1523,MFTM_A_new1021,2021.2.3,59.94930684303992,
0.6,0.6,0.6,-0.6,-0.6,right,3:2,R,,,,,,,,,,,0,0,0,0,,,,,,,,,,,,,,,,,,,,,,,,,,,29.631200099829584,None,29.631200099829584,None,29.631200099829584,None,29.631200099829584,None,29.631200099829584,None,29.631200099829584,None,right,1,1.6788155999965966,29.631200099829584,None,31.349625199800357,None,,,,,,,,,,,,,,,,,,,,,,,,,,,,,,,,,,,,,,,,,,,,,,,,,,,,,,,,,,11029,001,2024_Jan_10_1523,MFTM_A_new1021,2021.2.3,59.94930684303992,
-0.6,-0.6,-0.6,0.6,0.6,left,3:2,L,,,,,,,,,,,0,1,1,1,,,,,,,,,,,,,,,,,,,,,,,,,,,32.10052619990893,None,32.10052619990893,None,32.10052619990893,None,32.10052619990893,None,32.10052619990893,None,32.10052619990893,None,left,1,1.6733720998745412,32.10052619990893,None,33.80299279978499,None,,,,,,,,,,,,,,,,,,,,,,,,,,,,,,,,,,,,,,,,,,,,,,,,,,,,,,,,,,11029,001,2024_Jan_10_1523,MFTM_A_new1021,2021.2.3,59.94930684303992,
0.6,0.6,0.6,-0.6,-0.6,right,3:2,R,,,,,,,,,,,1,0,2,0,,,,,,,,,,,,,,,,,,,,,,,,,,,34.553809699835256,None,34.553809699835256,None,34.553809699835256,None,34.553809699835256,None,34.553809699835256,None,34.553809699835256,None,right,1,1.8203214998356998,34.553809699835256,None,36.3899206998758,None,,,,,,,,,,,,,,,,,,,,,,,,,,,,,,,,,,,,,,,,,,,,,,,,,,,,,,,,,,11029,001,2024_Jan_10_1523,MFTM_A_new1021,2021.2.3,59.94930684303992,
-0.6,-0.6,-0.6,0.6,0.6,left,3:2,L,,,,,,,,,,,1,1,3,1,,,,,,,,,,,,,,,,,,,,,,,,,,,37.141067899996415,None,37.141067899996415,None,37.141067899996415,None,37.141067899996415,None,37.141067899996415,None,37.141067899996415,None,left,1,1.7289934000000358,37.141067899996415,None,38.8936341998633,None,,,,,,,,,,,,,,,,,,,,,,,,,,,,,,,,,,,,,,,,,,,,,,,,,,,,,,,,,,11029,001,2024_Jan_10_1523,MFTM_A_new1021,2021.2.3,59.94930684303992,
,,,,,,,,stim/Instruction_mask.png,conditions/adaptive.xlsx,practice,-0.6,-0.6,-0.6,0.6,0.6,left,L,,,,,0,0,0,0,0,0,0,17,,,,,,,,,,,,,,,,,,,,,,,,,,,,,,,,,,,,,,39.96165909990668,None,space,34.62821280001663,39.96165909990668,None,74.69710519979708,None,left,1,3.138933799928054,75.13094589998946,None,75.13094589998946,78.13613329990767,75.13094589998946,78.13613329990767,75.13094589998946,78.13613329990767,75.13094589998946,78.13613329990767,75.13094589998946,78.13613329990767,78.11856279987842,78.61993319983594,78.11856279987842,78.61993319983594,78.11856279987842,78.61993319983594,78.11856279987842,78.61993319983594,78.11856279987842,78.61993319983594,78.11856279987842,78.61993319983594,78.11856279987842,78.61993319983594,78.11856279987842,78.61993319983594,75.13094589998946,None,78.61993319983594,78.61993319983594,3,78.63593239989132,None,79.38753019995056,None,,,,,,,,,,11029,001,2024_Jan_10_1523,MFTM_A_new1021,2021.2.3,59.94930684303992,
,,,,,,,,stim/Instruction_mask.png,conditions/adaptive.xlsx,practice,0.6,0.6,0.6,-0.6,-0.6,right,R,,,,,0,0,0,0,0,1,1,70,,,,,,,,,,,,,,,,,,,,,,,,,,,,,,,,,,,,,,,,,,,,79.88834289996885,None,right,1,2.113193399971351,80.38874049996957,82.3916538998019,80.38874049996957,81.89108659978956,80.38874049996957,81.89108659978956,80.38874049996957,81.89108659978956,80.38874049996957,81.89108659978956,80.38874049996957,81.89108659978956,81.87478969991207,82.37495589978062,81.87478969991207,82.37495589978062,81.87478969991207,82.37495589978062,81.87478969991207,82.37495589978062,81.87478969991207,82.37495589978062,81.87478969991207,82.37495589978062,81.87478969991207,82.37495589978062,81.87478969991207,82.37495589978062,80.38874049996957,None,82.37495589978062,83.87687659985386,1.5,83.8936926999595,None,84.6455663999077,None,,,,,,,,,,11029,001,2024_Jan_10_1523,MFTM_A_new1021,2021.2.3,59.94930684303992,
,,,,,,,,stim/Instruction_mask.png,conditions/adaptive.xlsx,practice,0.6,0.6,0.6,-0.6,-0.6,right,R,,,,,0,0,0,0,0,2,2,48,,,,,,,,,,,,,,,,,,,,,,,,,,,,,,,,,,,,,,,,,,,,85.14604129991494,None,left,0,1.0555736999958754,85.64640839979984,86.94815009995364,85.64640839979984,86.44795439997688,85.64640839979984,86.44795439997688,85.64640839979984,86.44795439997688,85.64640839979984,86.44795439997688,85.64640839979984,86.44795439997688,86.43076069978997,86.93165189982392,86.43076069978997,86.93165189982392,86.43076069978997,86.93165189982392,86.43076069978997,86.93165189982392,86.43076069978997,86.93165189982392,86.43076069978997,86.93165189982392,86.43076069978997,86.93165189982392,86.43076069978997,86.93165189982392,85.64640839979984,None,86.93165189982392,89.13533439999446,0.8,89.15156099991873,None,89.9025966997724,None,,,,,,,,,,11029,001,2024_Jan_10_1523,MFTM_A_new1021,2021.2.3,59.94930684303992,
,,,,,,,,stim/Instruction_mask.png,conditions/adaptive.xlsx,practice,-0.6,-0.6,-0.6,0.6,0.6,left,L,,,,,0,0,0,0,0,3,3,89,,,,,,,,,,,,,,,,,,,,,,,,,,,,,,,,,,,,,,,,,,,,90.40361549984664,None,left,1,0.9819696000777185,90.90412669978105,91.65524009987712,90.90412669978105,91.15437769982964,90.90412669978105,91.15437769982964,90.90412669978105,91.15437769982964,90.90412669978105,91.15437769982964,90.90412669978105,91.15437769982964,91.13852219982073,91.63862169999629,91.13852219982073,91.63862169999629,91.13852219982073,91.63862169999629,91.13852219982073,91.63862169999629,91.13852219982073,91.63862169999629,91.13852219982073,91.63862169999629,91.13852219982073,91.63862169999629,91.13852219982073,91.63862169999629,90.90412669978105,None,91.63862169999629,94.39266449981369,3,94.40918669989333,None,95.16014469997026,None,,,,,,,,,,11029,001,2024_Jan_10_1523,MFTM_A_new1021,2021.2.3,59.94930684303992,
,,,,,,,,stim/Instruction_mask.png,conditions/adaptive.xlsx,practice,,,,,,,,,,,,0,0,0,0,,,,,,,,,,,,,,,,,,,,,,,,,,,,,,,,,,,,,,,,,,,,,,,,,,,,,,,,,,,,,,,,,,,,,,,,,,,,,,,,,,,,,,,,,,95.67792579997331,96.68069969979115,96.66341189993545,96.66341189993545,96.66341189993545,None,,,,11029,001,2024_Jan_10_1523,MFTM_A_new1021,2021.2.3,59.94930684303992,
,,,,,,,,stim/Instruction_adaptive.png,conditions/adaptive.xlsx,test,-0.6,-0.6,-0.6,0.6,0.6,left,L,,,,,0,1,1,1,0,0,0,23,,,,,,,,,,,,,,,,,,,,,,,,,,,,,,,,,,,,,,99.81719499989413,None,space,14.612761000171304,99.81719499989413,None,114.47207179991528,None,left,1,1.8571219998411834,114.97283449978568,None,114.97283449978568,117.97778379986994,114.97283449978568,117.97778379986994,114.97283449978568,117.97778379986994,114.97283449978568,117.97778379986994,114.97283449978568,117.97778379986994,117.9612292998936,118.46203269995749,117.9612292998936,118.46203269995749,117.9612292998936,118.46203269995749,117.9612292998936,118.46203269995749,117.9612292998936,118.46203269995749,117.9612292998936,118.46203269995749,117.9612292998936,118.46203269995749,117.9612292998936,118.46203269995749,114.97283449978568,None,118.46203269995749,118.46203269995749,3,118.47910989983939,None,119.22937469999306,None,,,,,,,0,6.000000000000005,1.0,11029,001,2024_Jan_10_1523,MFTM_A_new1021,2021.2.3,59.94930684303992,
,,,,,,,,stim/Instruction_adaptive.png,conditions/adaptive.xlsx,test,0.6,0.6,0.6,-0.6,-0.6,right,R,,,,,0,1,1,1,0,1,1,92,,,,,,,,,,,,,,,,,,,,,,,,,,,,,,,,,,,,,,,,,,,,119.73029959993437,None,left,0,0.8146480000577867,120.23129689996131,120.98183959978633,120.23129689996131,120.48130989982747,120.23129689996131,120.48130989982747,120.23129689996131,120.48130989982747,120.23129689996131,120.48130989982747,120.23129689996131,120.48130989982747,120.46435739984736,120.96582990000024,120.46435739984736,120.96582990000024,120.46435739984736,120.96582990000024,120.46435739984736,120.96582990000024,120.46435739984736,120.96582990000024,120.46435739984736,120.96582990000024,120.46435739984736,120.96582990000024,120.46435739984736,120.96582990000024,120.23129689996131,None,120.96582990000024,121.85088969999924,0.25,121.86727439984679,None,122.61830739979632,None,,,,,,,[0.875],2.570000000000002,0.5,11029,001,2024_Jan_10_1523,MFTM_A_new1021,2021.2.3,59.94930684303992,
,,,,,,,,stim/Instruction_adaptive.png,conditions/adaptive.xlsx,test,-0.6,-0.6,-0.6,0.6,0.6,left,L,,,,,0,1,1,1,0,2,2,67,,,,,,,,,,,,,,,,,,,,,,,,,,,,,,,,,,,,,,,,,,,,123.11857489985414,None,left,1,1.6589407999999821,123.61912249983288,125.2383872999344,123.61912249983288,124.73796949977987,123.61912249983288,124.73796949977987,123.61912249983288,124.73796949977987,123.61912249983288,124.73796949977987,123.61912249983288,124.73796949977987,124.70398759981617,125.20493949996307,124.70398759981617,125.20493949996307,124.70398759981617,125.20493949996307,124.70398759981617,125.20493949996307,124.70398759981617,125.20493949996307,124.70398759981617,125.20493949996307,124.70398759981617,125.20493949996307,124.70398759981617,125.20493949996307,123.61912249983288,None,125.20493949996307,126.25642249989323,1.1100000000000008,126.29024049988948,None,127.04171419981867,None,,,,,,,[1.04666667],3.3800000000000026,0.6666666666666666,11029,001,2024_Jan_10_1523,MFTM_A_new1021,2021.2.3,59.94930684303992,
,,,,,,,,stim/Instruction_adaptive.png,conditions/adaptive.xlsx,test,0.6,0.6,0.6,-0.6,-0.6,right,R,,,,,0,1,1,1,0,3,3,68,,,,,,,,,,,,,,,,,,,,,,,,,,,,,,,,,,,,,,,,,,,,127.54211739986204,None,right,1,0.9479014999233186,128.0425383998081,129.17821179982275,128.0425383998081,128.67673339997418,128.0425383998081,128.67673339997418,128.0425383998081,128.67673339997418,128.0425383998081,128.67673339997418,128.0425383998081,128.67673339997418,128.6599990997929,129.16087509994395,128.6599990997929,129.16087509994395,128.6599990997929,129.16087509994395,128.6599990997929,129.16087509994395,128.6599990997929,129.16087509994395,128.6599990997929,129.16087509994395,128.6599990997929,129.16087509994395,128.6599990997929,129.16087509994395,128.0425383998081,None,129.16087509994395,130.41267249989323,0.6300000000000003,130.42912619980052,None,131.18040620000102,None,,,,,,,[1.2525],3.940000000000003,0.75,11029,001,2024_Jan_10_1523,MFTM_A_new1021,2021.2.3,59.94930684303992,
,,,,,,,,stim/Instruction_adaptive.png,conditions/adaptive.xlsx,test,0.6,0.6,0.6,-0.6,-0.6,right,R,,,,,0,1,1,1,0,4,4,98,,,,,,,,,,,,,,,,,,,,,,,,,,,,,,,,,,,,,,,,,,,,131.6811199998483,None,left,0,1.2559466999955475,132.1819877999369,133.11659819982015,132.1819877999369,132.61634739977308,132.1819877999369,132.61634739977308,132.1819877999369,132.61634739977308,132.1819877999369,132.61634739977308,132.1819877999369,132.61634739977308,132.5990623999387,133.09993109991774,132.5990623999387,133.09993109991774,132.5990623999387,133.09993109991774,132.5990623999387,133.09993109991774,132.5990623999387,133.09993109991774,132.5990623999387,133.09993109991774,132.5990623999387,133.09993109991774,132.5990623999387,133.09993109991774,132.1819877999369,None,133.09993109991774,134.51874400000088,0.43000000000000016,134.5354342998471,None,135.28658549999818,None,,,,,,,[1.416],2.960000000000002,0.6,11029,001,2024_Jan_10_1523,MFTM_A_new1021,2021.2.3,59.94930684303992,
,,,,,,,,stim/Instruction_adaptive.png,conditions/adaptive.xlsx,test,0.6,0.6,0.6,-0.6,-0.6,right,R,,,,,0,1,1,1,0,5,5,84,,,,,,,,,,,,,,,,,,,,,,,,,,,,,,,,,,,,,,,,,,,,135.78714249981567,None,right,1,1.9182647000998259,136.28794609988108,137.64003799995407,136.28794609988108,137.13979199994355,136.28794609988108,137.13979199994355,136.28794609988108,137.13979199994355,136.28794609988108,137.13979199994355,136.28794609988108,137.13979199994355,137.12294629984535,137.62411380000412,137.12294629984535,137.62411380000412,137.12294629984535,137.62411380000412,137.12294629984535,137.62411380000412,137.12294629984535,137.62411380000412,137.12294629984535,137.62411380000412,137.12294629984535,137.62411380000412,137.12294629984535,137.62411380000412,136.28794609988108,None,137.62411380000412,None,0.8500000000000005,139.0920666998718,None,139.843240799848,None,,,,,,,[1.455],3.3600000000000025,0.6666666666666666,11029,001,2024_Jan_10_1523,MFTM_A_new1021,2021.2.3,59.94930684303992,
,,,,,,,,stim/Instruction_adaptive.png,conditions/adaptive.xlsx,test,-0.6,-0.6,-0.6,0.6,0.6,left,L,,,,,0,1,1,1,0,6,6,35,,,,,,,,,,,,,,,,,,,,,,,,,,,,,,,,,,,,,,,,,,,,140.34475389984436,None,left,1,1.3534613000229,140.84452609997243,141.9964255997911,140.84452609997243,141.496273299912,140.84452609997243,141.496273299912,140.84452609997243,141.496273299912,140.84452609997243,141.496273299912,140.84452609997243,141.496273299912,141.4623319997918,141.96295979991555,141.4623319997918,141.96295979991555,141.4623319997918,141.96295979991555,141.4623319997918,141.96295979991555,141.4623319997918,141.96295979991555,141.4623319997918,141.96295979991555,141.4623319997918,141.96295979991555,141.4623319997918,141.96295979991555,140.84452609997243,None,141.96295979991555,143.48236929997802,0.6400000000000003,143.49867199989967,None,144.24991269991733,None,,,,,,,[1.51285714],3.660000000000003,0.7142857142857143,11029,001,2024_Jan_10_1523,MFTM_A_new1021,2021.2.3,59.94930684303992,
,,,,,,,,stim/Instruction_adaptive.png,conditions/adaptive.xlsx,test,-0.6,-0.6,-0.6,0.6,0.6,left,L,,,,,0,1,1,1,0,7,7,29,,,,,,,,,,,,,,,,,,,,,,,,,,,,,,,,,,,,,,,,,,,,144.75069629983045,None,right,0,1.506963999941945,145.25119049986824,146.28609779989347,145.25119049986824,145.78532159980386,145.25119049986824,145.78532159980386,145.25119049986824,145.78532159980386,145.25119049986824,145.78532159980386,145.25119049986824,145.78532159980386,145.7529524997808,146.25306059978902,145.7529524997808,146.25306059978902,145.7529524997808,146.25306059978902,145.7529524997808,146.25306059978902,145.7529524997808,146.25306059978902,145.7529524997808,146.25306059978902,145.7529524997808,146.25306059978902,145.7529524997808,146.25306059978902,145.25119049986824,None,146.25306059978902,147.83936649980024,0.5200000000000002,147.85539399995469,None,148.60609989985824,None,,,,,,,[1.57125],3.000000000000002,0.625,11029,001,2024_Jan_10_1523,MFTM_A_new1021,2021.2.3,59.94930684303992,
,,,,,,,,stim/Instruction_adaptive.png,conditions/adaptive.xlsx,test,0.6,0.6,0.6,-0.6,-0.6,right,R,,,,,0,1,1,1,0,8,8,74,,,,,,,,,,,,,,,,,,,,,,,,,,,,,,,,,,,,,,,,,,,,149.10718649998307,None,left,0,1.8223089999519289,149.60774219990708,150.94327479996718,149.60774219990708,150.4426289999392,149.60774219990708,150.4426289999392,149.60774219990708,150.4426289999392,149.60774219990708,150.4426289999392,149.60774219990708,150.4426289999392,150.40920239989646,150.9096958998125,150.40920239989646,150.9096958998125,150.40920239989646,150.9096958998125,150.40920239989646,150.9096958998125,150.40920239989646,150.9096958998125,150.40920239989646,150.9096958998125,150.40920239989646,150.9096958998125,150.40920239989646,150.9096958998125,149.60774219990708,None,150.9096958998125,152.4955035999883,0.8200000000000005,152.5119525999762,None,153.2631750998553,None,,,,,,,[1.58333333],2.2000000000000015,0.5555555555555556,11029,001,2024_Jan_10_1523,MFTM_A_new1021,2021.2.3,59.94930684303992,
,,,,,,,,stim/Instruction_adaptive.png,conditions/adaptive.xlsx,test,-0.6,-0.6,-0.6,0.6,0.6,left,L,,,,,0,1,1,1,0,9,9,45,,,,,,,,,,,,,,,,,,,,,,,,,,,,,,,,,,,,,,,,,,,,153.76422349992208,None,left,1,1.2454244000837207,154.26456149993464,156.20133319986053,154.26456149993464,155.70000799978152,154.26456149993464,155.70000799978152,154.26456149993464,155.70000799978152,154.26456149993464,155.70000799978152,154.26456149993464,155.70000799978152,155.68406579992734,156.18426269991323,155.68406579992734,156.18426269991323,155.68406579992734,156.18426269991323,155.68406579992734,156.18426269991323,155.68406579992734,156.18426269991323,155.68406579992734,156.18426269991323,155.68406579992734,156.18426269991323,155.68406579992734,156.18426269991323,154.26456149993464,None,156.18426269991323,None,1.430000000000001,157.26879599993117,None,158.02066549984738,None,,,,,,,[[1.07]],2.540000000000002,0.6,11029,001,2024_Jan_10_1523,MFTM_A_new1021,2021.2.3,59.94930684303992,
,,,,,,,,stim/Instruction_adaptive.png,conditions/adaptive.xlsx,test,0.6,0.6,0.6,-0.6,-0.6,right,R,,,,,0,1,1,1,0,10,10,8,,,,,,,,,,,,,,,,,,,,,,,,,,,,,,,,,,,,,,,,,,,,158.52083219983615,None,left,0,2.360465900041163,159.02154669980519,160.65755169978365,159.02154669980519,160.15679119993,159.02154669980519,160.15679119993,159.02154669980519,160.15679119993,159.02154669980519,160.15679119993,159.02154669980519,160.15679119993,160.13995309988968,160.64137619989924,160.13995309988968,160.64137619989924,160.13995309988968,160.64137619989924,160.13995309988968,160.64137619989924,160.13995309988968,160.64137619989924,160.13995309988968,160.64137619989924,160.13995309988968,160.64137619989924,160.13995309988968,160.64137619989924,159.02154669980519,None,160.64137619989924,None,1.1300000000000008,162.02643689978868,None,162.77781229978427,None,,,,,,,[[1.37]],1.750000000000001,0.5454545454545454,11029,001,2024_Jan_10_1523,MFTM_A_new1021,2021.2.3,59.94930684303992,
,,,,,,,,stim/Instruction_adaptive.png,conditions/adaptive.xlsx,test,0.6,0.6,0.6,-0.6,-0.6,right,R,,,,,0,1,1,1,0,11,11,10,,,,,,,,,,,,,,,,,,,,,,,,,,,,,,,,,,,,,,,,,,,,163.27818009979092,None,right,1,2.6845255999360234,163.77863309998065,166.24913799995556,163.77863309998065,165.74931069999002,163.77863309998065,165.74931069999002,163.77863309998065,165.74931069999002,163.77863309998065,165.74931069999002,163.77863309998065,165.74931069999002,165.71498539997265,166.215964499861,165.71498539997265,166.215964499861,165.71498539997265,166.215964499861,165.71498539997265,166.215964499861,165.71498539997265,166.215964499861,165.71498539997265,166.215964499861,165.71498539997265,166.215964499861,165.71498539997265,166.215964499861,163.77863309998065,None,166.215964499861,166.76660059997812,1.9600000000000015,166.78309759986587,None,167.5348516998347,None,,,,,,,[[0.54]],2.1000000000000014,0.5833333333333334,11029,001,2024_Jan_10_1523,MFTM_A_new1021,2021.2.3,59.94930684303992,
,,,,,,,,stim/Instruction_adaptive.png,conditions/adaptive.xlsx,test,0.6,0.6,0.6,-0.6,-0.6,right,R,,,,,0,1,1,1,0,12,12,56,,,,,,,,,,,,,,,,,,,,,,,,,,,,,,,,,,,,,,,,,,,,168.03497009980492,None,right,1,2.5103750999551266,168.53570659994148,170.57249849988148,168.53570659994148,170.07136229984462,168.53570659994148,170.07136229984462,168.53570659994148,170.07136229984462,168.53570659994148,170.07136229984462,168.53570659994148,170.07136229984462,170.05515609984286,170.55531019996852,170.05515609984286,170.55531019996852,170.05515609984286,170.55531019996852,170.05515609984286,170.55531019996852,170.05515609984286,170.55531019996852,170.05515609984286,170.55531019996852,170.05515609984286,170.55531019996852,170.05515609984286,170.55531019996852,168.53570659994148,None,170.538476199843,171.50688809994608,1.5300000000000011,171.54031249997206,None,172.29462349996902,None,,,,,,,[[0.97]],2.3400000000000016,0.6153846153846154,11029,001,2024_Jan_10_1523,MFTM_A_new1021,2021.2.3,59.94930684303992,
,,,,,,,,stim/Instruction_adaptive.png,conditions/adaptive.xlsx,test,0.6,0.6,0.6,-0.6,-0.6,right,R,,,,,0,1,1,1,0,13,13,16,,,,,,,,,,,,,,,,,,,,,,,,,,,,,,,,,,,,,,,,,,,,172.81009709998034,None,right,1,1.697262099944055,173.2927696998231,175.0970706997905,173.2927696998231,174.59472489985637,173.2927696998231,174.59472489985637,173.2927696998231,174.59472489985637,173.2927696998231,174.59472489985637,173.2927696998231,174.59472489985637,174.57804519985802,175.07908830000088,174.57804519985802,175.07908830000088,174.57804519985802,175.07908830000088,174.57804519985802,175.07908830000088,174.57804519985802,175.07908830000088,174.57804519985802,175.07908830000088,174.57804519985802,175.07908830000088,174.57804519985802,175.07908830000088,173.2927696998231,None,175.07908830000088,176.2804582999088,1.300000000000001,176.29733380000107,None,177.0489095998928,None,,,,,,,[[1.2]],2.530000000000002,0.6428571428571429,11029,001,2024_Jan_10_1523,MFTM_A_new1021,2021.2.3,59.94930684303992,
,,,,,,,,stim/Instruction_adaptive.png,conditions/adaptive.xlsx,test,-0.6,-0.6,-0.6,0.6,0.6,left,L,,,,,0,1,1,1,0,14,14,13,,,,,,,,,,,,,,,,,,,,,,,,,,,,,,,,,,,,,,,,,,,,177.55091479979455,None,left,1,1.356397399911657,178.0499167998787,179.70229689986445,178.0499167998787,179.20217319997028,178.0499167998787,179.20217319997028,178.0499167998787,179.20217319997028,178.0499167998787,179.20217319997028,178.0499167998787,179.20217319997028,179.1686348998919,179.66907339985482,179.1686348998919,179.66907339985482,179.1686348998919,179.66907339985482,179.1686348998919,179.66907339985482,179.1686348998919,179.66907339985482,179.1686348998919,179.66907339985482,179.1686348998919,179.66907339985482,179.1686348998919,179.66907339985482,178.0499167998787,None,179.66907339985482,181.0375537998043,1.1400000000000008,181.05452119978145,None,181.80540139996447,None,,,,,,,[[1.36]],2.680000000000002,0.6666666666666666,11029,001,2024_Jan_10_1523,MFTM_A_new1021,2021.2.3,59.94930684303992,
,,,,,,,,stim/Instruction_adaptive.png,conditions/adaptive.xlsx,test,0.6,0.6,0.6,-0.6,-0.6,right,R,,,,,0,1,1,1,0,15,15,0,,,,,,,,,,,,,,,,,,,,,,,,,,,,,,,,,,,,,,,,,,,,182.30638999980874,None,right,1,1.5187957999296486,182.80751329986379,184.34269289998338,182.80751329986379,183.84171049995348,182.80751329986379,183.84171049995348,182.80751329986379,183.84171049995348,182.80751329986379,183.84171049995348,182.80751329986379,183.84171049995348,183.82520899991505,184.32569470000453,183.82520899991505,184.32569470000453,183.82520899991505,184.32569470000453,183.82520899991505,184.32569470000453,183.82520899991505,184.32569470000453,183.82520899991505,184.32569470000453,183.82520899991505,184.32569470000453,183.82520899991505,184.32569470000453,182.80751329986379,None,184.32569470000453,None,1.0300000000000007,185.72804179997183,None,186.47961229993962,None,,,,,,,[1.389375],2.820000000000002,0.6875,11029,001,2024_Jan_10_1523,MFTM_A_new1021,2021.2.3,59.94930684303992,
,,,,,,,,stim/Instruction_adaptive.png,conditions/adaptive.xlsx,test,0.6,0.6,0.6,-0.6,-0.6,right,R,,,,,0,1,1,1,0,16,16,32,,,,,,,,,,,,,,,,,,,,,,,,,,,,,,,,,,,,,,,,,,,,186.97982849995606,None,right,1,1.9335271001327783,187.48051899997517,188.91662659985013,187.48051899997517,188.41513299988583,187.48051899997517,188.41513299988583,187.48051899997517,188.41513299988583,187.48051899997517,188.41513299988583,187.48051899997517,188.41513299988583,188.3989098998718,188.89915119996294,188.3989098998718,188.89915119996294,188.3989098998718,188.89915119996294,188.3989098998718,188.89915119996294,188.3989098998718,188.89915119996294,188.3989098998718,188.89915119996294,188.3989098998718,188.89915119996294,188.3989098998718,188.89915119996294,187.48051899997517,None,188.89915119996294,190.30200219992548,0.9300000000000006,190.31790239992552,None,191.0691763998475,None,,,,,,,[1.4],2.9300000000000024,0.7058823529411765,11029,001,2024_Jan_10_1523,MFTM_A_new1021,2021.2.3,59.94930684303992,
,,,,,,,,stim/Instruction_adaptive.png,conditions/adaptive.xlsx,test,0.6,0.6,0.6,-0.6,-0.6,right,R,,,,,0,1,1,1,0,17,17,18,,,,,,,,,,,,,,,,,,,,,,,,,,,,,,,,,,,,,,,,,,,,191.57057679980062,None,left,0,1.5113641999196261,192.07090379996225,193.43999419989996,192.07090379996225,192.93837839993648,192.07090379996225,192.93837839993648,192.07090379996225,192.93837839993648,192.07090379996225,192.93837839993648,192.07090379996225,192.93837839993648,192.92162229982205,193.42314189998433,192.92162229982205,193.42314189998433,192.92162229982205,193.42314189998433,192.92162229982205,193.42314189998433,192.92162229982205,193.42314189998433,192.92162229982205,193.42314189998433,192.92162229982205,193.42314189998433,192.92162229982205,193.42314189998433,192.07090379996225,None,193.40597709990107,194.82464889995754,0.8600000000000005,194.8580719998572,None,195.60951579990797,None,,,,,,,[1.41333333],2.620000000000002,0.6666666666666666,11029,001,2024_Jan_10_1523,MFTM_A_new1021,2021.2.3,59.94930684303992,
,,,,,,,,stim/Instruction_adaptive.png,conditions/adaptive.xlsx,test,0.6,0.6,0.6,-0.6,-0.6,right,R,,,,,0,1,1,1,0,18,18,38,,,,,,,,,,,,,,,,,,,,,,,,,,,,,,,,,,,,,,,,,,,,196.11046659993008,None,right,1,2.1313928000163287,196.61086349980906,198.19702629977837,196.61086349980906,197.69543839991093,196.61086349980906,197.69543839991093,196.61086349980906,197.69543839991093,196.61086349980906,197.69543839991093,196.61086349980906,197.69543839991093,197.6622342998162,198.16309289983474,197.6622342998162,198.16309289983474,197.6622342998162,198.16309289983474,197.6622342998162,198.16309289983474,197.6622342998162,198.16309289983474,197.6622342998162,198.16309289983474,197.6622342998162,198.16309289983474,197.6622342998162,198.16309289983474,196.61086349980906,None,198.16309289983474,199.58198699983768,1.0700000000000007,199.59838469978422,None,200.34969379985705,None,,,,,,,[1.41421053],2.740000000000002,0.6842105263157895,11029,001,2024_Jan_10_1523,MFTM_A_new1021,2021.2.3,59.94930684303992,
,,,,,,,,stim/Instruction_adaptive.png,conditions/adaptive.xlsx,test,-0.6,-0.6,-0.6,0.6,0.6,left,L,,,,,0,1,1,1,0,19,19,31,,,,,,,,,,,,,,,,,,,,,,,,,,,,,,,,,,,,,,,,,,,,200.85146669996902,None,left,1,2.1191478001419455,201.35115709993988,202.83736789994873,201.35115709993988,202.3357777998317,201.35115709993988,202.3357777998317,201.35115709993988,202.3357777998317,201.35115709993988,202.3357777998317,201.35115709993988,202.3357777998317,202.31949299992993,202.8201460998971,202.31949299992993,202.8201460998971,202.31949299992993,202.8201460998971,202.31949299992993,202.8201460998971,202.31949299992993,202.8201460998971,202.31949299992993,202.8201460998971,202.31949299992993,202.8201460998971,202.31949299992993,202.8201460998971,201.35115709993988,None,202.8201460998971,204.23876899993047,0.9800000000000006,204.25545769999735,None,205.0064745999407,None,,,,,,,[1.4195],2.840000000000002,0.7,11029,001,2024_Jan_10_1523,MFTM_A_new1021,2021.2.3,59.94930684303992,
,,,,,,,,stim/Instruction_adaptive.png,conditions/adaptive.xlsx,test,-0.6,-0.6,-0.6,0.6,0.6,left,L,,,,,0,1,1,1,0,20,20,61,,,,,,,,,,,,,,,,,,,,,,,,,,,,,,,,,,,,,,,,,,,,205.5079976997804,None,left,1,1.6218411999288946,206.00822059996426,207.426563099958,206.00822059996426,206.94326239987276,206.00822059996426,206.94326239987276,206.00822059996426,206.94326239987276,206.00822059996426,206.94326239987276,206.00822059996426,206.94326239987276,206.90937789995223,207.41060939989984,206.90937789995223,207.41060939989984,206.90937789995223,207.41060939989984,206.90937789995223,207.41060939989984,206.90937789995223,207.41060939989984,206.90937789995223,207.41060939989984,206.90937789995223,207.41060939989984,206.90937789995223,207.41060939989984,206.00822059996426,None,207.41060939989984,208.8456140998751,0.9200000000000006,208.862231799867,None,209.6142689997796,None,,,,,,,[1.42714286],2.9300000000000024,0.7142857142857143,11029,001,2024_Jan_10_1523,MFTM_A_new1021,2021.2.3,59.94930684303992,
,,,,,,,,stim/Instruction_adaptive.png,conditions/adaptive.xlsx,test,0.6,0.6,0.6,-0.6,-0.6,right,R,,,,,0,1,1,1,0,21,21,26,,,,,,,,,,,,,,,,,,,,,,,,,,,,,,,,,,,,,,,,,,,,210.1143949998077,None,right,1,1.3519038001541048,210.6148249998223,211.9843301998917,210.6148249998223,211.48275239998475,210.6148249998223,211.48275239998475,210.6148249998223,211.48275239998475,210.6148249998223,211.48275239998475,210.6148249998223,211.48275239998475,211.466258399887,211.96694729989395,211.466258399887,211.96694729989395,211.466258399887,211.96694729989395,211.466258399887,211.96694729989395,211.466258399887,211.96694729989395,211.466258399887,211.96694729989395,211.466258399887,211.96694729989395,211.466258399887,211.96694729989395,210.6148249998223,None,211.95082559995353,213.40449719992466,0.8600000000000005,213.41870699985884,None,214.1708658998832,None,,,,,,,[1.43681818],3.0200000000000022,0.7272727272727273,11029,001,2024_Jan_10_1523,MFTM_A_new1021,2021.2.3,59.94930684303992,
,,,,,,,,stim/Instruction_adaptive.png,conditions/adaptive.xlsx,test,-0.6,-0.6,-0.6,0.6,0.6,left,L,,,,,0,1,1,1,0,22,22,7,,,,,,,,,,,,,,,,,,,,,,,,,,,,,,,,,,,,,,,,,,,,214.67103430000134,None,right,0,1.482726200018078,215.1720107998699,216.4909253998194,215.1720107998699,215.9899654998444,215.1720107998699,215.9899654998444,215.1720107998699,215.9899654998444,215.1720107998699,215.9899654998444,215.1720107998699,215.9899654998444,215.95618959981948,216.45682349987328,215.95618959981948,216.45682349987328,215.95618959981948,216.45682349987328,215.95618959981948,216.45682349987328,215.95618959981948,216.45682349987328,215.95618959981948,216.45682349987328,215.95618959981948,216.45682349987328,215.95618959981948,216.45682349987328,215.1720107998699,None,216.45682349987328,217.9088294999674,0.8100000000000005,217.94230979983695,None,218.69396179984324,None,,,,,,,[1.44782609],2.780000000000002,0.6956521739130435,11029,001,2024_Jan_10_1523,MFTM_A_new1021,2021.2.3,59.94930684303992,
,,,,,,,,stim/Instruction_adaptive.png,conditions/adaptive.xlsx,test,0.6,0.6,0.6,-0.6,-0.6,right,R,,,,,0,1,1,1,0,23,23,4,,,,,,,,,,,,,,,,,,,,,,,,,,,,,,,,,,,,,,,,,,,,219.19417339982465,None,right,1,1.3757003999780864,219.69466879987158,221.16382219991647,219.69466879987158,220.66288739978336,219.69466879987158,220.66288739978336,219.69466879987158,220.66288739978336,219.69466879987158,220.66288739978336,219.69466879987158,220.66288739978336,220.64636749983765,221.14706009998918,220.64636749983765,221.14706009998918,220.64636749983765,221.14706009998918,220.64636749983765,221.14706009998918,220.64636749983765,221.14706009998918,220.64636749983765,221.14706009998918,220.64636749983765,221.14706009998918,220.64636749983765,221.14706009998918,219.69466879987158,None,221.14706009998918,222.6002390999347,0.9600000000000006,222.6159181999974,None,223.36691029998474,None,,,,,,,[1.45166667],2.870000000000002,0.7083333333333334,11029,001,2024_Jan_10_1523,MFTM_A_new1021,2021.2.3,59.94930684303992,
,,,,,,,,stim/Instruction_adaptive.png,conditions/adaptive.xlsx,test,0.6,0.6,0.6,-0.6,-0.6,right,R,,,,,0,1,1,1,0,24,24,82,,,,,,,,,,,,,,,,,,,,,,,,,,,,,,,,,,,,,,,,,,,,223.86869069980457,None,left,0,0.9337383001111448,224.36849679984152,225.7707448999863,224.36849679984152,225.2697743999306,224.36849679984152,225.2697743999306,224.36849679984152,225.2697743999306,224.36849679984152,225.2697743999306,224.36849679984152,225.2697743999306,225.2532163998112,225.75471699982882,225.2532163998112,225.75471699982882,225.2532163998112,225.75471699982882,225.2532163998112,225.75471699982882,225.2532163998112,225.75471699982882,225.2532163998112,225.75471699982882,225.2532163998112,225.75471699982882,225.2532163998112,225.75471699982882,224.36849679984152,None,225.75471699982882,227.2231133999303,0.9000000000000006,227.239176399773,None,227.99039569986053,None,,,,,,,[1.4576],2.6300000000000017,0.68,11029,001,2024_Jan_10_1523,MFTM_A_new1021,2021.2.3,59.94930684303992,
,,,,,,,,stim/Instruction_adaptive.png,conditions/adaptive.xlsx,test,-0.6,-0.6,-0.6,0.6,0.6,left,L,,,,,0,1,1,1,0,25,25,21,,,,,,,,,,,,,,,,,,,,,,,,,,,,,,,,,,,,,,,,,,,,228.49137469986454,None,left,1,1.4695878000929952,228.9924414998386,230.56102619995363,228.9924414998386,230.0607302999124,228.9924414998386,230.0607302999124,228.9924414998386,230.0607302999124,228.9924414998386,230.0607302999124,228.9924414998386,230.0607302999124,230.02693499997258,230.52749539981596,230.02693499997258,230.52749539981596,230.02693499997258,230.52749539981596,230.02693499997258,230.52749539981596,230.02693499997258,230.52749539981596,230.02693499997258,230.52749539981596,230.02693499997258,230.52749539981596,230.02693499997258,230.52749539981596,228.9924414998386,None,230.52749539981596,231.97971949982457,1.0600000000000007,231.99631529999897,None,232.74756259983405,None,,,,,,,[[1.44]],2.720000000000002,0.6923076923076923,11029,001,2024_Jan_10_1523,MFTM_A_new1021,2021.2.3,59.94930684303992,
,,,,,,,,stim/Instruction_adaptive.png,conditions/adaptive.xlsx,test,0.6,0.6,0.6,-0.6,-0.6,right,R,,,,,0,1,1,1,0,26,26,64,,,,,,,,,,,,,,,,,,,,,,,,,,,,,,,,,,,,,,,,,,,,233.24818999995477,None,right,1,1.22538509988226,233.7490397999063,235.25139099988155,233.7490397999063,234.75036179996096,233.7490397999063,234.75036179996096,233.7490397999063,234.75036179996096,233.7490397999063,234.75036179996096,233.7490397999063,234.75036179996096,234.73393999994732,235.23494279989973,234.73393999994732,235.23494279989973,234.73393999994732,235.23494279989973,234.73393999994732,235.23494279989973,234.73393999994732,235.23494279989973,234.73393999994732,235.23494279989973,234.73393999994732,235.23494279989973,234.73393999994732,235.23494279989973,233.7490397999063,None,235.23494279989973,236.7047365999315,1.0000000000000007,236.72021349985152,None,237.47133969981223,None,,,,,,,[1.45851852],2.800000000000002,0.7037037037037037,11029,001,2024_Jan_10_1523,MFTM_A_new1021,2021.2.3,59.94930684303992,
,,,,,,,,stim/Instruction_adaptive.png,conditions/adaptive.xlsx,test,0.6,0.6,0.6,-0.6,-0.6,right,R,,,,,0,1,1,1,0,27,27,48,,,,,,,,,,,,,,,,,,,,,,,,,,,,,,,,,,,,,,,,,,,,237.9721027999185,None,right,1,1.1087500001303852,238.47339309984818,239.92549239983782,238.47339309984818,239.42419199994765,238.47339309984818,239.42419199994765,238.47339309984818,239.42419199994765,238.47339309984818,239.42419199994765,238.47339309984818,239.42419199994765,239.39062629989348,239.89221209986135,239.39062629989348,239.89221209986135,239.39062629989348,239.89221209986135,239.39062629989348,239.89221209986135,239.39062629989348,239.89221209986135,239.39062629989348,239.89221209986135,239.39062629989348,239.89221209986135,239.39062629989348,239.89221209986135,238.47339309984818,None,239.89221209986135,241.36015189997852,0.9400000000000006,241.37686429987662,None,242.12842119997367,None,,,,,,,[1.46214286],2.870000000000002,0.7142857142857143,11029,001,2024_Jan_10_1523,MFTM_A_new1021,2021.2.3,59.94930684303992,
,,,,,,,,stim/Instruction_adaptive.png,conditions/adaptive.xlsx,test,0.6,0.6,0.6,-0.6,-0.6,right,R,,,,,0,1,1,1,0,28,28,54,,,,,,,,,,,,,,,,,,,,,,,,,,,,,,,,,,,,,,,,,,,,242.62884869985282,None,left,0,0.9728761999867857,243.1296264999546,244.5317355999723,243.1296264999546,244.0311466997955,243.1296264999546,244.0311466997955,243.1296264999546,244.0311466997955,243.1296264999546,244.0311466997955,243.1296264999546,244.0311466997955,244.014324599877,244.51497729984112,244.014324599877,244.51497729984112,244.014324599877,244.51497729984112,244.014324599877,244.51497729984112,244.014324599877,244.51497729984112,244.014324599877,244.51497729984112,244.014324599877,244.51497729984112,244.014324599877,244.51497729984112,243.1296264999546,None,244.51497729984112,245.98476989986375,0.9000000000000006,246.00049729994498,None,246.75177879980765,None,,,,,,,[1.46689655],2.6700000000000017,0.6896551724137931,11029,001,2024_Jan_10_1523,MFTM_A_new1021,2021.2.3,59.94930684303992,
,,,,,,,,stim/Instruction_adaptive.png,conditions/adaptive.xlsx,test,-0.6,-0.6,-0.6,0.6,0.6,left,L,,,,,0,1,1,1,0,29,29,81,,,,,,,,,,,,,,,,,,,,,,,,,,,,,,,,,,,,,,,,,,,,247.25229349988513,None,right,0,1.420982199953869,247.75303309992887,249.2889048999641,247.75303309992887,248.78830989985727,247.75303309992887,248.78830989985727,247.75303309992887,248.78830989985727,247.75303309992887,248.78830989985727,247.75303309992887,248.78830989985727,248.77125119999982,249.2721008998342,248.77125119999982,249.2721008998342,248.77125119999982,249.2721008998342,248.77125119999982,249.2721008998342,248.77125119999982,249.2721008998342,248.77125119999982,249.2721008998342,248.77125119999982,249.2721008998342,248.77125119999982,249.2721008998342,247.75303309992887,None,249.2721008998342,250.74101819982752,1.0300000000000007,250.7575089999009,None,251.50898649985902,None,,,,,,,[1.467],2.4400000000000017,0.6666666666666666,11029,001,2024_Jan_10_1523,MFTM_A_new1021,2021.2.3,59.94930684303992,
,,,,,,,,stim/Instruction_adaptive.png,conditions/adaptive.xlsx,test,-0.6,-0.6,-0.6,0.6,0.6,left,L,,,,,0,1,1,1,0,30,30,87,,,,,,,,,,,,,,,,,,,,,,,,,,,,,,,,,,,,,,,,,,,,252.00948169990443,None,left,1,2.0477571000810713,252.51052949996665,254.22951099998318,252.51052949996665,253.72934189997613,252.51052949996665,253.72934189997613,252.51052949996665,253.72934189997613,252.51052949996665,253.72934189997613,252.51052949996665,253.72934189997613,253.69544209982269,254.19583729980513,253.69544209982269,254.19583729980513,253.69544209982269,254.19583729980513,253.69544209982269,254.19583729980513,253.69544209982269,254.19583729980513,253.69544209982269,254.19583729980513,253.69544209982269,254.19583729980513,253.69544209982269,254.19583729980513,252.51052949996665,None,254.19583729980513,255.49809549981728,1.2100000000000009,255.51472089998424,None,256.265808199998,None,,,,,,,[[1.29]],2.520000000000002,0.6774193548387096,11029,001,2024_Jan_10_1523,MFTM_A_new1021,2021.2.3,59.94930684303992,
,,,,,,,,stim/Instruction_adaptive.png,conditions/adaptive.xlsx,test,-0.6,-0.6,-0.6,0.6,0.6,left,L,,,,,0,1,1,1,0,31,31,75,,,,,,,,,,,,,,,,,,,,,,,,,,,,,,,,,,,,,,,,,,,,256.76628769980744,None,right,0,1.3628543000668287,257.2673410999123,258.9200785998255,257.2673410999123,258.4191637998447,257.2673410999123,258.4191637998447,257.2673410999123,258.4191637998447,257.2673410999123,258.4191637998447,257.2673410999123,258.4191637998447,258.40240439982153,258.9035019997973,258.40240439982153,258.9035019997973,258.40240439982153,258.9035019997973,258.40240439982153,258.9035019997973,258.40240439982153,258.9035019997973,258.40240439982153,258.9035019997973,258.40240439982153,258.9035019997973,258.40240439982153,258.9035019997973,257.2673410999123,None,258.9035019997973,260.25522529985756,1.1500000000000008,260.27167829987593,None,261.02334289997816,None,,,,,,,[[1.35]],2.290000000000002,0.65625,11029,001,2024_Jan_10_1523,MFTM_A_new1021,2021.2.3,59.94930684303992,
,,,,,,,,stim/Instruction_adaptive.png,conditions/adaptive.xlsx,test,-0.6,-0.6,-0.6,0.6,0.6,left,L,,,,,0,1,1,1,0,32,32,85,,,,,,,,,,,,,,,,,,,,,,,,,,,,,,,,,,,,,,,,,,,,261.52373459981754,None,left,1,2.3419711000751704,262.0243466999382,263.8774438998662,262.0243466999382,263.37619909993373,262.0243466999382,263.37619909993373,262.0243466999382,263.37619909993373,262.0243466999382,263.37619909993373,262.0243466999382,263.37619909993373,263.3601860997733,263.86089689983055,263.3601860997733,263.86089689983055,263.3601860997733,263.86089689983055,263.3601860997733,263.86089689983055,263.3601860997733,263.86089689983055,263.3601860997733,263.86089689983055,263.3601860997733,263.86089689983055,263.3601860997733,263.86089689983055,262.0243466999382,None,263.86089689983055,265.0127942999825,1.350000000000001,265.0285774997901,None,265.78051379998215,None,,,,,,,[[1.15]],2.3800000000000017,0.6666666666666666,11029,001,2024_Jan_10_1523,MFTM_A_new1021,2021.2.3,59.94930684303992,
,,,,,,,,stim/Instruction_adaptive.png,conditions/adaptive.xlsx,test,0.6,0.6,0.6,-0.6,-0.6,right,R,,,,,0,1,1,1,0,33,33,46,,,,,,,,,,,,,,,,,,,,,,,,,,,,,,,,,,,,,,,,,,,,266.28098439984024,None,left,0,2.344835599884391,266.781418700004,268.551198199857,266.781418700004,268.0509967999533,266.781418700004,268.0509967999533,266.781418700004,268.0509967999533,266.781418700004,268.0509967999533,266.781418700004,268.0509967999533,268.01645669993013,268.5177922998555,268.01645669993013,268.5177922998555,268.01645669993013,268.5177922998555,268.01645669993013,268.5177922998555,268.01645669993013,268.5177922998555,268.01645669993013,268.5177922998555,268.01645669993013,268.5177922998555,268.01645669993013,268.5177922998555,266.781418700004,None,268.5177922998555,269.76913339993916,1.260000000000001,269.7856312999502,None,270.536951799877,None,,,,,,,[[1.24]],2.1400000000000015,0.6470588235294118,11029,001,2024_Jan_10_1523,MFTM_A_new1021,2021.2.3,59.94930684303992,
,,,,,,,,stim/Instruction_adaptive.png,conditions/adaptive.xlsx,test,0.6,0.6,0.6,-0.6,-0.6,right,R,,,,,0,1,1,1,0,34,34,96,,,,,,,,,,,,,,,,,,,,,,,,,,,,,,,,,,,,,,,,,,,,271.0380388998892,None,left,0,2.939294599927962,271.5387894997839,273.5425376999192,271.5387894997839,273.04079519980587,271.5387894997839,273.04079519980587,271.5387894997839,273.04079519980587,271.5387894997839,273.04079519980587,271.5387894997839,273.04079519980587,273.00780169991776,273.50805449998006,273.00780169991776,273.50805449998006,273.00780169991776,273.50805449998006,273.00780169991776,273.50805449998006,273.00780169991776,273.50805449998006,273.00780169991776,273.50805449998006,273.00780169991776,273.50805449998006,273.00780169991776,273.50805449998006,271.5387894997839,None,273.50805449998006,274.5261331999209,1.490000000000001,274.54288039985113,None,275.2947675997857,None,,,,,,,[[1.01]],1.8600000000000012,0.6285714285714286,11029,001,2024_Jan_10_1523,MFTM_A_new1021,2021.2.3,59.94930684303992,
,,,,,,,,stim/Instruction_adaptive.png,conditions/adaptive.xlsx,test,-0.6,-0.6,-0.6,0.6,0.6,left,L,,,,,0,1,1,1,0,35,35,19,,,,,,,,,,,,,,,,,,,,,,,,,,,,,,,,,,,,,,,,,,,,275.7955010998994,None,left,1,2.134839299833402,276.2955411998555,278.61539459996857,276.2955411998555,278.1150798997842,276.2955411998555,278.1150798997842,276.2955411998555,278.1150798997842,276.2955411998555,278.1150798997842,276.2955411998555,278.1150798997842,278.0814731998835,278.5825713998638,278.0814731998835,278.5825713998638,278.0814731998835,278.5825713998638,278.0814731998835,278.5825713998638,278.0814731998835,278.5825713998638,278.0814731998835,278.5825713998638,278.0814731998835,278.5825713998638,278.0814731998835,278.5825713998638,276.2955411998555,None,278.5825713998638,279.2831851998344,1.8100000000000014,279.2999384999275,None,280.0521436999552,None,,,,,,,[[0.69]],1.9600000000000013,0.6388888888888888,11029,001,2024_Jan_10_1523,MFTM_A_new1021,2021.2.3,59.94930684303992,
,,,,,,,,stim/Instruction_adaptive.png,conditions/adaptive.xlsx,test,-0.6,-0.6,-0.6,0.6,0.6,left,L,,,,,0,1,1,1,0,36,36,9,,,,,,,,,,,,,,,,,,,,,,,,,,,,,,,,,,,,,,,,,,,,280.55247469991446,None,left,1,2.0733483000658453,281.0528167998418,283.25579059985466,281.0528167998418,282.7557992998045,281.0528167998418,282.7557992998045,281.0528167998418,282.7557992998045,281.0528167998418,282.7557992998045,281.0528167998418,282.7557992998045,282.72170449979603,283.22260949993506,282.72170449979603,283.22260949993506,282.72170449979603,283.22260949993506,282.72170449979603,283.22260949993506,282.72170449979603,283.22260949993506,282.72170449979603,283.22260949993506,282.72170449979603,283.22260949993506,282.72170449979603,283.22260949993506,281.0528167998418,None,283.22260949993506,284.0410174999852,1.6900000000000013,284.0569832997862,None,284.80809039995074,None,,,,,,,[[0.81]],2.0600000000000014,0.6486486486486487,11029,001,2024_Jan_10_1523,MFTM_A_new1021,2021.2.3,59.94930684303992,
,,,,,,,,stim/Instruction_adaptive.png,conditions/adaptive.xlsx,test,-0.6,-0.6,-0.6,0.6,0.6,left,L,,,,,0,1,1,1,0,37,37,43,,,,,,,,,,,,,,,,,,,,,,,,,,,,,,,,,,,,,,,,,,,,285.3088257999625,None,left,1,2.3806775000412017,285.80944529990666,287.89590149978176,285.80944529990666,287.39521979982965,285.80944529990666,287.39521979982965,285.80944529990666,287.39521979982965,285.80944529990666,287.39521979982965,285.80944529990666,287.39521979982965,287.378950699931,287.8794601999689,287.378950699931,287.8794601999689,287.378950699931,287.8794601999689,287.378950699931,287.8794601999689,287.378950699931,287.8794601999689,287.378950699931,287.8794601999689,287.378950699931,287.8794601999689,287.378950699931,287.8794601999689,285.80944529990666,None,287.8794601999689,288.797676499933,1.5800000000000012,288.8143616998568,None,289.56541229994036,None,,,,,,,[[0.92]],2.1400000000000015,0.6578947368421053,11029,001,2024_Jan_10_1523,MFTM_A_new1021,2021.2.3,59.94930684303992,
,,,,,,,,stim/Instruction_adaptive.png,conditions/adaptive.xlsx,test,0.6,0.6,0.6,-0.6,-0.6,right,R,,,,,0,1,1,1,0,38,38,12,,,,,,,,,,,,,,,,,,,,,,,,,,,,,,,,,,,,,,,,,,,,290.0658149998635,None,right,1,1.6795169999822974,290.56658789981157,292.56991959991865,290.56658789981157,292.0687900998164,290.56658789981157,292.0687900998164,290.56658789981157,292.0687900998164,290.56658789981157,292.0687900998164,290.56658789981157,292.0687900998164,292.0356428998057,292.53635319997557,292.0356428998057,292.53635319997557,292.0356428998057,292.53635319997557,292.0356428998057,292.53635319997557,292.0356428998057,292.53635319997557,292.0356428998057,292.53635319997557,292.0356428998057,292.53635319997557,292.0356428998057,292.53635319997557,290.56658789981157,None,292.53635319997557,293.55683789984323,1.490000000000001,293.57078709988855,None,294.3224973999895,None,,,,,,,[[1.01]],2.2100000000000017,0.6666666666666666,11029,001,2024_Jan_10_1523,MFTM_A_new1021,2021.2.3,59.94930684303992,
,,,,,,,,stim/Instruction_adaptive.png,conditions/adaptive.xlsx,test,-0.6,-0.6,-0.6,0.6,0.6,left,L,,,,,0,1,1,1,0,39,39,93,,,,,,,,,,,,,,,,,,,,,,,,,,,,,,,,,,,,,,,,,,,,294.8231379999779,None,left,1,1.7387057999148965,295.32355779991485,297.24394459999166,295.32355779991485,296.75909409997985,295.32355779991485,296.75909409997985,295.32355779991485,296.75909409997985,295.32355779991485,296.75909409997985,295.32355779991485,296.75909409997985,296.7257671998814,297.2268808998633,296.7257671998814,297.2268808998633,296.7257671998814,297.2268808998633,296.7257671998814,297.2268808998633,296.7257671998814,297.2268808998633,296.7257671998814,297.2268808998633,296.7257671998814,297.2268808998633,296.7257671998814,297.2268808998633,295.32355779991485,None,297.2268808998633,298.3116398998536,1.420000000000001,298.32858769991435,None,299.0792725998908,None,,,,,,,[[1.08]],2.2800000000000016,0.675,11029,001,2024_Jan_10_1523,MFTM_A_new1021,2021.2.3,59.94930684303992,
,,,,,,,,stim/Instruction_adaptive.png,conditions/adaptive.xlsx,test,-0.6,-0.6,-0.6,0.6,0.6,left,L,,,,,0,1,1,1,0,40,40,69,,,,,,,,,,,,,,,,,,,,,,,,,,,,,,,,,,,,,,,,,,,,299.58026219997555,None,left,1,2.1095461000222713,300.0807292999234,301.9339095999021,300.0807292999234,301.4333431997802,300.0807292999234,301.4333431997802,300.0807292999234,301.4333431997802,300.0807292999234,301.4333431997802,300.0807292999234,301.4333431997802,301.4159752998967,301.91665579983965,301.4159752998967,301.91665579983965,301.4159752998967,301.91665579983965,301.4159752998967,301.91665579983965,301.4159752998967,301.91665579983965,301.4159752998967,301.91665579983965,301.4159752998967,301.91665579983965,301.4159752998967,301.91665579983965,300.0807292999234,None,301.91665579983965,303.0684094999451,1.350000000000001,303.08514899993315,None,303.83739779982716,None,,,,,,,[[1.15]],2.3400000000000016,0.6829268292682927,11029,001,2024_Jan_10_1523,MFTM_A_new1021,2021.2.3,59.94930684303992,
,,,,,,,,stim/Instruction_adaptive.png,conditions/adaptive.xlsx,test,0.6,0.6,0.6,-0.6,-0.6,right,R,,,,,0,1,1,1,0,41,41,90,,,,,,,,,,,,,,,,,,,,,,,,,,,,,,,,,,,,,,,,,,,,304.33720759977587,None,right,1,1.504218100104481,304.83794839982875,306.64032029989175,304.83794839982875,306.139840999851,304.83794839982875,306.139840999851,304.83794839982875,306.139840999851,304.83794839982875,306.139840999851,304.83794839982875,306.139840999851,306.12306399992667,306.62463349988684,306.12306399992667,306.62463349988684,306.12306399992667,306.62463349988684,306.12306399992667,306.62463349988684,306.12306399992667,306.62463349988684,306.12306399992667,306.62463349988684,306.12306399992667,306.62463349988684,306.12306399992667,306.62463349988684,304.83794839982875,None,306.62463349988684,307.82594199990854,1.300000000000001,307.84254159987904,None,308.59392449981533,None,,,,,,,[[1.2]],2.4000000000000017,0.6904761904761905,11029,001,2024_Jan_10_1523,MFTM_A_new1021,2021.2.3,59.94930684303992,
,,,,,,,,stim/Instruction_adaptive.png,conditions/adaptive.xlsx,test,0.6,0.6,0.6,-0.6,-0.6,right,R,,,,,0,1,1,1,0,42,42,2,,,,,,,,,,,,,,,,,,,,,,,,,,,,,,,,,,,,,,,,,,,,309.0939439998474,None,left,0,1.627456699963659,309.59467889997177,311.3473184998147,309.59467889997177,310.84655759995803,309.59467889997177,310.84655759995803,309.59467889997177,310.84655759995803,309.59467889997177,310.84655759995803,309.59467889997177,310.84655759995803,310.83029039995745,311.33073489996605,310.83029039995745,311.33073489996605,310.83029039995745,311.33073489996605,310.83029039995745,311.33073489996605,310.83029039995745,311.33073489996605,310.83029039995745,311.33073489996605,310.83029039995745,311.33073489996605,310.83029039995745,311.33073489996605,309.59467889997177,None,311.33073489996605,312.5842567998916,1.2500000000000009,312.5990467998199,None,313.350347999949,None,,,,,,,[[1.25]],2.2400000000000015,0.6744186046511628,11029,001,2024_Jan_10_1523,MFTM_A_new1021,2021.2.3,59.94930684303992,
,,,,,,,,stim/Instruction_adaptive.png,conditions/adaptive.xlsx,test,-0.6,-0.6,-0.6,0.6,0.6,left,L,,,,,0,1,1,1,0,43,43,89,,,,,,,,,,,,,,,,,,,,,,,,,,,,,,,,,,,,,,,,,,,,313.8519642997999,None,left,1,1.9022005000151694,314.3523064998444,316.2548024998978,314.3523064998444,315.7543540999759,314.3523064998444,315.7543540999759,314.3523064998444,315.7543540999759,314.3523064998444,315.7543540999759,314.3523064998444,315.7543540999759,315.72095729992725,316.2211434999481,315.72095729992725,316.2211434999481,315.72095729992725,316.2211434999481,315.72095729992725,316.2211434999481,315.72095729992725,316.2211434999481,315.72095729992725,316.2211434999481,315.72095729992725,316.2211434999481,315.72095729992725,316.2211434999481,314.3523064998444,None,316.2211434999481,317.3398072998971,1.390000000000001,317.35647169989534,None,318.1072839999106,None,,,,,,,[[1.11]],2.290000000000002,0.6818181818181818,11029,001,2024_Jan_10_1523,MFTM_A_new1021,2021.2.3,59.94930684303992,
,,,,,,,,stim/Instruction_adaptive.png,conditions/adaptive.xlsx,test,0.6,0.6,0.6,-0.6,-0.6,right,R,,,,,0,1,1,1,0,44,44,42,,,,,,,,,,,,,,,,,,,,,,,,,,,,,,,,,,,,,,,,,,,,318.60845169983804,None,right,1,2.409437800059095,319.1089058998041,320.96160069992766,319.1089058998041,320.4611203998793,319.1089058998041,320.4611203998793,319.1089058998041,320.4611203998793,319.1089058998041,320.4611203998793,319.1089058998041,320.4611203998793,320.44485799991526,320.94537029997446,320.44485799991526,320.94537029997446,320.44485799991526,320.94537029997446,320.44485799991526,320.94537029997446,320.44485799991526,320.94537029997446,320.44485799991526,320.94537029997446,320.44485799991526,320.94537029997446,320.44485799991526,320.94537029997446,319.1089058998041,None,320.94537029997446,322.099118599901,1.350000000000001,322.11321799992584,None,322.86442799982615,None,,,,,,,[[1.15]],2.3500000000000014,0.6888888888888889,11029,001,2024_Jan_10_1523,MFTM_A_new1021,2021.2.3,59.94930684303992,
,,,,,,,,stim/Instruction_adaptive.png,conditions/adaptive.xlsx,test,0.6,0.6,0.6,-0.6,-0.6,right,R,,,,,0,1,1,1,0,45,45,6,,,,,,,,,,,,,,,,,,,,,,,,,,,,,,,,,,,,,,,,,,,,323.36517309979536,None,right,1,1.8044809999410063,323.86599039984867,325.6690348999109,323.86599039984867,325.16777189983986,323.86599039984867,325.16777189983986,323.86599039984867,325.16777189983986,323.86599039984867,325.16777189983986,323.86599039984867,325.16777189983986,325.1348964998033,325.6352317999117,325.1348964998033,325.6352317999117,325.1348964998033,325.6352317999117,325.1348964998033,325.6352317999117,325.1348964998033,325.6352317999117,325.1348964998033,325.6352317999117,325.1348964998033,325.6352317999117,325.1348964998033,325.6352317999117,323.86599039984867,None,325.6352317999117,326.85405719978735,1.290000000000001,326.8704659999348,None,327.6218238999136,None,,,,,,,[[1.21]],2.4000000000000017,0.6956521739130435,11029,001,2024_Jan_10_1523,MFTM_A_new1021,2021.2.3,59.94930684303992,
,,,,,,,,stim/Instruction_adaptive.png,conditions/adaptive.xlsx,test,-0.6,-0.6,-0.6,0.6,0.6,left,L,,,,,0,1,1,1,0,46,46,65,,,,,,,,,,,,,,,,,,,,,,,,,,,,,,,,,,,,,,,,,,,,328.12313799979165,None,left,1,1.726425200002268,328.62377609987743,330.37632399983704,328.62377609987743,329.8748927998822,328.62377609987743,329.8748927998822,328.62377609987743,329.8748927998822,328.62377609987743,329.8748927998822,328.62377609987743,329.8748927998822,329.85849279980175,330.3591999998316,329.85849279980175,330.3591999998316,329.85849279980175,330.3591999998316,329.85849279980175,330.3591999998316,329.85849279980175,330.3591999998316,329.85849279980175,330.3591999998316,329.85849279980175,330.3591999998316,329.85849279980175,330.3591999998316,328.62377609987743,None,330.3591999998316,331.6126071999315,1.2500000000000009,331.62734769983217,None,332.378716299776,None,,,,,,,[[1.25]],2.450000000000002,0.7021276595744681,11029,001,2024_Jan_10_1523,MFTM_A_new1021,2021.2.3,59.94930684303992,
,,,,,,,,stim/Instruction_adaptive.png,conditions/adaptive.xlsx,test,-0.6,-0.6,-0.6,0.6,0.6,left,L,,,,,0,1,1,1,0,47,47,57,,,,,,,,,,,,,,,,,,,,,,,,,,,,,,,,,,,,,,,,,,,,332.8801042998675,None,right,0,1.9777033999562263,333.3804986998439,335.0823467997834,333.3804986998439,334.5817095998209,333.3804986998439,334.5817095998209,333.3804986998439,334.5817095998209,333.3804986998439,334.5817095998209,333.3804986998439,334.5817095998209,334.56512849987485,335.06587519985624,334.56512849987485,335.06587519985624,334.56512849987485,335.06587519985624,334.56512849987485,335.06587519985624,334.56512849987485,335.06587519985624,334.56512849987485,335.06587519985624,334.56512849987485,335.06587519985624,334.56512849987485,335.06587519985624,333.3804986998439,None,335.06587519985624,336.36898439982906,1.2000000000000008,336.3841918997932,None,337.1358904999215,None,,,,,,,[[1.3]],2.3100000000000014,0.6875,11029,001,2024_Jan_10_1523,MFTM_A_new1021,2021.2.3,59.94930684303992,
,,,,,,,,stim/Instruction_adaptive.png,conditions/adaptive.xlsx,test,-0.6,-0.6,-0.6,0.6,0.6,left,L,,,,,0,1,1,1,0,48,48,5,,,,,,,,,,,,,,,,,,,,,,,,,,,,,,,,,,,,,,,,,,,,337.63737159990706,None,right,0,2.0289016000460833,338.13772079977207,339.9738315998111,338.13772079977207,339.4724470998626,338.13772079977207,339.4724470998626,338.13772079977207,339.4724470998626,338.13772079977207,339.4724470998626,338.13772079977207,339.4724470998626,339.45606039999984,339.9571178997867,339.45606039999984,339.9571178997867,339.45606039999984,339.9571178997867,339.45606039999984,339.9571178997867,339.45606039999984,339.9571178997867,339.45606039999984,339.9571178997867,339.45606039999984,339.9571178997867,339.45606039999984,339.9571178997867,338.13772079977207,None,339.9571178997867,None,1.330000000000001,341.1417408999987,None,341.8928854998667,None,,,,,,,[[1.17]],2.1600000000000015,0.673469387755102,11029,001,2024_Jan_10_1523,MFTM_A_new1021,2021.2.3,59.94930684303992,
,,,,,,,,stim/Instruction_adaptive.png,conditions/adaptive.xlsx,test,0.6,0.6,0.6,-0.6,-0.6,right,R,,,,,0,1,1,1,0,49,49,86,,,,,,,,,,,,,,,,,,,,,,,,,,,,,,,,,,,,,,,,,,,,342.3936255997978,None,right,1,1.6405281000770628,342.894077999983,344.8640117999166,342.894077999983,344.3635730999522,342.894077999983,344.3635730999522,342.894077999983,344.3635730999522,342.894077999983,344.3635730999522,342.894077999983,344.3635730999522,344.34658549982123,344.847709099995,344.34658549982123,344.847709099995,344.34658549982123,344.847709099995,344.34658549982123,344.847709099995,344.34658549982123,344.847709099995,344.34658549982123,344.847709099995,344.34658549982123,344.847709099995,344.34658549982123,344.847709099995,342.894077999983,None,344.847709099995,345.88314849999733,1.470000000000001,345.8979694999289,None,346.6499058997724,None,,,,,,,[[1.03]],2.2100000000000017,0.68,11029,001,2024_Jan_10_1523,MFTM_A_new1021,2021.2.3,59.94930684303992,
,,,,,,,,stim/Instruction_adaptive.png,conditions/adaptive.xlsx,test,0.6,0.6,0.6,-0.6,-0.6,right,R,,,,,0,1,1,1,0,50,50,62,,,,,,,,,,,,,,,,,,,,,,,,,,,,,,,,,,,,,,,,,,,,347.1508119998034,None,right,1,1.5468409000895917,347.65151359979063,349.5706857999321,347.65151359979063,349.0702556998003,347.65151359979063,349.0702556998003,347.65151359979063,349.0702556998003,347.65151359979063,349.0702556998003,347.65151359979063,349.0702556998003,349.05380869982764,349.5544462997932,349.05380869982764,349.5544462997932,349.05380869982764,349.5544462997932,349.05380869982764,349.5544462997932,349.05380869982764,349.5544462997932,349.05380869982764,349.5544462997932,349.05380869982764,349.5544462997932,349.05380869982764,349.5544462997932,347.65151359979063,None,349.5544462997932,350.63933449983597,1.420000000000001,350.6556610998232,None,351.4078196999617,None,,,,,,,[[1.08]],2.2600000000000016,0.6862745098039216,11029,001,2024_Jan_10_1523,MFTM_A_new1021,2021.2.3,59.94930684303992,
,,,,,,,,stim/Instruction_adaptive.png,conditions/adaptive.xlsx,test,0.6,0.6,0.6,-0.6,-0.6,right,R,,,,,0,1,1,1,0,51,51,34,,,,,,,,,,,,,,,,,,,,,,,,,,,,,,,,,,,,,,,,,,,,351.90809659985825,None,right,1,1.5742941000498831,352.40815299982205,354.27856399980374,352.40815299982205,353.77773689990863,352.40815299982205,353.77773689990863,352.40815299982205,353.77773689990863,352.40815299982205,353.77773689990863,352.40815299982205,353.77773689990863,353.760605199961,354.26145939994603,353.760605199961,354.26145939994603,353.760605199961,354.26145939994603,353.760605199961,354.26145939994603,353.760605199961,354.26145939994603,353.760605199961,354.26145939994603,353.760605199961,354.26145939994603,353.760605199961,354.26145939994603,352.40815299982205,None,354.26145939994603,355.3961427998729,1.370000000000001,355.41278599994257,None,356.1644994998351,None,,,,,,,[[1.13]],2.3100000000000014,0.6923076923076923,11029,001,2024_Jan_10_1523,MFTM_A_new1021,2021.2.3,59.94930684303992,
,,,,,,,,stim/Instruction_adaptive.png,conditions/adaptive.xlsx,test,-0.6,-0.6,-0.6,0.6,0.6,left,L,,,,,0,1,1,1,0,52,52,3,,,,,,,,,,,,,,,,,,,,,,,,,,,,,,,,,,,,,,,,,,,,356.6649288998451,None,right,0,1.9290947001427412,357.16524549992755,359.0014572998043,357.16524549992755,358.5011157998815,357.16524549992755,358.5011157998815,357.16524549992755,358.5011157998815,357.16524549992755,358.5011157998815,357.16524549992755,358.5011157998815,358.4839350997936,358.98492439999245,358.4839350997936,358.98492439999245,358.4839350997936,358.98492439999245,358.4839350997936,358.98492439999245,358.4839350997936,358.98492439999245,358.4839350997936,358.98492439999245,358.4839350997936,358.98492439999245,358.4839350997936,358.98492439999245,357.16524549992755,None,358.98492439999245,None,1.330000000000001,360.1697302998509,None,360.9214609998744,None,,,,,,,[[1.17]],2.1700000000000017,0.6792452830188679,11029,001,2024_Jan_10_1523,MFTM_A_new1021,2021.2.3,59.94930684303992,
,,,,,,,,stim/Instruction_adaptive.png,conditions/adaptive.xlsx,test,0.6,0.6,0.6,-0.6,-0.6,right,R,,,,,0,1,1,1,0,53,53,72,,,,,,,,,,,,,,,,,,,,,,,,,,,,,,,,,,,,,,,,,,,,361.42162539996207,None,right,1,1.6280318999197334,361.9223659997806,363.8924257999752,361.9223659997806,363.3919964998495,361.9223659997806,363.3919964998495,361.9223659997806,363.3919964998495,361.9223659997806,363.3919964998495,361.9223659997806,363.3919964998495,363.374509899877,363.87603659997694,363.374509899877,363.87603659997694,363.374509899877,363.87603659997694,363.374509899877,363.87603659997694,363.374509899877,363.87603659997694,363.374509899877,363.87603659997694,363.374509899877,363.87603659997694,363.374509899877,363.87603659997694,361.9223659997806,None,363.858503599884,364.91036199987866,1.460000000000001,364.92674949998036,None,365.6779994999524,None,,,,,,,[[1.04]],2.2200000000000015,0.6851851851851852,11029,001,2024_Jan_10_1523,MFTM_A_new1021,2021.2.3,59.94930684303992,
,,,,,,,,stim/Instruction_adaptive.png,conditions/adaptive.xlsx,test,-0.6,-0.6,-0.6,0.6,0.6,left,L,,,,,0,1,1,1,0,54,54,33,,,,,,,,,,,,,,,,,,,,,,,,,,,,,,,,,,,,,,,,,,,,366.17868089978583,None,left,1,1.9431270998902619,366.6794201999437,368.60095719993114,366.6794201999437,368.0988556998782,366.6794201999437,368.0988556998782,366.6794201999437,368.0988556998782,366.6794201999437,368.0988556998782,366.6794201999437,368.0988556998782,368.06549169984646,368.5661034998484,368.06549169984646,368.5661034998484,368.06549169984646,368.5661034998484,368.06549169984646,368.5661034998484,368.06549169984646,368.5661034998484,368.06549169984646,368.5661034998484,368.06549169984646,368.5661034998484,368.06549169984646,368.5661034998484,366.6794201999437,None,368.5661034998484,369.66755439992994,1.410000000000001,369.68449219991453,None,370.43566109985113,None,,,,,,,[[1.09]],2.2700000000000014,0.6909090909090909,11029,001,2024_Jan_10_1523,MFTM_A_new1021,2021.2.3,59.94930684303992,
,,,,,,,,stim/Instruction_adaptive.png,conditions/adaptive.xlsx,test,-0.6,-0.6,-0.6,0.6,0.6,left,L,,,,,0,1,1,1,0,55,55,39,,,,,,,,,,,,,,,,,,,,,,,,,,,,,,,,,,,,,,,,,,,,370.93595009995624,None,left,1,1.8501272001303732,371.43633949989453,373.30615969980136,371.43633949989453,372.8051686999388,371.43633949989453,372.8051686999388,371.43633949989453,372.8051686999388,371.43633949989453,372.8051686999388,371.43633949989453,372.8051686999388,372.7720301998779,373.2724460999016,372.7720301998779,373.2724460999016,372.7720301998779,373.2724460999016,372.7720301998779,373.2724460999016,372.7720301998779,373.2724460999016,372.7720301998779,373.2724460999016,372.7720301998779,373.2724460999016,372.7720301998779,373.2724460999016,371.43633949989453,None,373.2724460999016,374.42455809982494,1.360000000000001,374.4409127999097,None,375.19211939978413,None,,,,,,,[[1.14]],2.3100000000000014,0.6964285714285714,11029,001,2024_Jan_10_1523,MFTM_A_new1021,2021.2.3,59.94930684303992,
,,,,,,,,stim/Instruction_adaptive.png,conditions/adaptive.xlsx,test,-0.6,-0.6,-0.6,0.6,0.6,left,L,,,,,0,1,1,1,0,56,56,97,,,,,,,,,,,,,,,,,,,,,,,,,,,,,,,,,,,,,,,,,,,,375.69350799988024,None,right,0,2.4527362999506295,376.1941334998701,378.0295448999386,376.1941334998701,377.52905039978214,376.1941334998701,377.52905039978214,376.1941334998701,377.52905039978214,376.1941334998701,377.52905039978214,376.1941334998701,377.52905039978214,377.512020399794,378.0126929997932,377.512020399794,378.0126929997932,377.512020399794,378.0126929997932,377.512020399794,378.0126929997932,377.512020399794,378.0126929997932,377.512020399794,378.0126929997932,377.512020399794,378.0126929997932,377.512020399794,378.0126929997932,376.1941334998701,None,378.0126929997932,None,1.330000000000001,379.1978815998882,None,379.9499710998498,None,,,,,,,[[1.17]],2.1800000000000015,0.6842105263157895,11029,001,2024_Jan_10_1523,MFTM_A_new1021,2021.2.3,59.94930684303992,
,,,,,,,,stim/Instruction_adaptive.png,conditions/adaptive.xlsx,test,0.6,0.6,0.6,-0.6,-0.6,right,R,,,,,0,1,1,1,0,57,57,22,,,,,,,,,,,,,,,,,,,,,,,,,,,,,,,,,,,,,,,,,,,,380.4501016999129,None,left,0,1.8959460998885334,380.950342600001,382.90421369997784,380.950342600001,382.40263249981217,380.950342600001,382.40263249981217,380.950342600001,382.40263249981217,380.950342600001,382.40263249981217,380.950342600001,382.40263249981217,382.3859152998775,382.88750509987585,382.3859152998775,382.88750509987585,382.3859152998775,382.88750509987585,382.3859152998775,382.88750509987585,382.3859152998775,382.88750509987585,382.3859152998775,382.88750509987585,382.3859152998775,382.88750509987585,382.3859152998775,382.88750509987585,380.950342600001,None,382.88750509987585,383.93851139978506,1.450000000000001,383.9554443999659,None,384.7062355999369,None,,,,,,,[[1.05]],2.0500000000000016,0.6724137931034483,11029,001,2024_Jan_10_1523,MFTM_A_new1021,2021.2.3,59.94930684303992,
,,,,,,,,stim/Instruction_adaptive.png,conditions/adaptive.xlsx,test,-0.6,-0.6,-0.6,0.6,0.6,left,L,,,,,0,1,1,1,0,58,58,55,,,,,,,,,,,,,,,,,,,,,,,,,,,,,,,,,,,,,,,,,,,,385.20707969996147,None,left,1,2.6830054000020027,385.7078254998196,387.811070199823,385.7078254998196,387.3100376999937,385.7078254998196,387.3100376999937,385.7078254998196,387.3100376999937,385.7078254998196,387.3100376999937,385.7078254998196,387.3100376999937,387.2766559999436,387.7775749999564,387.2766559999436,387.7775749999564,387.2766559999436,387.7775749999564,387.2766559999436,387.7775749999564,387.2766559999436,387.7775749999564,387.2766559999436,387.7775749999564,387.2766559999436,387.7775749999564,387.2766559999436,387.7775749999564,385.7078254998196,None,387.7775749999564,388.69600719981827,1.5900000000000012,388.71216909983195,None,389.4630949997809,None,,,,,,,[[0.91]],2.0900000000000016,0.6779661016949152,11029,001,2024_Jan_10_1523,MFTM_A_new1021,2021.2.3,59.94930684303992,
,,,,,,,,stim/Instruction_adaptive.png,conditions/adaptive.xlsx,test,0.6,0.6,0.6,-0.6,-0.6,right,R,,,,,0,1,1,1,0,59,59,58,,,,,,,,,,,,,,,,,,,,,,,,,,,,,,,,,,,,,,,,,,,,389.9639750998467,None,right,1,1.4136414998210967,390.4650292999577,392.5188140999526,390.4650292999577,392.0176493998151,390.4650292999577,392.0176493998151,390.4650292999577,392.0176493998151,390.4650292999577,392.0176493998151,390.4650292999577,392.0176493998151,392.0003142999485,392.50173329981044,392.0003142999485,392.50173329981044,392.0003142999485,392.50173329981044,392.0003142999485,392.50173329981044,392.0003142999485,392.50173329981044,392.0003142999485,392.50173329981044,392.0003142999485,392.50173329981044,392.0003142999485,392.50173329981044,390.4650292999577,None,392.50173329981044,393.45321519998834,1.5500000000000012,393.46927020000294,None,394.22264189994894,None,,,,,,,[[0.95]],2.1400000000000015,0.6833333333333333,11029,001,2024_Jan_10_1523,MFTM_A_new1021,2021.2.3,59.94930684303992,
,,,,,,,,stim/Instruction_adaptive.png,conditions/adaptive.xlsx,test,-0.6,-0.6,-0.6,0.6,0.6,left,L,,,,,0,1,1,1,0,60,60,95,,,,,,,,,,,,,,,,,,,,,,,,,,,,,,,,,,,,,,,,,,,,394.73777579981834,None,left,1,1.2070941000711173,395.23935429984704,397.24162249988876,395.23935429984704,396.7407605999615,395.23935429984704,396.7407605999615,395.23935429984704,396.7407605999615,395.23935429984704,396.7407605999615,395.23935429984704,396.7407605999615,396.7078753998503,397.20842769998126,396.7078753998503,397.20842769998126,396.7078753998503,397.20842769998126,396.7078753998503,397.20842769998126,396.7078753998503,397.20842769998126,396.7078753998503,397.20842769998126,396.7078753998503,397.20842769998126,396.7078753998503,397.20842769998126,395.23935429984704,None,397.20842769998126,398.2272017998621,1.490000000000001,398.2428045999259,None,398.99403329985216,None,,,,,,,[[1.01]],2.1800000000000015,0.6885245901639344,11029,001,2024_Jan_10_1523,MFTM_A_new1021,2021.2.3,59.94930684303992,
,,,,,,,,stim/Instruction_adaptive.png,conditions/adaptive.xlsx,test,-0.6,-0.6,-0.6,0.6,0.6,left,L,,,,,0,1,1,1,0,61,61,99,,,,,,,,,,,,,,,,,,,,,,,,,,,,,,,,,,,,,,,,,,,,399.4949376999866,None,left,1,1.7632015999406576,399.9953294999432,401.94829049985856,399.9953294999432,401.44923179992475,399.9953294999432,401.44923179992475,399.9953294999432,401.44923179992475,399.9953294999432,401.44923179992475,399.9953294999432,401.44923179992475,401.43157319980673,401.9315995997749,401.43157319980673,401.9315995997749,401.43157319980673,401.9315995997749,401.43157319980673,401.9315995997749,401.43157319980673,401.9315995997749,401.43157319980673,401.9315995997749,401.43157319980673,401.9315995997749,401.43157319980673,401.9315995997749,399.9953294999432,None,401.9315995997749,402.98321320000105,1.450000000000001,402.9999274997972,None,403.7511282998603,None,,,,,,,[[1.05]],2.2200000000000015,0.6935483870967742,11029,001,2024_Jan_10_1523,MFTM_A_new1021,2021.2.3,59.94930684303992,
,,,,,,,,stim/Instruction_adaptive.png,conditions/adaptive.xlsx,test,0.6,0.6,0.6,-0.6,-0.6,right,R,,,,,0,1,1,1,0,62,62,28,,,,,,,,,,,,,,,,,,,,,,,,,,,,,,,,,,,,,,,,,,,,404.252067099791,None,right,1,1.925889499951154,404.7524562999606,406.671978399856,404.7524562999606,406.17183659994043,404.7524562999606,406.17183659994043,404.7524562999606,406.17183659994043,404.7524562999606,406.17183659994043,404.7524562999606,406.17183659994043,406.13809839985333,406.63881659996696,406.13809839985333,406.63881659996696,406.13809839985333,406.63881659996696,406.13809839985333,406.63881659996696,406.13809839985333,406.63881659996696,406.13809839985333,406.63881659996696,406.13809839985333,406.63881659996696,406.13809839985333,406.63881659996696,404.7524562999606,None,406.63881659996696,407.74162559979595,1.410000000000001,407.75689849979244,None,408.50862969993614,None,,,,,,,[[1.09]],2.2600000000000016,0.6984126984126984,11029,001,2024_Jan_10_1523,MFTM_A_new1021,2021.2.3,59.94930684303992,
,,,,,,,,stim/Instruction_adaptive.png,conditions/adaptive.xlsx,test,-0.6,-0.6,-0.6,0.6,0.6,left,L,,,,,0,1,1,1,0,63,63,63,,,,,,,,,,,,,,,,,,,,,,,,,,,,,,,,,,,,,,,,,,,,409.0087836999446,None,left,1,1.1688077000435442,409.509666999802,411.3788241997827,409.509666999802,410.89505789987743,409.509666999802,410.89505789987743,409.509666999802,410.89505789987743,409.509666999802,410.89505789987743,409.509666999802,410.89505789987743,410.86180709977634,411.3623113997746,410.86180709977634,411.3623113997746,410.86180709977634,411.3623113997746,410.86180709977634,411.3623113997746,410.86180709977634,411.3623113997746,410.86180709977634,411.3623113997746,410.86180709977634,411.3623113997746,410.86180709977634,411.3623113997746,409.509666999802,None,411.3623113997746,412.49808939988725,1.370000000000001,412.51391799980775,None,413.2651074999012,None,,,,,,,[[1.13]],2.3000000000000016,0.703125,11029,001,2024_Jan_10_1523,MFTM_A_new1021,2021.2.3,59.94930684303992,
,,,,,,,,stim/Instruction_adaptive.png,conditions/adaptive.xlsx,test,-0.6,-0.6,-0.6,0.6,0.6,left,L,,,,,0,1,1,1,0,64,64,37,,,,,,,,,,,,,,,,,,,,,,,,,,,,,,,,,,,,,,,,,,,,413.7664896999486,None,right,0,1.97966150008142,414.2666094999295,416.11992799979635,414.2666094999295,415.61852959985845,414.2666094999295,415.61852959985845,414.2666094999295,415.61852959985845,414.2666094999295,415.61852959985845,414.2666094999295,415.61852959985845,415.5852921998594,416.08597639994696,415.5852921998594,416.08597639994696,415.5852921998594,416.08597639994696,415.5852921998594,416.08597639994696,415.5852921998594,416.08597639994696,415.5852921998594,416.08597639994696,415.5852921998594,416.08597639994696,415.5852921998594,416.08597639994696,414.2666094999295,None,416.08597639994696,417.25468169990927,1.340000000000001,417.2709047999233,None,418.02316279988736,None,,,,,,,[[1.16]],2.1900000000000013,0.6923076923076923,11029,001,2024_Jan_10_1523,MFTM_A_new1021,2021.2.3,59.94930684303992,
,,,,,,,,stim/Instruction_adaptive.png,conditions/adaptive.xlsx,test,0.6,0.6,0.6,-0.6,-0.6,right,R,,,,,0,1,1,1,0,65,65,80,,,,,,,,,,,,,,,,,,,,,,,,,,,,,,,,,,,,,,,,,,,,418.52327309991233,None,left,0,1.8468933999538422,419.0236104999203,420.97660039993934,419.0236104999203,420.47631519986317,419.0236104999203,420.47631519986317,419.0236104999203,420.47631519986317,419.0236104999203,420.47631519986317,419.0236104999203,420.47631519986317,420.4426201998722,420.9430050998926,420.4426201998722,420.9430050998926,420.4426201998722,420.9430050998926,420.4426201998722,420.9430050998926,420.4426201998722,420.9430050998926,420.4426201998722,420.9430050998926,420.4426201998722,420.9430050998926,420.4426201998722,420.9430050998926,419.0236104999203,None,420.9430050998926,422.01161789987236,1.440000000000001,422.0278504998423,None,422.77943669981323,None,,,,,,,[[1.06]],2.0800000000000014,0.6818181818181818,11029,001,2024_Jan_10_1523,MFTM_A_new1021,2021.2.3,59.94930684303992,
,,,,,,,,stim/Instruction_adaptive.png,conditions/adaptive.xlsx,test,0.6,0.6,0.6,-0.6,-0.6,right,R,,,,,0,1,1,1,0,66,66,44,,,,,,,,,,,,,,,,,,,,,,,,,,,,,,,,,,,,,,,,,,,,423.2803189998958,None,right,1,1.7056515000294894,423.7806794999633,425.8508366998285,423.7806794999633,425.35001899977215,423.7806794999633,425.35001899977215,423.7806794999633,425.35001899977215,423.7806794999633,425.35001899977215,423.7806794999633,425.35001899977215,425.31620040000416,425.81769039994106,425.31620040000416,425.81769039994106,425.31620040000416,425.81769039994106,425.31620040000416,425.81769039994106,425.31620040000416,425.81769039994106,425.31620040000416,425.81769039994106,425.31620040000416,425.81769039994106,425.31620040000416,425.81769039994106,423.7806794999633,None,425.81769039994106,426.76885939994827,1.5600000000000012,426.78500499995425,None,427.5360446998384,None,,,,,,,[[0.94]],2.1200000000000014,0.6865671641791045,11029,001,2024_Jan_10_1523,MFTM_A_new1021,2021.2.3,59.94930684303992,
,,,,,,,,stim/Instruction_adaptive.png,conditions/adaptive.xlsx,test,0.6,0.6,0.6,-0.6,-0.6,right,R,,,,,0,1,1,1,0,67,67,88,,,,,,,,,,,,,,,,,,,,,,,,,,,,,,,,,,,,,,,,,,,,428.03710479987785,None,left,0,1.5170252998359501,428.53753379988484,430.557785499841,428.53753379988484,430.05660079978406,428.53753379988484,430.05660079978406,428.53753379988484,430.05660079978406,428.53753379988484,430.05660079978406,428.53753379988484,430.05660079978406,430.02331699989736,430.52397629991174,430.02331699989736,430.52397629991174,430.02331699989736,430.52397629991174,430.02331699989736,430.52397629991174,430.02331699989736,430.52397629991174,430.02331699989736,430.52397629991174,430.02331699989736,430.52397629991174,430.02331699989736,430.52397629991174,428.53753379988484,None,430.52397629991174,431.52550379978493,1.5100000000000011,431.54231349984184,None,432.29401899990626,None,,,,,,,[[0.99]],2.0000000000000013,0.6764705882352942,11029,001,2024_Jan_10_1523,MFTM_A_new1021,2021.2.3,59.94930684303992,
,,,,,,,,stim/Instruction_adaptive.png,conditions/adaptive.xlsx,test,0.6,0.6,0.6,-0.6,-0.6,right,R,,,,,0,1,1,1,0,68,68,24,,,,,,,,,,,,,,,,,,,,,,,,,,,,,,,,,,,,,,,,,,,,432.79453229997307,None,right,1,1.600033399881795,433.2950598997995,435.44863209989853,433.2950598997995,434.9475080999546,433.2950598997995,434.9475080999546,433.2950598997995,434.9475080999546,433.2950598997995,434.9475080999546,433.2950598997995,434.9475080999546,434.9137617999222,435.4146034999285,434.9137617999222,435.4146034999285,434.9137617999222,435.4146034999285,434.9137617999222,435.4146034999285,434.9137617999222,435.4146034999285,434.9137617999222,435.4146034999285,434.9137617999222,435.4146034999285,434.9137617999222,435.4146034999285,433.2950598997995,None,435.4146034999285,436.2828253998887,1.6400000000000012,436.29951539984904,None,437.0512593998574,None,,,,,,,[[0.86]],2.0400000000000014,0.6811594202898551,11029,001,2024_Jan_10_1523,MFTM_A_new1021,2021.2.3,59.94930684303992,
,,,,,,,,stim/Instruction_adaptive.png,conditions/adaptive.xlsx,test,-0.6,-0.6,-0.6,0.6,0.6,left,L,,,,,0,1,1,1,0,69,69,53,,,,,,,,,,,,,,,,,,,,,,,,,,,,,,,,,,,,,,,,,,,,437.5518590998836,None,left,1,1.6025202001910657,438.05192959983833,440.15506229992025,438.05192959983833,439.65440429979935,438.05192959983833,439.65440429979935,438.05192959983833,439.65440429979935,438.05192959983833,439.65440429979935,438.05192959983833,439.65440429979935,439.63838269980624,440.1382622998208,439.63838269980624,440.1382622998208,439.63838269980624,440.1382622998208,439.63838269980624,440.1382622998208,439.63838269980624,440.1382622998208,439.63838269980624,440.1382622998208,439.63838269980624,440.1382622998208,439.63838269980624,440.1382622998208,438.05192959983833,None,440.1382622998208,441.0396691998467,1.6000000000000012,441.0562824998051,None,441.80750179989263,None,,,,,,,[[0.9]],2.0800000000000014,0.6857142857142857,11029,001,2024_Jan_10_1523,MFTM_A_new1021,2021.2.3,59.94930684303992,
,,,,,,,,stim/Instruction_adaptive.png,conditions/adaptive.xlsx,test,-0.6,-0.6,-0.6,0.6,0.6,left,L,,,,,0,1,1,1,0,70,70,51,,,,,,,,,,,,,,,,,,,,,,,,,,,,,,,,,,,,,,,,,,,,442.30813799984753,None,left,1,2.3733158002141863,442.8089393998962,444.8787116999738,442.8089393998962,444.3782937999349,442.8089393998962,444.3782937999349,442.8089393998962,444.3782937999349,442.8089393998962,444.3782937999349,442.8089393998962,444.3782937999349,444.34548269980587,444.84569329977967,444.34548269980587,444.84569329977967,444.34548269980587,444.84569329977967,444.34548269980587,444.84569329977967,444.34548269980587,444.84569329977967,444.34548269980587,444.84569329977967,444.34548269980587,444.84569329977967,444.34548269980587,444.84569329977967,442.8089393998962,None,444.84569329977967,445.796649399912,1.5600000000000012,445.81343049998395,None,446.56479969993234,None,,,,,,,[[0.94]],2.1200000000000014,0.6901408450704225,11029,001,2024_Jan_10_1523,MFTM_A_new1021,2021.2.3,59.94930684303992,
,,,,,,,,stim/Instruction_adaptive.png,conditions/adaptive.xlsx,test,-0.6,-0.6,-0.6,0.6,0.6,left,L,,,,,0,1,1,1,0,71,71,25,,,,,,,,,,,,,,,,,,,,,,,,,,,,,,,,,,,,,,,,,,,,447.0656157999765,None,right,0,2.40849840012379,447.56617629993707,449.58576269983314,447.56617629993707,449.0848950999789,447.56617629993707,449.0848950999789,447.56617629993707,449.0848950999789,447.56617629993707,449.0848950999789,447.56617629993707,449.0848950999789,449.0518706999719,449.55208219983615,449.0518706999719,449.55208219983615,449.0518706999719,449.55208219983615,449.0518706999719,449.55208219983615,449.0518706999719,449.55208219983615,449.0518706999719,449.55208219983615,449.0518706999719,449.55208219983615,449.0518706999719,449.55208219983615,447.56617629993707,None,449.55208219983615,450.5537237999961,1.5100000000000011,450.57012689998373,None,451.32163489982486,None,,,,,,,[[0.99]],2.0100000000000016,0.6805555555555556,11029,001,2024_Jan_10_1523,MFTM_A_new1021,2021.2.3,59.94930684303992,
,,,,,,,,stim/Instruction_adaptive.png,conditions/adaptive.xlsx,test,-0.6,-0.6,-0.6,0.6,0.6,left,L,,,,,0,1,1,1,0,72,72,49,,,,,,,,,,,,,,,,,,,,,,,,,,,,,,,,,,,,,,,,,,,,451.82247399981134,None,right,0,2.8038232000544667,452.32301759999245,454.459780999925,452.32301759999245,453.9586298998911,452.32301759999245,453.9586298998911,452.32301759999245,453.9586298998911,452.32301759999245,453.9586298998911,452.32301759999245,453.9586298998911,453.94199309987016,454.4435281998012,453.94199309987016,454.4435281998012,453.94199309987016,454.4435281998012,453.94199309987016,454.4435281998012,453.94199309987016,454.4435281998012,453.94199309987016,454.4435281998012,453.94199309987016,454.4435281998012,453.94199309987016,454.4435281998012,452.32301759999245,None,454.4435281998012,None,1.6300000000000012,455.3274899998214,None,456.0790627999231,None,,,,,,,[[0.87]],1.8900000000000012,0.6712328767123288,11029,001,2024_Jan_10_1523,MFTM_A_new1021,2021.2.3,59.94930684303992,
,,,,,,,,stim/Instruction_adaptive.png,conditions/adaptive.xlsx,test,0.6,0.6,0.6,-0.6,-0.6,right,R,,,,,0,1,1,1,0,73,73,66,,,,,,,,,,,,,,,,,,,,,,,,,,,,,,,,,,,,,,,,,,,,456.5793059999123,None,right,1,2.0065546999685466,457.07994669978507,459.3667752998881,457.07994669978507,458.86604449991137,457.07994669978507,458.86604449991137,457.07994669978507,458.86604449991137,457.07994669978507,458.86604449991137,457.07994669978507,458.86604449991137,458.8493832999375,459.35041600000113,458.8493832999375,459.35041600000113,458.8493832999375,459.35041600000113,458.8493832999375,459.35041600000113,458.8493832999375,459.35041600000113,458.8493832999375,459.35041600000113,458.8493832999375,459.35041600000113,458.8493832999375,459.35041600000113,457.07994669978507,None,459.3335729998071,460.0677085998468,1.7800000000000014,460.0847581999842,None,460.8360537998378,None,,,,,,,[[0.72]],1.9300000000000013,0.6756756756756757,11029,001,2024_Jan_10_1523,MFTM_A_new1021,2021.2.3,59.94930684303992,
,,,,,,,,stim/Instruction_adaptive.png,conditions/adaptive.xlsx,test,0.6,0.6,0.6,-0.6,-0.6,right,R,,,,,0,1,1,1,0,74,74,78,,,,,,,,,,,,,,,,,,,,,,,,,,,,,,,,,,,,,,,,,,,,461.33638259978034,None,right,1,1.8011271001305431,461.8379397999961,464.0740370999556,461.8379397999961,463.5734119999688,461.8379397999961,463.5734119999688,461.8379397999961,463.5734119999688,461.8379397999961,463.5734119999688,461.8379397999961,463.5734119999688,463.5566338999197,464.0572223998606,463.5566338999197,464.0572223998606,463.5566338999197,464.0572223998606,463.5566338999197,464.0572223998606,463.5566338999197,464.0572223998606,463.5566338999197,464.0572223998606,463.5566338999197,464.0572223998606,463.5566338999197,464.0572223998606,461.8379397999961,None,464.0572223998606,None,1.7300000000000013,464.8414190998301,None,465.59440359985456,None,,,,,,,[[0.77]],1.9700000000000013,0.68,11029,001,2024_Jan_10_1523,MFTM_A_new1021,2021.2.3,59.94930684303992,
,,,,,,,,stim/Instruction_adaptive.png,conditions/adaptive.xlsx,test,-0.6,-0.6,-0.6,0.6,0.6,left,L,,,,,0,1,1,1,0,75,75,17,,,,,,,,,,,,,,,,,,,,,,,,,,,,,,,,,,,,,,,,,,,,466.09449909999967,None,left,1,2.5403290998656303,466.59394649998285,468.78083399985917,466.59394649998285,468.2799694999121,466.59394649998285,468.2799694999121,466.59394649998285,468.2799694999121,466.59394649998285,468.2799694999121,466.59394649998285,468.2799694999121,468.263461999828,468.7640523998998,468.263461999828,468.7640523998998,468.263461999828,468.7640523998998,468.263461999828,468.7640523998998,468.263461999828,468.7640523998998,468.263461999828,468.7640523998998,468.263461999828,468.7640523998998,468.263461999828,468.7640523998998,466.59394649998285,None,468.7640523998998,None,1.6800000000000013,469.5984708999749,None,470.34985599992797,None,,,,,,,[[0.82]],2.0100000000000016,0.6842105263157895,11029,001,2024_Jan_10_1523,MFTM_A_new1021,2021.2.3,59.94930684303992,
,,,,,,,,stim/Instruction_adaptive.png,conditions/adaptive.xlsx,test,0.6,0.6,0.6,-0.6,-0.6,right,R,,,,,0,1,1,1,0,76,76,50,,,,,,,,,,,,,,,,,,,,,,,,,,,,,,,,,,,,,,,,,,,,470.85181669984013,None,left,0,1.7680301999207586,471.3512436999008,473.48826789995655,471.3512436999008,472.9878431998659,471.3512436999008,472.9878431998659,471.3512436999008,472.9878431998659,471.3512436999008,472.9878431998659,471.3512436999008,472.9878431998659,472.9705504998565,473.47151789977215,472.9705504998565,473.47151789977215,472.9705504998565,473.47151789977215,472.9705504998565,473.47151789977215,472.9705504998565,473.47151789977215,472.9705504998565,473.47151789977215,472.9705504998565,473.47151789977215,472.9705504998565,473.47151789977215,471.3512436999008,None,473.47151789977215,None,1.6300000000000012,474.35574469994754,None,475.10675729997456,None,,,,,,,[[0.87]],1.9000000000000012,0.6753246753246753,11029,001,2024_Jan_10_1523,MFTM_A_new1021,2021.2.3,59.94930684303992,
,,,,,,,,stim/Instruction_adaptive.png,conditions/adaptive.xlsx,test,0.6,0.6,0.6,-0.6,-0.6,right,R,,,,,0,1,1,1,0,77,77,70,,,,,,,,,,,,,,,,,,,,,,,,,,,,,,,,,,,,,,,,,,,,475.6078737999778,None,right,1,2.266071599908173,476.10824649990536,478.37813459988683,476.10824649990536,477.8774583998602,476.10824649990536,477.8774583998602,476.10824649990536,477.8774583998602,476.10824649990536,477.8774583998602,476.10824649990536,477.8774583998602,477.84400109993294,478.3446683997754,477.84400109993294,478.3446683997754,477.84400109993294,478.3446683997754,477.84400109993294,478.3446683997754,477.84400109993294,478.3446683997754,477.84400109993294,478.3446683997754,477.84400109993294,478.3446683997754,477.84400109993294,478.3446683997754,476.10824649990536,None,478.3446683997754,479.0975685999729,1.7600000000000013,479.1122137999628,None,479.8638219998684,None,,,,,,,[[0.74]],1.9400000000000013,0.6794871794871795,11029,001,2024_Jan_10_1523,MFTM_A_new1021,2021.2.3,59.94930684303992,
,,,,,,,,stim/Instruction_adaptive.png,conditions/adaptive.xlsx,test,0.6,0.6,0.6,-0.6,-0.6,right,R,,,,,0,1,1,1,0,78,78,36,,,,,,,,,,,,,,,,,,,,,,,,,,,,,,,,,,,,,,,,,,,,480.3643367998302,None,right,1,2.1730885999277234,480.86526599992067,483.08540479978547,480.86526599992067,482.58493999997154,480.86526599992067,482.58493999997154,480.86526599992067,482.58493999997154,480.86526599992067,482.58493999997154,480.86526599992067,482.58493999997154,482.5686102998443,483.0685986999888,482.5686102998443,483.0685986999888,482.5686102998443,483.0685986999888,482.5686102998443,483.0685986999888,482.5686102998443,483.0685986999888,482.5686102998443,483.0685986999888,482.5686102998443,483.0685986999888,482.5686102998443,483.0685986999888,480.86526599992067,None,483.05192209989764,483.8534782999195,1.7100000000000013,483.8697250999976,None,484.62075209990144,None,,,,,,,[[0.79]],1.9800000000000013,0.6835443037974683,11029,001,2024_Jan_10_1523,MFTM_A_new1021,2021.2.3,59.94930684303992,
,,,,,,,,stim/Instruction_adaptive.png,conditions/adaptive.xlsx,test,-0.6,-0.6,-0.6,0.6,0.6,left,L,,,,,0,1,1,1,0,79,79,41,,,,,,,,,,,,,,,,,,,,,,,,,,,,,,,,,,,,,,,,,,,,485.12192639987916,None,left,1,2.407377500087023,485.6231790999882,487.7925606998615,485.6231790999882,487.291836499935,485.6231790999882,487.291836499935,485.6231790999882,487.291836499935,485.6231790999882,487.291836499935,485.6231790999882,487.291836499935,487.2755845999345,487.7757706998382,487.2755845999345,487.7757706998382,487.2755845999345,487.7757706998382,487.2755845999345,487.7757706998382,487.2755845999345,487.7757706998382,487.2755845999345,487.7757706998382,487.2755845999345,487.7757706998382,487.2755845999345,487.7757706998382,485.6231790999882,None,487.7757706998382,488.61141069978476,1.6700000000000013,488.6267152999062,None,489.3781856999267,None,,,,,,,[[0.83]],2.0100000000000016,0.6875,11029,001,2024_Jan_10_1523,MFTM_A_new1021,2021.2.3,59.94930684303992,
,,,,,,,,stim/Instruction_adaptive.png,conditions/adaptive.xlsx,test,-0.6,-0.6,-0.6,0.6,0.6,left,L,,,,,0,1,1,1,0,80,80,15,,,,,,,,,,,,,,,,,,,,,,,,,,,,,,,,,,,,,,,,,,,,489.8785291998647,None,left,1,2.2361431000754237,490.3794324998744,492.51581239979714,490.3794324998744,492.0151951999869,490.3794324998744,492.0151951999869,490.3794324998744,492.0151951999869,490.3794324998744,492.0151951999869,490.3794324998744,492.0151951999869,491.99851399986073,492.4991826999467,491.99851399986073,492.4991826999467,491.99851399986073,492.4991826999467,491.99851399986073,492.4991826999467,491.99851399986073,492.4991826999467,491.99851399986073,492.4991826999467,491.99851399986073,492.4991826999467,491.99851399986073,492.4991826999467,490.3794324998744,None,492.4991826999467,None,1.6300000000000012,493.3837405999657,None,494.1363520999439,None,,,,,,,[[0.87]],2.0400000000000014,0.691358024691358,11029,001,2024_Jan_10_1523,MFTM_A_new1021,2021.2.3,59.94930684303992,
,,,,,,,,stim/Instruction_adaptive.png,conditions/adaptive.xlsx,test,0.6,0.6,0.6,-0.6,-0.6,right,R,,,,,0,1,1,1,0,81,81,94,,,,,,,,,,,,,,,,,,,,,,,,,,,,,,,,,,,,,,,,,,,,494.6363545998465,None,right,1,1.9415961999911815,495.13699129992165,497.2395033999346,495.13699129992165,496.7391280999873,495.13699129992165,496.7391280999873,495.13699129992165,496.7391280999873,495.13699129992165,496.7391280999873,495.13699129992165,496.7391280999873,496.72248329990543,497.22297769994475,496.72248329990543,497.22297769994475,496.72248329990543,497.22297769994475,496.72248329990543,497.22297769994475,496.72248329990543,497.22297769994475,496.72248329990543,497.22297769994475,496.72248329990543,497.22297769994475,496.72248329990543,497.22297769994475,495.13699129992165,None,497.22297769994475,498.124591199914,1.6000000000000012,498.1406893997919,None,498.89200969995,None,,,,,,,[[0.9]],2.070000000000001,0.6951219512195121,11029,001,2024_Jan_10_1523,MFTM_A_new1021,2021.2.3,59.94930684303992,
,,,,,,,,stim/Instruction_adaptive.png,conditions/adaptive.xlsx,test,0.6,0.6,0.6,-0.6,-0.6,right,R,,,,,0,1,1,1,0,82,82,30,,,,,,,,,,,,,,,,,,,,,,,,,,,,,,,,,,,,,,,,,,,,499.39332029991783,None,right,1,2.049090800108388,499.8934398998972,501.96332209999673,499.8934398998972,501.4623538998421,499.8934398998972,501.4623538998421,499.8934398998972,501.4623538998421,499.8934398998972,501.4623538998421,499.8934398998972,501.4623538998421,501.4461654999759,501.9465843997896,501.4461654999759,501.9465843997896,501.4461654999759,501.9465843997896,501.4461654999759,501.9465843997896,501.4461654999759,501.9465843997896,501.4461654999759,501.9465843997896,501.4461654999759,501.9465843997896,501.4461654999759,501.9465843997896,499.8934398998972,None,501.9465843997896,502.88137639989145,1.5700000000000012,502.89793259999715,None,503.6496184999123,None,,,,,,,[[0.93]],2.110000000000001,0.6987951807228916,11029,001,2024_Jan_10_1523,MFTM_A_new1021,2021.2.3,59.94930684303992,
,,,,,,,,stim/Instruction_adaptive.png,conditions/adaptive.xlsx,test,0.6,0.6,0.6,-0.6,-0.6,right,R,,,,,0,1,1,1,0,83,83,52,,,,,,,,,,,,,,,,,,,,,,,,,,,,,,,,,,,,,,,,,,,,504.1501669997815,None,right,1,2.0197198998648673,504.6508629999589,506.6706656999886,504.6508629999589,506.18612399999984,504.6508629999589,506.18612399999984,504.6508629999589,506.18612399999984,504.6508629999589,506.18612399999984,504.6508629999589,506.18612399999984,506.1528365998529,506.65388089977205,506.1528365998529,506.65388089977205,506.1528365998529,506.65388089977205,506.1528365998529,506.65388089977205,506.1528365998529,506.65388089977205,506.1528365998529,506.65388089977205,506.1528365998529,506.65388089977205,506.1528365998529,506.65388089977205,504.6508629999589,None,506.65388089977205,507.63831079984084,1.5200000000000011,507.6553818997927,None,508.4061101998668,None,,,,,,,[[0.98]],2.1300000000000017,0.7023809523809523,11029,001,2024_Jan_10_1523,MFTM_A_new1021,2021.2.3,59.94930684303992,
,,,,,,,,stim/Instruction_adaptive.png,conditions/adaptive.xlsx,test,-0.6,-0.6,-0.6,0.6,0.6,left,L,,,,,0,1,1,1,0,84,84,73,,,,,,,,,,,,,,,,,,,,,,,,,,,,,,,,,,,,,,,,,,,,508.9072172997985,None,left,1,2.142932200105861,509.40754089993425,511.41077649989165,509.40754089993425,510.9103142998647,509.40754089993425,510.9103142998647,509.40754089993425,510.9103142998647,509.40754089993425,510.9103142998647,509.40754089993425,510.9103142998647,510.8931066999212,511.3942175998818,510.8931066999212,511.3942175998818,510.8931066999212,511.3942175998818,510.8931066999212,511.3942175998818,510.8931066999212,511.3942175998818,510.8931066999212,511.3942175998818,510.8931066999212,511.3942175998818,510.8931066999212,511.3942175998818,509.40754089993425,None,511.3942175998818,512.3953326998744,1.500000000000001,512.4119844997767,None,513.1635204998311,None,,,,,,,[[1.]],2.1600000000000015,0.7058823529411765,11029,001,2024_Jan_10_1523,MFTM_A_new1021,2021.2.3,59.94930684303992,
,,,,,,,,stim/Instruction_adaptive.png,conditions/adaptive.xlsx,test,0.6,0.6,0.6,-0.6,-0.6,right,R,,,,,0,1,1,1,0,85,85,76,,,,,,,,,,,,,,,,,,,,,,,,,,,,,,,,,,,,,,,,,,,,513.6638699998148,None,right,1,2.3057179001625627,514.1646806998178,516.1339806998149,514.1646806998178,515.6501532997936,514.1646806998178,515.6501532997936,514.1646806998178,515.6501532997936,514.1646806998178,515.6501532997936,514.1646806998178,515.6501532997936,515.6167622997891,516.1175581999123,515.6167622997891,516.1175581999123,515.6167622997891,516.1175581999123,515.6167622997891,516.1175581999123,515.6167622997891,516.1175581999123,515.6167622997891,516.1175581999123,515.6167622997891,516.1175581999123,515.6167622997891,516.1175581999123,514.1646806998178,None,516.1175581999123,517.1524390999693,1.470000000000001,517.1691046999767,None,517.9202261997852,None,,,,,,,[[1.03]],2.1900000000000013,0.7093023255813954,11029,001,2024_Jan_10_1523,MFTM_A_new1021,2021.2.3,59.94930684303992,
,,,,,,,,stim/Instruction_adaptive.png,conditions/adaptive.xlsx,test,0.6,0.6,0.6,-0.6,-0.6,right,R,,,,,0,1,1,1,0,86,86,60,,,,,,,,,,,,,,,,,,,,,,,,,,,,,,,,,,,,,,,,,,,,518.4209482998122,None,right,1,1.8208491001278162,518.9216141998768,520.8749998998828,518.9216141998768,520.374020999996,518.9216141998768,520.374020999996,518.9216141998768,520.374020999996,518.9216141998768,520.374020999996,518.9216141998768,520.374020999996,520.3405756999273,520.8419466998894,520.3405756999273,520.8419466998894,520.3405756999273,520.8419466998894,520.3405756999273,520.8419466998894,520.3405756999273,520.8419466998894,520.3405756999273,520.8419466998894,520.3405756999273,520.8419466998894,520.3405756999273,520.8419466998894,518.9216141998768,None,520.8419466998894,521.9102990999818,1.440000000000001,521.9267308998387,None,522.677895099856,None,,,,,,,[[1.06]],2.2200000000000015,0.7126436781609196,11029,001,2024_Jan_10_1523,MFTM_A_new1021,2021.2.3,59.94930684303992,
,,,,,,,,stim/Instruction_adaptive.png,conditions/adaptive.xlsx,test,-0.6,-0.6,-0.6,0.6,0.6,left,L,,,,,0,1,1,1,0,87,87,1,,,,,,,,,,,,,,,,,,,,,,,,,,,,,,,,,,,,,,,,,,,,523.1779182997998,None,left,1,1.0714447998907417,523.6789307999425,525.599491099827,523.6789307999425,525.0981997998897,523.6789307999425,525.0981997998897,523.6789307999425,525.0981997998897,523.6789307999425,525.0981997998897,523.6789307999425,525.0981997998897,525.0641330999788,525.5655805999413,525.0641330999788,525.5655805999413,525.0641330999788,525.5655805999413,525.0641330999788,525.5655805999413,525.0641330999788,525.5655805999413,525.0641330999788,525.5655805999413,525.0641330999788,525.5655805999413,525.0641330999788,525.5655805999413,523.6789307999425,None,525.5655805999413,526.666433799779,1.410000000000001,526.6832288999576,None,527.435056499904,None,,,,,,,[[1.09]],2.2400000000000015,0.7159090909090909,11029,001,2024_Jan_10_1523,MFTM_A_new1021,2021.2.3,59.94930684303992,
,,,,,,,,stim/Instruction_adaptive.png,conditions/adaptive.xlsx,test,-0.6,-0.6,-0.6,0.6,0.6,left,L,,,,,0,1,1,1,0,88,88,83,,,,,,,,,,,,,,,,,,,,,,,,,,,,,,,,,,,,,,,,,,,,527.9350397998933,None,left,1,1.6908350000157952,528.435668299906,530.3386128998827,528.435668299906,529.8384972999338,528.435668299906,529.8384972999338,528.435668299906,529.8384972999338,528.435668299906,529.8384972999338,528.435668299906,529.8384972999338,529.8044306999072,530.3054536997806,529.8044306999072,530.3054536997806,529.8044306999072,530.3054536997806,529.8044306999072,530.3054536997806,529.8044306999072,530.3054536997806,529.8044306999072,530.3054536997806,529.8044306999072,530.3054536997806,529.8044306999072,530.3054536997806,528.435668299906,None,530.3054536997806,531.4237987999804,1.390000000000001,531.4402075998951,None,532.1915838997811,None,,,,,,,[[1.11]],2.2700000000000014,0.7191011235955056,11029,001,2024_Jan_10_1523,MFTM_A_new1021,2021.2.3,59.94930684303992,
,,,,,,,,stim/Instruction_adaptive.png,conditions/adaptive.xlsx,test,-0.6,-0.6,-0.6,0.6,0.6,left,L,,,,,0,1,1,1,0,89,89,11,,,,,,,,,,,,,,,,,,,,,,,,,,,,,,,,,,,,,,,,,,,,532.692010199884,None,left,1,2.0778224000241607,533.1927080999594,535.06234879978,533.1927080999594,534.5614730999805,533.1927080999594,534.5614730999805,533.1927080999594,534.5614730999805,533.1927080999594,534.5614730999805,533.1927080999594,534.5614730999805,534.5282160998322,535.0290424998384,534.5282160998322,535.0290424998384,534.5282160998322,535.0290424998384,534.5282160998322,535.0290424998384,534.5282160998322,535.0290424998384,534.5282160998322,535.0290424998384,534.5282160998322,535.0290424998384,534.5282160998322,535.0290424998384,533.1927080999594,None,535.0290424998384,536.1809029998258,1.360000000000001,536.1975749998819,None,536.9482781998813,None,,,,,,,[[1.14]],2.290000000000002,0.7222222222222222,11029,001,2024_Jan_10_1523,MFTM_A_new1021,2021.2.3,59.94930684303992,
,,,,,,,,stim/Instruction_adaptive.png,conditions/adaptive.xlsx,test,0.6,0.6,0.6,-0.6,-0.6,right,R,,,,,0,1,1,1,0,90,90,40,,,,,,,,,,,,,,,,,,,,,,,,,,,,,,,,,,,,,,,,,,,,537.4492137997877,None,right,1,2.0967165001202375,537.9500319999643,539.8024415997788,537.9500319999643,539.3021322998684,537.9500319999643,539.3021322998684,537.9500319999643,539.3021322998684,537.9500319999643,539.3021322998684,537.9500319999643,539.3021322998684,539.2852592999116,539.785775499884,539.2852592999116,539.785775499884,539.2852592999116,539.785775499884,539.2852592999116,539.785775499884,539.2852592999116,539.785775499884,539.2852592999116,539.785775499884,539.2852592999116,539.785775499884,539.2852592999116,539.785775499884,537.9500319999643,None,539.785775499884,540.9375355998054,1.350000000000001,540.9542769999243,None,541.7063976998907,None,,,,,,,[[1.15]],2.3200000000000016,0.7252747252747253,11029,001,2024_Jan_10_1523,MFTM_A_new1021,2021.2.3,59.94930684303992,
,,,,,,,,stim/Instruction_adaptive.png,conditions/adaptive.xlsx,test,-0.6,-0.6,-0.6,0.6,0.6,left,L,,,,,0,1,1,1,0,91,91,79,,,,,,,,,,,,,,,,,,,,,,,,,,,,,,,,,,,,,,,,,,,,542.2067653997801,None,left,1,1.5636158001143485,542.706858499907,544.526280199876,542.706858499907,544.0422105998732,542.706858499907,544.0422105998732,542.706858499907,544.0422105998732,542.706858499907,544.0422105998732,542.706858499907,544.0422105998732,544.0090512000024,544.5100827999413,544.0090512000024,544.5100827999413,544.0090512000024,544.5100827999413,544.0090512000024,544.5100827999413,544.0090512000024,544.5100827999413,544.0090512000024,544.5100827999413,544.0090512000024,544.5100827999413,544.0090512000024,544.5100827999413,542.706858499907,None,544.5100827999413,545.6949292998761,1.320000000000001,545.7113670997787,None,546.4626354998909,None,,,,,,,[1.17478261],2.3400000000000016,0.7282608695652174,11029,001,2024_Jan_10_1523,MFTM_A_new1021,2021.2.3,59.94930684303992,
,,,,,,,,stim/Instruction_adaptive.png,conditions/adaptive.xlsx,test,0.6,0.6,0.6,-0.6,-0.6,right,R,,,,,0,1,1,1,0,92,92,14,,,,,,,,,,,,,,,,,,,,,,,,,,,,,,,,,,,,,,,,,,,,546.9630428999662,None,right,1,1.1666168998926878,547.4639893998392,549.2666288998444,547.4639893998392,548.7663590000011,547.4639893998392,548.7663590000011,547.4639893998392,548.7663590000011,547.4639893998392,548.7663590000011,547.4639893998392,548.7663590000011,548.7493091998622,549.2500048999209,548.7493091998622,549.2500048999209,548.7493091998622,549.2500048999209,548.7493091998622,549.2500048999209,548.7493091998622,549.2500048999209,548.7493091998622,549.2500048999209,548.7493091998622,549.2500048999209,548.7493091998622,549.2500048999209,547.4639893998392,None,549.2500048999209,550.4365697999019,1.300000000000001,550.4517866999377,None,551.202713099774,None,,,,,,,[1.17505376],2.3600000000000017,0.7311827956989247,11029,001,2024_Jan_10_1523,MFTM_A_new1021,2021.2.3,59.94930684303992,
,,,,,,,,stim/Instruction_adaptive.png,conditions/adaptive.xlsx,test,-0.6,-0.6,-0.6,0.6,0.6,left,L,,,,,0,1,1,1,0,93,93,77,,,,,,,,,,,,,,,,,,,,,,,,,,,,,,,,,,,,,,,,,,,,551.7038412999827,None,left,1,1.3541916999965906,552.2044284997974,553.9902886999771,552.2044284997974,553.4900528998114,552.2044284997974,553.4900528998114,552.2044284997974,553.4900528998114,552.2044284997974,553.4900528998114,552.2044284997974,553.4900528998114,553.4730008000042,553.9744452999439,553.4730008000042,553.9744452999439,553.4730008000042,553.9744452999439,553.4730008000042,553.9744452999439,553.4730008000042,553.9744452999439,553.4730008000042,553.9744452999439,553.4730008000042,553.9744452999439,553.4730008000042,553.9744452999439,552.2044284997974,None,553.9744452999439,None,1.280000000000001,555.1595631998498,None,555.9097251999192,None,,,,,,,[1.17553191],2.3800000000000017,0.7340425531914894,11029,001,2024_Jan_10_1523,MFTM_A_new1021,2021.2.3,59.94930684303992,
