arrwidth1,arrwidth2,arrwidth3,arrwidth4,arrwidth5,keyb,type,orientation,instruction_image,block_filename,block_type,arrow11,arrow22,arrow33,arrow44,arrow55,keyb_3,orientation3,trials.thisRepN,trials.thisTrialN,trials.thisN,trials.thisIndex,trials_3.thisRepN,trials_3.thisTrialN,trials_3.thisN,trials_3.thisIndex,trials_2.thisRepN,trials_2.thisTrialN,trials_2.thisN,trials_2.thisIndex,welcome.started,welcome.stopped,key_resp.keys,key_resp.rt,key_resp.started,key_resp.stopped,instruction_example.started,instruction_example.stopped,key_resp_3.keys,key_resp_3.rt,key_resp_3.started,key_resp_3.stopped,instruction_task.started,instruction_task.stopped,key_resp_2.keys,key_resp_2.rt,key_resp_2.started,key_resp_2.stopped,text_2.started,text_2.stopped,A1.started,A1.stopped,A2.started,A2.stopped,A3.started,A3.stopped,A4.started,A4.stopped,A5.started,A5.stopped,key_resp_4.keys,key_resp_4.corr,key_resp_4.rt,key_resp_4.started,key_resp_4.stopped,fb.started,fb.stopped,instruction_block.started,instruction_block.stopped,key_resp_8.keys,key_resp_8.rt,key_resp_8.started,key_resp_8.stopped,text_8.started,text_8.stopped,key_resp_9.keys,key_resp_9.corr,key_resp_9.rt,text_5.started,text_5.stopped,A11_3.started,A11_3.stopped,A22_2.started,A22_2.stopped,A33_2.started,A33_2.stopped,A44_2.started,A44_2.stopped,A55_2.started,A55_2.stopped,M1_3.started,M1_3.stopped,M2_2.started,M2_2.stopped,M3_2.started,M3_2.stopped,M4_2.started,M4_2.stopped,M5_2.started,M5_2.stopped,M6_2.started,M6_2.stopped,M7_2.started,M7_2.stopped,M8_2.started,M8_2.stopped,key_resp_9.started,key_resp_9.stopped,fixation.started,fixation.stopped,ET,fb_3.started,fb_3.stopped,text_9.started,text_9.stopped,fb_4.started,fb_4.stopped,text_7.started,text_7.stopped,endtext.started,endtext.stopped,fixation_ITI,CCC,Acc,participant,session,date,expName,psychopyVersion,frameRate,
,,,,,,,,,,,,,,,,,,,,,,,,,,,,,,9.863455999991857,None,right,5.975014200084843,9.863455999991857,None,,,,,,,,,,,,,,,,,,,,,,,,,,,,,,,,,,,,,,,,,,,,,,,,,,,,,,,,,,,,,,,,,,,,,,,,,,,,,,,,,,,,,,,,,11022,001,2024_Jan_05_1357,MFTM_A_new1021,2021.2.3,59.767290088547135,
,,,,,,,,,,,,,,,,,,,,,,,,,,,,,,,,,,,,15.855563099961728,None,right,22.19065090001095,15.855563099961728,None,,,,,,,,,,,,,,,,,,,,,,,,,,,,,,,,,,,,,,,,,,,,,,,,,,,,,,,,,,,,,,,,,,,,,,,,,,,,,,,,,,,11022,001,2024_Jan_05_1357,MFTM_A_new1021,2021.2.3,59.767290088547135,
,,,,,,,,,,,,,,,,,,,,,,,,,,,,,,,,,,,,,,,,,,38.071567600010894,None,right,8.663669500034302,38.071567600010894,None,,,,,,,,,,,,,,,,,,,,,,,,,,,,,,,,,,,,,,,,,,,,,,,,,,,,,,,,,,,,,,,,,,,,,,,,,,,,,11022,001,2024_Jan_05_1357,MFTM_A_new1021,2021.2.3,59.767290088547135,
-0.6,-0.6,-0.6,0.6,0.6,left,3:2,L,,,,,,,,,,,0,0,0,1,,,,,,,,,,,,,,,,,,,,,,,,,,,46.76931409991812,None,46.76931409991812,None,46.76931409991812,None,46.76931409991812,None,46.76931409991812,None,46.76931409991812,None,left,1,5.980848900042474,46.76931409991812,None,52.79432019998785,None,,,,,,,,,,,,,,,,,,,,,,,,,,,,,,,,,,,,,,,,,,,,,,,,,,,,,,,,,,11022,001,2024_Jan_05_1357,MFTM_A_new1021,2021.2.3,59.767290088547135,
0.6,0.6,0.6,-0.6,-0.6,right,3:2,R,,,,,,,,,,,0,1,1,0,,,,,,,,,,,,,,,,,,,,,,,,,,,53.54536210000515,None,53.54536210000515,None,53.54536210000515,None,53.54536210000515,None,53.54536210000515,None,53.54536210000515,None,right,1,1.7167784000048414,53.54536210000515,None,55.28036009997595,None,,,,,,,,,,,,,,,,,,,,,,,,,,,,,,,,,,,,,,,,,,,,,,,,,,,,,,,,,,11022,001,2024_Jan_05_1357,MFTM_A_new1021,2021.2.3,59.767290088547135,
-0.6,-0.6,-0.6,0.6,0.6,left,3:2,L,,,,,,,,,,,1,0,2,1,,,,,,,,,,,,,,,,,,,,,,,,,,,56.03183969995007,None,56.03183969995007,None,56.03183969995007,None,56.03183969995007,None,56.03183969995007,None,56.03183969995007,None,left,1,2.6710008999798447,56.03183969995007,None,58.71878180000931,None,,,,,,,,,,,,,,,,,,,,,,,,,,,,,,,,,,,,,,,,,,,,,,,,,,,,,,,,,,11022,001,2024_Jan_05_1357,MFTM_A_new1021,2021.2.3,59.767290088547135,
0.6,0.6,0.6,-0.6,-0.6,right,3:2,R,,,,,,,,,,,1,1,3,0,,,,,,,,,,,,,,,,,,,,,,,,,,,59.46992629999295,None,59.46992629999295,None,59.46992629999295,None,59.46992629999295,None,59.46992629999295,None,59.46992629999295,None,right,1,1.5122053999220952,59.46992629999295,None,61.00555459992029,None,,,,,,,,,,,,,,,,,,,,,,,,,,,,,,,,,,,,,,,,,,,,,,,,,,,,,,,,,,11022,001,2024_Jan_05_1357,MFTM_A_new1021,2021.2.3,59.767290088547135,
,,,,,,,,stim/Instruction_mask.png,conditions/adaptive.xlsx,practice,-0.6,-0.6,-0.6,0.6,0.6,left,L,,,,,0,0,0,0,0,0,0,69,,,,,,,,,,,,,,,,,,,,,,,,,,,,,,,,,,,,,,61.99010339996312,None,right,47.4080946999602,61.99010339996312,None,109.51108389999717,None,left,1,1.7494919000891969,109.94468019995838,None,109.94468019995838,112.94936369999778,109.94468019995838,112.94936369999778,109.94468019995838,112.94936369999778,109.94468019995838,112.94936369999778,109.94468019995838,112.94936369999778,112.9325225999346,113.43327759997919,112.9325225999346,113.43327759997919,112.9325225999346,113.43327759997919,112.9325225999346,113.43327759997919,112.9325225999346,113.43327759997919,112.9325225999346,113.43327759997919,112.9325225999346,113.43327759997919,112.9325225999346,113.43327759997919,109.94468019995838,None,113.43327759997919,113.43327759997919,3,113.45000029995572,None,114.20171689998824,None,,,,,,,,,,11022,001,2024_Jan_05_1357,MFTM_A_new1021,2021.2.3,59.767290088547135,
,,,,,,,,stim/Instruction_mask.png,conditions/adaptive.xlsx,practice,0.6,0.6,0.6,-0.6,-0.6,right,R,,,,,0,0,0,0,0,1,1,86,,,,,,,,,,,,,,,,,,,,,,,,,,,,,,,,,,,,,,,,,,,,114.70210799993947,None,None,0,0,115.20497289998457,117.20583130000159,115.20497289998457,116.70488400000613,115.20497289998457,116.70488400000613,115.20497289998457,116.70488400000613,115.20497289998457,116.70488400000613,115.20497289998457,116.70488400000613,116.68832379998639,117.19035439996514,116.68832379998639,117.19035439996514,116.68832379998639,117.19035439996514,116.68832379998639,117.19035439996514,116.68832379998639,117.19035439996514,116.68832379998639,117.19035439996514,116.68832379998639,117.19035439996514,116.68832379998639,117.19035439996514,115.20497289998457,None,117.19035439996514,118.69188509997912,1.5,118.70756839995738,None,119.46004559996072,None,,,,,,,,,,11022,001,2024_Jan_05_1357,MFTM_A_new1021,2021.2.3,59.767290088547135,
,,,,,,,,stim/Instruction_mask.png,conditions/adaptive.xlsx,practice,-0.6,-0.6,-0.6,0.6,0.6,left,L,,,,,0,0,0,0,0,2,2,29,,,,,,,,,,,,,,,,,,,,,,,,,,,,,,,,,,,,,,,,,,,,119.96040129999164,None,right,0,0.9298830999759957,120.46037129999604,121.76250599999912,120.46037129999604,121.26161509996746,120.46037129999604,121.26161509996746,120.46037129999604,121.26161509996746,120.46037129999604,121.26161509996746,120.46037129999604,121.26161509996746,121.24575429991819,121.74590779992286,121.24575429991819,121.74590779992286,121.24575429991819,121.74590779992286,121.24575429991819,121.74590779992286,121.24575429991819,121.74590779992286,121.24575429991819,121.74590779992286,121.24575429991819,121.74590779992286,121.24575429991819,121.74590779992286,120.46037129999604,None,121.74590779992286,123.95012049993966,0.8,123.96512449998409,None,124.71658739994746,None,,,,,,,,,,11022,001,2024_Jan_05_1357,MFTM_A_new1021,2021.2.3,59.767290088547135,
,,,,,,,,stim/Instruction_mask.png,conditions/adaptive.xlsx,practice,-0.6,-0.6,-0.6,0.6,0.6,left,L,,,,,0,0,0,0,0,3,3,67,,,,,,,,,,,,,,,,,,,,,,,,,,,,,,,,,,,,,,,,,,,,125.21792899991851,None,left,1,0.7997753000818193,125.71863969997503,126.46939290000591,125.71863969997503,125.96858500002418,125.71863969997503,125.96858500002418,125.71863969997503,125.96858500002418,125.71863969997503,125.96858500002418,125.71863969997503,125.96858500002418,125.95192209992092,126.45257760002278,125.95192209992092,126.45257760002278,125.95192209992092,126.45257760002278,125.95192209992092,126.45257760002278,125.95192209992092,126.45257760002278,125.95192209992092,126.45257760002278,125.95192209992092,126.45257760002278,125.95192209992092,126.45257760002278,125.71863969997503,None,126.45257760002278,129.20695479994174,3,129.22342789999675,None,129.9745063999435,None,,,,,,,,,,11022,001,2024_Jan_05_1357,MFTM_A_new1021,2021.2.3,59.767290088547135,
,,,,,,,,stim/Instruction_mask.png,conditions/adaptive.xlsx,practice,,,,,,,,,,,,0,0,0,0,,,,,,,,,,,,,,,,,,,,,,,,,,,,,,,,,,,,,,,,,,,,,,,,,,,,,,,,,,,,,,,,,,,,,,,,,,,,,,,,,,,,,,,,,,130.49261970003136,131.49445260001812,131.46155539993197,131.46155539993197,131.46155539993197,None,,,,11022,001,2024_Jan_05_1357,MFTM_A_new1021,2021.2.3,59.767290088547135,
,,,,,,,,stim/Instruction_adaptive.png,conditions/adaptive.xlsx,test,0.6,0.6,0.6,-0.6,-0.6,right,R,,,,,0,1,1,1,0,0,0,4,,,,,,,,,,,,,,,,,,,,,,,,,,,,,,,,,,,,,,134.6325733999256,None,right,15.39771270006895,134.6325733999256,None,150.0705923999194,None,right,1,1.3386034000432119,150.5717237999197,None,150.5717237999197,153.57751770003233,150.5717237999197,153.57751770003233,150.5717237999197,153.57751770003233,150.5717237999197,153.57751770003233,150.5717237999197,153.57751770003233,153.56004349992145,154.0601100999629,153.56004349992145,154.0601100999629,153.56004349992145,154.0601100999629,153.56004349992145,154.0601100999629,153.56004349992145,154.0601100999629,153.56004349992145,154.0601100999629,153.56004349992145,154.0601100999629,153.56004349992145,154.0601100999629,150.5717237999197,None,154.0601100999629,154.0601100999629,3,154.07682730001397,None,154.82856699998956,None,,,,,,,0,6.000000000000005,1.0,11022,001,2024_Jan_05_1357,MFTM_A_new1021,2021.2.3,59.767290088547135,
,,,,,,,,stim/Instruction_adaptive.png,conditions/adaptive.xlsx,test,0.6,0.6,0.6,-0.6,-0.6,right,R,,,,,0,1,1,1,0,1,1,92,,,,,,,,,,,,,,,,,,,,,,,,,,,,,,,,,,,,,,,,,,,,155.32851509994362,None,left,0,0.8083063000813127,155.82987489993684,156.58121480001137,155.82987489993684,156.0797340000281,155.82987489993684,156.0797340000281,155.82987489993684,156.0797340000281,155.82987489993684,156.0797340000281,155.82987489993684,156.0797340000281,156.0632379000308,156.56394579994958,156.0632379000308,156.56394579994958,156.0632379000308,156.56394579994958,156.0632379000308,156.56394579994958,156.0632379000308,156.56394579994958,156.0632379000308,156.56394579994958,156.0632379000308,156.56394579994958,156.0632379000308,156.56394579994958,155.82987489993684,None,156.56394579994958,157.44846719992347,0.25,157.4651179999346,None,158.21631609997712,None,,,,,,,[0.875],2.570000000000002,0.5,11022,001,2024_Jan_05_1357,MFTM_A_new1021,2021.2.3,59.767290088547135,
,,,,,,,,stim/Instruction_adaptive.png,conditions/adaptive.xlsx,test,-0.6,-0.6,-0.6,0.6,0.6,left,L,,,,,0,1,1,1,0,2,2,3,,,,,,,,,,,,,,,,,,,,,,,,,,,,,,,,,,,,,,,,,,,,158.7171143000014,None,left,1,0.5175563000375405,159.21770789998118,160.83696819993202,159.21770789998118,160.3371736999834,159.21770789998118,160.3371736999834,159.21770789998118,160.3371736999834,159.21770789998118,160.3371736999834,159.21770789998118,160.3371736999834,160.3033102999907,160.80352960003074,160.3033102999907,160.80352960003074,160.3033102999907,160.80352960003074,160.3033102999907,160.80352960003074,160.3033102999907,160.80352960003074,160.3033102999907,160.80352960003074,160.3033102999907,160.80352960003074,160.3033102999907,160.80352960003074,159.21770789998118,None,160.80352960003074,161.8547230999684,1.1100000000000008,161.88840629998595,None,162.6402668999508,None,,,,,,,[1.04666667],3.3800000000000026,0.6666666666666666,11022,001,2024_Jan_05_1357,MFTM_A_new1021,2021.2.3,59.767290088547135,
,,,,,,,,stim/Instruction_adaptive.png,conditions/adaptive.xlsx,test,0.6,0.6,0.6,-0.6,-0.6,right,R,,,,,0,1,1,1,0,3,3,24,,,,,,,,,,,,,,,,,,,,,,,,,,,,,,,,,,,,,,,,,,,,163.14105380000547,None,left,0,1.1172019999939948,163.64165569993202,164.77711599995382,163.64165569993202,164.27526080003008,163.64165569993202,164.27526080003008,163.64165569993202,164.27526080003008,163.64165569993202,164.27526080003008,163.64165569993202,164.27526080003008,164.25865039997734,164.75956669996958,164.25865039997734,164.75956669996958,164.25865039997734,164.75956669996958,164.25865039997734,164.75956669996958,164.25865039997734,164.75956669996958,164.25865039997734,164.75956669996958,164.25865039997734,164.75956669996958,164.25865039997734,164.75956669996958,163.64165569993202,None,164.75956669996958,166.01164299994707,0.6300000000000003,166.02770059998147,None,166.77892029995564,None,,,,,,,[1.2525],2.1700000000000017,0.5,11022,001,2024_Jan_05_1357,MFTM_A_new1021,2021.2.3,59.767290088547135,
,,,,,,,,stim/Instruction_adaptive.png,conditions/adaptive.xlsx,test,-0.6,-0.6,-0.6,0.6,0.6,left,L,,,,,0,1,1,1,0,4,4,61,,,,,,,,,,,,,,,,,,,,,,,,,,,,,,,,,,,,,,,,,,,,167.280062399921,None,left,1,1.658105699927546,167.78048890002538,169.75008319993503,167.78048890002538,169.24938739999197,167.78048890002538,169.24938739999197,167.78048890002538,169.24938739999197,167.78048890002538,169.24938739999197,167.78048890002538,169.24938739999197,169.21595620003063,169.71788729995023,169.21595620003063,169.71788729995023,169.21595620003063,169.71788729995023,169.21595620003063,169.71788729995023,169.21595620003063,169.71788729995023,169.21595620003063,169.71788729995023,169.21595620003063,169.71788729995023,169.21595620003063,169.71788729995023,167.78048890002538,None,169.71788729995023,170.7690773999784,1.460000000000001,170.78479149995837,None,171.53588370000944,None,,,,,,,[[1.04]],2.690000000000002,0.6,11022,001,2024_Jan_05_1357,MFTM_A_new1021,2021.2.3,59.767290088547135,
,,,,,,,,stim/Instruction_adaptive.png,conditions/adaptive.xlsx,test,0.6,0.6,0.6,-0.6,-0.6,right,R,,,,,0,1,1,1,0,5,5,62,,,,,,,,,,,,,,,,,,,,,,,,,,,,,,,,,,,,,,,,,,,,172.03659259993583,None,right,1,1.301148199941963,172.5376034999499,174.0730064000236,172.5376034999499,173.57246349996421,172.5376034999499,173.57246349996421,172.5376034999499,173.57246349996421,172.5376034999499,173.57246349996421,172.5376034999499,173.57246349996421,173.5390841999324,174.03981550002936,173.5390841999324,174.03981550002936,173.5390841999324,174.03981550002936,173.5390841999324,174.03981550002936,173.5390841999324,174.03981550002936,173.5390841999324,174.03981550002936,173.5390841999324,174.03981550002936,173.5390841999324,174.03981550002936,172.5376034999499,None,174.03981550002936,175.30831210000906,1.0200000000000007,175.32508129999042,None,176.07604890002403,None,,,,,,,[1.255],3.0400000000000023,0.6666666666666666,11022,001,2024_Jan_05_1357,MFTM_A_new1021,2021.2.3,59.767290088547135,
,,,,,,,,stim/Instruction_adaptive.png,conditions/adaptive.xlsx,test,0.6,0.6,0.6,-0.6,-0.6,right,R,,,,,0,1,1,1,0,6,6,88,,,,,,,,,,,,,,,,,,,,,,,,,,,,,,,,,,,,,,,,,,,,176.57691679999698,None,left,0,1.2169605999952182,177.07768759992905,178.37976269994397,177.07768759992905,177.87974000000395,177.07768759992905,177.87974000000395,177.07768759992905,177.87974000000395,177.07768759992905,177.87974000000395,177.07768759992905,177.87974000000395,177.86325579998083,178.36325860000215,177.86325579998083,178.36325860000215,177.86325579998083,178.36325860000215,177.86325579998083,178.36325860000215,177.86325579998083,178.36325860000215,177.86325579998083,178.36325860000215,177.86325579998083,178.36325860000215,177.86325579998083,178.36325860000215,177.07768759992905,None,178.36325860000215,179.6815981999971,0.8000000000000005,179.698119699955,None,180.44928459997755,None,,,,,,,[1.31857143],2.2800000000000016,0.5714285714285714,11022,001,2024_Jan_05_1357,MFTM_A_new1021,2021.2.3,59.767290088547135,
,,,,,,,,stim/Instruction_adaptive.png,conditions/adaptive.xlsx,test,0.6,0.6,0.6,-0.6,-0.6,right,R,,,,,0,1,1,1,0,7,7,84,,,,,,,,,,,,,,,,,,,,,,,,,,,,,,,,,,,,,,,,,,,,180.95031450001989,None,right,1,1.8841363999526948,181.45060899993405,183.30425869999453,181.45060899993405,182.80274830001872,181.45060899993405,182.80274830001872,181.45060899993405,182.80274830001872,181.45060899993405,182.80274830001872,181.45060899993405,182.80274830001872,182.78608420002274,183.286919199978,182.78608420002274,183.286919199978,182.78608420002274,183.286919199978,182.78608420002274,183.286919199978,182.78608420002274,183.286919199978,182.78608420002274,183.286919199978,182.78608420002274,183.286919199978,182.78608420002274,183.286919199978,181.45060899993405,None,183.286919199978,184.43859899998643,1.350000000000001,184.45558579999488,None,185.20684450003318,None,,,,,,,[[1.15]],2.600000000000002,0.625,11022,001,2024_Jan_05_1357,MFTM_A_new1021,2021.2.3,59.767290088547135,
,,,,,,,,stim/Instruction_adaptive.png,conditions/adaptive.xlsx,test,0.6,0.6,0.6,-0.6,-0.6,right,R,,,,,0,1,1,1,0,8,8,28,,,,,,,,,,,,,,,,,,,,,,,,,,,,,,,,,,,,,,,,,,,,185.7076645999914,None,left,0,1.8787549000699073,186.2076743999496,187.81016669992823,186.2076743999496,187.31157749996055,186.2076743999496,187.31157749996055,186.2076743999496,187.31157749996055,186.2076743999496,187.31157749996055,186.2076743999496,187.31157749996055,187.27604040002916,187.77682849997655,187.27604040002916,187.77682849997655,187.27604040002916,187.77682849997655,187.27604040002916,187.77682849997655,187.27604040002916,187.77682849997655,187.27604040002916,187.77682849997655,187.27604040002916,187.77682849997655,187.27604040002916,187.77682849997655,186.2076743999496,None,187.77682849997655,189.09537440002896,1.0900000000000007,189.11199679994024,None,189.86309919995256,None,,,,,,,[1.31],1.8700000000000012,0.5555555555555556,11022,001,2024_Jan_05_1357,MFTM_A_new1021,2021.2.3,59.767290088547135,
,,,,,,,,stim/Instruction_adaptive.png,conditions/adaptive.xlsx,test,-0.6,-0.6,-0.6,0.6,0.6,left,L,,,,,0,1,1,1,0,9,9,73,,,,,,,,,,,,,,,,,,,,,,,,,,,,,,,,,,,,,,,,,,,,190.36417610000353,None,left,1,2.4613583999453112,190.86506169999484,193.16900320001878,190.86506169999484,192.66736129997298,190.86506169999484,192.66736129997298,190.86506169999484,192.66736129997298,190.86506169999484,192.66736129997298,190.86506169999484,192.66736129997298,192.65070749993902,193.15234729996882,192.65070749993902,193.15234729996882,192.65070749993902,193.15234729996882,192.65070749993902,193.15234729996882,192.65070749993902,193.15234729996882,192.65070749993902,193.15234729996882,192.65070749993902,193.15234729996882,192.65070749993902,193.15234729996882,190.86506169999484,None,193.15234729996882,193.85284830001183,1.8000000000000014,193.86910250002984,None,194.6204451000085,None,,,,,,,[[0.7]],2.1800000000000015,0.6,11022,001,2024_Jan_05_1357,MFTM_A_new1021,2021.2.3,59.767290088547135,
,,,,,,,,stim/Instruction_adaptive.png,conditions/adaptive.xlsx,test,-0.6,-0.6,-0.6,0.6,0.6,left,L,,,,,0,1,1,1,0,10,10,39,,,,,,,,,,,,,,,,,,,,,,,,,,,,,,,,,,,,,,,,,,,,195.1211544999387,None,left,1,1.7199275000020862,195.6225381999975,197.57506830000784,195.6225381999975,197.07472959998995,195.6225381999975,197.07472959998995,195.6225381999975,197.07472959998995,195.6225381999975,197.07472959998995,195.6225381999975,197.07472959998995,197.05715889995918,197.55801709997468,197.05715889995918,197.55801709997468,197.05715889995918,197.55801709997468,197.05715889995918,197.55801709997468,197.05715889995918,197.55801709997468,197.05715889995918,197.55801709997468,197.05715889995918,197.55801709997468,197.05715889995918,197.55801709997468,195.6225381999975,None,197.55801709997468,198.60947499994654,1.450000000000001,198.62615249992814,None,199.37814229994547,None,,,,,,,[[1.05]],2.410000000000002,0.6363636363636364,11022,001,2024_Jan_05_1357,MFTM_A_new1021,2021.2.3,59.767290088547135,
,,,,,,,,stim/Instruction_adaptive.png,conditions/adaptive.xlsx,test,-0.6,-0.6,-0.6,0.6,0.6,left,L,,,,,0,1,1,1,0,11,11,85,,,,,,,,,,,,,,,,,,,,,,,,,,,,,,,,,,,,,,,,,,,,199.87818889995106,None,left,1,1.4421864000614733,200.38014150003437,202.13173219992314,200.38014150003437,201.6306049999548,200.38014150003437,201.6306049999548,200.38014150003437,201.6306049999548,200.38014150003437,201.6306049999548,200.38014150003437,201.6306049999548,201.59718479996081,202.09870370000135,201.59718479996081,202.09870370000135,201.59718479996081,202.09870370000135,201.59718479996081,202.09870370000135,201.59718479996081,202.09870370000135,201.59718479996081,202.09870370000135,201.59718479996081,202.09870370000135,201.59718479996081,202.09870370000135,200.38014150003437,None,202.09870370000135,203.33387590001803,1.2400000000000009,203.36658219993114,None,204.11763009999413,None,,,,,,,[1.23333333],2.5900000000000016,0.6666666666666666,11022,001,2024_Jan_05_1357,MFTM_A_new1021,2021.2.3,59.767290088547135,
,,,,,,,,stim/Instruction_adaptive.png,conditions/adaptive.xlsx,test,0.6,0.6,0.6,-0.6,-0.6,right,R,,,,,0,1,1,1,0,12,12,38,,,,,,,,,,,,,,,,,,,,,,,,,,,,,,,,,,,,,,,,,,,,204.6185460999841,None,right,1,1.6389930000295863,205.11932139995042,206.72222019999754,205.11932139995042,206.2220761999488,205.11932139995042,206.2220761999488,205.11932139995042,206.2220761999488,205.11932139995042,206.2220761999488,205.11932139995042,206.2220761999488,206.18828170001507,206.6889045999851,206.18828170001507,206.6889045999851,206.18828170001507,206.6889045999851,206.18828170001507,206.6889045999851,206.18828170001507,206.6889045999851,206.18828170001507,206.6889045999851,206.18828170001507,206.6889045999851,206.18828170001507,206.6889045999851,205.11932139995042,None,206.6889045999851,207.93996599991806,1.0900000000000007,207.95677469996735,None,208.70772299997043,None,,,,,,,[1.24692308],2.740000000000002,0.6923076923076923,11022,001,2024_Jan_05_1357,MFTM_A_new1021,2021.2.3,59.767290088547135,
,,,,,,,,stim/Instruction_adaptive.png,conditions/adaptive.xlsx,test,0.6,0.6,0.6,-0.6,-0.6,right,R,,,,,0,1,1,1,0,13,13,64,,,,,,,,,,,,,,,,,,,,,,,,,,,,,,,,,,,,,,,,,,,,209.20861470000818,None,left,0,1.3855118999490514,209.70957800000906,211.1951401999686,209.70957800000906,210.69416760001332,209.70957800000906,210.69416760001332,209.70957800000906,210.69416760001332,209.70957800000906,210.69416760001332,209.70957800000906,210.69416760001332,210.67747599992435,211.17807599995285,210.67747599992435,211.17807599995285,210.67747599992435,211.17807599995285,210.67747599992435,211.17807599995285,210.67747599992435,211.17807599995285,210.67747599992435,211.17807599995285,210.67747599992435,211.17807599995285,210.67747599992435,211.17807599995285,209.70957800000906,None,211.17807599995285,212.4466597000137,0.9800000000000006,212.46333599998616,None,213.2145215999335,None,,,,,,,[1.26642857],2.3400000000000016,0.6428571428571429,11022,001,2024_Jan_05_1357,MFTM_A_new1021,2021.2.3,59.767290088547135,
,,,,,,,,stim/Instruction_adaptive.png,conditions/adaptive.xlsx,test,0.6,0.6,0.6,-0.6,-0.6,right,R,,,,,0,1,1,1,0,14,14,68,,,,,,,,,,,,,,,,,,,,,,,,,,,,,,,,,,,,,,,,,,,,213.716502700001,None,left,0,1.7513523999368772,214.21596760000102,216.01877460000105,214.21596760000102,215.51860019995365,214.21596760000102,215.51860019995365,214.21596760000102,215.51860019995365,214.21596760000102,215.51860019995365,214.21596760000102,215.51860019995365,215.50127999996766,216.0022081999341,215.50127999996766,216.0022081999341,215.50127999996766,216.0022081999341,215.50127999996766,216.0022081999341,215.50127999996766,216.0022081999341,215.50127999996766,216.0022081999341,215.50127999996766,216.0022081999341,215.50127999996766,216.0022081999341,214.21596760000102,None,216.0022081999341,217.20358730002772,1.300000000000001,217.22050299996044,None,217.97181569994427,None,,,,,,,[[1.2]],1.8700000000000012,0.6,11022,001,2024_Jan_05_1357,MFTM_A_new1021,2021.2.3,59.767290088547135,
,,,,,,,,stim/Instruction_adaptive.png,conditions/adaptive.xlsx,test,-0.6,-0.6,-0.6,0.6,0.6,left,L,,,,,0,1,1,1,0,15,15,23,,,,,,,,,,,,,,,,,,,,,,,,,,,,,,,,,,,,,,,,,,,,218.47363829996902,None,left,1,2.0559940999373794,218.97462340001948,221.27659979998134,218.97462340001948,220.7760006999597,218.97462340001948,220.7760006999597,218.97462340001948,220.7760006999597,218.97462340001948,220.7760006999597,218.97462340001948,220.7760006999597,220.7590389000252,221.25963560002856,220.7590389000252,221.25963560002856,220.7590389000252,221.25963560002856,220.7590389000252,221.25963560002856,220.7590389000252,221.25963560002856,220.7590389000252,221.25963560002856,220.7590389000252,221.25963560002856,220.7590389000252,221.25963560002856,218.97462340001948,None,221.25963560002856,221.9610988999484,1.8000000000000014,221.97850550001021,None,222.7292521999916,None,,,,,,,[[0.7]],2.0600000000000014,0.625,11022,001,2024_Jan_05_1357,MFTM_A_new1021,2021.2.3,59.767290088547135,
,,,,,,,,stim/Instruction_adaptive.png,conditions/adaptive.xlsx,test,-0.6,-0.6,-0.6,0.6,0.6,left,L,,,,,0,1,1,1,0,16,16,9,,,,,,,,,,,,,,,,,,,,,,,,,,,,,,,,,,,,,,,,,,,,223.22956240002532,None,left,1,2.0522721000015736,223.73059829999693,225.81642789999023,223.73059829999693,225.316192499944,223.73059829999693,225.316192499944,223.73059829999693,225.316192499944,223.73059829999693,225.316192499944,223.73059829999693,225.316192499944,225.2991620999528,225.80123689991888,225.2991620999528,225.80123689991888,225.2991620999528,225.80123689991888,225.2991620999528,225.80123689991888,225.2991620999528,225.80123689991888,225.2991620999528,225.80123689991888,225.2991620999528,225.80123689991888,225.2991620999528,225.80123689991888,223.73059829999693,None,225.80123689991888,None,1.5800000000000012,226.73446169996168,None,227.48553519998677,None,,,,,,,[[0.92]],2.2100000000000017,0.6470588235294118,11022,001,2024_Jan_05_1357,MFTM_A_new1021,2021.2.3,59.767290088547135,
,,,,,,,,stim/Instruction_adaptive.png,conditions/adaptive.xlsx,test,-0.6,-0.6,-0.6,0.6,0.6,left,L,,,,,0,1,1,1,0,17,17,43,,,,,,,,,,,,,,,,,,,,,,,,,,,,,,,,,,,,,,,,,,,,227.98739259992726,None,right,0,1.8471913000103086,228.48716209991835,230.40715819993056,228.48716209991835,229.92259249999188,228.48716209991835,229.92259249999188,228.48716209991835,229.92259249999188,228.48716209991835,229.92259249999188,228.48716209991835,229.92259249999188,229.88922879996244,230.3899825999979,229.88922879996244,230.3899825999979,229.88922879996244,230.3899825999979,229.88922879996244,230.3899825999979,229.88922879996244,230.3899825999979,229.88922879996244,230.3899825999979,229.88922879996244,230.3899825999979,229.88922879996244,230.3899825999979,228.48716209991835,None,230.3899825999979,231.47594689996913,1.420000000000001,231.4913688999368,None,232.24343369994313,None,,,,,,,[[1.08]],1.8000000000000012,0.6111111111111112,11022,001,2024_Jan_05_1357,MFTM_A_new1021,2021.2.3,59.767290088547135,
,,,,,,,,stim/Instruction_adaptive.png,conditions/adaptive.xlsx,test,-0.6,-0.6,-0.6,0.6,0.6,left,L,,,,,0,1,1,1,0,18,18,53,,,,,,,,,,,,,,,,,,,,,,,,,,,,,,,,,,,,,,,,,,,,232.74340879998636,None,right,0,2.1060676999622956,233.24425310001243,235.64851309999358,233.24425310001243,235.14686919993255,233.24425310001243,235.14686919993255,233.24425310001243,235.14686919993255,233.24425310001243,235.14686919993255,233.24425310001243,235.14686919993255,235.11362670001108,235.6148837999208,235.11362670001108,235.6148837999208,235.11362670001108,235.6148837999208,235.11362670001108,235.6148837999208,235.11362670001108,235.6148837999208,235.11362670001108,235.6148837999208,235.11362670001108,235.6148837999208,235.11362670001108,235.6148837999208,233.24425310001243,None,235.6148837999208,236.23207189992536,1.8900000000000015,236.2483588999603,None,236.99984149995726,None,,,,,,,[[0.61]],1.2700000000000007,0.5789473684210527,11022,001,2024_Jan_05_1357,MFTM_A_new1021,2021.2.3,59.767290088547135,
,,,,,,,,stim/Instruction_adaptive.png,conditions/adaptive.xlsx,test,-0.6,-0.6,-0.6,0.6,0.6,left,L,,,,,0,1,1,1,0,19,19,63,,,,,,,,,,,,,,,,,,,,,,,,,,,,,,,,,,,,,,,,,,,,237.50031259993557,None,left,1,1.437201000051573,238.00120549998246,None,238.00120549998246,240.73918569996022,238.00120549998246,240.73918569996022,238.00120549998246,240.73918569996022,238.00120549998246,240.73918569996022,238.00120549998246,240.73918569996022,240.70532609999646,241.20692090003286,240.70532609999646,241.20692090003286,240.70532609999646,241.20692090003286,240.70532609999646,241.20692090003286,240.70532609999646,241.20692090003286,240.70532609999646,241.20692090003286,240.70532609999646,241.20692090003286,240.70532609999646,241.20692090003286,238.00120549998246,None,241.20692090003286,241.20692090003286,2.730000000000002,241.23904379992746,None,241.99059309996665,None,,,,,,,0,1.4900000000000009,0.6,11022,001,2024_Jan_05_1357,MFTM_A_new1021,2021.2.3,59.767290088547135,
,,,,,,,,stim/Instruction_adaptive.png,conditions/adaptive.xlsx,test,0.6,0.6,0.6,-0.6,-0.6,right,R,,,,,0,1,1,1,0,20,20,56,,,,,,,,,,,,,,,,,,,,,,,,,,,,,,,,,,,,,,,,,,,,242.49117549997754,None,right,1,1.6866667999420315,242.99198910000268,245.8467957000248,242.99198910000268,245.3460251999786,242.99198910000268,245.3460251999786,242.99198910000268,245.3460251999786,242.99198910000268,245.3460251999786,242.99198910000268,245.3460251999786,245.31266729999334,245.8126787999645,245.31266729999334,245.8126787999645,245.31266729999334,245.8126787999645,245.31266729999334,245.8126787999645,245.31266729999334,245.8126787999645,245.31266729999334,245.8126787999645,245.31266729999334,245.8126787999645,245.31266729999334,245.8126787999645,242.99198910000268,None,245.8126787999645,245.979986499995,2.3400000000000016,245.99733189994004,None,246.7480801999336,None,,,,,,,[[0.16]],1.660000000000001,0.6190476190476191,11022,001,2024_Jan_05_1357,MFTM_A_new1021,2021.2.3,59.767290088547135,
,,,,,,,,stim/Instruction_adaptive.png,conditions/adaptive.xlsx,test,-0.6,-0.6,-0.6,0.6,0.6,left,L,,,,,0,1,1,1,0,21,21,75,,,,,,,,,,,,,,,,,,,,,,,,,,,,,,,,,,,,,,,,,,,,247.24820279993583,None,left,1,1.1608567000366747,247.74963620002382,250.33607239997946,247.74963620002382,249.83582659997046,247.74963620002382,249.83582659997046,247.74963620002382,249.83582659997046,247.74963620002382,249.83582659997046,247.74963620002382,249.83582659997046,249.8188648999203,250.3195680999197,249.8188648999203,250.3195680999197,249.8188648999203,250.3195680999197,249.8188648999203,250.3195680999197,249.8188648999203,250.3195680999197,249.8188648999203,250.3195680999197,249.8188648999203,250.3195680999197,249.8188648999203,250.3195680999197,247.74963620002382,None,250.3195680999197,None,2.080000000000002,250.75467990001198,None,251.50556680001318,None,,,,,,,[[0.42]],1.8000000000000012,0.6363636363636364,11022,001,2024_Jan_05_1357,MFTM_A_new1021,2021.2.3,59.767290088547135,
,,,,,,,,stim/Instruction_adaptive.png,conditions/adaptive.xlsx,test,-0.6,-0.6,-0.6,0.6,0.6,left,L,,,,,0,1,1,1,0,22,22,93,,,,,,,,,,,,,,,,,,,,,,,,,,,,,,,,,,,,,,,,,,,,252.00585920002777,None,left,1,2.1401827998925,252.50617950002197,254.9098740000045,252.50617950002197,254.40885389992036,252.50617950002197,254.40885389992036,252.50617950002197,254.40885389992036,252.50617950002197,254.40885389992036,252.50617950002197,254.40885389992036,254.3754348999355,254.87624919996597,254.3754348999355,254.87624919996597,254.3754348999355,254.87624919996597,254.3754348999355,254.87624919996597,254.3754348999355,254.87624919996597,254.3754348999355,254.87624919996597,254.3754348999355,254.87624919996597,254.3754348999355,254.87624919996597,252.50617950002197,None,254.87624919996597,255.49436789995525,1.8900000000000015,255.51030520000495,None,256.26199000002816,None,,,,,,,[[0.61]],1.9200000000000013,0.6521739130434783,11022,001,2024_Jan_05_1357,MFTM_A_new1021,2021.2.3,59.767290088547135,
,,,,,,,,stim/Instruction_adaptive.png,conditions/adaptive.xlsx,test,0.6,0.6,0.6,-0.6,-0.6,right,R,,,,,0,1,1,1,0,23,23,78,,,,,,,,,,,,,,,,,,,,,,,,,,,,,,,,,,,,,,,,,,,,256.7628885000013,None,right,1,1.0712239000713453,257.2632129000267,259.51642050000373,257.2632129000267,259.0155200000154,257.2632129000267,259.0155200000154,257.2632129000267,259.0155200000154,257.2632129000267,259.0155200000154,257.2632129000267,259.0155200000154,258.98236349993385,259.48305089992937,258.98236349993385,259.48305089992937,258.98236349993385,259.48305089992937,258.98236349993385,259.48305089992937,258.98236349993385,259.48305089992937,258.98236349993385,259.48305089992937,258.98236349993385,259.48305089992937,258.98236349993385,259.48305089992937,257.2632129000267,None,259.48305089992937,260.2521972999675,1.7400000000000013,260.267599600018,None,261.0186239000177,None,,,,,,,[[0.76]],2.0200000000000014,0.6666666666666666,11022,001,2024_Jan_05_1357,MFTM_A_new1021,2021.2.3,59.767290088547135,
,,,,,,,,stim/Instruction_adaptive.png,conditions/adaptive.xlsx,test,-0.6,-0.6,-0.6,0.6,0.6,left,L,,,,,0,1,1,1,0,24,24,65,,,,,,,,,,,,,,,,,,,,,,,,,,,,,,,,,,,,,,,,,,,,261.52033079997636,None,left,1,2.066861700033769,262.02009719994385,264.1407615999924,262.02009719994385,263.6393709999975,262.02009719994385,263.6393709999975,262.02009719994385,263.6393709999975,262.02009719994385,263.6393709999975,262.02009719994385,263.6393709999975,263.62359189998824,264.1235236999346,263.62359189998824,264.1235236999346,263.62359189998824,264.1235236999346,263.62359189998824,264.1235236999346,263.62359189998824,264.1235236999346,263.62359189998824,264.1235236999346,263.62359189998824,264.1235236999346,263.62359189998824,264.1235236999346,262.02009719994385,None,264.1235236999346,265.0090986000141,1.6200000000000012,265.02457080001477,None,265.77619150001556,None,,,,,,,[[0.88]],2.110000000000001,0.68,11022,001,2024_Jan_05_1357,MFTM_A_new1021,2021.2.3,59.767290088547135,
,,,,,,,,stim/Instruction_adaptive.png,conditions/adaptive.xlsx,test,-0.6,-0.6,-0.6,0.6,0.6,left,L,,,,,0,1,1,1,0,25,25,95,,,,,,,,,,,,,,,,,,,,,,,,,,,,,,,,,,,,,,,,,,,,266.27708229993004,None,left,1,1.3571614000247791,266.77725719998125,268.7972850999795,266.77725719998125,268.29675270000007,266.77725719998125,268.29675270000007,266.77725719998125,268.29675270000007,266.77725719998125,268.29675270000007,266.77725719998125,268.29675270000007,268.27992130001076,268.7809476000257,268.27992130001076,268.7809476000257,268.27992130001076,268.7809476000257,268.27992130001076,268.7809476000257,268.27992130001076,268.7809476000257,268.27992130001076,268.7809476000257,268.27992130001076,268.7809476000257,268.27992130001076,268.7809476000257,266.77725719998125,None,268.7809476000257,269.76764029997867,1.5200000000000011,269.78165919997264,None,270.5328155999305,None,,,,,,,[[0.98]],2.2000000000000015,0.6923076923076923,11022,001,2024_Jan_05_1357,MFTM_A_new1021,2021.2.3,59.767290088547135,
,,,,,,,,stim/Instruction_adaptive.png,conditions/adaptive.xlsx,test,0.6,0.6,0.6,-0.6,-0.6,right,R,,,,,0,1,1,1,0,26,26,66,,,,,,,,,,,,,,,,,,,,,,,,,,,,,,,,,,,,,,,,,,,,271.0335642999271,None,left,0,1.8557416999246925,271.5346273999894,273.4711107999319,271.5346273999894,272.96974159998354,271.5346273999894,272.96974159998354,271.5346273999894,272.96974159998354,271.5346273999894,272.96974159998354,271.5346273999894,272.96974159998354,272.9529441000195,273.4544845999917,272.9529441000195,273.4544845999917,272.9529441000195,273.4544845999917,272.9529441000195,273.4544845999917,272.9529441000195,273.4544845999917,272.9529441000195,273.4544845999917,272.9529441000195,273.4544845999917,272.9529441000195,273.4544845999917,271.5346273999894,None,273.4544845999917,274.4554852999281,1.430000000000001,274.4718652999727,None,275.2230874999659,None,,,,,,,[0.99592593],1.9600000000000013,0.6666666666666666,11022,001,2024_Jan_05_1357,MFTM_A_new1021,2021.2.3,59.767290088547135,
,,,,,,,,stim/Instruction_adaptive.png,conditions/adaptive.xlsx,test,0.6,0.6,0.6,-0.6,-0.6,right,R,,,,,0,1,1,1,0,27,27,72,,,,,,,,,,,,,,,,,,,,,,,,,,,,,,,,,,,,,,,,,,,,275.7249441000167,None,right,1,1.4861180000007153,276.22457930003293,278.42852750001475,276.22457930003293,277.92693249997683,276.22457930003293,277.92693249997683,276.22457930003293,277.92693249997683,276.22457930003293,277.92693249997683,276.22457930003293,277.92693249997683,277.89445070002694,278.39502189995255,277.89445070002694,278.39502189995255,277.89445070002694,278.39502189995255,277.89445070002694,278.39502189995255,277.89445070002694,278.39502189995255,277.89445070002694,278.39502189995255,277.89445070002694,278.39502189995255,277.89445070002694,278.39502189995255,276.22457930003293,None,278.39502189995255,279.21282479993533,1.6900000000000013,279.22889040003065,None,279.9803791999584,None,,,,,,,[[0.81]],2.0500000000000016,0.6785714285714286,11022,001,2024_Jan_05_1357,MFTM_A_new1021,2021.2.3,59.767290088547135,
,,,,,,,,stim/Instruction_adaptive.png,conditions/adaptive.xlsx,test,-0.6,-0.6,-0.6,0.6,0.6,left,L,,,,,0,1,1,1,0,28,28,19,,,,,,,,,,,,,,,,,,,,,,,,,,,,,,,,,,,,,,,,,,,,280.4810260999948,None,left,1,1.7695110999047756,280.98168440000154,283.08456460002344,280.98168440000154,282.5841463999823,280.98168440000154,282.5841463999823,280.98168440000154,282.5841463999823,280.98168440000154,282.5841463999823,280.98168440000154,282.5841463999823,282.5508709999267,283.0514517999254,282.5508709999267,283.0514517999254,282.5508709999267,283.0514517999254,282.5508709999267,283.0514517999254,282.5508709999267,283.0514517999254,282.5508709999267,283.0514517999254,282.5508709999267,283.0514517999254,282.5508709999267,283.0514517999254,280.98168440000154,None,283.0514517999254,283.96934109996073,1.5900000000000012,283.9871521999594,None,284.73715439997613,None,,,,,,,[[0.91]],2.1300000000000017,0.6896551724137931,11022,001,2024_Jan_05_1357,MFTM_A_new1021,2021.2.3,59.767290088547135,
,,,,,,,,stim/Instruction_adaptive.png,conditions/adaptive.xlsx,test,-0.6,-0.6,-0.6,0.6,0.6,left,L,,,,,0,1,1,1,0,29,29,83,,,,,,,,,,,,,,,,,,,,,,,,,,,,,,,,,,,,,,,,,,,,285.23800889996346,None,right,0,1.9399811000330374,285.73859470000025,287.7424097999465,285.73859470000025,287.24199280003086,285.73859470000025,287.24199280003086,285.73859470000025,287.24199280003086,285.73859470000025,287.24199280003086,285.73859470000025,287.24199280003086,287.2245481000282,287.72497889993247,287.2245481000282,287.72497889993247,287.2245481000282,287.72497889993247,287.2245481000282,287.72497889993247,287.2245481000282,287.72497889993247,287.2245481000282,287.72497889993247,287.2245481000282,287.72497889993247,287.2245481000282,287.72497889993247,285.73859470000025,None,287.72497889993247,None,1.500000000000001,288.72648890002165,None,289.477435400011,None,,,,,,,[0.987],1.9100000000000013,0.6666666666666666,11022,001,2024_Jan_05_1357,MFTM_A_new1021,2021.2.3,59.767290088547135,
,,,,,,,,stim/Instruction_adaptive.png,conditions/adaptive.xlsx,test,0.6,0.6,0.6,-0.6,-0.6,right,R,,,,,0,1,1,1,0,30,30,82,,,,,,,,,,,,,,,,,,,,,,,,,,,,,,,,,,,,,,,,,,,,289.9782786000287,None,right,1,1.494959200033918,290.479428099934,292.7325467999326,290.479428099934,292.23155010002665,290.479428099934,292.23155010002665,290.479428099934,292.23155010002665,290.479428099934,292.23155010002665,290.479428099934,292.23155010002665,292.2149492999306,292.7161714999238,292.2149492999306,292.7161714999238,292.2149492999306,292.7161714999238,292.2149492999306,292.7161714999238,292.2149492999306,292.7161714999238,292.2149492999306,292.7161714999238,292.2149492999306,292.7161714999238,292.2149492999306,292.7161714999238,290.479428099934,None,292.7161714999238,293.4683321999619,1.7500000000000013,293.4831922999583,None,294.23458879999816,None,,,,,,,[[0.75]],1.9900000000000013,0.6774193548387096,11022,001,2024_Jan_05_1357,MFTM_A_new1021,2021.2.3,59.767290088547135,
,,,,,,,,stim/Instruction_adaptive.png,conditions/adaptive.xlsx,test,-0.6,-0.6,-0.6,0.6,0.6,left,L,,,,,0,1,1,1,0,31,31,99,,,,,,,,,,,,,,,,,,,,,,,,,,,,,,,,,,,,,,,,,,,,294.7359319999814,None,left,1,1.5784763999981806,295.2360188999446,297.40669019997586,295.2360188999446,296.9052046999568,295.2360188999446,296.9052046999568,295.2360188999446,296.9052046999568,295.2360188999446,296.9052046999568,295.2360188999446,296.9052046999568,296.8717858999735,297.3724752999842,296.8717858999735,297.3724752999842,296.8717858999735,297.3724752999842,296.8717858999735,297.3724752999842,296.8717858999735,297.3724752999842,296.8717858999735,297.3724752999842,296.8717858999735,297.3724752999842,296.8717858999735,297.3724752999842,295.2360188999446,None,297.3724752999842,298.22398130001966,1.6600000000000013,298.2403007999528,None,298.99141969997436,None,,,,,,,[[0.84]],2.0600000000000014,0.6875,11022,001,2024_Jan_05_1357,MFTM_A_new1021,2021.2.3,59.767290088547135,
,,,,,,,,stim/Instruction_adaptive.png,conditions/adaptive.xlsx,test,0.6,0.6,0.6,-0.6,-0.6,right,R,,,,,0,1,1,1,0,32,32,70,,,,,,,,,,,,,,,,,,,,,,,,,,,,,,,,,,,,,,,,,,,,299.49311279994436,None,right,1,1.7974278000183403,299.99338779994287,302.07958459993824,299.99338779994287,301.5795906999847,299.99338779994287,301.5795906999847,299.99338779994287,301.5795906999847,299.99338779994287,301.5795906999847,299.99338779994287,301.5795906999847,301.56227120000403,302.0627945000306,301.56227120000403,302.0627945000306,301.56227120000403,302.0627945000306,301.56227120000403,302.0627945000306,301.56227120000403,302.0627945000306,301.56227120000403,302.0627945000306,301.56227120000403,302.0627945000306,301.56227120000403,302.0627945000306,299.99338779994287,None,302.0627945000306,None,1.5800000000000012,302.99753960000817,None,303.7498258999549,None,,,,,,,[[0.92]],2.1300000000000017,0.696969696969697,11022,001,2024_Jan_05_1357,MFTM_A_new1021,2021.2.3,59.767290088547135,
,,,,,,,,stim/Instruction_adaptive.png,conditions/adaptive.xlsx,test,0.6,0.6,0.6,-0.6,-0.6,right,R,,,,,0,1,1,1,0,33,33,94,,,,,,,,,,,,,,,,,,,,,,,,,,,,,,,,,,,,,,,,,,,,304.2494027999928,None,right,1,1.6403491999953985,304.750116399955,306.75373869994655,304.750116399955,306.25240649993066,304.750116399955,306.25240649993066,304.750116399955,306.25240649993066,304.750116399955,306.25240649993066,304.750116399955,306.25240649993066,306.2356434999965,306.7378297999967,306.2356434999965,306.7378297999967,306.2356434999965,306.7378297999967,306.2356434999965,306.7378297999967,306.2356434999965,306.7378297999967,306.2356434999965,306.7378297999967,306.2356434999965,306.7378297999967,306.2356434999965,306.7378297999967,304.750116399955,None,306.7378297999967,307.721757399966,1.500000000000001,307.73791090003215,None,308.49032580002677,None,,,,,,,[0.97411765],2.1900000000000013,0.7058823529411765,11022,001,2024_Jan_05_1357,MFTM_A_new1021,2021.2.3,59.767290088547135,
,,,,,,,,stim/Instruction_adaptive.png,conditions/adaptive.xlsx,test,-0.6,-0.6,-0.6,0.6,0.6,left,L,,,,,0,1,1,1,0,34,34,35,,,,,,,,,,,,,,,,,,,,,,,,,,,,,,,,,,,,,,,,,,,,308.9904170000227,None,left,1,1.619971500011161,309.4904648999218,311.4432534999214,309.4904648999218,310.9438493999187,309.4904648999218,310.9438493999187,309.4904648999218,310.9438493999187,309.4904648999218,310.9438493999187,309.4904648999218,310.9438493999187,310.9100048999535,311.4101406999398,310.9100048999535,311.4101406999398,310.9100048999535,311.4101406999398,310.9100048999535,311.4101406999398,310.9100048999535,311.4101406999398,310.9100048999535,311.4101406999398,310.9100048999535,311.4101406999398,310.9100048999535,311.4101406999398,309.4904648999218,None,311.4101406999398,312.39572489995044,1.440000000000001,312.4116130999755,None,313.1631556999637,None,,,,,,,[0.97657143],2.2500000000000018,0.7142857142857143,11022,001,2024_Jan_05_1357,MFTM_A_new1021,2021.2.3,59.767290088547135,
,,,,,,,,stim/Instruction_adaptive.png,conditions/adaptive.xlsx,test,-0.6,-0.6,-0.6,0.6,0.6,left,L,,,,,0,1,1,1,0,35,35,7,,,,,,,,,,,,,,,,,,,,,,,,,,,,,,,,,,,,,,,,,,,,313.6637527999701,None,left,1,1.585172799997963,314.1652626999421,316.05017729999963,314.1652626999421,315.54937179991975,314.1652626999421,315.54937179991975,314.1652626999421,315.54937179991975,314.1652626999421,315.54937179991975,314.1652626999421,315.54937179991975,315.5327816000208,316.0333775000181,315.5327816000208,316.0333775000181,315.5327816000208,316.0333775000181,315.5327816000208,316.0333775000181,315.5327816000208,316.0333775000181,315.5327816000208,316.0333775000181,315.5327816000208,316.0333775000181,315.5327816000208,316.0333775000181,314.1652626999421,None,316.0333775000181,317.01867239992134,1.380000000000001,317.03495999996085,None,317.78682639996987,None,,,,,,,[0.98055556],2.3000000000000016,0.7222222222222222,11022,001,2024_Jan_05_1357,MFTM_A_new1021,2021.2.3,59.767290088547135,
,,,,,,,,stim/Instruction_adaptive.png,conditions/adaptive.xlsx,test,-0.6,-0.6,-0.6,0.6,0.6,left,L,,,,,0,1,1,1,0,36,36,47,,,,,,,,,,,,,,,,,,,,,,,,,,,,,,,,,,,,,,,,,,,,318.2870423999848,None,right,0,2.2111216000048444,318.78740109992214,320.64128849992994,318.78740109992214,320.13968929997645,318.78740109992214,320.13968929997645,318.78740109992214,320.13968929997645,318.78740109992214,320.13968929997645,318.78740109992214,320.13968929997645,320.10644829995,320.6086960999528,320.10644829995,320.6086960999528,320.10644829995,320.6086960999528,320.10644829995,320.6086960999528,320.10644829995,320.6086960999528,320.10644829995,320.6086960999528,320.10644829995,320.6086960999528,320.10644829995,320.6086960999528,318.78740109992214,None,320.6086960999528,321.6083335999865,1.340000000000001,321.62510049995035,None,322.37635299994145,None,,,,,,,[0.98540541],2.1500000000000012,0.7027027027027027,11022,001,2024_Jan_05_1357,MFTM_A_new1021,2021.2.3,59.767290088547135,
,,,,,,,,stim/Instruction_adaptive.png,conditions/adaptive.xlsx,test,-0.6,-0.6,-0.6,0.6,0.6,left,L,,,,,0,1,1,1,0,37,37,41,,,,,,,,,,,,,,,,,,,,,,,,,,,,,,,,,,,,,,,,,,,,322.87845960003324,None,left,1,1.6368075999198481,323.3776947000297,325.3645470000338,323.3776947000297,324.8634266000008,323.3776947000297,324.8634266000008,323.3776947000297,324.8634266000008,323.3776947000297,324.8634266000008,323.3776947000297,324.8634266000008,324.8298875000328,325.331730099977,324.8298875000328,325.331730099977,324.8298875000328,325.331730099977,324.8298875000328,325.331730099977,324.8298875000328,325.331730099977,324.8298875000328,325.331730099977,324.8298875000328,325.331730099977,324.8298875000328,325.331730099977,323.3776947000297,None,325.331730099977,326.3320531999925,1.480000000000001,326.34939350001514,None,327.1000894999597,None,,,,,,,[0.98631579],2.2000000000000015,0.7105263157894737,11022,001,2024_Jan_05_1357,MFTM_A_new1021,2021.2.3,59.767290088547135,
,,,,,,,,stim/Instruction_adaptive.png,conditions/adaptive.xlsx,test,0.6,0.6,0.6,-0.6,-0.6,right,R,,,,,0,1,1,1,0,38,38,6,,,,,,,,,,,,,,,,,,,,,,,,,,,,,,,,,,,,,,,,,,,,327.6010327999247,None,right,1,1.681712800054811,328.1014938999433,330.0378001999343,328.1014938999433,329.53698530001566,328.1014938999433,329.53698530001566,328.1014938999433,329.53698530001566,328.1014938999433,329.53698530001566,328.1014938999433,329.53698530001566,329.5201865999261,330.02166720002424,329.5201865999261,330.02166720002424,329.5201865999261,330.02166720002424,329.5201865999261,330.02166720002424,329.5201865999261,330.02166720002424,329.5201865999261,330.02166720002424,329.5201865999261,330.02166720002424,329.5201865999261,330.02166720002424,328.1014938999433,None,330.02166720002424,None,1.430000000000001,331.0224321000278,None,331.77360399998724,None,,,,,,,[0.98846154],2.2500000000000018,0.717948717948718,11022,001,2024_Jan_05_1357,MFTM_A_new1021,2021.2.3,59.767290088547135,
,,,,,,,,stim/Instruction_adaptive.png,conditions/adaptive.xlsx,test,0.6,0.6,0.6,-0.6,-0.6,right,R,,,,,0,1,1,1,0,39,39,34,,,,,,,,,,,,,,,,,,,,,,,,,,,,,,,,,,,,,,,,,,,,332.2742649000138,None,right,1,1.7037784000858665,332.77520189993083,334.66199459997006,332.77520189993083,334.1610500999959,332.77520189993083,334.1610500999959,332.77520189993083,334.1610500999959,332.77520189993083,334.1610500999959,332.77520189993083,334.1610500999959,334.14398930000607,334.644371900009,334.14398930000607,334.644371900009,334.14398930000607,334.644371900009,334.14398930000607,334.644371900009,334.14398930000607,334.644371900009,334.14398930000607,334.644371900009,334.14398930000607,334.644371900009,334.14398930000607,334.644371900009,332.77520189993083,None,334.644371900009,None,1.380000000000001,335.6459491000278,None,336.39762419997714,None,,,,,,,[0.99175],2.3000000000000016,0.725,11022,001,2024_Jan_05_1357,MFTM_A_new1021,2021.2.3,59.767290088547135,
,,,,,,,,stim/Instruction_adaptive.png,conditions/adaptive.xlsx,test,-0.6,-0.6,-0.6,0.6,0.6,left,L,,,,,0,1,1,1,0,40,40,67,,,,,,,,,,,,,,,,,,,,,,,,,,,,,,,,,,,,,,,,,,,,336.89786839997396,None,left,1,1.2240781999425963,337.39855899999384,339.25118719995953,337.39855899999384,338.7515553999692,337.39855899999384,338.7515553999692,337.39855899999384,338.7515553999692,337.39855899999384,338.7515553999692,337.39855899999384,338.7515553999692,338.7171467000153,339.2178278999636,338.7171467000153,339.2178278999636,338.7171467000153,339.2178278999636,338.7171467000153,339.2178278999636,338.7171467000153,339.2178278999636,338.7171467000153,339.2178278999636,338.7171467000153,339.2178278999636,338.7171467000153,339.2178278999636,337.39855899999384,None,339.2178278999636,340.2202877999516,1.340000000000001,340.236607800005,None,340.98704599996563,None,,,,,,,[0.99585366],2.3500000000000014,0.7317073170731707,11022,001,2024_Jan_05_1357,MFTM_A_new1021,2021.2.3,59.767290088547135,
,,,,,,,,stim/Instruction_adaptive.png,conditions/adaptive.xlsx,test,0.6,0.6,0.6,-0.6,-0.6,right,R,,,,,0,1,1,1,0,41,41,2,,,,,,,,,,,,,,,,,,,,,,,,,,,,,,,,,,,,,,,,,,,,341.4885503000114,None,right,1,1.5297848000191152,341.9887491000118,343.7918334000278,341.9887491000118,343.2906481999671,341.9887491000118,343.2906481999671,341.9887491000118,343.2906481999671,341.9887491000118,343.2906481999671,341.9887491000118,343.2906481999671,343.2578153000213,343.7584000999341,343.2578153000213,343.7584000999341,343.2578153000213,343.7584000999341,343.2578153000213,343.7584000999341,343.2578153000213,343.7584000999341,343.2578153000213,343.7584000999341,343.2578153000213,343.7584000999341,343.2578153000213,343.7584000999341,341.9887491000118,None,343.7584000999341,344.7593805999495,1.290000000000001,344.79286769998726,None,345.54477169993334,None,,,,,,,[1.00095238],2.3900000000000015,0.7380952380952381,11022,001,2024_Jan_05_1357,MFTM_A_new1021,2021.2.3,59.767290088547135,
,,,,,,,,stim/Instruction_adaptive.png,conditions/adaptive.xlsx,test,-0.6,-0.6,-0.6,0.6,0.6,left,L,,,,,0,1,1,1,0,42,42,87,,,,,,,,,,,,,,,,,,,,,,,,,,,,,,,,,,,,,,,,,,,,346.0452170999488,None,left,1,1.2693907000357285,346.5454423999181,348.31511590001173,346.5454423999181,347.81461210001726,346.5454423999181,347.81461210001726,346.5454423999181,347.81461210001726,346.5454423999181,347.81461210001726,346.5454423999181,347.81461210001726,347.7805847999407,348.2814650000073,347.7805847999407,348.2814650000073,347.7805847999407,348.2814650000073,347.7805847999407,348.2814650000073,347.7805847999407,348.2814650000073,347.7805847999407,348.2814650000073,347.7805847999407,348.2814650000073,347.7805847999407,348.2814650000073,346.5454423999181,None,348.2814650000073,349.2994728999911,1.260000000000001,349.31606540002394,None,350.0681958999485,None,,,,,,,[1.00651163],2.4300000000000015,0.7441860465116279,11022,001,2024_Jan_05_1357,MFTM_A_new1021,2021.2.3,59.767290088547135,
,,,,,,,,stim/Instruction_adaptive.png,conditions/adaptive.xlsx,test,-0.6,-0.6,-0.6,0.6,0.6,left,L,,,,,0,1,1,1,0,43,43,79,,,,,,,,,,,,,,,,,,,,,,,,,,,,,,,,,,,,,,,,,,,,350.5692840999691,None,right,0,1.4656736999750137,351.06934109993745,352.7888125999598,351.06934109993745,352.3043069000123,351.06934109993745,352.3043069000123,351.06934109993745,352.3043069000123,351.06934109993745,352.3043069000123,351.06934109993745,352.3043069000123,352.270750900032,352.77206560003106,352.270750900032,352.77206560003106,352.270750900032,352.77206560003106,352.270750900032,352.77206560003106,352.270750900032,352.77206560003106,352.270750900032,352.77206560003106,352.270750900032,352.77206560003106,352.270750900032,352.77206560003106,351.06934109993745,None,352.77206560003106,353.7894943000283,1.2200000000000009,353.8062149999896,None,354.55821199994534,None,,,,,,,[1.01272727],2.3100000000000014,0.7272727272727273,11022,001,2024_Jan_05_1357,MFTM_A_new1021,2021.2.3,59.767290088547135,
,,,,,,,,stim/Instruction_adaptive.png,conditions/adaptive.xlsx,test,-0.6,-0.6,-0.6,0.6,0.6,left,L,,,,,0,1,1,1,0,44,44,21,,,,,,,,,,,,,,,,,,,,,,,,,,,,,,,,,,,,,,,,,,,,355.05922129994724,None,left,1,1.3998882999876514,355.5593829000136,357.3952074999688,355.5593829000136,356.8949647999834,355.5593829000136,356.8949647999834,355.5593829000136,356.8949647999834,355.5593829000136,356.8949647999834,355.5593829000136,356.8949647999834,356.8775219999952,357.3782276000129,356.8775219999952,357.3782276000129,356.8775219999952,357.3782276000129,356.8775219999952,357.3782276000129,356.8775219999952,357.3782276000129,356.8775219999952,357.3782276000129,356.8775219999952,357.3782276000129,356.8775219999952,357.3782276000129,355.5593829000136,None,357.3782276000129,358.39676029991824,1.330000000000001,358.4128058999777,None,359.16495519992895,None,,,,,,,[1.01622222],2.3500000000000014,0.7333333333333333,11022,001,2024_Jan_05_1357,MFTM_A_new1021,2021.2.3,59.767290088547135,
,,,,,,,,stim/Instruction_adaptive.png,conditions/adaptive.xlsx,test,0.6,0.6,0.6,-0.6,-0.6,right,R,,,,,0,1,1,1,0,45,45,98,,,,,,,,,,,,,,,,,,,,,,,,,,,,,,,,,,,,,,,,,,,,359.6649156999774,None,left,0,1.6415156000293791,360.1656357999891,361.9689308999805,360.1656357999891,361.46795630001,360.1656357999891,361.46795630001,360.1656357999891,361.46795630001,360.1656357999891,361.46795630001,360.1656357999891,361.46795630001,361.4340845999541,361.9359733000165,361.4340845999541,361.9359733000165,361.4340845999541,361.9359733000165,361.4340845999541,361.9359733000165,361.4340845999541,361.9359733000165,361.4340845999541,361.9359733000165,361.4340845999541,361.9359733000165,361.4340845999541,361.9359733000165,360.1656357999891,None,361.9359733000165,362.9703664999688,1.290000000000001,362.98626639996655,None,363.7385732999537,None,,,,,,,[1.02043478],2.2300000000000013,0.717391304347826,11022,001,2024_Jan_05_1357,MFTM_A_new1021,2021.2.3,59.767290088547135,
,,,,,,,,stim/Instruction_adaptive.png,conditions/adaptive.xlsx,test,-0.6,-0.6,-0.6,0.6,0.6,left,L,,,,,0,1,1,1,0,46,46,77,,,,,,,,,,,,,,,,,,,,,,,,,,,,,,,,,,,,,,,,,,,,364.2383482999867,None,right,0,1.6274328000145033,364.7390822999878,366.64175519999117,364.7390822999878,366.1422167000128,364.7390822999878,366.1422167000128,364.7390822999878,366.1422167000128,364.7390822999878,366.1422167000128,364.7390822999878,366.1422167000128,366.124387399992,366.6252029000316,366.124387399992,366.6252029000316,366.124387399992,366.6252029000316,366.124387399992,366.6252029000316,366.124387399992,366.6252029000316,366.124387399992,366.6252029000316,366.124387399992,366.6252029000316,366.124387399992,366.6252029000316,364.7390822999878,None,366.6252029000316,367.66009939997457,1.400000000000001,367.6773302999791,None,368.42863199999556,None,,,,,,,[1.02212766],2.1000000000000014,0.7021276595744681,11022,001,2024_Jan_05_1357,MFTM_A_new1021,2021.2.3,59.767290088547135,
,,,,,,,,stim/Instruction_adaptive.png,conditions/adaptive.xlsx,test,0.6,0.6,0.6,-0.6,-0.6,right,R,,,,,0,1,1,1,0,47,47,54,,,,,,,,,,,,,,,,,,,,,,,,,,,,,,,,,,,,,,,,,,,,368.9284518000204,None,right,1,1.8179784999229014,369.4294020999223,371.46573569998145,369.4294020999223,370.9649023999227,369.4294020999223,370.9649023999227,369.4294020999223,370.9649023999227,369.4294020999223,370.9649023999227,369.4294020999223,370.9649023999227,370.948415699997,371.44895400002133,370.948415699997,371.44895400002133,370.948415699997,371.44895400002133,370.948415699997,371.44895400002133,370.948415699997,371.44895400002133,370.948415699997,371.44895400002133,370.948415699997,371.44895400002133,370.948415699997,371.44895400002133,369.4294020999223,None,371.44895400002133,None,1.5300000000000011,372.43365619995166,None,373.1849166000029,None,,,,,,,[[0.97]],2.1500000000000012,0.7083333333333334,11022,001,2024_Jan_05_1357,MFTM_A_new1021,2021.2.3,59.767290088547135,
,,,,,,,,stim/Instruction_adaptive.png,conditions/adaptive.xlsx,test,0.6,0.6,0.6,-0.6,-0.6,right,R,,,,,0,1,1,1,0,48,48,74,,,,,,,,,,,,,,,,,,,,,,,,,,,,,,,,,,,,,,,,,,,,373.6862988999346,None,right,1,1.3325136000057682,374.18622869998217,376.1725471999962,374.18622869998217,375.6724329999415,374.18622869998217,375.6724329999415,374.18622869998217,375.6724329999415,374.18622869998217,375.6724329999415,374.18622869998217,375.6724329999415,375.6556284999242,376.1560402000323,375.6556284999242,376.1560402000323,375.6556284999242,376.1560402000323,375.6556284999242,376.1560402000323,375.6556284999242,376.1560402000323,375.6556284999242,376.1560402000323,375.6556284999242,376.1560402000323,375.6556284999242,376.1560402000323,374.18622869998217,None,376.1560402000323,None,1.480000000000001,377.1908139999723,None,377.9422488999553,None,,,,,,,[[1.02]],2.1900000000000013,0.7142857142857143,11022,001,2024_Jan_05_1357,MFTM_A_new1021,2021.2.3,59.767290088547135,
,,,,,,,,stim/Instruction_adaptive.png,conditions/adaptive.xlsx,test,0.6,0.6,0.6,-0.6,-0.6,right,R,,,,,0,1,1,1,0,49,49,50,,,,,,,,,,,,,,,,,,,,,,,,,,,,,,,,,,,,,,,,,,,,378.4426473999629,None,right,1,1.9831947999773547,378.9433476999402,380.89696079993155,378.9433476999402,380.3960031999741,378.9433476999402,380.3960031999741,378.9433476999402,380.3960031999741,378.9433476999402,380.3960031999741,378.9433476999402,380.3960031999741,380.3622813000111,380.8629919999512,380.3622813000111,380.8629919999512,380.3622813000111,380.8629919999512,380.3622813000111,380.8629919999512,380.3622813000111,380.8629919999512,380.3622813000111,380.8629919999512,380.3622813000111,380.8629919999512,380.3622813000111,380.8629919999512,378.9433476999402,None,380.8629919999512,381.8984317999566,1.440000000000001,381.91440799995326,None,382.6662897999631,None,,,,,,,[1.0218],2.2300000000000013,0.72,11022,001,2024_Jan_05_1357,MFTM_A_new1021,2021.2.3,59.767290088547135,
,,,,,,,,stim/Instruction_adaptive.png,conditions/adaptive.xlsx,test,0.6,0.6,0.6,-0.6,-0.6,right,R,,,,,0,1,1,1,0,50,50,20,,,,,,,,,,,,,,,,,,,,,,,,,,,,,,,,,,,,,,,,,,,,383.1671482999809,None,right,1,1.6919652000069618,383.66709080000874,385.5706694999244,383.66709080000874,385.06974319997244,383.66709080000874,385.06974319997244,383.66709080000874,385.06974319997244,383.66709080000874,385.06974319997244,383.66709080000874,385.06974319997244,385.0536353000207,385.55440559994895,385.0536353000207,385.55440559994895,385.0536353000207,385.55440559994895,385.0536353000207,385.55440559994895,385.0536353000207,385.55440559994895,385.0536353000207,385.55440559994895,385.0536353000207,385.55440559994895,385.0536353000207,385.55440559994895,383.66709080000874,None,385.55440559994895,386.58834889996797,1.400000000000001,386.6048278999515,None,387.35598009999376,None,,,,,,,[1.02333333],2.2700000000000014,0.7254901960784313,11022,001,2024_Jan_05_1357,MFTM_A_new1021,2021.2.3,59.767290088547135,
,,,,,,,,stim/Instruction_adaptive.png,conditions/adaptive.xlsx,test,0.6,0.6,0.6,-0.6,-0.6,right,R,,,,,0,1,1,1,0,51,51,8,,,,,,,,,,,,,,,,,,,,,,,,,,,,,,,,,,,,,,,,,,,,387.85656769992784,None,left,0,1.961423300090246,388.3572733999463,390.2271785000339,388.3572733999463,389.7268755999394,388.3572733999463,389.7268755999394,388.3572733999463,389.7268755999394,388.3572733999463,389.7268755999394,388.3572733999463,389.7268755999394,389.69308649993036,390.1958322999999,389.69308649993036,390.1958322999999,389.69308649993036,390.1958322999999,389.69308649993036,390.1958322999999,389.69308649993036,390.1958322999999,389.69308649993036,390.1958322999999,389.69308649993036,390.1958322999999,389.69308649993036,390.1958322999999,388.3572733999463,None,390.1958322999999,391.2285351000028,1.360000000000001,391.2448025000049,None,391.99604009999894,None,,,,,,,[1.02557692],2.1600000000000015,0.7115384615384616,11022,001,2024_Jan_05_1357,MFTM_A_new1021,2021.2.3,59.767290088547135,
,,,,,,,,stim/Instruction_adaptive.png,conditions/adaptive.xlsx,test,-0.6,-0.6,-0.6,0.6,0.6,left,L,,,,,0,1,1,1,0,52,52,45,,,,,,,,,,,,,,,,,,,,,,,,,,,,,,,,,,,,,,,,,,,,392.497029799968,None,right,0,1.7129989999812096,392.9976370999357,394.96720760001335,392.9976370999357,394.4830775000155,392.9976370999357,394.4830775000155,392.9976370999357,394.4830775000155,392.9976370999357,394.4830775000155,392.9976370999357,394.4830775000155,394.449657500023,394.9504489999963,394.449657500023,394.9504489999963,394.449657500023,394.9504489999963,394.449657500023,394.9504489999963,394.449657500023,394.9504489999963,394.449657500023,394.9504489999963,394.449657500023,394.9504489999963,394.449657500023,394.9504489999963,392.9976370999357,None,394.9504489999963,395.98527009994723,1.470000000000001,396.0027724999236,None,396.75335399992764,None,,,,,,,[1.02566038],2.0400000000000014,0.6981132075471698,11022,001,2024_Jan_05_1357,MFTM_A_new1021,2021.2.3,59.767290088547135,
,,,,,,,,stim/Instruction_adaptive.png,conditions/adaptive.xlsx,test,0.6,0.6,0.6,-0.6,-0.6,right,R,,,,,0,1,1,1,0,53,53,32,,,,,,,,,,,,,,,,,,,,,,,,,,,,,,,,,,,,,,,,,,,,397.25400990003254,None,right,1,1.53132980002556,397.755273399991,399.85882690001745,397.755273399991,399.3570324999746,397.755273399991,399.3570324999746,397.755273399991,399.3570324999746,397.755273399991,399.3570324999746,397.755273399991,399.3570324999746,399.3403086999897,399.84173769992776,399.3403086999897,399.84173769992776,399.3403086999897,399.84173769992776,399.3403086999897,399.84173769992776,399.3403086999897,399.84173769992776,399.3403086999897,399.84173769992776,399.3403086999897,399.84173769992776,399.3403086999897,399.84173769992776,397.755273399991,None,399.84173769992776,400.74343079992104,1.6000000000000012,400.75909509998746,None,401.5098882999737,None,,,,,,,[[0.9]],2.0800000000000014,0.7037037037037037,11022,001,2024_Jan_05_1357,MFTM_A_new1021,2021.2.3,59.767290088547135,
,,,,,,,,stim/Instruction_adaptive.png,conditions/adaptive.xlsx,test,-0.6,-0.6,-0.6,0.6,0.6,left,L,,,,,0,1,1,1,0,54,54,37,,,,,,,,,,,,,,,,,,,,,,,,,,,,,,,,,,,,,,,,,,,,402.01091760001145,None,left,1,1.5106473000487313,402.5120294999797,404.58200549997855,402.5120294999797,404.0804965000134,402.5120294999797,404.0804965000134,402.5120294999797,404.0804965000134,402.5120294999797,404.0804965000134,402.5120294999797,404.0804965000134,404.0473513000179,404.549465799937,404.0473513000179,404.549465799937,404.0473513000179,404.549465799937,404.0473513000179,404.549465799937,404.0473513000179,404.549465799937,404.0473513000179,404.549465799937,404.0473513000179,404.549465799937,404.0473513000179,404.549465799937,402.5120294999797,None,404.549465799937,405.5000063999323,1.5600000000000012,405.51613529992756,None,406.26794869999867,None,,,,,,,[[0.94]],2.1200000000000014,0.7090909090909091,11022,001,2024_Jan_05_1357,MFTM_A_new1021,2021.2.3,59.767290088547135,
,,,,,,,,stim/Instruction_adaptive.png,conditions/adaptive.xlsx,test,-0.6,-0.6,-0.6,0.6,0.6,left,L,,,,,0,1,1,1,0,55,55,1,,,,,,,,,,,,,,,,,,,,,,,,,,,,,,,,,,,,,,,,,,,,406.7687747000018,None,left,1,2.1857667000731453,407.26923949993216,409.2885087999748,407.26923949993216,408.78777799999807,407.26923949993216,408.78777799999807,407.26923949993216,408.78777799999807,407.26923949993216,408.78777799999807,407.26923949993216,408.78777799999807,408.75436409993563,409.2556165999267,408.75436409993563,409.2556165999267,408.75436409993563,409.2556165999267,408.75436409993563,409.2556165999267,408.75436409993563,409.2556165999267,408.75436409993563,409.2556165999267,408.75436409993563,409.2556165999267,408.75436409993563,409.2556165999267,407.26923949993216,None,409.2556165999267,410.2584923999384,1.5100000000000011,410.273239800008,None,411.02481690002605,None,,,,,,,[[0.99]],2.1600000000000015,0.7142857142857143,11022,001,2024_Jan_05_1357,MFTM_A_new1021,2021.2.3,59.767290088547135,
,,,,,,,,stim/Instruction_adaptive.png,conditions/adaptive.xlsx,test,0.6,0.6,0.6,-0.6,-0.6,right,R,,,,,0,1,1,1,0,56,56,58,,,,,,,,,,,,,,,,,,,,,,,,,,,,,,,,,,,,,,,,,,,,411.5250094999792,None,right,1,1.5091677999589592,412.02592369995546,413.99555390002206,412.02592369995546,413.5117510999553,412.02592369995546,413.5117510999553,412.02592369995546,413.5117510999553,412.02592369995546,413.5117510999553,412.02592369995546,413.5117510999553,413.4778394999448,413.97988959995564,413.4778394999448,413.97988959995564,413.4778394999448,413.97988959995564,413.4778394999448,413.97988959995564,413.4778394999448,413.97988959995564,413.4778394999448,413.97988959995564,413.4778394999448,413.97988959995564,413.4778394999448,413.97988959995564,412.02592369995546,None,413.97988959995564,415.013488400029,1.470000000000001,415.0302351999562,None,415.78166330000386,None,,,,,,,[1.02140351],2.2000000000000015,0.7192982456140351,11022,001,2024_Jan_05_1357,MFTM_A_new1021,2021.2.3,59.767290088547135,
,,,,,,,,stim/Instruction_adaptive.png,conditions/adaptive.xlsx,test,0.6,0.6,0.6,-0.6,-0.6,right,R,,,,,0,1,1,1,0,57,57,22,,,,,,,,,,,,,,,,,,,,,,,,,,,,,,,,,,,,,,,,,,,,416.28270879993215,None,right,1,1.5676045999862254,416.78349379997235,418.7191800000146,416.78349379997235,418.218125400017,416.78349379997235,418.218125400017,416.78349379997235,418.218125400017,416.78349379997235,418.218125400017,416.78349379997235,418.218125400017,418.20135470002424,418.7029795999406,418.20135470002424,418.7029795999406,418.20135470002424,418.7029795999406,418.20135470002424,418.7029795999406,418.20135470002424,418.7029795999406,418.20135470002424,418.7029795999406,418.20135470002424,418.7029795999406,418.20135470002424,418.7029795999406,416.78349379997235,None,418.7029795999406,None,1.430000000000001,419.7371839999687,None,420.4883006999735,None,,,,,,,[1.02224138],2.2300000000000013,0.7241379310344828,11022,001,2024_Jan_05_1357,MFTM_A_new1021,2021.2.3,59.767290088547135,
,,,,,,,,stim/Instruction_adaptive.png,conditions/adaptive.xlsx,test,0.6,0.6,0.6,-0.6,-0.6,right,R,,,,,0,1,1,1,0,58,58,60,,,,,,,,,,,,,,,,,,,,,,,,,,,,,,,,,,,,,,,,,,,,420.9892125999322,None,right,1,1.4288533999351785,421.48972249997314,423.39269619993865,421.48972249997314,422.89183550002053,421.48972249997314,422.89183550002053,421.48972249997314,422.89183550002053,421.48972249997314,422.89183550002053,421.48972249997314,422.89183550002053,422.8752824999392,423.3762185999658,422.8752824999392,423.3762185999658,422.8752824999392,423.3762185999658,422.8752824999392,423.3762185999658,422.8752824999392,423.3762185999658,422.8752824999392,423.3762185999658,422.8752824999392,423.3762185999658,422.8752824999392,423.3762185999658,421.48972249997314,None,423.3762185999658,424.41086039994843,1.400000000000001,424.42726539995056,None,425.18086119997315,None,,,,,,,[1.02355932],2.2600000000000016,0.7288135593220338,11022,001,2024_Jan_05_1357,MFTM_A_new1021,2021.2.3,59.767290088547135,
,,,,,,,,stim/Instruction_adaptive.png,conditions/adaptive.xlsx,test,0.6,0.6,0.6,-0.6,-0.6,right,R,,,,,0,1,1,1,0,59,59,90,,,,,,,,,,,,,,,,,,,,,,,,,,,,,,,,,,,,,,,,,,,,425.67937479994725,None,right,1,1.6821836000308394,426.18067469995003,428.05019719991833,426.18067469995003,427.5692600000184,426.18067469995003,427.5692600000184,426.18067469995003,427.5692600000184,426.18067469995003,427.5692600000184,426.18067469995003,427.5692600000184,427.53209869994316,428.0334348999895,427.53209869994316,428.0334348999895,427.53209869994316,428.0334348999895,427.53209869994316,428.0334348999895,427.53209869994316,428.0334348999895,427.53209869994316,428.0334348999895,427.53209869994316,428.0334348999895,427.53209869994316,428.0334348999895,426.18067469995003,None,428.0334348999895,429.06974319997244,1.370000000000001,429.08419329999015,None,429.83569799992256,None,,,,,,,[1.02533333],2.3000000000000016,0.7333333333333333,11022,001,2024_Jan_05_1357,MFTM_A_new1021,2021.2.3,59.767290088547135,
,,,,,,,,stim/Instruction_adaptive.png,conditions/adaptive.xlsx,test,-0.6,-0.6,-0.6,0.6,0.6,left,L,,,,,0,1,1,1,0,60,60,33,,,,,,,,,,,,,,,,,,,,,,,,,,,,,,,,,,,,,,,,,,,,430.3363233000273,None,left,1,1.9378567000385374,430.83686409995425,432.69056599994656,430.83686409995425,432.1890651999274,430.83686409995425,432.1890651999274,430.83686409995425,432.1890651999274,430.83686409995425,432.1890651999274,430.83686409995425,432.1890651999274,432.1555955000222,432.6570980999386,432.1555955000222,432.6570980999386,432.1555955000222,432.6570980999386,432.1555955000222,432.6570980999386,432.1555955000222,432.6570980999386,432.1555955000222,432.6570980999386,432.1555955000222,432.6570980999386,432.1555955000222,432.6570980999386,430.83686409995425,None,432.6570980999386,433.69164179998916,1.340000000000001,433.7078890999546,None,434.458944199956,None,,,,,,,[1.02754098],2.330000000000002,0.7377049180327869,11022,001,2024_Jan_05_1357,MFTM_A_new1021,2021.2.3,59.767290088547135,
,,,,,,,,stim/Instruction_adaptive.png,conditions/adaptive.xlsx,test,-0.6,-0.6,-0.6,0.6,0.6,left,L,,,,,0,1,1,1,0,61,61,57,,,,,,,,,,,,,,,,,,,,,,,,,,,,,,,,,,,,,,,,,,,,434.95971149997786,None,left,1,1.634982299990952,435.4604132999666,437.2797467999626,435.4604132999666,436.77974409994204,435.4604132999666,436.77974409994204,435.4604132999666,436.77974409994204,435.4604132999666,436.77974409994204,435.4604132999666,436.77974409994204,436.74578909995034,437.24768629996106,436.74578909995034,437.24768629996106,436.74578909995034,437.24768629996106,436.74578909995034,437.24768629996106,436.74578909995034,437.24768629996106,436.74578909995034,437.24768629996106,436.74578909995034,437.24768629996106,436.74578909995034,437.24768629996106,435.4604132999666,None,437.24768629996106,438.2827870999463,1.310000000000001,438.3151254999684,None,439.06596549996175,None,,,,,,,[1.03016129],2.3600000000000017,0.7419354838709677,11022,001,2024_Jan_05_1357,MFTM_A_new1021,2021.2.3,59.767290088547135,
,,,,,,,,stim/Instruction_adaptive.png,conditions/adaptive.xlsx,test,0.6,0.6,0.6,-0.6,-0.6,right,R,,,,,0,1,1,1,0,62,62,30,,,,,,,,,,,,,,,,,,,,,,,,,,,,,,,,,,,,,,,,,,,,439.56664129998535,None,right,1,1.4743545000674203,440.0683718000073,441.85325909999665,440.0683718000073,441.3525241999887,440.0683718000073,441.3525241999887,440.0683718000073,441.3525241999887,440.0683718000073,441.3525241999887,440.0683718000073,441.3525241999887,441.3360861999681,441.8372924999567,441.3360861999681,441.8372924999567,441.3360861999681,441.8372924999567,441.3360861999681,441.8372924999567,441.3360861999681,441.8372924999567,441.3360861999681,441.8372924999567,441.3360861999681,441.8372924999567,441.3360861999681,441.8372924999567,440.0683718000073,None,441.8372924999567,442.87174480000976,1.280000000000001,442.8881942000007,None,443.639856099966,None,,,,,,,[1.0331746],2.3900000000000015,0.746031746031746,11022,001,2024_Jan_05_1357,MFTM_A_new1021,2021.2.3,59.767290088547135,
,,,,,,,,stim/Instruction_adaptive.png,conditions/adaptive.xlsx,test,-0.6,-0.6,-0.6,0.6,0.6,left,L,,,,,0,1,1,1,0,63,63,27,,,,,,,,,,,,,,,,,,,,,,,,,,,,,,,,,,,,,,,,,,,,444.14001999993343,None,left,1,1.3500895999604836,444.64098629995715,446.4110875999322,444.64098629995715,445.9101329999976,444.64098629995715,445.9101329999976,444.64098629995715,445.9101329999976,444.64098629995715,445.9101329999976,444.64098629995715,445.9101329999976,445.89273319998756,446.39399070001673,445.89273319998756,446.39399070001673,445.89273319998756,446.39399070001673,445.89273319998756,446.39399070001673,445.89273319998756,446.39399070001673,445.89273319998756,446.39399070001673,445.89273319998756,446.39399070001673,445.89273319998756,446.39399070001673,444.64098629995715,None,446.39399070001673,None,1.260000000000001,447.44490180001594,None,448.1965589999454,None,,,,,,,[1.03640625],2.4200000000000017,0.75,11022,001,2024_Jan_05_1357,MFTM_A_new1021,2021.2.3,59.767290088547135,
,,,,,,,,stim/Instruction_adaptive.png,conditions/adaptive.xlsx,test,0.6,0.6,0.6,-0.6,-0.6,right,R,,,,,0,1,1,1,0,64,64,46,,,,,,,,,,,,,,,,,,,,,,,,,,,,,,,,,,,,,,,,,,,,448.6980014999863,None,left,0,1.7691557999933138,449.19816299993545,450.93433329998516,449.19816299993545,450.43280029995367,449.19816299993545,450.43280029995367,449.19816299993545,450.43280029995367,449.19816299993545,450.43280029995367,449.19816299993545,450.43280029995367,450.41656219994184,450.9166417999659,450.41656219994184,450.9166417999659,450.41656219994184,450.9166417999659,450.41656219994184,450.9166417999659,450.41656219994184,450.9166417999659,450.41656219994184,450.9166417999659,450.41656219994184,450.9166417999659,450.41656219994184,450.9166417999659,449.19816299993545,None,450.9166417999659,None,1.2300000000000009,451.96814080001786,None,452.71925929991994,None,,,,,,,[1.04],2.330000000000002,0.7384615384615385,11022,001,2024_Jan_05_1357,MFTM_A_new1021,2021.2.3,59.767290088547135,
,,,,,,,,stim/Instruction_adaptive.png,conditions/adaptive.xlsx,test,0.6,0.6,0.6,-0.6,-0.6,right,R,,,,,0,1,1,1,0,65,65,12,,,,,,,,,,,,,,,,,,,,,,,,,,,,,,,,,,,,,,,,,,,,453.221011799993,None,left,0,1.6204942000331357,453.7221576999873,455.54033609991893,453.7221576999873,455.0400711999973,453.7221576999873,455.0400711999973,453.7221576999873,455.0400711999973,453.7221576999873,455.0400711999973,453.7221576999873,455.0400711999973,455.0067729000002,455.50695079995785,455.0067729000002,455.50695079995785,455.0067729000002,455.50695079995785,455.0067729000002,455.50695079995785,455.0067729000002,455.50695079995785,455.0067729000002,455.50695079995785,455.0067729000002,455.50695079995785,455.0067729000002,455.50695079995785,453.7221576999873,None,455.50695079995785,456.55825489992276,1.310000000000001,456.5749987999443,None,457.3262695999583,None,,,,,,,[1.04227273],2.2500000000000018,0.7272727272727273,11022,001,2024_Jan_05_1357,MFTM_A_new1021,2021.2.3,59.767290088547135,
,,,,,,,,stim/Instruction_adaptive.png,conditions/adaptive.xlsx,test,-0.6,-0.6,-0.6,0.6,0.6,left,L,,,,,0,1,1,1,0,66,66,91,,,,,,,,,,,,,,,,,,,,,,,,,,,,,,,,,,,,,,,,,,,,457.8276631999761,None,left,1,1.3670267999405041,458.32774219999555,460.21390309999697,458.32774219999555,459.71310940000694,458.32774219999555,459.71310940000694,458.32774219999555,459.71310940000694,458.32774219999555,459.71310940000694,458.32774219999555,459.71310940000694,459.69635240000207,460.19695090001915,459.69635240000207,460.19695090001915,459.69635240000207,460.19695090001915,459.69635240000207,460.19695090001915,459.69635240000207,460.19695090001915,459.69635240000207,460.19695090001915,459.69635240000207,460.19695090001915,459.69635240000207,460.19695090001915,458.32774219999555,None,460.19695090001915,461.2496281999629,1.380000000000001,461.26546699996106,None,462.0165115999989,None,,,,,,,[1.04343284],2.2800000000000016,0.7313432835820896,11022,001,2024_Jan_05_1357,MFTM_A_new1021,2021.2.3,59.767290088547135,
,,,,,,,,stim/Instruction_adaptive.png,conditions/adaptive.xlsx,test,-0.6,-0.6,-0.6,0.6,0.6,left,L,,,,,0,1,1,1,0,67,67,5,,,,,,,,,,,,,,,,,,,,,,,,,,,,,,,,,,,,,,,,,,,,462.51721790002193,None,left,1,1.9812670000828803,463.01789259992074,464.871183799929,463.01789259992074,464.3700029000174,463.01789259992074,464.3700029000174,463.01789259992074,464.3700029000174,463.01789259992074,464.3700029000174,463.01789259992074,464.3700029000174,464.3538798999507,464.85480650002137,464.3538798999507,464.85480650002137,464.3538798999507,464.85480650002137,464.3538798999507,464.85480650002137,464.3538798999507,464.85480650002137,464.3538798999507,464.85480650002137,464.3538798999507,464.85480650002137,464.3538798999507,464.85480650002137,463.01789259992074,None,464.85480650002137,465.90639709995594,1.350000000000001,465.9222498999443,None,466.67433670000173,None,,,,,,,[1.045],2.3100000000000014,0.7352941176470589,11022,001,2024_Jan_05_1357,MFTM_A_new1021,2021.2.3,59.767290088547135,
,,,,,,,,stim/Instruction_adaptive.png,conditions/adaptive.xlsx,test,-0.6,-0.6,-0.6,0.6,0.6,left,L,,,,,0,1,1,1,0,68,68,55,,,,,,,,,,,,,,,,,,,,,,,,,,,,,,,,,,,,,,,,,,,,467.1752800999675,None,left,1,1.3798817000351846,467.6749408999458,469.5121357999742,467.6749408999458,469.01004259998444,467.6749408999458,469.01004259998444,467.6749408999458,469.01004259998444,467.6749408999458,469.01004259998444,467.6749408999458,469.01004259998444,468.9935433999635,469.49492959992494,468.9935433999635,469.49492959992494,468.9935433999635,469.49492959992494,468.9935433999635,469.49492959992494,468.9935433999635,469.49492959992494,468.9935433999635,469.49492959992494,468.9935433999635,469.49492959992494,468.9935433999635,469.49492959992494,467.6749408999458,None,469.49492959992494,470.5458573999349,1.330000000000001,470.5625847999472,None,471.31440749997273,None,,,,,,,[1.04681159],2.330000000000002,0.7391304347826086,11022,001,2024_Jan_05_1357,MFTM_A_new1021,2021.2.3,59.767290088547135,
,,,,,,,,stim/Instruction_adaptive.png,conditions/adaptive.xlsx,test,-0.6,-0.6,-0.6,0.6,0.6,left,L,,,,,0,1,1,1,0,69,69,29,,,,,,,,,,,,,,,,,,,,,,,,,,,,,,,,,,,,,,,,,,,,471.8153439000016,None,left,1,1.8277779000345618,472.3149899999844,474.1358460999327,472.3149899999844,473.6347987999907,472.3149899999844,473.6347987999907,472.3149899999844,473.6347987999907,472.3149899999844,473.6347987999907,472.3149899999844,473.6347987999907,473.60012999991886,474.10191660001874,473.60012999991886,474.10191660001874,473.60012999991886,474.10191660001874,473.60012999991886,474.10191660001874,473.60012999991886,474.10191660001874,473.60012999991886,474.10191660001874,473.60012999991886,474.10191660001874,473.60012999991886,474.10191660001874,472.3149899999844,None,474.10191660001874,475.15267859993037,1.310000000000001,475.18639429996256,None,475.9380652999971,None,,,,,,,[1.04885714],2.3600000000000017,0.7428571428571429,11022,001,2024_Jan_05_1357,MFTM_A_new1021,2021.2.3,59.767290088547135,
,,,,,,,,stim/Instruction_adaptive.png,conditions/adaptive.xlsx,test,-0.6,-0.6,-0.6,0.6,0.6,left,L,,,,,0,1,1,1,0,70,70,15,,,,,,,,,,,,,,,,,,,,,,,,,,,,,,,,,,,,,,,,,,,,476.43795729998965,None,left,1,1.5557557999854907,476.9388612000039,478.72496239992324,476.9388612000039,478.2238946999423,476.9388612000039,478.2238946999423,476.9388612000039,478.2238946999423,476.9388612000039,478.2238946999423,476.9388612000039,478.2238946999423,478.2072146999417,478.7079618999269,478.2072146999417,478.7079618999269,478.2072146999417,478.7079618999269,478.2072146999417,478.7079618999269,478.2072146999417,478.7079618999269,478.2072146999417,478.7079618999269,478.2072146999417,478.7079618999269,478.2072146999417,478.7079618999269,476.9388612000039,None,478.69229479995556,479.7428906999994,1.280000000000001,479.7768709999509,None,480.5274394999724,None,,,,,,,[1.05126761],2.3900000000000015,0.7464788732394366,11022,001,2024_Jan_05_1357,MFTM_A_new1021,2021.2.3,59.767290088547135,
,,,,,,,,stim/Instruction_adaptive.png,conditions/adaptive.xlsx,test,-0.6,-0.6,-0.6,0.6,0.6,left,L,,,,,0,1,1,1,0,71,71,89,,,,,,,,,,,,,,,,,,,,,,,,,,,,,,,,,,,,,,,,,,,,481.0286229000194,None,left,1,1.4298878000117838,481.52880879992153,483.299401700031,481.52880879992153,482.79736409999896,481.52880879992153,482.79736409999896,481.52880879992153,482.79736409999896,481.52880879992153,482.79736409999896,481.52880879992153,482.79736409999896,482.7805739999749,483.2815134000266,482.7805739999749,483.2815134000266,482.7805739999749,483.2815134000266,482.7805739999749,483.2815134000266,482.7805739999749,483.2815134000266,482.7805739999749,483.2815134000266,482.7805739999749,483.2815134000266,482.7805739999749,483.2815134000266,481.52880879992153,None,483.2654907000251,484.3344095000066,1.260000000000001,484.3503410000121,None,485.10127260000445,None,,,,,,,[1.05388889],2.410000000000002,0.75,11022,001,2024_Jan_05_1357,MFTM_A_new1021,2021.2.3,59.767290088547135,
,,,,,,,,stim/Instruction_adaptive.png,conditions/adaptive.xlsx,test,-0.6,-0.6,-0.6,0.6,0.6,left,L,,,,,0,1,1,1,0,72,72,25,,,,,,,,,,,,,,,,,,,,,,,,,,,,,,,,,,,,,,,,,,,,485.60180770000443,None,left,1,1.5363895000191405,486.1022126999451,487.85488030000124,486.1022126999451,487.3538624999346,486.1022126999451,487.3538624999346,486.1022126999451,487.3538624999346,486.1022126999451,487.3538624999346,486.1022126999451,487.3538624999346,487.3216798999347,487.82139800000004,487.3216798999347,487.82139800000004,487.3216798999347,487.82139800000004,487.3216798999347,487.82139800000004,487.3216798999347,487.82139800000004,487.3216798999347,487.82139800000004,487.3216798999347,487.82139800000004,487.3216798999347,487.82139800000004,486.1022126999451,None,487.82139800000004,488.8902050999459,1.2400000000000009,488.9067909999285,None,489.6580434999196,None,,,,,,,[1.05671233],2.4400000000000017,0.7534246575342466,11022,001,2024_Jan_05_1357,MFTM_A_new1021,2021.2.3,59.767290088547135,
,,,,,,,,stim/Instruction_adaptive.png,conditions/adaptive.xlsx,test,-0.6,-0.6,-0.6,0.6,0.6,left,L,,,,,0,1,1,1,0,73,73,69,,,,,,,,,,,,,,,,,,,,,,,,,,,,,,,,,,,,,,,,,,,,490.15828039997723,None,left,1,1.7002228000201285,490.6588375000283,492.3789708999684,490.6588375000283,491.87760879995767,490.6588375000283,491.87760879995767,490.6588375000283,491.87760879995767,490.6588375000283,491.87760879995767,490.6588375000283,491.87760879995767,491.8454341000179,492.34578500001226,491.8454341000179,492.34578500001226,491.8454341000179,492.34578500001226,491.8454341000179,492.34578500001226,491.8454341000179,492.34578500001226,491.8454341000179,492.34578500001226,491.8454341000179,492.34578500001226,491.8454341000179,492.34578500001226,490.6588375000283,None,492.34578500001226,493.4133093999699,1.2100000000000009,493.43091140000615,None,494.18151419993956,None,,,,,,,[1.05986486],2.4600000000000017,0.7567567567567568,11022,001,2024_Jan_05_1357,MFTM_A_new1021,2021.2.3,59.767290088547135,
,,,,,,,,stim/Instruction_adaptive.png,conditions/adaptive.xlsx,test,0.6,0.6,0.6,-0.6,-0.6,right,R,,,,,0,1,1,1,0,74,74,80,,,,,,,,,,,,,,,,,,,,,,,,,,,,,,,,,,,,,,,,,,,,494.68242909992114,None,left,0,1.6238836999982595,495.18297139997594,496.88515590003226,495.18297139997594,496.38409099995624,495.18297139997594,496.38409099995624,495.18297139997594,496.38409099995624,495.18297139997594,496.38409099995624,495.18297139997594,496.38409099995624,496.36728439992294,496.8682760000229,496.36728439992294,496.8682760000229,496.36728439992294,496.8682760000229,496.36728439992294,496.8682760000229,496.36728439992294,496.8682760000229,496.36728439992294,496.8682760000229,496.36728439992294,496.8682760000229,496.36728439992294,496.8682760000229,495.18297139997594,None,496.8682760000229,497.9372337999521,1.2000000000000008,497.95307339995634,None,498.70411839999724,None,,,,,,,[1.06306667],2.3900000000000015,0.7466666666666667,11022,001,2024_Jan_05_1357,MFTM_A_new1021,2021.2.3,59.767290088547135,
,,,,,,,,stim/Instruction_adaptive.png,conditions/adaptive.xlsx,test,0.6,0.6,0.6,-0.6,-0.6,right,R,,,,,0,1,1,1,0,75,75,86,,,,,,,,,,,,,,,,,,,,,,,,,,,,,,,,,,,,,,,,,,,,499.2052980000153,None,right,1,1.1323585000354797,499.7064231999684,501.4748508000048,499.7064231999684,500.97424060001504,499.7064231999684,500.97424060001504,499.7064231999684,500.97424060001504,499.7064231999684,500.97424060001504,499.7064231999684,500.97424060001504,500.9577598000178,501.4586333000334,500.9577598000178,501.4586333000334,500.9577598000178,501.4586333000334,500.9577598000178,501.4586333000334,500.9577598000178,501.4586333000334,500.9577598000178,501.4586333000334,500.9577598000178,501.4586333000334,500.9577598000178,501.4586333000334,499.7064231999684,None,501.4416837999597,502.50994269992225,1.260000000000001,502.5432910999516,None,503.29424309998285,None,,,,,,,[1.06539474],2.410000000000002,0.75,11022,001,2024_Jan_05_1357,MFTM_A_new1021,2021.2.3,59.767290088547135,
,,,,,,,,stim/Instruction_adaptive.png,conditions/adaptive.xlsx,test,0.6,0.6,0.6,-0.6,-0.6,right,R,,,,,0,1,1,1,0,76,76,40,,,,,,,,,,,,,,,,,,,,,,,,,,,,,,,,,,,,,,,,,,,,503.79523499996867,None,right,1,1.7110885999863967,504.2956951999804,506.0482935999753,504.2956951999804,505.54803369997535,504.2956951999804,505.54803369997535,504.2956951999804,505.54803369997535,504.2956951999804,505.54803369997535,504.2956951999804,505.54803369997535,505.51434699993115,506.01527149998583,505.51434699993115,506.01527149998583,505.51434699993115,506.01527149998583,505.51434699993115,506.01527149998583,505.51434699993115,506.01527149998583,505.51434699993115,506.01527149998583,505.51434699993115,506.01527149998583,505.51434699993115,506.01527149998583,504.2956951999804,None,506.01527149998583,507.08340679993853,1.2400000000000009,507.11669059994165,None,507.86825199995656,None,,,,,,,[1.06792208],2.4400000000000017,0.7532467532467533,11022,001,2024_Jan_05_1357,MFTM_A_new1021,2021.2.3,59.767290088547135,
,,,,,,,,stim/Instruction_adaptive.png,conditions/adaptive.xlsx,test,0.6,0.6,0.6,-0.6,-0.6,right,R,,,,,0,1,1,1,0,77,77,0,,,,,,,,,,,,,,,,,,,,,,,,,,,,,,,,,,,,,,,,,,,,508.36939280002844,None,right,1,1.7378298999974504,508.8692011999665,510.58851629996207,508.8692011999665,510.0887472999748,508.8692011999665,510.0887472999748,508.8692011999665,510.0887472999748,508.8692011999665,510.0887472999748,508.8692011999665,510.0887472999748,510.07118889992125,510.5723461000016,510.07118889992125,510.5723461000016,510.07118889992125,510.5723461000016,510.07118889992125,510.5723461000016,510.07118889992125,510.5723461000016,510.07118889992125,510.5723461000016,510.07118889992125,510.5723461000016,510.07118889992125,510.5723461000016,508.8692011999665,None,510.5723461000016,None,1.2100000000000009,511.65670549997594,None,512.4082877000328,None,,,,,,,[1.07076923],2.4600000000000017,0.7564102564102564,11022,001,2024_Jan_05_1357,MFTM_A_new1021,2021.2.3,59.767290088547135,
,,,,,,,,stim/Instruction_adaptive.png,conditions/adaptive.xlsx,test,-0.6,-0.6,-0.6,0.6,0.6,left,L,,,,,0,1,1,1,0,78,78,31,,,,,,,,,,,,,,,,,,,,,,,,,,,,,,,,,,,,,,,,,,,,512.9101564999437,None,right,0,1.6867774999700487,513.4092167000053,515.1118530000094,513.4092167000053,514.6119107999839,513.4092167000053,514.6119107999839,513.4092167000053,514.6119107999839,513.4092167000053,514.6119107999839,513.4092167000053,514.6119107999839,514.5946713000303,515.0957828999963,514.5946713000303,515.0957828999963,514.5946713000303,515.0957828999963,514.5946713000303,515.0957828999963,514.5946713000303,515.0957828999963,514.5946713000303,515.0957828999963,514.5946713000303,515.0957828999963,514.5946713000303,515.0957828999963,513.4092167000053,None,515.0957828999963,516.1801502000308,1.2000000000000008,516.1970854999963,None,516.9481980999699,None,,,,,,,[1.07367089],2.3900000000000015,0.7468354430379747,11022,001,2024_Jan_05_1357,MFTM_A_new1021,2021.2.3,59.767290088547135,
,,,,,,,,stim/Instruction_adaptive.png,conditions/adaptive.xlsx,test,-0.6,-0.6,-0.6,0.6,0.6,left,L,,,,,0,1,1,1,0,79,79,97,,,,,,,,,,,,,,,,,,,,,,,,,,,,,,,,,,,,,,,,,,,,517.448549099965,None,left,1,1.1535040000453591,517.949511499959,519.7187392999185,517.949511499959,519.2180983999278,517.949511499959,519.2180983999278,517.949511499959,519.2180983999278,517.949511499959,519.2180983999278,517.949511499959,519.2180983999278,519.2019823000301,519.7023375999415,519.2019823000301,519.7023375999415,519.2019823000301,519.7023375999415,519.2019823000301,519.7023375999415,519.2019823000301,519.7023375999415,519.2019823000301,519.7023375999415,519.2019823000301,519.7023375999415,519.2019823000301,519.7023375999415,517.949511499959,None,519.6854276999366,520.7708123999182,1.260000000000001,520.7870387999574,None,521.5383976999437,None,,,,,,,[1.07575],2.4200000000000017,0.75,11022,001,2024_Jan_05_1357,MFTM_A_new1021,2021.2.3,59.767290088547135,
,,,,,,,,stim/Instruction_adaptive.png,conditions/adaptive.xlsx,test,0.6,0.6,0.6,-0.6,-0.6,right,R,,,,,0,1,1,1,0,80,80,44,,,,,,,,,,,,,,,,,,,,,,,,,,,,,,,,,,,,,,,,,,,,522.0386511000106,None,left,0,1.746640000026673,522.5402667999733,524.2754294000333,522.5402667999733,523.7749940999784,522.5402667999733,523.7749940999784,522.5402667999733,523.7749940999784,522.5402667999733,523.7749940999784,522.5402667999733,523.7749940999784,523.7583821000298,524.2593956999481,523.7583821000298,524.2593956999481,523.7583821000298,524.2593956999481,523.7583821000298,524.2593956999481,523.7583821000298,524.2593956999481,523.7583821000298,524.2593956999481,523.7583821000298,524.2593956999481,523.7583821000298,524.2593956999481,522.5402667999733,None,524.2593956999481,525.3450599999633,1.2300000000000009,525.3598409999395,None,526.1124168999959,None,,,,,,,[1.07814815],2.3500000000000014,0.7407407407407407,11022,001,2024_Jan_05_1357,MFTM_A_new1021,2021.2.3,59.767290088547135,
,,,,,,,,stim/Instruction_adaptive.png,conditions/adaptive.xlsx,test,-0.6,-0.6,-0.6,0.6,0.6,left,L,,,,,0,1,1,1,0,81,81,17,,,,,,,,,,,,,,,,,,,,,,,,,,,,,,,,,,,,,,,,,,,,526.6121332999319,None,left,1,1.3650844999356195,527.1136507999618,528.9158321999712,527.1136507999618,528.4155688999454,527.1136507999618,528.4155688999454,527.1136507999618,528.4155688999454,527.1136507999618,528.4155688999454,527.1136507999618,528.4155688999454,528.3816860999214,528.8822452999884,528.3816860999214,528.8822452999884,528.3816860999214,528.8822452999884,528.3816860999214,528.8822452999884,528.3816860999214,528.8822452999884,528.3816860999214,528.8822452999884,528.3816860999214,528.8822452999884,528.3816860999214,528.8822452999884,527.1136507999618,None,528.8822452999884,529.9671631000238,1.290000000000001,529.983881299966,None,530.735193099943,None,,,,,,,[1.0797561],2.370000000000002,0.7439024390243902,11022,001,2024_Jan_05_1357,MFTM_A_new1021,2021.2.3,59.767290088547135,
,,,,,,,,stim/Instruction_adaptive.png,conditions/adaptive.xlsx,test,0.6,0.6,0.6,-0.6,-0.6,right,R,,,,,0,1,1,1,0,82,82,36,,,,,,,,,,,,,,,,,,,,,,,,,,,,,,,,,,,,,,,,,,,,531.2357942999806,None,right,1,1.5356436999281868,531.7364823999815,533.5061803000281,531.7364823999815,533.0051403000252,531.7364823999815,533.0051403000252,531.7364823999815,533.0051403000252,531.7364823999815,533.0051403000252,531.7364823999815,533.0051403000252,532.9895283000078,533.4894809999969,532.9895283000078,533.4894809999969,532.9895283000078,533.4894809999969,532.9895283000078,533.4894809999969,532.9895283000078,533.4894809999969,532.9895283000078,533.4894809999969,532.9895283000078,533.4894809999969,532.9895283000078,533.4894809999969,531.7364823999815,None,533.4894809999969,534.5743751999689,1.270000000000001,534.5913956000004,None,535.3427825999679,None,,,,,,,[1.08156627],2.3900000000000015,0.7469879518072289,11022,001,2024_Jan_05_1357,MFTM_A_new1021,2021.2.3,59.767290088547135,
,,,,,,,,stim/Instruction_adaptive.png,conditions/adaptive.xlsx,test,-0.6,-0.6,-0.6,0.6,0.6,left,L,,,,,0,1,1,1,0,83,83,11,,,,,,,,,,,,,,,,,,,,,,,,,,,,,,,,,,,,,,,,,,,,535.8433560000267,None,right,0,1.5347781999735162,536.3440464999294,538.1127208999824,536.3440464999294,537.6118533000117,536.3440464999294,537.6118533000117,536.3440464999294,537.6118533000117,536.3440464999294,537.6118533000117,536.3440464999294,537.6118533000117,537.5785636999644,538.0805850999895,537.5785636999644,538.0805850999895,537.5785636999644,538.0805850999895,537.5785636999644,538.0805850999895,537.5785636999644,538.0805850999895,537.5785636999644,538.0805850999895,537.5785636999644,538.0805850999895,537.5785636999644,538.0805850999895,536.3440464999294,None,538.0805850999895,539.1641291999258,1.260000000000001,539.1975879999809,None,539.9489834000124,None,,,,,,,[1.08345238],2.330000000000002,0.7380952380952381,11022,001,2024_Jan_05_1357,MFTM_A_new1021,2021.2.3,59.767290088547135,
,,,,,,,,stim/Instruction_adaptive.png,conditions/adaptive.xlsx,test,0.6,0.6,0.6,-0.6,-0.6,right,R,,,,,0,1,1,1,0,84,84,14,,,,,,,,,,,,,,,,,,,,,,,,,,,,,,,,,,,,,,,,,,,,540.4495037000161,None,right,1,1.6805594998877496,540.9501639999216,542.7693416000111,540.9501639999216,542.2686228000093,540.9501639999216,542.2686228000093,540.9501639999216,542.2686228000093,540.9501639999216,542.2686228000093,540.9501639999216,542.2686228000093,542.2354887999827,542.7361879999517,542.2354887999827,542.7361879999517,542.2354887999827,542.7361879999517,542.2354887999827,542.7361879999517,542.2354887999827,542.7361879999517,542.2354887999827,542.7361879999517,542.2354887999827,542.7361879999517,542.2354887999827,542.7361879999517,540.9501639999216,None,542.7361879999517,543.8218694999814,1.310000000000001,543.8542476999573,None,544.6054213999305,None,,,,,,,[1.08470588],2.3500000000000014,0.7411764705882353,11022,001,2024_Jan_05_1357,MFTM_A_new1021,2021.2.3,59.767290088547135,
,,,,,,,,stim/Instruction_adaptive.png,conditions/adaptive.xlsx,test,0.6,0.6,0.6,-0.6,-0.6,right,R,,,,,0,1,1,1,0,85,85,18,,,,,,,,,,,,,,,,,,,,,,,,,,,,,,,,,,,,,,,,,,,,545.1066641999641,None,right,1,1.6161031000083312,545.6070357999997,547.4100992999738,545.6070357999997,546.9096769000171,545.6070357999997,546.9096769000171,545.6070357999997,546.9096769000171,545.6070357999997,546.9096769000171,545.6070357999997,546.9096769000171,546.8756780999247,547.3765494999243,546.8756780999247,547.3765494999243,546.8756780999247,547.3765494999243,546.8756780999247,547.3765494999243,546.8756780999247,547.3765494999243,546.8756780999247,547.3765494999243,546.8756780999247,547.3765494999243,546.8756780999247,547.3765494999243,545.6070357999997,None,547.3765494999243,548.4787667000201,1.290000000000001,548.4946477999911,None,549.2465867999708,None,,,,,,,[1.08616279],2.370000000000002,0.7441860465116279,11022,001,2024_Jan_05_1357,MFTM_A_new1021,2021.2.3,59.767290088547135,
,,,,,,,,stim/Instruction_adaptive.png,conditions/adaptive.xlsx,test,-0.6,-0.6,-0.6,0.6,0.6,left,L,,,,,0,1,1,1,0,86,86,13,,,,,,,,,,,,,,,,,,,,,,,,,,,,,,,,,,,,,,,,,,,,549.7468168999767,None,right,0,1.9115140000358224,550.2472961000167,552.0168459999841,550.2472961000167,551.5324959999416,550.2472961000167,551.5324959999416,550.2472961000167,551.5324959999416,550.2472961000167,551.5324959999416,550.2472961000167,551.5324959999416,551.4991998999612,552.0002733999863,551.4991998999612,552.0002733999863,551.4991998999612,552.0002733999863,551.4991998999612,552.0002733999863,551.4991998999612,552.0002733999863,551.4991998999612,552.0002733999863,551.4991998999612,552.0002733999863,551.4991998999612,552.0002733999863,550.2472961000167,None,552.0002733999863,553.1019106999738,1.270000000000001,553.1186353999656,None,553.8697693999857,None,,,,,,,[1.08781609],2.3100000000000014,0.735632183908046,11022,001,2024_Jan_05_1357,MFTM_A_new1021,2021.2.3,59.767290088547135,
,,,,,,,,stim/Instruction_adaptive.png,conditions/adaptive.xlsx,test,-0.6,-0.6,-0.6,0.6,0.6,left,L,,,,,0,1,1,1,0,87,87,49,,,,,,,,,,,,,,,,,,,,,,,,,,,,,,,,,,,,,,,,,,,,554.3704340999248,None,left,1,1.7764553999295458,554.8707860999275,556.7076683000196,554.8707860999275,556.206749200006,554.8707860999275,556.206749200006,554.8707860999275,556.206749200006,554.8707860999275,556.206749200006,554.8707860999275,556.206749200006,556.1898164999438,556.6901542999549,556.1898164999438,556.6901542999549,556.1898164999438,556.6901542999549,556.1898164999438,556.6901542999549,556.1898164999438,556.6901542999549,556.1898164999438,556.6901542999549,556.1898164999438,556.6901542999549,556.1898164999438,556.6901542999549,554.8707860999275,None,556.6901542999549,None,1.330000000000001,557.7917500999756,None,558.5431602000026,None,,,,,,,[1.08875],2.330000000000002,0.7386363636363636,11022,001,2024_Jan_05_1357,MFTM_A_new1021,2021.2.3,59.767290088547135,
,,,,,,,,stim/Instruction_adaptive.png,conditions/adaptive.xlsx,test,0.6,0.6,0.6,-0.6,-0.6,right,R,,,,,0,1,1,1,0,88,88,10,,,,,,,,,,,,,,,,,,,,,,,,,,,,,,,,,,,,,,,,,,,,559.0444004000165,None,left,0,1.7901586999651045,559.5446616000263,561.3639338000212,559.5446616000263,560.8632666999474,559.5446616000263,560.8632666999474,559.5446616000263,560.8632666999474,559.5446616000263,560.8632666999474,559.5446616000263,560.8632666999474,560.8302818000084,561.3306772999931,560.8302818000084,561.3306772999931,560.8302818000084,561.3306772999931,560.8302818000084,561.3306772999931,560.8302818000084,561.3306772999931,560.8302818000084,561.3306772999931,560.8302818000084,561.3306772999931,560.8302818000084,561.3306772999931,559.5446616000263,None,561.347490599961,None,1.310000000000001,562.4487381000072,None,563.1999647999182,None,,,,,,,[1.08988764],2.2600000000000016,0.7303370786516854,11022,001,2024_Jan_05_1357,MFTM_A_new1021,2021.2.3,59.767290088547135,
,,,,,,,,stim/Instruction_adaptive.png,conditions/adaptive.xlsx,test,0.6,0.6,0.6,-0.6,-0.6,right,R,,,,,0,1,1,1,0,89,89,16,,,,,,,,,,,,,,,,,,,,,,,,,,,,,,,,,,,,,,,,,,,,563.7005093999906,None,right,1,1.9578202998964116,564.2011120999232,566.0713592999382,564.2011120999232,565.5705998999765,564.2011120999232,565.5705998999765,564.2011120999232,565.5705998999765,564.2011120999232,565.5705998999765,564.2011120999232,565.5705998999765,565.5534225000301,566.055201799958,565.5534225000301,566.055201799958,565.5534225000301,566.055201799958,565.5534225000301,566.055201799958,565.5534225000301,566.055201799958,565.5534225000301,566.055201799958,565.5534225000301,566.055201799958,565.5534225000301,566.055201799958,564.2011120999232,None,566.055201799958,567.156074599945,1.370000000000001,567.1721771999728,None,567.9231158000184,None,,,,,,,[1.09033333],2.290000000000002,0.7333333333333333,11022,001,2024_Jan_05_1357,MFTM_A_new1021,2021.2.3,59.767290088547135,
,,,,,,,,stim/Instruction_adaptive.png,conditions/adaptive.xlsx,test,0.6,0.6,0.6,-0.6,-0.6,right,R,,,,,0,1,1,1,0,90,90,76,,,,,,,,,,,,,,,,,,,,,,,,,,,,,,,,,,,,,,,,,,,,568.4241847000085,None,right,1,1.7377765999408439,568.9249723999528,570.7778176999418,568.9249723999528,570.2768602999859,568.9249723999528,570.2768602999859,568.9249723999528,570.2768602999859,568.9249723999528,570.2768602999859,568.9249723999528,570.2768602999859,570.2599638999673,570.7618541999254,570.2599638999673,570.7618541999254,570.2599638999673,570.7618541999254,570.2599638999673,570.7618541999254,570.2599638999673,570.7618541999254,570.2599638999673,570.7618541999254,570.2599638999673,570.7618541999254,570.2599638999673,570.7618541999254,568.9249723999528,None,570.7618541999254,571.8626856999472,1.350000000000001,571.8794282999588,None,572.6304107999895,None,,,,,,,[1.09098901],2.3100000000000014,0.7362637362637363,11022,001,2024_Jan_05_1357,MFTM_A_new1021,2021.2.3,59.767290088547135,
,,,,,,,,stim/Instruction_adaptive.png,conditions/adaptive.xlsx,test,-0.6,-0.6,-0.6,0.6,0.6,left,L,,,,,0,1,1,1,0,91,91,59,,,,,,,,,,,,,,,,,,,,,,,,,,,,,,,,,,,,,,,,,,,,573.1318071000278,None,left,1,1.967310499981977,573.631937499973,575.4692403000081,573.631937499973,574.9673403999768,573.631937499973,574.9673403999768,573.631937499973,574.9673403999768,573.631937499973,574.9673403999768,573.631937499973,574.9673403999768,574.9509989999933,575.4511330999667,574.9509989999933,575.4511330999667,574.9509989999933,575.4511330999667,574.9509989999933,575.4511330999667,574.9509989999933,575.4511330999667,574.9509989999933,575.4511330999667,574.9509989999933,575.4511330999667,574.9509989999933,575.4511330999667,573.631937499973,None,575.4511330999667,None,1.330000000000001,576.553162700031,None,577.3040888999822,None,,,,,,,[1.09184783],2.330000000000002,0.7391304347826086,11022,001,2024_Jan_05_1357,MFTM_A_new1021,2021.2.3,59.767290088547135,
,,,,,,,,stim/Instruction_adaptive.png,conditions/adaptive.xlsx,test,0.6,0.6,0.6,-0.6,-0.6,right,R,,,,,0,1,1,1,0,92,92,96,,,,,,,,,,,,,,,,,,,,,,,,,,,,,,,,,,,,,,,,,,,,577.80479929992,None,right,1,1.4925737999146804,578.3063071999932,580.1252380999504,578.3063071999932,579.6248868999537,578.3063071999932,579.6248868999537,578.3063071999932,579.6248868999537,578.3063071999932,579.6248868999537,578.3063071999932,579.6248868999537,579.6072154999711,580.1093908000039,579.6072154999711,580.1093908000039,579.6072154999711,580.1093908000039,579.6072154999711,580.1093908000039,579.6072154999711,580.1093908000039,579.6072154999711,580.1093908000039,579.6072154999711,580.1093908000039,579.6072154999711,580.1093908000039,578.3063071999932,None,580.0920950999716,581.1937280999264,1.310000000000001,581.21029800002,None,581.9610289999982,None,,,,,,,[1.09290323],2.3500000000000014,0.7419354838709677,11022,001,2024_Jan_05_1357,MFTM_A_new1021,2021.2.3,59.767290088547135,
,,,,,,,,stim/Instruction_adaptive.png,conditions/adaptive.xlsx,test,-0.6,-0.6,-0.6,0.6,0.6,left,L,,,,,0,1,1,1,0,93,93,71,,,,,,,,,,,,,,,,,,,,,,,,,,,,,,,,,,,,,,,,,,,,582.4620416000253,None,left,1,1.4525771000189707,582.9624334999826,584.7657137999777,582.9624334999826,584.2646895999787,582.9624334999826,584.2646895999787,582.9624334999826,584.2646895999787,582.9624334999826,584.2646895999787,582.9624334999826,584.2646895999787,584.2311066000257,584.7317351999227,584.2311066000257,584.7317351999227,584.2311066000257,584.7317351999227,584.2311066000257,584.7317351999227,584.2311066000257,584.7317351999227,584.2311066000257,584.7317351999227,584.2311066000257,584.7317351999227,584.2311066000257,584.7317351999227,582.9624334999826,None,584.7317351999227,585.8337198999943,1.290000000000001,585.8497938999208,None,586.6010143000167,None,,,,,,,[1.09414894],2.370000000000002,0.7446808510638298,11022,001,2024_Jan_05_1357,MFTM_A_new1021,2021.2.3,59.767290088547135,
