arrwidth1,arrwidth2,arrwidth3,arrwidth4,arrwidth5,keyb,type,orientation,instruction_image,block_filename,block_type,arrow11,arrow22,arrow33,arrow44,arrow55,keyb_3,orientation3,trials.thisRepN,trials.thisTrialN,trials.thisN,trials.thisIndex,trials_3.thisRepN,trials_3.thisTrialN,trials_3.thisN,trials_3.thisIndex,trials_2.thisRepN,trials_2.thisTrialN,trials_2.thisN,trials_2.thisIndex,welcome.started,welcome.stopped,key_resp.keys,key_resp.rt,key_resp.started,key_resp.stopped,instruction_example.started,instruction_example.stopped,key_resp_3.keys,key_resp_3.rt,key_resp_3.started,key_resp_3.stopped,instruction_task.started,instruction_task.stopped,key_resp_2.keys,key_resp_2.rt,key_resp_2.started,key_resp_2.stopped,text_2.started,text_2.stopped,A1.started,A1.stopped,A2.started,A2.stopped,A3.started,A3.stopped,A4.started,A4.stopped,A5.started,A5.stopped,key_resp_4.keys,key_resp_4.corr,key_resp_4.rt,key_resp_4.started,key_resp_4.stopped,fb.started,fb.stopped,instruction_block.started,instruction_block.stopped,key_resp_8.keys,key_resp_8.rt,key_resp_8.started,key_resp_8.stopped,text_8.started,text_8.stopped,key_resp_9.keys,key_resp_9.corr,key_resp_9.rt,text_5.started,text_5.stopped,A11_3.started,A11_3.stopped,A22_2.started,A22_2.stopped,A33_2.started,A33_2.stopped,A44_2.started,A44_2.stopped,A55_2.started,A55_2.stopped,M1_3.started,M1_3.stopped,M2_2.started,M2_2.stopped,M3_2.started,M3_2.stopped,M4_2.started,M4_2.stopped,M5_2.started,M5_2.stopped,M6_2.started,M6_2.stopped,M7_2.started,M7_2.stopped,M8_2.started,M8_2.stopped,key_resp_9.started,key_resp_9.stopped,fixation.started,fixation.stopped,ET,fb_3.started,fb_3.stopped,text_9.started,text_9.stopped,fb_4.started,fb_4.stopped,text_7.started,text_7.stopped,endtext.started,endtext.stopped,fixation_ITI,CCC,Acc,participant,session,date,expName,psychopyVersion,frameRate,
,,,,,,,,,,,,,,,,,,,,,,,,,,,,,,11.142087599961087,None,space,9.611906900070608,11.142087599961087,None,,,,,,,,,,,,,,,,,,,,,,,,,,,,,,,,,,,,,,,,,,,,,,,,,,,,,,,,,,,,,,,,,,,,,,,,,,,,,,,,,,,,,,,,,11025,001,2024_Jan_08_0912,MFTM_A_new1021,2021.2.3,59.93425215502135,
,,,,,,,,,,,,,,,,,,,,,,,,,,,,,,,,,,,,20.774291099980474,None,space,25.5153210000135,20.774291099980474,None,,,,,,,,,,,,,,,,,,,,,,,,,,,,,,,,,,,,,,,,,,,,,,,,,,,,,,,,,,,,,,,,,,,,,,,,,,,,,,,,,,,11025,001,2024_Jan_08_0912,MFTM_A_new1021,2021.2.3,59.93425215502135,
,,,,,,,,,,,,,,,,,,,,,,,,,,,,,,,,,,,,,,,,,,46.31129480001982,None,space,11.498831300064921,46.31129480001982,None,,,,,,,,,,,,,,,,,,,,,,,,,,,,,,,,,,,,,,,,,,,,,,,,,,,,,,,,,,,,,,,,,,,,,,,,,,,,,11025,001,2024_Jan_08_0912,MFTM_A_new1021,2021.2.3,59.93425215502135,
0.6,0.6,0.6,-0.6,-0.6,right,3:2,R,,,,,,,,,,,0,0,0,0,,,,,,,,,,,,,,,,,,,,,,,,,,,57.84497360000387,None,57.84497360000387,None,57.84497360000387,None,57.84497360000387,None,57.84497360000387,None,57.84497360000387,None,right,1,1.9484516000375152,57.84497360000387,None,59.83193750004284,None,,,,,,,,,,,,,,,,,,,,,,,,,,,,,,,,,,,,,,,,,,,,,,,,,,,,,,,,,,11025,001,2024_Jan_08_0912,MFTM_A_new1021,2021.2.3,59.93425215502135,
-0.6,-0.6,-0.6,0.6,0.6,left,3:2,L,,,,,,,,,,,0,1,1,1,,,,,,,,,,,,,,,,,,,,,,,,,,,60.582246999954805,None,60.582246999954805,None,60.582246999954805,None,60.582246999954805,None,60.582246999954805,None,60.582246999954805,None,left,1,1.779493499896489,60.582246999954805,None,62.384866400039755,None,,,,,,,,,,,,,,,,,,,,,,,,,,,,,,,,,,,,,,,,,,,,,,,,,,,,,,,,,,11025,001,2024_Jan_08_0912,MFTM_A_new1021,2021.2.3,59.93425215502135,
0.6,0.6,0.6,-0.6,-0.6,right,3:2,R,,,,,,,,,,,1,0,2,0,,,,,,,,,,,,,,,,,,,,,,,,,,,63.13619910005946,None,63.13619910005946,None,63.13619910005946,None,63.13619910005946,None,63.13619910005946,None,63.13619910005946,None,right,1,3.593588399933651,63.13619910005946,None,66.75821390002966,None,,,,,,,,,,,,,,,,,,,,,,,,,,,,,,,,,,,,,,,,,,,,,,,,,,,,,,,,,,11025,001,2024_Jan_08_0912,MFTM_A_new1021,2021.2.3,59.93425215502135,
-0.6,-0.6,-0.6,0.6,0.6,left,3:2,L,,,,,,,,,,,1,1,3,1,,,,,,,,,,,,,,,,,,,,,,,,,,,67.50930290005635,None,67.50930290005635,None,67.50930290005635,None,67.50930290005635,None,67.50930290005635,None,67.50930290005635,None,left,1,1.0764457000186667,67.50930290005635,None,68.6110799999442,None,,,,,,,,,,,,,,,,,,,,,,,,,,,,,,,,,,,,,,,,,,,,,,,,,,,,,,,,,,11025,001,2024_Jan_08_0912,MFTM_A_new1021,2021.2.3,59.93425215502135,
,,,,,,,,stim/Instruction_mask.png,conditions/adaptive.xlsx,practice,-0.6,-0.6,-0.6,0.6,0.6,left,L,,,,,0,0,0,0,0,0,0,23,,,,,,,,,,,,,,,,,,,,,,,,,,,,,,,,,,,,,,69.56219139997847,None,space,33.39957999996841,69.56219139997847,None,103.06290719995741,None,left,1,2.897397799999453,103.4962212999817,None,103.4962212999817,106.50045189994853,103.4962212999817,106.50045189994853,103.4962212999817,106.50045189994853,103.4962212999817,106.50045189994853,103.4962212999817,106.50045189994853,106.48373600002378,106.98456709994934,106.48373600002378,106.98456709994934,106.48373600002378,106.98456709994934,106.48373600002378,106.98456709994934,106.48373600002378,106.98456709994934,106.48373600002378,106.98456709994934,106.48373600002378,106.98456709994934,106.48373600002378,106.98456709994934,103.4962212999817,None,106.98456709994934,106.98456709994934,3,107.00136210001074,None,107.75302049994934,None,,,,,,,,,,11025,001,2024_Jan_08_0912,MFTM_A_new1021,2021.2.3,59.93425215502135,
,,,,,,,,stim/Instruction_mask.png,conditions/adaptive.xlsx,practice,-0.6,-0.6,-0.6,0.6,0.6,left,L,,,,,0,0,0,0,0,1,1,47,,,,,,,,,,,,,,,,,,,,,,,,,,,,,,,,,,,,,,,,,,,,108.2539069999475,None,right,0,2.823797899996862,108.75379810004961,110.75865019997582,108.75379810004961,110.25596880004741,108.75379810004961,110.25596880004741,108.75379810004961,110.25596880004741,108.75379810004961,110.25596880004741,108.75379810004961,110.25596880004741,110.23966329998802,110.74012239999138,110.23966329998802,110.74012239999138,110.23966329998802,110.74012239999138,110.23966329998802,110.74012239999138,110.23966329998802,110.74012239999138,110.23966329998802,110.74012239999138,110.23966329998802,110.74012239999138,110.23966329998802,110.74012239999138,108.75379810004961,None,110.74012239999138,112.2423201999627,1.5,112.25881290005054,None,113.0102805000497,None,,,,,,,,,,11025,001,2024_Jan_08_0912,MFTM_A_new1021,2021.2.3,59.93425215502135,
,,,,,,,,stim/Instruction_mask.png,conditions/adaptive.xlsx,practice,-0.6,-0.6,-0.6,0.6,0.6,left,L,,,,,0,0,0,0,0,2,2,67,,,,,,,,,,,,,,,,,,,,,,,,,,,,,,,,,,,,,,,,,,,,113.51124360004906,None,left,1,2.1820760999107733,114.01154300000053,115.31421390001196,114.01154300000053,114.81285190000199,114.01154300000053,114.81285190000199,114.01154300000053,114.81285190000199,114.01154300000053,114.81285190000199,114.01154300000053,114.81285190000199,114.79620470001828,115.29702719999477,114.79620470001828,115.29702719999477,114.79620470001828,115.29702719999477,114.79620470001828,115.29702719999477,114.79620470001828,115.29702719999477,114.79620470001828,115.29702719999477,114.79620470001828,115.29702719999477,114.79620470001828,115.29702719999477,114.01154300000053,None,115.29702719999477,117.5009824000299,0.8,117.51673559995834,None,118.26803959999233,None,,,,,,,,,,11025,001,2024_Jan_08_0912,MFTM_A_new1021,2021.2.3,59.93425215502135,
,,,,,,,,stim/Instruction_mask.png,conditions/adaptive.xlsx,practice,0.6,0.6,0.6,-0.6,-0.6,right,R,,,,,0,0,0,0,0,3,3,62,,,,,,,,,,,,,,,,,,,,,,,,,,,,,,,,,,,,,,,,,,,,118.76925400004257,None,right,1,1.4126375000923872,119.26928310003132,120.02091800002381,119.26928310003132,119.51976639998611,119.26928310003132,119.51976639998611,119.26928310003132,119.51976639998611,119.26928310003132,119.51976639998611,119.26928310003132,119.51976639998611,119.50310590001754,120.0047872000141,119.50310590001754,120.0047872000141,119.50310590001754,120.0047872000141,119.50310590001754,120.0047872000141,119.50310590001754,120.0047872000141,119.50310590001754,120.0047872000141,119.50310590001754,120.0047872000141,119.50310590001754,120.0047872000141,119.26928310003132,None,120.0047872000141,122.75899949995801,3,122.7748226999538,None,123.52628069999628,None,,,,,,,,,,11025,001,2024_Jan_08_0912,MFTM_A_new1021,2021.2.3,59.93425215502135,
,,,,,,,,stim/Instruction_mask.png,conditions/adaptive.xlsx,practice,,,,,,,,,,,,0,0,0,0,,,,,,,,,,,,,,,,,,,,,,,,,,,,,,,,,,,,,,,,,,,,,,,,,,,,,,,,,,,,,,,,,,,,,,,,,,,,,,,,,,,,,,,,,,124.0602271000389,125.06272369995713,125.04512539994903,125.04512539994903,125.04512539994903,None,,,,11025,001,2024_Jan_08_0912,MFTM_A_new1021,2021.2.3,59.93425215502135,
,,,,,,,,stim/Instruction_adaptive.png,conditions/adaptive.xlsx,test,-0.6,-0.6,-0.6,0.6,0.6,left,L,,,,,0,1,1,1,0,0,0,25,,,,,,,,,,,,,,,,,,,,,,,,,,,,,,,,,,,,,,128.18303680000827,None,space,26.906673999968916,128.18303680000827,None,155.12217430002056,None,left,1,1.5132013000547886,155.62438100005966,None,155.62438100005966,158.62878909998108,155.62438100005966,158.62878909998108,155.62438100005966,158.62878909998108,155.62438100005966,158.62878909998108,155.62438100005966,158.62878909998108,158.61107370001264,159.11190550005995,158.61107370001264,159.11190550005995,158.61107370001264,159.11190550005995,158.61107370001264,159.11190550005995,158.61107370001264,159.11190550005995,158.61107370001264,159.11190550005995,158.61107370001264,159.11190550005995,158.61107370001264,159.11190550005995,155.62438100005966,None,159.0950090000406,159.0950090000406,3,159.12849060003646,None,159.88027219998185,None,,,,,,,0,6.000000000000005,1.0,11025,001,2024_Jan_08_0912,MFTM_A_new1021,2021.2.3,59.93425215502135,
,,,,,,,,stim/Instruction_adaptive.png,conditions/adaptive.xlsx,test,0.6,0.6,0.6,-0.6,-0.6,right,R,,,,,0,1,1,1,0,1,1,44,,,,,,,,,,,,,,,,,,,,,,,,,,,,,,,,,,,,,,,,,,,,160.38096640002914,None,left,0,1.263427099911496,160.88226340000983,161.6345258000074,160.88226340000983,161.13146960001905,160.88226340000983,161.13146960001905,160.88226340000983,161.13146960001905,160.88226340000983,161.13146960001905,160.88226340000983,161.13146960001905,161.11495219997596,161.61533649999183,161.11495219997596,161.61533649999183,161.11495219997596,161.61533649999183,161.11495219997596,161.61533649999183,161.11495219997596,161.61533649999183,161.11495219997596,161.61533649999183,161.11495219997596,161.61533649999183,161.11495219997596,161.61533649999183,160.88226340000983,None,161.61533649999183,162.50032230000943,0.25,162.5166703000432,None,163.2679357000161,None,,,,,,,[0.875],2.570000000000002,0.5,11025,001,2024_Jan_08_0912,MFTM_A_new1021,2021.2.3,59.93425215502135,
,,,,,,,,stim/Instruction_adaptive.png,conditions/adaptive.xlsx,test,-0.6,-0.6,-0.6,0.6,0.6,left,L,,,,,0,1,1,1,0,2,2,5,,,,,,,,,,,,,,,,,,,,,,,,,,,,,,,,,,,,,,,,,,,,163.7688605999574,None,right,0,1.9168740999884903,164.2694295999827,165.889602500014,164.2694295999827,165.38777120003942,164.2694295999827,165.38777120003942,164.2694295999827,165.38777120003942,164.2694295999827,165.38777120003942,164.2694295999827,165.38777120003942,165.3543287999928,165.85567720001563,165.3543287999928,165.85567720001563,165.3543287999928,165.85567720001563,165.3543287999928,165.85567720001563,165.3543287999928,165.85567720001563,165.3543287999928,165.85567720001563,165.3543287999928,165.85567720001563,165.3543287999928,165.85567720001563,164.2694295999827,None,165.85567720001563,166.9067411000142,1.1100000000000008,166.93999820004683,None,167.6917876000516,None,,,,,,,[1.04666667],0.5800000000000001,0.3333333333333333,11025,001,2024_Jan_08_0912,MFTM_A_new1021,2021.2.3,59.93425215502135,
,,,,,,,,stim/Instruction_adaptive.png,conditions/adaptive.xlsx,test,-0.6,-0.6,-0.6,0.6,0.6,left,L,,,,,0,1,1,1,0,3,3,67,,,,,,,,,,,,,,,,,,,,,,,,,,,,,,,,,,,,,,,,,,,,168.19169210002292,None,left,1,1.9492525999667123,168.692596900044,None,168.692596900044,171.69701320002787,168.692596900044,171.69701320002787,168.692596900044,171.69701320002787,168.692596900044,171.69701320002787,168.692596900044,171.69701320002787,171.68119409994688,172.18201650003903,171.68119409994688,172.18201650003903,171.68119409994688,172.18201650003903,171.68119409994688,172.18201650003903,171.68119409994688,172.18201650003903,171.68119409994688,172.18201650003903,171.68119409994688,172.18201650003903,171.68119409994688,172.18201650003903,168.692596900044,None,172.18201650003903,172.18201650003903,3.0000000000000027,172.1977832999546,None,172.9490617000265,None,,,,,,,0,1.660000000000001,0.5,11025,001,2024_Jan_08_0912,MFTM_A_new1021,2021.2.3,59.93425215502135,
,,,,,,,,stim/Instruction_adaptive.png,conditions/adaptive.xlsx,test,0.6,0.6,0.6,-0.6,-0.6,right,R,,,,,0,1,1,1,0,4,4,62,,,,,,,,,,,,,,,,,,,,,,,,,,,,,,,,,,,,,,,,,,,,173.45028280001134,None,right,1,2.1476031999336556,173.9502810999984,176.53761740005575,173.9502810999984,176.03684179997072,173.9502810999984,176.03684179997072,173.9502810999984,176.03684179997072,173.9502810999984,176.03684179997072,173.9502810999984,176.03684179997072,176.00376170000527,176.50403920002282,176.00376170000527,176.50403920002282,176.00376170000527,176.50403920002282,176.00376170000527,176.50403920002282,176.00376170000527,176.50403920002282,176.00376170000527,176.50403920002282,176.00376170000527,176.50403920002282,176.00376170000527,176.50403920002282,173.9502810999984,None,176.52146660001017,None,2.080000000000002,176.95493700006045,None,177.70588519994635,None,,,,,,,[[0.42]],2.1200000000000014,0.6,11025,001,2024_Jan_08_0912,MFTM_A_new1021,2021.2.3,59.93425215502135,
,,,,,,,,stim/Instruction_adaptive.png,conditions/adaptive.xlsx,test,-0.6,-0.6,-0.6,0.6,0.6,left,L,,,,,0,1,1,1,0,5,5,85,,,,,,,,,,,,,,,,,,,,,,,,,,,,,,,,,,,,,,,,,,,,178.20664330001455,None,left,1,1.1832443000748754,178.70729519997258,180.72767050005496,178.70729519997258,180.22704380005598,178.70729519997258,180.22704380005598,178.70729519997258,180.22704380005598,178.70729519997258,180.22704380005598,178.70729519997258,180.22704380005598,180.19359140004963,180.69373339996673,180.19359140004963,180.69373339996673,180.19359140004963,180.69373339996673,180.19359140004963,180.69373339996673,180.19359140004963,180.69373339996673,180.19359140004963,180.69373339996673,180.19359140004963,180.69373339996673,180.19359140004963,180.69373339996673,178.70729519997258,None,180.69373339996673,181.378199400031,1.5100000000000011,181.39531629998237,None,182.1464734999463,None,,,,,,,[0.675],2.450000000000002,0.6666666666666666,11025,001,2024_Jan_08_0912,MFTM_A_new1021,2021.2.3,59.93425215502135,
,,,,,,,,stim/Instruction_adaptive.png,conditions/adaptive.xlsx,test,-0.6,-0.6,-0.6,0.6,0.6,left,L,,,,,0,1,1,1,0,6,6,1,,,,,,,,,,,,,,,,,,,,,,,,,,,,,,,,,,,,,,,,,,,,182.64741289999802,None,left,1,1.390614999923855,183.14743859996088,184.8498918999685,183.14743859996088,184.3490430000238,183.14743859996088,184.3490430000238,183.14743859996088,184.3490430000238,183.14743859996088,184.3490430000238,183.14743859996088,184.3490430000238,184.3331280000275,184.83351340005174,184.3331280000275,184.83351340005174,184.3331280000275,184.83351340005174,184.3331280000275,184.83351340005174,184.3331280000275,184.83351340005174,184.3331280000275,184.83351340005174,184.3331280000275,184.83351340005174,184.3331280000275,184.83351340005174,183.14743859996088,None,184.83351340005174,185.6010901000118,1.2000000000000008,185.61751979996916,None,186.36861759994645,None,,,,,,,[0.76428571],2.700000000000002,0.7142857142857143,11025,001,2024_Jan_08_0912,MFTM_A_new1021,2021.2.3,59.93425215502135,
,,,,,,,,stim/Instruction_adaptive.png,conditions/adaptive.xlsx,test,0.6,0.6,0.6,-0.6,-0.6,right,R,,,,,0,1,1,1,0,7,7,52,,,,,,,,,,,,,,,,,,,,,,,,,,,,,,,,,,,,,,,,,,,,186.870172200026,None,right,1,1.1754908999428153,187.3702524000546,188.89006779994816,187.3702524000546,188.38839800003916,187.3702524000546,188.38839800003916,187.3702524000546,188.38839800003916,187.3702524000546,188.38839800003916,187.3702524000546,188.38839800003916,188.37152249994688,188.87314150005113,188.37152249994688,188.87314150005113,188.37152249994688,188.87314150005113,188.37152249994688,188.87314150005113,188.37152249994688,188.87314150005113,188.37152249994688,188.87314150005113,188.37152249994688,188.87314150005113,188.37152249994688,188.87314150005113,187.3702524000546,None,188.87314150005113,None,1.0100000000000007,189.7405036999844,None,190.4924178000074,None,,,,,,,[0.855],2.910000000000002,0.75,11025,001,2024_Jan_08_0912,MFTM_A_new1021,2021.2.3,59.93425215502135,
,,,,,,,,stim/Instruction_adaptive.png,conditions/adaptive.xlsx,test,0.6,0.6,0.6,-0.6,-0.6,right,R,,,,,0,1,1,1,0,8,8,58,,,,,,,,,,,,,,,,,,,,,,,,,,,,,,,,,,,,,,,,,,,,190.9921377999708,None,left,0,1.0608819000190124,191.4929544000188,192.87846879998688,191.4929544000188,192.37807219999377,191.4929544000188,192.37807219999377,191.4929544000188,192.37807219999377,191.4929544000188,192.37807219999377,191.4929544000188,192.37807219999377,192.36142400000244,192.86165199999232,192.36142400000244,192.86165199999232,192.36142400000244,192.86165199999232,192.36142400000244,192.86165199999232,192.36142400000244,192.86165199999232,192.36142400000244,192.86165199999232,192.36142400000244,192.86165199999232,192.36142400000244,192.86165199999232,191.4929544000188,None,192.86165199999232,None,0.8800000000000006,193.8128758999519,None,194.564322500024,None,,,,,,,[0.94],2.4000000000000017,0.6666666666666666,11025,001,2024_Jan_08_0912,MFTM_A_new1021,2021.2.3,59.93425215502135,
,,,,,,,,stim/Instruction_adaptive.png,conditions/adaptive.xlsx,test,0.6,0.6,0.6,-0.6,-0.6,right,R,,,,,0,1,1,1,0,9,9,42,,,,,,,,,,,,,,,,,,,,,,,,,,,,,,,,,,,,,,,,,,,,195.06548850005493,None,right,1,1.2923640001099557,195.56557430000976,197.31912190001458,195.56557430000976,196.81757820001803,195.56557430000976,196.81757820001803,195.56557430000976,196.81757820001803,195.56557430000976,196.81757820001803,195.56557430000976,196.81757820001803,196.80174779996742,197.3016488000285,196.80174779996742,197.3016488000285,196.80174779996742,197.3016488000285,196.80174779996742,197.3016488000285,196.80174779996742,197.3016488000285,196.80174779996742,197.3016488000285,196.80174779996742,197.3016488000285,196.80174779996742,197.3016488000285,195.56557430000976,None,197.3016488000285,None,1.2500000000000009,198.28635680000298,None,199.03753970004618,None,,,,,,,[0.971],2.600000000000002,0.7,11025,001,2024_Jan_08_0912,MFTM_A_new1021,2021.2.3,59.93425215502135,
,,,,,,,,stim/Instruction_adaptive.png,conditions/adaptive.xlsx,test,-0.6,-0.6,-0.6,0.6,0.6,left,L,,,,,0,1,1,1,0,10,10,21,,,,,,,,,,,,,,,,,,,,,,,,,,,,,,,,,,,,,,,,,,,,199.53924630000256,None,right,0,1.4104521000990644,200.03937360004056,201.64305720000993,200.03937360004056,201.1407160999952,200.03937360004056,201.1407160999952,200.03937360004056,201.1407160999952,200.03937360004056,201.1407160999952,200.03937360004056,201.1407160999952,201.10744759999216,201.60803110001143,201.10744759999216,201.60803110001143,201.10744759999216,201.60803110001143,201.10744759999216,201.60803110001143,201.10744759999216,201.60803110001143,201.10744759999216,201.60803110001143,201.10744759999216,201.60803110001143,201.10744759999216,201.60803110001143,200.03937360004056,None,201.60803110001143,202.62631600000896,1.0900000000000007,202.64298310002778,None,203.39483480004128,None,,,,,,,[1.01090909],2.110000000000001,0.6363636363636364,11025,001,2024_Jan_08_0912,MFTM_A_new1021,2021.2.3,59.93425215502135,
,,,,,,,,stim/Instruction_adaptive.png,conditions/adaptive.xlsx,test,-0.6,-0.6,-0.6,0.6,0.6,left,L,,,,,0,1,1,1,0,11,11,11,,,,,,,,,,,,,,,,,,,,,,,,,,,,,,,,,,,,,,,,,,,,203.89523340004962,None,left,1,1.5190385000314564,204.39547700004186,206.4163137000287,204.39547700004186,205.91492749995086,204.39547700004186,205.91492749995086,204.39547700004186,205.91492749995086,204.39547700004186,205.91492749995086,204.39547700004186,205.91492749995086,205.89779409999028,206.39942499995232,205.89779409999028,206.39942499995232,205.89779409999028,206.39942499995232,205.89779409999028,206.39942499995232,205.89779409999028,206.39942499995232,205.89779409999028,206.39942499995232,205.89779409999028,206.39942499995232,205.89779409999028,206.39942499995232,204.39547700004186,None,206.39942499995232,207.3840052000014,1.5200000000000011,207.3999352999963,None,208.15171180001926,None,,,,,,,[[0.98]],2.3000000000000016,0.6666666666666666,11025,001,2024_Jan_08_0912,MFTM_A_new1021,2021.2.3,59.93425215502135,
,,,,,,,,stim/Instruction_adaptive.png,conditions/adaptive.xlsx,test,-0.6,-0.6,-0.6,0.6,0.6,left,L,,,,,0,1,1,1,0,12,12,43,,,,,,,,,,,,,,,,,,,,,,,,,,,,,,,,,,,,,,,,,,,,208.65248599997722,None,left,1,1.6965562000405043,209.15350450004917,211.0051373000024,209.15350450004917,210.50457600003574,209.15350450004917,210.50457600003574,209.15350450004917,210.50457600003574,209.15350450004917,210.50457600003574,209.15350450004917,210.50457600003574,210.4710238999687,210.97167460003402,210.4710238999687,210.97167460003402,210.4710238999687,210.97167460003402,210.4710238999687,210.97167460003402,210.4710238999687,210.97167460003402,210.4710238999687,210.97167460003402,210.4710238999687,210.97167460003402,210.4710238999687,210.97167460003402,209.15350450004917,None,210.97167460003402,211.99083739996422,1.340000000000001,212.02352419996168,None,212.77520729997195,None,,,,,,,[1.02],2.4600000000000017,0.6923076923076923,11025,001,2024_Jan_08_0912,MFTM_A_new1021,2021.2.3,59.93425215502135,
,,,,,,,,stim/Instruction_adaptive.png,conditions/adaptive.xlsx,test,-0.6,-0.6,-0.6,0.6,0.6,left,L,,,,,0,1,1,1,0,13,13,19,,,,,,,,,,,,,,,,,,,,,,,,,,,,,,,,,,,,,,,,,,,,213.27603029995225,None,right,0,0.9053435999667272,213.77669189998414,215.47885279997718,213.77669189998414,214.97866659995634,213.77669189998414,214.97866659995634,213.77669189998414,214.97866659995634,213.77669189998414,214.97866659995634,213.77669189998414,214.97866659995634,214.9622502999846,215.461959999986,214.9622502999846,215.461959999986,214.9622502999846,215.461959999986,214.9622502999846,215.461959999986,214.9622502999846,215.461959999986,214.9622502999846,215.461959999986,214.9622502999846,215.461959999986,214.9622502999846,215.461959999986,213.77669189998414,None,215.461959999986,216.5140280999476,1.2000000000000008,216.52957410004456,None,217.28174230002332,None,,,,,,,[1.04],2.0500000000000016,0.6428571428571429,11025,001,2024_Jan_08_0912,MFTM_A_new1021,2021.2.3,59.93425215502135,
,,,,,,,,stim/Instruction_adaptive.png,conditions/adaptive.xlsx,test,-0.6,-0.6,-0.6,0.6,0.6,left,L,,,,,0,1,1,1,0,14,14,63,,,,,,,,,,,,,,,,,,,,,,,,,,,,,,,,,,,,,,,,,,,,217.78249410004355,None,left,1,1.3039036999689415,218.28250940004364,220.3867828999646,218.28250940004364,219.88582890003454,218.28250940004364,219.88582890003454,218.28250940004364,219.88582890003454,218.28250940004364,219.88582890003454,218.28250940004364,219.88582890003454,219.8519783000229,220.35250719997566,219.8519783000229,220.35250719997566,219.8519783000229,220.35250719997566,219.8519783000229,220.35250719997566,219.8519783000229,220.35250719997566,219.8519783000229,220.35250719997566,219.8519783000229,220.35250719997566,219.8519783000229,220.35250719997566,218.28250940004364,None,220.35250719997566,221.270413500024,1.5900000000000012,221.28713399998378,None,222.0384053000016,None,,,,,,,[[0.91]],2.2100000000000017,0.6666666666666666,11025,001,2024_Jan_08_0912,MFTM_A_new1021,2021.2.3,59.93425215502135,
,,,,,,,,stim/Instruction_adaptive.png,conditions/adaptive.xlsx,test,-0.6,-0.6,-0.6,0.6,0.6,left,L,,,,,0,1,1,1,0,15,15,55,,,,,,,,,,,,,,,,,,,,,,,,,,,,,,,,,,,,,,,,,,,,222.54001939995214,None,left,1,1.3699375999858603,223.04030580003746,224.9608790000202,223.04030580003746,224.47562250006013,223.04030580003746,224.47562250006013,223.04030580003746,224.47562250006013,223.04030580003746,224.47562250006013,223.04030580003746,224.47562250006013,224.44251870003063,224.94266349996906,224.44251870003063,224.94266349996906,224.44251870003063,224.94266349996906,224.44251870003063,224.94266349996906,224.44251870003063,224.94266349996906,224.44251870003063,224.94266349996906,224.44251870003063,224.94266349996906,224.44251870003063,224.94266349996906,223.04030580003746,None,224.94266349996906,225.97738799999934,1.420000000000001,225.99450120003894,None,226.74512720003258,None,,,,,,,[1.034375],2.3400000000000016,0.6875,11025,001,2024_Jan_08_0912,MFTM_A_new1021,2021.2.3,59.93425215502135,
,,,,,,,,stim/Instruction_adaptive.png,conditions/adaptive.xlsx,test,0.6,0.6,0.6,-0.6,-0.6,right,R,,,,,0,1,1,1,0,16,16,76,,,,,,,,,,,,,,,,,,,,,,,,,,,,,,,,,,,,,,,,,,,,227.24698719999287,None,left,0,1.4465833000140265,227.74730189994443,229.55010330001824,227.74730189994443,229.0499518000288,227.74730189994443,229.0499518000288,227.74730189994443,229.0499518000288,227.74730189994443,229.0499518000288,227.74730189994443,229.0499518000288,229.03191480005626,229.53276840003673,229.03191480005626,229.53276840003673,229.03191480005626,229.53276840003673,229.03191480005626,229.53276840003673,229.03191480005626,229.53276840003673,229.03191480005626,229.53276840003673,229.03191480005626,229.53276840003673,229.03191480005626,229.53276840003673,227.74730189994443,None,229.53276840003673,230.58641180000268,1.300000000000001,230.60035720001906,None,231.3521430999972,None,,,,,,,[1.04411765],1.9800000000000013,0.6470588235294118,11025,001,2024_Jan_08_0912,MFTM_A_new1021,2021.2.3,59.93425215502135,
,,,,,,,,stim/Instruction_adaptive.png,conditions/adaptive.xlsx,test,-0.6,-0.6,-0.6,0.6,0.6,left,L,,,,,0,1,1,1,0,17,17,99,,,,,,,,,,,,,,,,,,,,,,,,,,,,,,,,,,,,,,,,,,,,231.85374030005187,None,left,1,1.9845142000121996,232.3535865000449,234.52584759995807,232.3535865000449,234.02328860003036,232.3535865000449,234.02328860003036,232.3535865000449,234.02328860003036,232.3535865000449,234.02328860003036,232.3535865000449,234.02328860003036,234.00666459999047,234.50674330000766,234.00666459999047,234.50674330000766,234.00666459999047,234.50674330000766,234.00666459999047,234.50674330000766,234.00666459999047,234.50674330000766,234.00666459999047,234.50674330000766,234.00666459999047,234.50674330000766,234.00666459999047,234.50674330000766,232.3535865000449,None,234.50674330000766,235.34364700003061,1.6700000000000013,235.3761303999927,None,236.1263882999774,None,,,,,,,[[0.83]],2.1200000000000014,0.6666666666666666,11025,001,2024_Jan_08_0912,MFTM_A_new1021,2021.2.3,59.93425215502135,
,,,,,,,,stim/Instruction_adaptive.png,conditions/adaptive.xlsx,test,0.6,0.6,0.6,-0.6,-0.6,right,R,,,,,0,1,1,1,0,18,18,18,,,,,,,,,,,,,,,,,,,,,,,,,,,,,,,,,,,,,,,,,,,,236.62678679998498,None,right,1,1.7700047000544146,237.12813099997584,239.14706190000288,237.12813099997584,238.64703240001108,237.12813099997584,238.64703240001108,237.12813099997584,238.64703240001108,237.12813099997584,238.64703240001108,237.12813099997584,238.64703240001108,238.61299030005466,239.11431370000355,238.61299030005466,239.11431370000355,238.61299030005466,239.11431370000355,238.61299030005466,239.11431370000355,238.61299030005466,239.11431370000355,238.61299030005466,239.11431370000355,238.61299030005466,239.11431370000355,238.61299030005466,239.11431370000355,237.12813099997584,None,239.11431370000355,240.1156565999845,1.5100000000000011,240.1325348999817,None,240.88282709999476,None,,,,,,,[[0.99]],2.2400000000000015,0.6842105263157895,11025,001,2024_Jan_08_0912,MFTM_A_new1021,2021.2.3,59.93425215502135,
,,,,,,,,stim/Instruction_adaptive.png,conditions/adaptive.xlsx,test,-0.6,-0.6,-0.6,0.6,0.6,left,L,,,,,0,1,1,1,0,19,19,73,,,,,,,,,,,,,,,,,,,,,,,,,,,,,,,,,,,,,,,,,,,,241.38392950000707,None,left,1,1.5250852000899613,241.88491020002402,243.7872129000025,241.88491020002402,243.28687229997013,241.88491020002402,243.28687229997013,241.88491020002402,243.28687229997013,241.88491020002402,243.28687229997013,241.88491020002402,243.28687229997013,243.25397439999506,243.75405900005717,243.25397439999506,243.75405900005717,243.25397439999506,243.75405900005717,243.25397439999506,243.75405900005717,243.25397439999506,243.75405900005717,243.25397439999506,243.75405900005717,243.25397439999506,243.75405900005717,243.25397439999506,243.75405900005717,241.88491020002402,None,243.75405900005717,244.78939379996154,1.390000000000001,244.8225298000034,None,245.5732898999704,None,,,,,,,[1.034],2.3400000000000016,0.7,11025,001,2024_Jan_08_0912,MFTM_A_new1021,2021.2.3,59.93425215502135,
,,,,,,,,stim/Instruction_adaptive.png,conditions/adaptive.xlsx,test,0.6,0.6,0.6,-0.6,-0.6,right,R,,,,,0,1,1,1,0,20,20,96,,,,,,,,,,,,,,,,,,,,,,,,,,,,,,,,,,,,,,,,,,,,246.075013600057,None,right,1,1.4753976999782026,246.57476560003124,248.37712469999678,246.57476560003124,247.87654039997142,246.57476560003124,247.87654039997142,246.57476560003124,247.87654039997142,246.57476560003124,247.87654039997142,246.57476560003124,247.87654039997142,247.86107089999132,248.36107220000122,247.86107089999132,248.36107220000122,247.86107089999132,248.36107220000122,247.86107089999132,248.36107220000122,247.86107089999132,248.36107220000122,247.86107089999132,248.36107220000122,247.86107089999132,248.36107220000122,247.86107089999132,248.36107220000122,246.57476560003124,None,248.36107220000122,249.41276400000788,1.300000000000001,249.42899269994814,None,250.18058469996322,None,,,,,,,[1.04190476],2.4300000000000015,0.7142857142857143,11025,001,2024_Jan_08_0912,MFTM_A_new1021,2021.2.3,59.93425215502135,
,,,,,,,,stim/Instruction_adaptive.png,conditions/adaptive.xlsx,test,-0.6,-0.6,-0.6,0.6,0.6,left,L,,,,,0,1,1,1,0,21,21,9,,,,,,,,,,,,,,,,,,,,,,,,,,,,,,,,,,,,,,,,,,,,250.68142210005317,None,left,1,1.9560786000220105,251.18182619998697,252.90149309998378,251.18182619998697,252.4008532000007,251.18182619998697,252.4008532000007,251.18182619998697,252.4008532000007,251.18182619998697,252.4008532000007,251.18182619998697,252.4008532000007,252.3842875000555,252.88484930002596,252.3842875000555,252.88484930002596,252.3842875000555,252.88484930002596,252.3842875000555,252.88484930002596,252.3842875000555,252.88484930002596,252.3842875000555,252.88484930002596,252.3842875000555,252.88484930002596,252.3842875000555,252.88484930002596,251.18182619998697,None,252.88484930002596,253.9363475999562,1.2200000000000009,253.96896830003243,None,254.72088150004856,None,,,,,,,[1.05272727],2.520000000000002,0.7272727272727273,11025,001,2024_Jan_08_0912,MFTM_A_new1021,2021.2.3,59.93425215502135,
,,,,,,,,stim/Instruction_adaptive.png,conditions/adaptive.xlsx,test,0.6,0.6,0.6,-0.6,-0.6,right,R,,,,,0,1,1,1,0,22,22,2,,,,,,,,,,,,,,,,,,,,,,,,,,,,,,,,,,,,,,,,,,,,255.2214404999977,None,right,1,1.527710200054571,255.72206289996393,257.37413650006056,255.72206289996393,256.87334070005454,255.72206289996393,256.87334070005454,255.72206289996393,256.87334070005454,255.72206289996393,256.87334070005454,255.72206289996393,256.87334070005454,256.8566005999455,257.3577313000569,256.8566005999455,257.3577313000569,256.8566005999455,257.3577313000569,256.8566005999455,257.3577313000569,256.8566005999455,257.3577313000569,256.8566005999455,257.3577313000569,256.8566005999455,257.3577313000569,256.8566005999455,257.3577313000569,255.72206289996393,None,257.3577313000569,258.4257858999772,1.1500000000000008,258.4423091999488,None,259.1951951000374,None,,,,,,,[1.06565217],2.600000000000002,0.7391304347826086,11025,001,2024_Jan_08_0912,MFTM_A_new1021,2021.2.3,59.93425215502135,
,,,,,,,,stim/Instruction_adaptive.png,conditions/adaptive.xlsx,test,-0.6,-0.6,-0.6,0.6,0.6,left,L,,,,,0,1,1,1,0,23,23,33,,,,,,,,,,,,,,,,,,,,,,,,,,,,,,,,,,,,,,,,,,,,259.6949177000206,None,right,0,1.1831173999235034,260.1948159999447,261.7978645999683,260.1948159999447,261.297139900038,260.1948159999447,261.297139900038,260.1948159999447,261.297139900038,260.1948159999447,261.297139900038,260.1948159999447,261.297139900038,261.26431490003597,261.76464840001427,261.26431490003597,261.76464840001427,261.26431490003597,261.76464840001427,261.26431490003597,261.76464840001427,261.26431490003597,261.76464840001427,261.26431490003597,261.76464840001427,261.26431490003597,261.76464840001427,261.26431490003597,261.76464840001427,260.1948159999447,None,261.76464840001427,262.8498218000168,1.0900000000000007,262.8648559000576,None,263.6171709999908,None,,,,,,,[1.08],2.3800000000000017,0.7083333333333334,11025,001,2024_Jan_08_0912,MFTM_A_new1021,2021.2.3,59.93425215502135,
,,,,,,,,stim/Instruction_adaptive.png,conditions/adaptive.xlsx,test,0.6,0.6,0.6,-0.6,-0.6,right,R,,,,,0,1,1,1,0,24,24,26,,,,,,,,,,,,,,,,,,,,,,,,,,,,,,,,,,,,,,,,,,,,264.1175572000211,None,right,1,1.2320146000711247,264.618130799965,266.3872994000558,264.618130799965,265.8873326999601,264.618130799965,265.8873326999601,264.618130799965,265.8873326999601,264.618130799965,265.8873326999601,264.618130799965,265.8873326999601,265.85358170000836,266.35450819996186,265.85358170000836,266.35450819996186,265.85358170000836,266.35450819996186,265.85358170000836,266.35450819996186,265.85358170000836,266.35450819996186,265.85358170000836,266.35450819996186,265.85358170000836,266.35450819996186,265.85358170000836,266.35450819996186,264.618130799965,None,266.35450819996186,267.4560041000368,1.260000000000001,267.47290729999077,None,268.224623600021,None,,,,,,,[1.0864],2.4600000000000017,0.72,11025,001,2024_Jan_08_0912,MFTM_A_new1021,2021.2.3,59.93425215502135,
,,,,,,,,stim/Instruction_adaptive.png,conditions/adaptive.xlsx,test,-0.6,-0.6,-0.6,0.6,0.6,left,L,,,,,0,1,1,1,0,25,25,97,,,,,,,,,,,,,,,,,,,,,,,,,,,,,,,,,,,,,,,,,,,,268.7248668000102,None,left,1,1.4971406999975443,269.22500720003154,270.9282378000207,269.22500720003154,270.42665409995243,269.22500720003154,270.42665409995243,269.22500720003154,270.42665409995243,269.22500720003154,270.42665409995243,269.22500720003154,270.42665409995243,270.4106509999838,270.91070949996356,270.4106509999838,270.91070949996356,270.4106509999838,270.91070949996356,270.4106509999838,270.91070949996356,270.4106509999838,270.91070949996356,270.4106509999838,270.91070949996356,270.4106509999838,270.91070949996356,270.4106509999838,270.91070949996356,269.22500720003154,None,270.91070949996356,272.01226270000916,1.2000000000000008,272.0288270000601,None,272.78063799999654,None,,,,,,,[1.09461538],2.530000000000002,0.7307692307692307,11025,001,2024_Jan_08_0912,MFTM_A_new1021,2021.2.3,59.93425215502135,
,,,,,,,,stim/Instruction_adaptive.png,conditions/adaptive.xlsx,test,-0.6,-0.6,-0.6,0.6,0.6,left,L,,,,,0,1,1,1,0,26,26,79,,,,,,,,,,,,,,,,,,,,,,,,,,,,,,,,,,,,,,,,,,,,273.280972699984,None,left,1,1.0846146000549197,273.78239189996384,275.4343849000288,273.78239189996384,274.93410049995873,273.78239189996384,274.93410049995873,273.78239189996384,274.93410049995873,273.78239189996384,274.93410049995873,273.78239189996384,274.93410049995873,274.89995840005577,275.4013919000281,274.89995840005577,275.4013919000281,274.89995840005577,275.4013919000281,274.89995840005577,275.4013919000281,274.89995840005577,275.4013919000281,274.89995840005577,275.4013919000281,274.89995840005577,275.4013919000281,274.89995840005577,275.4013919000281,273.78239189996384,None,275.4013919000281,276.51945040002465,1.1400000000000008,276.53596959996503,None,277.28696559998207,None,,,,,,,[1.10444444],2.600000000000002,0.7407407407407407,11025,001,2024_Jan_08_0912,MFTM_A_new1021,2021.2.3,59.93425215502135,
,,,,,,,,stim/Instruction_adaptive.png,conditions/adaptive.xlsx,test,0.6,0.6,0.6,-0.6,-0.6,right,R,,,,,0,1,1,1,0,27,27,32,,,,,,,,,,,,,,,,,,,,,,,,,,,,,,,,,,,,,,,,,,,,277.78770019998774,None,right,1,0.8179239999735728,278.28822750004474,279.8916616999777,278.28822750004474,279.3903106000507,278.28822750004474,279.3903106000507,278.28822750004474,279.3903106000507,278.28822750004474,279.3903106000507,278.28822750004474,279.3903106000507,279.3566441000439,279.8580170000205,279.3566441000439,279.8580170000205,279.3566441000439,279.8580170000205,279.3566441000439,279.8580170000205,279.3566441000439,279.8580170000205,279.3566441000439,279.8580170000205,279.3566441000439,279.8580170000205,279.3566441000439,279.8580170000205,278.28822750004474,None,279.8580170000205,280.97822229994927,1.0900000000000007,280.99234830006026,None,281.74425670003984,None,,,,,,,[1.11535714],2.660000000000002,0.75,11025,001,2024_Jan_08_0912,MFTM_A_new1021,2021.2.3,59.93425215502135,
,,,,,,,,stim/Instruction_adaptive.png,conditions/adaptive.xlsx,test,-0.6,-0.6,-0.6,0.6,0.6,left,L,,,,,0,1,1,1,0,28,28,81,,,,,,,,,,,,,,,,,,,,,,,,,,,,,,,,,,,,,,,,,,,,282.2448855000548,None,left,1,1.3209729000227526,282.7449177999515,284.2974610000383,282.7449177999515,283.79710620001424,282.7449177999515,283.79710620001424,282.7449177999515,283.79710620001424,282.7449177999515,283.79710620001424,282.7449177999515,283.79710620001424,283.7641140000196,284.26473099994473,283.7641140000196,284.26473099994473,283.7641140000196,284.26473099994473,283.7641140000196,284.26473099994473,283.7641140000196,284.26473099994473,283.7641140000196,284.26473099994473,283.7641140000196,284.26473099994473,283.7641140000196,284.26473099994473,282.7449177999515,None,284.26473099994473,285.3996313000098,1.0400000000000007,285.4153487000149,None,286.1674730000086,None,,,,,,,[1.12724138],2.720000000000002,0.7586206896551724,11025,001,2024_Jan_08_0912,MFTM_A_new1021,2021.2.3,59.93425215502135,
,,,,,,,,stim/Instruction_adaptive.png,conditions/adaptive.xlsx,test,0.6,0.6,0.6,-0.6,-0.6,right,R,,,,,0,1,1,1,0,29,29,54,,,,,,,,,,,,,,,,,,,,,,,,,,,,,,,,,,,,,,,,,,,,286.6675591999665,None,right,1,1.1137595999753103,287.1681455000071,288.6712183000054,287.1681455000071,288.16988010006025,287.1681455000071,288.16988010006025,287.1681455000071,288.16988010006025,287.1681455000071,288.16988010006025,287.1681455000071,288.16988010006025,288.1537448000163,288.653790100012,288.1537448000163,288.653790100012,288.1537448000163,288.653790100012,288.1537448000163,288.653790100012,288.1537448000163,288.653790100012,288.1537448000163,288.653790100012,288.1537448000163,288.653790100012,288.1537448000163,288.653790100012,287.1681455000071,None,288.653790100012,289.806180799962,1.0000000000000007,289.82204350002576,None,290.57315029995516,None,,,,,,,[1.13966667],2.7700000000000022,0.7666666666666667,11025,001,2024_Jan_08_0912,MFTM_A_new1021,2021.2.3,59.93425215502135,
,,,,,,,,stim/Instruction_adaptive.png,conditions/adaptive.xlsx,test,-0.6,-0.6,-0.6,0.6,0.6,left,L,,,,,0,1,1,1,0,30,30,3,,,,,,,,,,,,,,,,,,,,,,,,,,,,,,,,,,,,,,,,,,,,291.0749105999712,None,left,1,0.9793185000307858,291.57462840003427,293.04352359997574,291.57462840003427,292.54374530003406,291.57462840003427,292.54374530003406,291.57462840003427,292.54374530003406,291.57462840003427,292.54374530003406,291.57462840003427,292.54374530003406,292.51011250005104,293.0103919999674,292.51011250005104,293.0103919999674,292.51011250005104,293.0103919999674,292.51011250005104,293.0103919999674,292.51011250005104,293.0103919999674,292.51011250005104,293.0103919999674,292.51011250005104,293.0103919999674,292.51011250005104,293.0103919999674,291.57462840003427,None,293.0103919999674,294.16212500003166,0.9600000000000006,294.19518319994677,None,294.9471187000163,None,,,,,,,[1.15258065],2.830000000000002,0.7741935483870968,11025,001,2024_Jan_08_0912,MFTM_A_new1021,2021.2.3,59.93425215502135,
,,,,,,,,stim/Instruction_adaptive.png,conditions/adaptive.xlsx,test,-0.6,-0.6,-0.6,0.6,0.6,left,L,,,,,0,1,1,1,0,31,31,45,,,,,,,,,,,,,,,,,,,,,,,,,,,,,,,,,,,,,,,,,,,,295.4472273000283,None,left,1,1.1985529999947175,295.94768079998903,297.38335669995286,295.94768079998903,296.8827775999671,295.94768079998903,296.8827775999671,295.94768079998903,296.8827775999671,295.94768079998903,296.8827775999671,295.94768079998903,296.8827775999671,296.86585209995974,297.3674570999574,296.86585209995974,297.3674570999574,296.86585209995974,297.3674570999574,296.86585209995974,297.3674570999574,296.86585209995974,297.3674570999574,296.86585209995974,297.3674570999574,296.86585209995974,297.3674570999574,296.86585209995974,297.3674570999574,295.94768079998903,None,297.3674570999574,298.5356961999787,0.9300000000000006,298.55234459997155,None,299.3037289000349,None,,,,,,,[1.165625],2.880000000000002,0.78125,11025,001,2024_Jan_08_0912,MFTM_A_new1021,2021.2.3,59.93425215502135,
,,,,,,,,stim/Instruction_adaptive.png,conditions/adaptive.xlsx,test,0.6,0.6,0.6,-0.6,-0.6,right,R,,,,,0,1,1,1,0,32,32,38,,,,,,,,,,,,,,,,,,,,,,,,,,,,,,,,,,,,,,,,,,,,299.80413679999765,None,right,1,0.8895367999793962,300.30432700004894,301.7077482000459,300.30432700004894,301.20540299999993,300.30432700004894,301.20540299999993,300.30432700004894,301.20540299999993,300.30432700004894,301.20540299999993,300.30432700004894,301.20540299999993,301.1722355999518,301.6738344000187,301.1722355999518,301.6738344000187,301.1722355999518,301.6738344000187,301.1722355999518,301.6738344000187,301.1722355999518,301.6738344000187,301.1722355999518,301.6738344000187,301.1722355999518,301.6738344000187,301.1722355999518,301.6738344000187,300.30432700004894,None,301.6738344000187,302.8592281000456,0.8900000000000006,302.87495590001345,None,303.6259798000101,None,,,,,,,[1.17909091],2.9300000000000024,0.7878787878787878,11025,001,2024_Jan_08_0912,MFTM_A_new1021,2021.2.3,59.93425215502135,
,,,,,,,,stim/Instruction_adaptive.png,conditions/adaptive.xlsx,test,-0.6,-0.6,-0.6,0.6,0.6,left,L,,,,,0,1,1,1,0,33,33,15,,,,,,,,,,,,,,,,,,,,,,,,,,,,,,,,,,,,,,,,,,,,304.1265998999588,None,right,0,1.093988599954173,304.62788569997065,305.99670190003235,304.62788569997065,305.49533549998887,304.62788569997065,305.49533549998887,304.62788569997065,305.49533549998887,304.62788569997065,305.49533549998887,304.62788569997065,305.49533549998887,305.4792047999799,305.9793274999829,305.4792047999799,305.9793274999829,305.4792047999799,305.9793274999829,305.4792047999799,305.9793274999829,305.4792047999799,305.9793274999829,305.4792047999799,305.9793274999829,305.4792047999799,305.9793274999829,305.4792047999799,305.9793274999829,304.62788569997065,None,305.9634701999603,307.1647923999699,0.8600000000000005,307.18158620002214,None,307.9329624000238,None,,,,,,,[1.19264706],2.790000000000002,0.7647058823529411,11025,001,2024_Jan_08_0912,MFTM_A_new1021,2021.2.3,59.93425215502135,
,,,,,,,,stim/Instruction_adaptive.png,conditions/adaptive.xlsx,test,0.6,0.6,0.6,-0.6,-0.6,right,R,,,,,0,1,1,1,0,34,34,28,,,,,,,,,,,,,,,,,,,,,,,,,,,,,,,,,,,,,,,,,,,,308.43455759994686,None,left,0,1.156571100000292,308.93386089999694,310.38696030003484,308.93386089999694,309.8851242000237,308.93386089999694,309.8851242000237,308.93386089999694,309.8851242000237,308.93386089999694,309.8851242000237,308.93386089999694,309.8851242000237,309.8696185000008,310.3701711000176,309.8696185000008,310.3701711000176,309.8696185000008,310.3701711000176,309.8696185000008,310.3701711000176,309.8696185000008,310.3701711000176,309.8696185000008,310.3701711000176,309.8696185000008,310.3701711000176,309.8696185000008,310.3701711000176,308.93386089999694,None,310.3701711000176,None,0.9500000000000006,311.5882687000558,None,312.34099109994713,None,,,,,,,[1.20285714],2.650000000000002,0.7428571428571429,11025,001,2024_Jan_08_0912,MFTM_A_new1021,2021.2.3,59.93425215502135,
,,,,,,,,stim/Instruction_adaptive.png,conditions/adaptive.xlsx,test,-0.6,-0.6,-0.6,0.6,0.6,left,L,,,,,0,1,1,1,0,35,35,95,,,,,,,,,,,,,,,,,,,,,,,,,,,,,,,,,,,,,,,,,,,,312.84020960005,None,left,1,1.876404600101523,313.3413786999881,314.89384859998245,313.3413786999881,314.3917076999787,313.3413786999881,314.3917076999787,313.3413786999881,314.3917076999787,313.3413786999881,314.3917076999787,313.3413786999881,314.3917076999787,314.3752207000507,314.8760175999487,314.3752207000507,314.8760175999487,314.3752207000507,314.8760175999487,314.3752207000507,314.8760175999487,314.3752207000507,314.8760175999487,314.3752207000507,314.8760175999487,314.3752207000507,314.8760175999487,314.3752207000507,314.8760175999487,313.3413786999881,None,314.8760175999487,316.0949264999945,1.0500000000000007,316.1110103999963,None,316.86292640003376,None,,,,,,,[1.20972222],2.700000000000002,0.75,11025,001,2024_Jan_08_0912,MFTM_A_new1021,2021.2.3,59.93425215502135,
,,,,,,,,stim/Instruction_adaptive.png,conditions/adaptive.xlsx,test,0.6,0.6,0.6,-0.6,-0.6,right,R,,,,,0,1,1,1,0,36,36,70,,,,,,,,,,,,,,,,,,,,,,,,,,,,,,,,,,,,,,,,,,,,317.3640109000262,None,right,1,1.4513225000118837,317.8636979999719,319.38266849995125,317.8636979999719,318.8818610999733,317.8636979999719,318.8818610999733,317.8636979999719,318.8818610999733,317.8636979999719,318.8818610999733,317.8636979999719,318.8818610999733,318.8490268000169,319.34979680005927,318.8490268000169,319.34979680005927,318.8490268000169,319.34979680005927,318.8490268000169,319.34979680005927,318.8490268000169,319.34979680005927,318.8490268000169,319.34979680005927,318.8490268000169,319.34979680005927,318.8490268000169,319.34979680005927,317.8636979999719,None,319.34979680005927,320.5684746999759,1.0100000000000007,320.601762300008,None,321.35230719996616,None,,,,,,,[1.2172973],2.740000000000002,0.7567567567567568,11025,001,2024_Jan_08_0912,MFTM_A_new1021,2021.2.3,59.93425215502135,
,,,,,,,,stim/Instruction_adaptive.png,conditions/adaptive.xlsx,test,-0.6,-0.6,-0.6,0.6,0.6,left,L,,,,,0,1,1,1,0,37,37,49,,,,,,,,,,,,,,,,,,,,,,,,,,,,,,,,,,,,,,,,,,,,321.85287249996327,None,left,1,1.3037381999893114,322.35422009998,323.83935100003146,322.35422009998,323.3391759999795,322.35422009998,323.3391759999795,322.35422009998,323.3391759999795,322.35422009998,323.3391759999795,322.35422009998,323.3391759999795,323.32263159996364,323.8223561999621,323.32263159996364,323.8223561999621,323.32263159996364,323.8223561999621,323.32263159996364,323.8223561999621,323.32263159996364,323.8223561999621,323.32263159996364,323.8223561999621,323.32263159996364,323.8223561999621,323.32263159996364,323.8223561999621,322.35422009998,None,323.8223561999621,325.05888469994534,0.9800000000000006,325.0742443000199,None,325.82623929996043,None,,,,,,,[1.22526316],2.790000000000002,0.7631578947368421,11025,001,2024_Jan_08_0912,MFTM_A_new1021,2021.2.3,59.93425215502135,
,,,,,,,,stim/Instruction_adaptive.png,conditions/adaptive.xlsx,test,-0.6,-0.6,-0.6,0.6,0.6,left,L,,,,,0,1,1,1,0,38,38,75,,,,,,,,,,,,,,,,,,,,,,,,,,,,,,,,,,,,,,,,,,,,326.3260487000225,None,left,1,1.0470488000428304,326.82696269999724,328.2807939000195,326.82696269999724,327.7783090999583,326.82696269999724,327.7783090999583,326.82696269999724,327.7783090999583,326.82696269999724,327.7783090999583,326.82696269999724,327.7783090999583,327.76177970005665,328.2624041000381,327.76177970005665,328.2624041000381,327.76177970005665,328.2624041000381,327.76177970005665,328.2624041000381,327.76177970005665,328.2624041000381,327.76177970005665,328.2624041000381,327.76177970005665,328.2624041000381,327.76177970005665,328.2624041000381,326.82696269999724,None,328.2624041000381,329.4976055000443,0.9500000000000006,329.5141498000594,None,330.2659657000331,None,,,,,,,[1.23358974],2.830000000000002,0.7692307692307693,11025,001,2024_Jan_08_0912,MFTM_A_new1021,2021.2.3,59.93425215502135,
,,,,,,,,stim/Instruction_adaptive.png,conditions/adaptive.xlsx,test,-0.6,-0.6,-0.6,0.6,0.6,left,L,,,,,0,1,1,1,0,39,39,39,,,,,,,,,,,,,,,,,,,,,,,,,,,,,,,,,,,,,,,,,,,,330.7665194000583,None,left,1,1.1519833999918774,331.26692309998907,332.7024104000302,331.26692309998907,332.2015472999774,331.26692309998907,332.2015472999774,331.26692309998907,332.2015472999774,331.26692309998907,332.2015472999774,331.26692309998907,332.2015472999774,332.1841812999919,332.6861745000351,332.1841812999919,332.6861745000351,332.1841812999919,332.6861745000351,332.1841812999919,332.6861745000351,332.1841812999919,332.6861745000351,332.1841812999919,332.6861745000351,332.1841812999919,332.6861745000351,332.1841812999919,332.6861745000351,331.26692309998907,None,332.6861745000351,333.93791850004345,0.9300000000000006,333.9541364000179,None,334.7059301000554,None,,,,,,,[1.242],2.880000000000002,0.775,11025,001,2024_Jan_08_0912,MFTM_A_new1021,2021.2.3,59.93425215502135,
,,,,,,,,stim/Instruction_adaptive.png,conditions/adaptive.xlsx,test,0.6,0.6,0.6,-0.6,-0.6,right,R,,,,,0,1,1,1,0,40,40,74,,,,,,,,,,,,,,,,,,,,,,,,,,,,,,,,,,,,,,,,,,,,335.20607950002886,None,right,1,0.8074595000362024,335.70681100001093,337.10896500002127,335.70681100001093,336.6093105999753,335.70681100001093,336.6093105999753,335.70681100001093,336.6093105999753,335.70681100001093,336.6093105999753,335.70681100001093,336.6093105999753,336.5754262000555,337.07614849996753,336.5754262000555,337.07614849996753,336.5754262000555,337.07614849996753,336.5754262000555,337.07614849996753,336.5754262000555,337.07614849996753,336.5754262000555,337.07614849996753,336.5754262000555,337.07614849996753,336.5754262000555,337.07614849996753,335.70681100001093,None,337.07614849996753,338.327239700011,0.8900000000000006,338.3607748999493,None,339.1124441999709,None,,,,,,,[1.25097561],2.920000000000002,0.7804878048780488,11025,001,2024_Jan_08_0912,MFTM_A_new1021,2021.2.3,59.93425215502135,
,,,,,,,,stim/Instruction_adaptive.png,conditions/adaptive.xlsx,test,0.6,0.6,0.6,-0.6,-0.6,right,R,,,,,0,1,1,1,0,41,41,80,,,,,,,,,,,,,,,,,,,,,,,,,,,,,,,,,,,,,,,,,,,,339.6124657000182,None,right,1,0.7844353000400588,340.1138837999897,341.49888790003024,340.1138837999897,340.99857870000415,340.1138837999897,340.99857870000415,340.1138837999897,340.99857870000415,340.1138837999897,340.99857870000415,340.1138837999897,340.99857870000415,340.96500269998796,341.46561980003025,340.96500269998796,341.46561980003025,340.96500269998796,341.46561980003025,340.96500269998796,341.46561980003025,340.96500269998796,341.46561980003025,340.96500269998796,341.46561980003025,340.96500269998796,341.46561980003025,340.96500269998796,341.46561980003025,340.1138837999897,None,341.46561980003025,342.73388670000713,0.8700000000000006,342.7512111000251,None,343.50248240004294,None,,,,,,,[1.26],2.950000000000002,0.7857142857142857,11025,001,2024_Jan_08_0912,MFTM_A_new1021,2021.2.3,59.93425215502135,
,,,,,,,,stim/Instruction_adaptive.png,conditions/adaptive.xlsx,test,0.6,0.6,0.6,-0.6,-0.6,right,R,,,,,0,1,1,1,0,42,42,90,,,,,,,,,,,,,,,,,,,,,,,,,,,,,,,,,,,,,,,,,,,,344.0026458000066,None,left,0,1.459060400025919,344.50315939995926,345.85513379995245,344.50315939995926,345.3550639000023,344.50315939995926,345.3550639000023,344.50315939995926,345.3550639000023,344.50315939995926,345.3550639000023,344.50315939995926,345.3550639000023,345.337864000001,345.83942199999,345.337864000001,345.83942199999,345.337864000001,345.83942199999,345.337864000001,345.83942199999,345.337864000001,345.83942199999,345.337864000001,345.83942199999,345.337864000001,345.83942199999,345.337864000001,345.83942199999,344.50315939995926,None,345.83942199999,347.10832450003363,0.8500000000000005,347.12310910003725,None,347.8747521999758,None,,,,,,,[1.26906977],2.840000000000002,0.7674418604651163,11025,001,2024_Jan_08_0912,MFTM_A_new1021,2021.2.3,59.93425215502135,
,,,,,,,,stim/Instruction_adaptive.png,conditions/adaptive.xlsx,test,-0.6,-0.6,-0.6,0.6,0.6,left,L,,,,,0,1,1,1,0,43,43,91,,,,,,,,,,,,,,,,,,,,,,,,,,,,,,,,,,,,,,,,,,,,348.3756450000219,None,right,0,0.9098110999912024,348.87607670004945,350.2960955000017,348.87607670004945,349.8109340999508,348.87607670004945,349.8109340999508,348.87607670004945,349.8109340999508,348.87607670004945,349.8109340999508,348.87607670004945,349.8109340999508,349.7775289999554,350.2787516999524,349.7775289999554,350.2787516999524,349.7775289999554,350.2787516999524,349.7775289999554,350.2787516999524,349.7775289999554,350.2787516999524,349.7775289999554,350.2787516999524,349.7775289999554,350.2787516999524,349.7775289999554,350.2787516999524,348.87607670004945,None,350.2787516999524,351.5639299999457,0.9200000000000006,351.5803307000315,None,352.33226529997773,None,,,,,,,[1.27613636],2.730000000000002,0.75,11025,001,2024_Jan_08_0912,MFTM_A_new1021,2021.2.3,59.93425215502135,
,,,,,,,,stim/Instruction_adaptive.png,conditions/adaptive.xlsx,test,0.6,0.6,0.6,-0.6,-0.6,right,R,,,,,0,1,1,1,0,44,44,22,,,,,,,,,,,,,,,,,,,,,,,,,,,,,,,,,,,,,,,,,,,,352.83284120005555,None,right,1,1.1895450000884011,353.3327515999554,354.8350089000305,353.3327515999554,354.33534310001414,353.3327515999554,354.33534310001414,353.3327515999554,354.33534310001414,353.3327515999554,354.33534310001414,353.3327515999554,354.33534310001414,354.30116529995576,354.8016372000566,354.30116529995576,354.8016372000566,354.30116529995576,354.8016372000566,354.30116529995576,354.8016372000566,354.30116529995576,354.8016372000566,354.30116529995576,354.8016372000566,354.30116529995576,354.8016372000566,354.30116529995576,354.8016372000566,353.3327515999554,None,354.8016372000566,356.08678959996905,0.9900000000000007,356.1035273000598,None,356.85464399994817,None,,,,,,,[1.28133333],2.7700000000000022,0.7555555555555555,11025,001,2024_Jan_08_0912,MFTM_A_new1021,2021.2.3,59.93425215502135,
,,,,,,,,stim/Instruction_adaptive.png,conditions/adaptive.xlsx,test,0.6,0.6,0.6,-0.6,-0.6,right,R,,,,,0,1,1,1,0,45,45,50,,,,,,,,,,,,,,,,,,,,,,,,,,,,,,,,,,,,,,,,,,,,357.3553633999545,None,left,0,1.1618226999416947,357.8561536000343,359.3253183000488,357.8561536000343,358.8250494999811,357.8561536000343,358.8250494999811,357.8561536000343,358.8250494999811,357.8561536000343,358.8250494999811,357.8561536000343,358.8250494999811,358.80782310001086,359.3084807000123,358.80782310001086,359.3084807000123,358.80782310001086,359.3084807000123,358.80782310001086,359.3084807000123,358.80782310001086,359.3084807000123,358.80782310001086,359.3084807000123,358.80782310001086,359.3084807000123,358.80782310001086,359.3084807000123,357.8561536000343,None,359.29239810002036,360.5948337999871,0.9600000000000006,360.60992279998027,None,361.36163950001355,None,,,,,,,[1.28695652],2.650000000000002,0.7391304347826086,11025,001,2024_Jan_08_0912,MFTM_A_new1021,2021.2.3,59.93425215502135,
,,,,,,,,stim/Instruction_adaptive.png,conditions/adaptive.xlsx,test,-0.6,-0.6,-0.6,0.6,0.6,left,L,,,,,0,1,1,1,0,46,46,13,,,,,,,,,,,,,,,,,,,,,,,,,,,,,,,,,,,,,,,,,,,,361.86227000004146,None,left,1,1.6152210000436753,362.36354529997334,363.91515909996815,362.36354529997334,363.41513430001214,362.36354529997334,363.41513430001214,362.36354529997334,363.41513430001214,362.36354529997334,363.41513430001214,362.36354529997334,363.41513430001214,363.3977410000516,363.8985919000115,363.3977410000516,363.8985919000115,363.3977410000516,363.8985919000115,363.3977410000516,363.8985919000115,363.3977410000516,363.8985919000115,363.3977410000516,363.8985919000115,363.3977410000516,363.8985919000115,363.3977410000516,363.8985919000115,362.36354529997334,None,363.8985919000115,365.20107840001583,1.0500000000000007,365.21696180000436,None,365.96880080003757,None,,,,,,,[1.29042553],2.690000000000002,0.7446808510638298,11025,001,2024_Jan_08_0912,MFTM_A_new1021,2021.2.3,59.93425215502135,
,,,,,,,,stim/Instruction_adaptive.png,conditions/adaptive.xlsx,test,0.6,0.6,0.6,-0.6,-0.6,right,R,,,,,0,1,1,1,0,47,47,84,,,,,,,,,,,,,,,,,,,,,,,,,,,,,,,,,,,,,,,,,,,,366.4688952000579,None,right,1,0.8484184000408277,366.97036100004334,368.5058604000369,366.97036100004334,368.0051759999478,366.97036100004334,368.0051759999478,366.97036100004334,368.0051759999478,366.97036100004334,368.0051759999478,366.97036100004334,368.0051759999478,367.9712712999899,368.47258049994707,367.9712712999899,368.47258049994707,367.9712712999899,368.47258049994707,367.9712712999899,368.47258049994707,367.9712712999899,368.47258049994707,367.9712712999899,368.47258049994707,367.9712712999899,368.47258049994707,367.9712712999899,368.47258049994707,366.97036100004334,None,368.47258049994707,369.77550720004365,1.0200000000000007,369.79171969997697,None,370.541666300036,None,,,,,,,[1.294375],2.730000000000002,0.75,11025,001,2024_Jan_08_0912,MFTM_A_new1021,2021.2.3,59.93425215502135,
,,,,,,,,stim/Instruction_adaptive.png,conditions/adaptive.xlsx,test,-0.6,-0.6,-0.6,0.6,0.6,left,L,,,,,0,1,1,1,0,48,48,69,,,,,,,,,,,,,,,,,,,,,,,,,,,,,,,,,,,,,,,,,,,,371.04324959998485,None,left,1,1.5950195000041276,371.543265699991,373.0457241999684,371.543265699991,372.5445208000019,371.543265699991,372.5445208000019,371.543265699991,372.5445208000019,371.543265699991,372.5445208000019,371.543265699991,372.5445208000019,372.5118765999796,373.0120336000109,372.5118765999796,373.0120336000109,372.5118765999796,373.0120336000109,372.5118765999796,373.0120336000109,372.5118765999796,373.0120336000109,372.5118765999796,373.0120336000109,372.5118765999796,373.0120336000109,372.5118765999796,373.0120336000109,371.543265699991,None,373.0120336000109,374.3142861999804,0.9900000000000007,374.3481145000551,None,375.0983814999927,None,,,,,,,[1.29877551],2.7700000000000022,0.7551020408163265,11025,001,2024_Jan_08_0912,MFTM_A_new1021,2021.2.3,59.93425215502135,
,,,,,,,,stim/Instruction_adaptive.png,conditions/adaptive.xlsx,test,-0.6,-0.6,-0.6,0.6,0.6,left,L,,,,,0,1,1,1,0,49,49,61,,,,,,,,,,,,,,,,,,,,,,,,,,,,,,,,,,,,,,,,,,,,375.59925059997477,None,left,1,1.557993899914436,376.1005976999877,377.5704453999642,376.1005976999877,377.0687412000261,376.1005976999877,377.0687412000261,376.1005976999877,377.0687412000261,376.1005976999877,377.0687412000261,376.1005976999877,377.0687412000261,377.03538020001724,377.5361690999707,377.03538020001724,377.5361690999707,377.03538020001724,377.5361690999707,377.03538020001724,377.5361690999707,377.03538020001724,377.5361690999707,377.03538020001724,377.5361690999707,377.03538020001724,377.5361690999707,377.03538020001724,377.5361690999707,376.1005976999877,None,377.5361690999707,378.8383806999773,0.9600000000000006,378.87116320000496,None,379.6220352000091,None,,,,,,,[1.3036],2.800000000000002,0.76,11025,001,2024_Jan_08_0912,MFTM_A_new1021,2021.2.3,59.93425215502135,
,,,,,,,,stim/Instruction_adaptive.png,conditions/adaptive.xlsx,test,0.6,0.6,0.6,-0.6,-0.6,right,R,,,,,0,1,1,1,0,50,50,40,,,,,,,,,,,,,,,,,,,,,,,,,,,,,,,,,,,,,,,,,,,,380.1224666000344,None,right,1,1.1151442000409588,380.623179599992,382.0765088000335,380.623179599992,381.5758185000159,380.623179599992,381.5758185000159,380.623179599992,381.5758185000159,380.623179599992,381.5758185000159,380.623179599992,381.5758185000159,381.5420029000379,382.04280980001204,381.5420029000379,382.04280980001204,381.5420029000379,382.04280980001204,381.5420029000379,382.04280980001204,381.5420029000379,382.04280980001204,381.5420029000379,382.04280980001204,381.5420029000379,382.04280980001204,381.5420029000379,382.04280980001204,380.623179599992,None,382.04280980001204,383.3613609999884,0.9400000000000006,383.37811309995595,None,384.1297709000064,None,,,,,,,[1.30862745],2.840000000000002,0.7647058823529411,11025,001,2024_Jan_08_0912,MFTM_A_new1021,2021.2.3,59.93425215502135,
,,,,,,,,stim/Instruction_adaptive.png,conditions/adaptive.xlsx,test,0.6,0.6,0.6,-0.6,-0.6,right,R,,,,,0,1,1,1,0,51,51,6,,,,,,,,,,,,,,,,,,,,,,,,,,,,,,,,,,,,,,,,,,,,384.62998349999543,None,right,1,1.8169340000022203,385.13003780005965,386.5489435000345,385.13003780005965,386.0646843999857,385.13003780005965,386.0646843999857,385.13003780005965,386.0646843999857,385.13003780005965,386.0646843999857,385.13003780005965,386.0646843999857,386.0316273999633,386.5327028000029,386.0316273999633,386.5327028000029,386.0316273999633,386.5327028000029,386.0316273999633,386.5327028000029,386.0316273999633,386.5327028000029,386.0316273999633,386.5327028000029,386.0316273999633,386.5327028000029,386.0316273999633,386.5327028000029,385.13003780005965,None,386.5327028000029,387.8514567000093,0.9200000000000006,387.86776479997206,None,388.6185381000396,None,,,,,,,[1.31384615],2.870000000000002,0.7692307692307693,11025,001,2024_Jan_08_0912,MFTM_A_new1021,2021.2.3,59.93425215502135,
,,,,,,,,stim/Instruction_adaptive.png,conditions/adaptive.xlsx,test,-0.6,-0.6,-0.6,0.6,0.6,left,L,,,,,0,1,1,1,0,52,52,47,,,,,,,,,,,,,,,,,,,,,,,,,,,,,,,,,,,,,,,,,,,,389.11936380004045,None,left,1,0.9420941999414936,389.6199447000399,391.0222063000547,389.6199447000399,390.5223700000206,389.6199447000399,390.5223700000206,389.6199447000399,390.5223700000206,389.6199447000399,390.5223700000206,389.6199447000399,390.5223700000206,390.5052783000283,391.00615240004845,390.5052783000283,391.00615240004845,390.5052783000283,391.00615240004845,390.5052783000283,391.00615240004845,390.5052783000283,391.00615240004845,390.5052783000283,391.00615240004845,390.5052783000283,391.00615240004845,390.5052783000283,391.00615240004845,389.6199447000399,None,391.00615240004845,392.32397030002903,0.9000000000000006,392.3404742999701,None,393.09173980006017,None,,,,,,,[1.31924528],2.900000000000002,0.7735849056603774,11025,001,2024_Jan_08_0912,MFTM_A_new1021,2021.2.3,59.93425215502135,
,,,,,,,,stim/Instruction_adaptive.png,conditions/adaptive.xlsx,test,0.6,0.6,0.6,-0.6,-0.6,right,R,,,,,0,1,1,1,0,53,53,10,,,,,,,,,,,,,,,,,,,,,,,,,,,,,,,,,,,,,,,,,,,,393.5933670999948,None,right,1,1.549114300054498,394.09321139997337,395.4791816000361,394.09321139997337,394.9778762999922,394.09321139997337,394.9778762999922,394.09321139997337,394.9778762999922,394.09321139997337,394.9778762999922,394.09321139997337,394.9778762999922,394.9615235000383,395.46216039999854,394.9615235000383,395.46216039999854,394.9615235000383,395.46216039999854,394.9615235000383,395.46216039999854,394.9615235000383,395.46216039999854,394.9615235000383,395.46216039999854,394.9615235000383,395.46216039999854,394.9615235000383,395.46216039999854,394.09321139997337,None,395.46216039999854,None,0.8800000000000006,396.79727380000986,None,397.54825360001996,None,,,,,,,[1.32481481],2.9300000000000024,0.7777777777777778,11025,001,2024_Jan_08_0912,MFTM_A_new1021,2021.2.3,59.93425215502135,
,,,,,,,,stim/Instruction_adaptive.png,conditions/adaptive.xlsx,test,-0.6,-0.6,-0.6,0.6,0.6,left,L,,,,,0,1,1,1,0,54,54,35,,,,,,,,,,,,,,,,,,,,,,,,,,,,,,,,,,,,,,,,,,,,398.0501411999576,None,left,1,0.7079941000556573,398.54992839996703,399.9185821999563,398.54992839996703,399.41782420000527,398.54992839996703,399.41782420000527,398.54992839996703,399.41782420000527,398.54992839996703,399.41782420000527,398.54992839996703,399.41782420000527,399.40115040005185,399.90206270001363,399.40115040005185,399.90206270001363,399.40115040005185,399.90206270001363,399.40115040005185,399.90206270001363,399.40115040005185,399.90206270001363,399.40115040005185,399.90206270001363,399.40115040005185,399.90206270001363,399.40115040005185,399.90206270001363,398.54992839996703,None,399.90206270001363,401.23856259998865,0.8600000000000005,401.2545036999509,None,402.00511439994443,None,,,,,,,[1.33054545],2.9700000000000024,0.7818181818181819,11025,001,2024_Jan_08_0912,MFTM_A_new1021,2021.2.3,59.93425215502135,
,,,,,,,,stim/Instruction_adaptive.png,conditions/adaptive.xlsx,test,0.6,0.6,0.6,-0.6,-0.6,right,R,,,,,0,1,1,1,0,55,55,82,,,,,,,,,,,,,,,,,,,,,,,,,,,,,,,,,,,,,,,,,,,,402.5062970999861,None,left,0,1.6597395000280812,403.0063068999443,404.3588222999824,403.0063068999443,403.85849240003154,403.0063068999443,403.85849240003154,403.0063068999443,403.85849240003154,403.0063068999443,403.85849240003154,403.0063068999443,403.85849240003154,403.82477229996584,404.32557700003963,403.82477229996584,404.32557700003963,403.82477229996584,404.32557700003963,403.82477229996584,404.32557700003963,403.82477229996584,404.32557700003963,403.82477229996584,404.32557700003963,403.82477229996584,404.32557700003963,403.82477229996584,404.32557700003963,403.0063068999443,None,404.32557700003963,405.6771347000031,0.8400000000000005,405.6937810999807,None,406.4456001999788,None,,,,,,,[1.33642857],2.880000000000002,0.7678571428571429,11025,001,2024_Jan_08_0912,MFTM_A_new1021,2021.2.3,59.93425215502135,
,,,,,,,,stim/Instruction_adaptive.png,conditions/adaptive.xlsx,test,0.6,0.6,0.6,-0.6,-0.6,right,R,,,,,0,1,1,1,0,56,56,64,,,,,,,,,,,,,,,,,,,,,,,,,,,,,,,,,,,,,,,,,,,,406.9463225000072,None,left,0,1.0838883999967948,407.44702950003557,408.8484143000096,407.44702950003557,408.348415400018,407.44702950003557,408.348415400018,407.44702950003557,408.348415400018,407.44702950003557,408.348415400018,407.44702950003557,408.348415400018,408.31427059997804,408.8151947000297,408.31427059997804,408.8151947000297,408.31427059997804,408.8151947000297,408.31427059997804,408.8151947000297,408.31427059997804,408.8151947000297,408.31427059997804,408.8151947000297,408.31427059997804,408.8151947000297,408.31427059997804,408.8151947000297,407.44702950003557,None,408.8151947000297,410.167588399956,0.8900000000000006,410.1837754000444,None,410.93561499996576,None,,,,,,,[1.34122807],2.790000000000002,0.7543859649122807,11025,001,2024_Jan_08_0912,MFTM_A_new1021,2021.2.3,59.93425215502135,
,,,,,,,,stim/Instruction_adaptive.png,conditions/adaptive.xlsx,test,-0.6,-0.6,-0.6,0.6,0.6,left,L,,,,,0,1,1,1,0,57,57,77,,,,,,,,,,,,,,,,,,,,,,,,,,,,,,,,,,,,,,,,,,,,411.43562720005866,None,left,1,1.1536852000281215,411.9364285999909,413.3893788000569,411.9364285999909,412.8877740999451,411.9364285999909,412.8877740999451,411.9364285999909,412.8877740999451,411.9364285999909,412.8877740999451,411.9364285999909,412.8877740999451,412.87171400000807,413.3725918000564,412.87171400000807,413.3725918000564,412.87171400000807,413.3725918000564,412.87171400000807,413.3725918000564,412.87171400000807,413.3725918000564,412.87171400000807,413.3725918000564,412.87171400000807,413.3725918000564,412.87171400000807,413.3725918000564,411.9364285999909,None,413.3725918000564,414.7237540000351,0.9500000000000006,414.74034759995993,None,415.49229009996634,None,,,,,,,[1.34482759],2.820000000000002,0.7586206896551724,11025,001,2024_Jan_08_0912,MFTM_A_new1021,2021.2.3,59.93425215502135,
,,,,,,,,stim/Instruction_adaptive.png,conditions/adaptive.xlsx,test,0.6,0.6,0.6,-0.6,-0.6,right,R,,,,,0,1,1,1,0,58,58,34,,,,,,,,,,,,,,,,,,,,,,,,,,,,,,,,,,,,,,,,,,,,415.99249600002076,None,right,1,1.3969775999430567,416.49364430003334,417.92906700004824,416.49364430003334,417.42834900005255,416.49364430003334,417.42834900005255,416.49364430003334,417.42834900005255,416.49364430003334,417.42834900005255,416.49364430003334,417.42834900005255,417.41119020001497,417.9130705000134,417.41119020001497,417.9130705000134,417.41119020001497,417.9130705000134,417.41119020001497,417.9130705000134,417.41119020001497,417.9130705000134,417.41119020001497,417.9130705000134,417.41119020001497,417.9130705000134,417.41119020001497,417.9130705000134,416.49364430003334,None,417.9130705000134,419.26539379998576,0.9300000000000006,419.2806807999732,None,420.0317426000256,None,,,,,,,[1.34864407],2.8500000000000023,0.7627118644067796,11025,001,2024_Jan_08_0912,MFTM_A_new1021,2021.2.3,59.93425215502135,
,,,,,,,,stim/Instruction_adaptive.png,conditions/adaptive.xlsx,test,0.6,0.6,0.6,-0.6,-0.6,right,R,,,,,0,1,1,1,0,59,59,8,,,,,,,,,,,,,,,,,,,,,,,,,,,,,,,,,,,,,,,,,,,,420.53251579997595,None,right,1,1.4494284999091178,421.0331361000426,422.4527160000289,421.0331361000426,421.9525467000203,421.0331361000426,421.9525467000203,421.0331361000426,421.9525467000203,421.0331361000426,421.9525467000203,421.0331361000426,421.9525467000203,421.9178130000364,422.4185560999904,421.9178130000364,422.4185560999904,421.9178130000364,422.4185560999904,421.9178130000364,422.4185560999904,421.9178130000364,422.4185560999904,421.9178130000364,422.4185560999904,421.9178130000364,422.4185560999904,421.9178130000364,422.4185560999904,421.0331361000426,None,422.4185560999904,423.7712467999663,0.9100000000000006,423.80396579997614,None,424.5551683000522,None,,,,,,,[1.35266667],2.880000000000002,0.7666666666666667,11025,001,2024_Jan_08_0912,MFTM_A_new1021,2021.2.3,59.93425215502135,
,,,,,,,,stim/Instruction_adaptive.png,conditions/adaptive.xlsx,test,-0.6,-0.6,-0.6,0.6,0.6,left,L,,,,,0,1,1,1,0,60,60,83,,,,,,,,,,,,,,,,,,,,,,,,,,,,,,,,,,,,,,,,,,,,425.0557381999679,None,left,1,1.0378927000565454,425.55631560005713,426.9594675999833,425.55631560005713,426.4587104000384,425.55631560005713,426.4587104000384,425.55631560005713,426.4587104000384,425.55631560005713,426.4587104000384,425.55631560005713,426.4587104000384,426.4255957000423,426.92537850001827,426.4255957000423,426.92537850001827,426.4255957000423,426.92537850001827,426.4255957000423,426.92537850001827,426.4255957000423,426.92537850001827,426.4255957000423,426.92537850001827,426.4255957000423,426.92537850001827,426.4255957000423,426.92537850001827,425.55631560005713,None,426.92537850001827,428.2944671000587,0.8900000000000006,428.3105405999813,None,429.0619299999671,None,,,,,,,[1.35688525],2.910000000000002,0.7704918032786885,11025,001,2024_Jan_08_0912,MFTM_A_new1021,2021.2.3,59.93425215502135,
,,,,,,,,stim/Instruction_adaptive.png,conditions/adaptive.xlsx,test,0.6,0.6,0.6,-0.6,-0.6,right,R,,,,,0,1,1,1,0,61,61,24,,,,,,,,,,,,,,,,,,,,,,,,,,,,,,,,,,,,,,,,,,,,429.5630870000459,None,right,1,1.3942977999104187,430.06371150002815,431.45009439997375,430.06371150002815,430.94815369998105,430.06371150002815,430.94815369998105,430.06371150002815,430.94815369998105,430.06371150002815,430.94815369998105,430.06371150002815,430.94815369998105,430.9313108000206,431.4320977999596,430.9313108000206,431.4320977999596,430.9313108000206,431.4320977999596,430.9313108000206,431.4320977999596,430.9313108000206,431.4320977999596,430.9313108000206,431.4320977999596,430.9313108000206,431.4320977999596,430.9313108000206,431.4320977999596,430.06371150002815,None,431.4320977999596,432.8013751000399,0.8800000000000006,432.81786499999,None,433.56895250000525,None,,,,,,,[1.36112903],2.9300000000000024,0.7741935483870968,11025,001,2024_Jan_08_0912,MFTM_A_new1021,2021.2.3,59.93425215502135,
,,,,,,,,stim/Instruction_adaptive.png,conditions/adaptive.xlsx,test,0.6,0.6,0.6,-0.6,-0.6,right,R,,,,,0,1,1,1,0,62,62,36,,,,,,,,,,,,,,,,,,,,,,,,,,,,,,,,,,,,,,,,,,,,434.069706600043,None,right,1,1.0400956000667065,434.5699267999735,435.93945199996233,434.5699267999735,435.4379163000267,434.5699267999735,435.4379163000267,434.5699267999735,435.4379163000267,434.5699267999735,435.4379163000267,434.5699267999735,435.4379163000267,435.4045777999563,435.90584110002965,435.4045777999563,435.90584110002965,435.4045777999563,435.90584110002965,435.4045777999563,435.90584110002965,435.4045777999563,435.90584110002965,435.4045777999563,435.90584110002965,435.4045777999563,435.90584110002965,435.4045777999563,435.90584110002965,434.5699267999735,None,435.90584110002965,437.2745601000497,0.8600000000000005,437.30714419996366,None,438.05923989997245,None,,,,,,,[1.36555556],2.960000000000002,0.7777777777777778,11025,001,2024_Jan_08_0912,MFTM_A_new1021,2021.2.3,59.93425215502135,
,,,,,,,,stim/Instruction_adaptive.png,conditions/adaptive.xlsx,test,-0.6,-0.6,-0.6,0.6,0.6,left,L,,,,,0,1,1,1,0,63,63,57,,,,,,,,,,,,,,,,,,,,,,,,,,,,,,,,,,,,,,,,,,,,438.5594725999981,None,left,1,1.0855204000836238,439.0605629000347,440.4117618999444,439.0605629000347,439.9111012000358,439.0605629000347,439.9111012000358,439.0605629000347,439.9111012000358,439.0605629000347,439.9111012000358,439.0605629000347,439.9111012000358,439.8945692999987,440.3954480000539,439.8945692999987,440.3954480000539,439.8945692999987,440.3954480000539,439.8945692999987,440.3954480000539,439.8945692999987,440.3954480000539,439.8945692999987,440.3954480000539,439.8945692999987,440.3954480000539,439.8945692999987,440.3954480000539,439.0605629000347,None,440.3954480000539,None,0.8500000000000005,441.781218499993,None,442.5323379000183,None,,,,,,,[1.37],2.990000000000002,0.78125,11025,001,2024_Jan_08_0912,MFTM_A_new1021,2021.2.3,59.93425215502135,
,,,,,,,,stim/Instruction_adaptive.png,conditions/adaptive.xlsx,test,-0.6,-0.6,-0.6,0.6,0.6,left,L,,,,,0,1,1,1,0,64,64,89,,,,,,,,,,,,,,,,,,,,,,,,,,,,,,,,,,,,,,,,,,,,443.0326898000203,None,left,1,1.1648399999830872,443.534092899994,444.86842149996664,443.534092899994,444.3684386999812,443.534092899994,444.3684386999812,443.534092899994,444.3684386999812,443.534092899994,444.3684386999812,443.534092899994,444.3684386999812,444.35102159995586,444.8517162000062,444.35102159995586,444.8517162000062,444.35102159995586,444.8517162000062,444.35102159995586,444.8517162000062,444.35102159995586,444.8517162000062,444.35102159995586,444.8517162000062,444.35102159995586,444.8517162000062,444.35102159995586,444.8517162000062,443.534092899994,None,444.8517162000062,None,0.8300000000000005,446.2377639999613,None,446.98894109996036,None,,,,,,,[1.37461538],3.0100000000000025,0.7846153846153846,11025,001,2024_Jan_08_0912,MFTM_A_new1021,2021.2.3,59.93425215502135,
,,,,,,,,stim/Instruction_adaptive.png,conditions/adaptive.xlsx,test,-0.6,-0.6,-0.6,0.6,0.6,left,L,,,,,0,1,1,1,0,65,65,27,,,,,,,,,,,,,,,,,,,,,,,,,,,,,,,,,,,,,,,,,,,,447.48910260002594,None,left,1,0.9488447000039741,447.9898571999511,449.3090531999478,447.9898571999511,448.8249227999477,447.9898571999511,448.8249227999477,447.9898571999511,448.8249227999477,447.9898571999511,448.8249227999477,447.9898571999511,448.8249227999477,448.79132620000746,449.29215680004563,448.79132620000746,449.29215680004563,448.79132620000746,449.29215680004563,448.79132620000746,449.29215680004563,448.79132620000746,449.29215680004563,448.79132620000746,449.29215680004563,448.79132620000746,449.29215680004563,448.79132620000746,449.29215680004563,447.9898571999511,None,449.29215680004563,450.6777657000348,0.8200000000000005,450.6936457999982,None,451.44581199996173,None,,,,,,,[1.37924242],3.0400000000000023,0.7878787878787878,11025,001,2024_Jan_08_0912,MFTM_A_new1021,2021.2.3,59.93425215502135,
,,,,,,,,stim/Instruction_adaptive.png,conditions/adaptive.xlsx,test,-0.6,-0.6,-0.6,0.6,0.6,left,L,,,,,0,1,1,1,0,66,66,53,,,,,,,,,,,,,,,,,,,,,,,,,,,,,,,,,,,,,,,,,,,,451.94640400004573,None,left,1,0.8600914999842644,452.4461525999941,453.7489138999954,452.4461525999941,453.2475574000273,452.4461525999941,453.2475574000273,452.4461525999941,453.2475574000273,452.4461525999941,453.2475574000273,452.4461525999941,453.2475574000273,453.23151569999754,453.73255519999657,453.23151569999754,453.73255519999657,453.23151569999754,453.73255519999657,453.23151569999754,453.73255519999657,453.23151569999754,453.73255519999657,453.23151569999754,453.73255519999657,453.23151569999754,453.73255519999657,453.23151569999754,453.73255519999657,452.4461525999941,None,453.73255519999657,455.1179455999518,0.8000000000000005,455.1348136999877,None,455.8849181999685,None,,,,,,,[1.38402985],3.0600000000000023,0.7910447761194029,11025,001,2024_Jan_08_0912,MFTM_A_new1021,2021.2.3,59.93425215502135,
,,,,,,,,stim/Instruction_adaptive.png,conditions/adaptive.xlsx,test,0.6,0.6,0.6,-0.6,-0.6,right,R,,,,,0,1,1,1,0,67,67,72,,,,,,,,,,,,,,,,,,,,,,,,,,,,,,,,,,,,,,,,,,,,456.3862106000306,None,right,1,0.7073877999791875,456.8868775999872,458.1882732999511,456.8868775999872,457.6888043000363,456.8868775999872,457.6888043000363,456.8868775999872,457.6888043000363,456.8868775999872,457.6888043000363,456.8868775999872,457.6888043000363,457.65501009998843,458.1553202000214,457.65501009998843,458.1553202000214,457.65501009998843,458.1553202000214,457.65501009998843,458.1553202000214,457.65501009998843,458.1553202000214,457.65501009998843,458.1553202000214,457.65501009998843,458.1553202000214,457.65501009998843,458.1553202000214,456.8868775999872,None,458.1553202000214,459.55792100005783,0.7900000000000005,459.5737901000539,None,460.3249478000216,None,,,,,,,[1.38882353],3.0900000000000025,0.7941176470588235,11025,001,2024_Jan_08_0912,MFTM_A_new1021,2021.2.3,59.93425215502135,
,,,,,,,,stim/Instruction_adaptive.png,conditions/adaptive.xlsx,test,-0.6,-0.6,-0.6,0.6,0.6,left,L,,,,,0,1,1,1,0,68,68,87,,,,,,,,,,,,,,,,,,,,,,,,,,,,,,,,,,,,,,,,,,,,460.8260088999523,None,left,1,1.1072430000640452,461.3270349999657,462.6112964999629,461.3270349999657,462.11071969999466,461.3270349999657,462.11071969999466,461.3270349999657,462.11071969999466,461.3270349999657,462.11071969999466,461.3270349999657,462.11071969999466,462.07815720001236,462.57855490001384,462.07815720001236,462.57855490001384,462.07815720001236,462.57855490001384,462.07815720001236,462.57855490001384,462.07815720001236,462.57855490001384,462.07815720001236,462.57855490001384,462.07815720001236,462.57855490001384,462.07815720001236,462.57855490001384,461.3270349999657,None,462.57855490001384,463.98130999994464,0.7700000000000005,463.99754200002644,None,464.7480961000547,None,,,,,,,[1.39376812],3.110000000000002,0.7971014492753623,11025,001,2024_Jan_08_0912,MFTM_A_new1021,2021.2.3,59.93425215502135,
,,,,,,,,stim/Instruction_adaptive.png,conditions/adaptive.xlsx,test,-0.6,-0.6,-0.6,0.6,0.6,left,L,,,,,0,1,1,1,0,69,69,59,,,,,,,,,,,,,,,,,,,,,,,,,,,,,,,,,,,,,,,,,,,,465.2492510000011,None,left,1,0.6528641000622883,465.74946329998784,467.01780929998495,465.74946329998784,466.51755340001546,465.74946329998784,466.51755340001546,465.74946329998784,466.51755340001546,465.74946329998784,466.51755340001546,465.74946329998784,466.51755340001546,466.4854251999641,466.9845695999684,466.4854251999641,466.9845695999684,466.4854251999641,466.9845695999684,466.4854251999641,466.9845695999684,466.4854251999641,466.9845695999684,466.4854251999641,466.9845695999684,466.4854251999641,466.9845695999684,466.4854251999641,466.9845695999684,465.74946329998784,None,466.9845695999684,468.38682110002264,0.7600000000000005,468.41992360004224,None,469.171481700032,None,,,,,,,[1.39871429],3.1300000000000026,0.8,11025,001,2024_Jan_08_0912,MFTM_A_new1021,2021.2.3,59.93425215502135,
,,,,,,,,stim/Instruction_adaptive.png,conditions/adaptive.xlsx,test,-0.6,-0.6,-0.6,0.6,0.6,left,L,,,,,0,1,1,1,0,70,70,41,,,,,,,,,,,,,,,,,,,,,,,,,,,,,,,,,,,,,,,,,,,,469.6721824000124,None,left,1,0.613893499947153,470.1726635999512,471.4252779999515,470.1726635999512,470.9243944999762,470.1726635999512,470.9243944999762,470.1726635999512,470.9243944999762,470.1726635999512,470.9243944999762,470.1726635999512,470.9243944999762,470.90768709999975,471.40848189999815,470.90768709999975,471.40848189999815,470.90768709999975,471.40848189999815,470.90768709999975,471.40848189999815,470.90768709999975,471.40848189999815,470.90768709999975,471.40848189999815,470.90768709999975,471.40848189999815,470.90768709999975,471.40848189999815,470.1726635999512,None,471.40848189999815,None,0.7500000000000004,472.82664600003045,None,473.57851679995656,None,,,,,,,[1.40366197],3.150000000000002,0.8028169014084507,11025,001,2024_Jan_08_0912,MFTM_A_new1021,2021.2.3,59.93425215502135,
,,,,,,,,stim/Instruction_adaptive.png,conditions/adaptive.xlsx,test,0.6,0.6,0.6,-0.6,-0.6,right,R,,,,,0,1,1,1,0,71,71,98,,,,,,,,,,,,,,,,,,,,,,,,,,,,,,,,,,,,,,,,,,,,474.0792634000536,None,right,1,0.8312188000418246,474.5790768000297,475.83189479995053,474.5790768000297,475.33036240004003,474.5790768000297,475.33036240004003,474.5790768000297,475.33036240004003,474.5790768000297,475.33036240004003,474.5790768000297,475.33036240004003,475.2982678000117,475.7978308000602,475.2982678000117,475.7978308000602,475.2982678000117,475.7978308000602,475.2982678000117,475.7978308000602,475.2982678000117,475.7978308000602,475.2982678000117,475.7978308000602,475.2982678000117,475.7978308000602,475.2982678000117,475.7978308000602,474.5790768000297,None,475.7978308000602,477.21726009994745,0.7400000000000004,477.2332114999881,None,477.98442400002386,None,,,,,,,[1.40861111],3.1800000000000024,0.8055555555555556,11025,001,2024_Jan_08_0912,MFTM_A_new1021,2021.2.3,59.93425215502135,
,,,,,,,,stim/Instruction_adaptive.png,conditions/adaptive.xlsx,test,0.6,0.6,0.6,-0.6,-0.6,right,R,,,,,0,1,1,1,0,72,72,68,,,,,,,,,,,,,,,,,,,,,,,,,,,,,,,,,,,,,,,,,,,,478.4856617000187,None,right,1,0.9592621000483632,478.9869826999493,480.2220619999571,478.9869826999493,479.72015660000034,478.9869826999493,479.72015660000034,478.9869826999493,479.72015660000034,478.9869826999493,479.72015660000034,478.9869826999493,479.72015660000034,479.7035510999849,480.20482860004995,479.7035510999849,480.20482860004995,479.7035510999849,480.20482860004995,479.7035510999849,480.20482860004995,479.7035510999849,480.20482860004995,479.7035510999849,480.20482860004995,479.7035510999849,480.20482860004995,479.7035510999849,480.20482860004995,478.9869826999493,None,480.20482860004995,481.62361470004544,0.7300000000000004,481.64000390004367,None,482.39155389997177,None,,,,,,,[1.41356164],3.2000000000000024,0.8082191780821918,11025,001,2024_Jan_08_0912,MFTM_A_new1021,2021.2.3,59.93425215502135,
,,,,,,,,stim/Instruction_adaptive.png,conditions/adaptive.xlsx,test,0.6,0.6,0.6,-0.6,-0.6,right,R,,,,,0,1,1,1,0,73,73,86,,,,,,,,,,,,,,,,,,,,,,,,,,,,,,,,,,,,,,,,,,,,482.8915563999908,None,right,1,1.0567572000436485,483.3936618999578,484.62798450002447,483.3936618999578,484.12670050002635,483.3936618999578,484.12670050002635,483.3936618999578,484.12670050002635,483.3936618999578,484.12670050002635,483.3936618999578,484.12670050002635,484.0934118999867,484.5946863000281,484.0934118999867,484.5946863000281,484.0934118999867,484.5946863000281,484.0934118999867,484.5946863000281,484.0934118999867,484.5946863000281,484.0934118999867,484.5946863000281,484.0934118999867,484.5946863000281,484.0934118999867,484.5946863000281,483.3936618999578,None,484.5946863000281,486.0130272000097,0.7200000000000004,486.04636799998116,None,486.79743270005565,None,,,,,,,[1.41851351],3.2200000000000024,0.8108108108108109,11025,001,2024_Jan_08_0912,MFTM_A_new1021,2021.2.3,59.93425215502135,
,,,,,,,,stim/Instruction_adaptive.png,conditions/adaptive.xlsx,test,0.6,0.6,0.6,-0.6,-0.6,right,R,,,,,0,1,1,1,0,74,74,30,,,,,,,,,,,,,,,,,,,,,,,,,,,,,,,,,,,,,,,,,,,,487.2985700999852,None,left,0,0.939566700020805,487.7988626000006,489.01827660005074,487.7988626000006,488.5175988000119,487.7988626000006,488.5175988000119,487.7988626000006,488.5175988000119,487.7988626000006,488.5175988000119,487.7988626000006,488.5175988000119,488.5004390999675,489.0004924000241,488.5004390999675,489.0004924000241,488.5004390999675,489.0004924000241,488.5004390999675,489.0004924000241,488.5004390999675,489.0004924000241,488.5004390999675,489.0004924000241,488.5004390999675,489.0004924000241,488.5004390999675,489.0004924000241,487.7988626000006,None,489.0004924000241,None,0.7100000000000004,490.4359265000094,None,491.18719590001274,None,,,,,,,[1.42346667],3.1600000000000024,0.8,11025,001,2024_Jan_08_0912,MFTM_A_new1021,2021.2.3,59.93425215502135,
,,,,,,,,stim/Instruction_adaptive.png,conditions/adaptive.xlsx,test,0.6,0.6,0.6,-0.6,-0.6,right,R,,,,,0,1,1,1,0,75,75,60,,,,,,,,,,,,,,,,,,,,,,,,,,,,,,,,,,,,,,,,,,,,491.6885048999684,None,right,1,1.0615701000206172,492.18874799995683,493.4411895000376,492.18874799995683,492.94132830004673,492.18874799995683,492.94132830004673,492.18874799995683,492.94132830004673,492.18874799995683,492.94132830004673,492.18874799995683,492.94132830004673,492.9075530000264,493.4076790000545,492.9075530000264,493.4076790000545,492.9075530000264,493.4076790000545,492.9075530000264,493.4076790000545,492.9075530000264,493.4076790000545,492.9075530000264,493.4076790000545,492.9075530000264,493.4076790000545,492.9075530000264,493.4076790000545,492.18874799995683,None,493.4076790000545,494.8427265000064,0.7400000000000004,494.85931590001564,None,495.6104040000355,None,,,,,,,[1.42789474],3.1800000000000024,0.8026315789473685,11025,001,2024_Jan_08_0912,MFTM_A_new1021,2021.2.3,59.93425215502135,
,,,,,,,,stim/Instruction_adaptive.png,conditions/adaptive.xlsx,test,0.6,0.6,0.6,-0.6,-0.6,right,R,,,,,0,1,1,1,0,76,76,48,,,,,,,,,,,,,,,,,,,,,,,,,,,,,,,,,,,,,,,,,,,,496.1120475999778,None,right,1,0.7173552000895143,496.6129749000538,497.84787729999516,496.6129749000538,497.3469899999909,496.6129749000538,497.3469899999909,496.6129749000538,497.3469899999909,496.6129749000538,497.3469899999909,496.6129749000538,497.3469899999909,497.3296725000255,497.8302111000521,497.3296725000255,497.8302111000521,497.3296725000255,497.8302111000521,497.3296725000255,497.8302111000521,497.3296725000255,497.8302111000521,497.3296725000255,497.8302111000521,497.3296725000255,497.8302111000521,497.3296725000255,497.8302111000521,496.6129749000538,None,497.8302111000521,499.2660678999964,0.7300000000000004,499.28397320001386,None,500.0345297000604,None,,,,,,,[1.43233766],3.2000000000000024,0.8051948051948052,11025,001,2024_Jan_08_0912,MFTM_A_new1021,2021.2.3,59.93425215502135,
,,,,,,,,stim/Instruction_adaptive.png,conditions/adaptive.xlsx,test,-0.6,-0.6,-0.6,0.6,0.6,left,L,,,,,0,1,1,1,0,77,77,31,,,,,,,,,,,,,,,,,,,,,,,,,,,,,,,,,,,,,,,,,,,,500.53523220005445,None,right,0,1.3830370999639854,501.03571029996965,502.2702451000223,501.03571029996965,501.76952259999234,501.03571029996965,501.76952259999234,501.03571029996965,501.76952259999234,501.03571029996965,501.76952259999234,501.03571029996965,501.76952259999234,501.7371014000382,502.2366783999605,501.7371014000382,502.2366783999605,501.7371014000382,502.2366783999605,501.7371014000382,502.2366783999605,501.7371014000382,502.2366783999605,501.7371014000382,502.2366783999605,501.7371014000382,502.2366783999605,501.7371014000382,502.2366783999605,501.03571029996965,None,502.2366783999605,503.68906799994875,0.7200000000000004,503.70659980003256,None,504.45766780001577,None,,,,,,,[1.43679487],3.1400000000000023,0.7948717948717948,11025,001,2024_Jan_08_0912,MFTM_A_new1021,2021.2.3,59.93425215502135,
,,,,,,,,stim/Instruction_adaptive.png,conditions/adaptive.xlsx,test,0.6,0.6,0.6,-0.6,-0.6,right,R,,,,,0,1,1,1,0,78,78,14,,,,,,,,,,,,,,,,,,,,,,,,,,,,,,,,,,,,,,,,,,,,504.95759899995755,None,left,0,1.3511259000515565,505.45914880000055,506.71066209999844,505.45914880000055,506.21016070002224,505.45914880000055,506.21016070002224,505.45914880000055,506.21016070002224,505.45914880000055,506.21016070002224,505.45914880000055,506.21016070002224,506.1931121000089,506.694042099989,506.1931121000089,506.694042099989,506.1931121000089,506.694042099989,506.1931121000089,506.694042099989,506.1931121000089,506.694042099989,506.1931121000089,506.694042099989,506.1931121000089,506.694042099989,506.1931121000089,506.694042099989,505.45914880000055,None,506.694042099989,508.14629169995897,0.7500000000000004,508.16224279999733,None,508.91339690005407,None,,,,,,,[1.44075949],3.0800000000000023,0.7848101265822784,11025,001,2024_Jan_08_0912,MFTM_A_new1021,2021.2.3,59.93425215502135,
,,,,,,,,stim/Instruction_adaptive.png,conditions/adaptive.xlsx,test,0.6,0.6,0.6,-0.6,-0.6,right,R,,,,,0,1,1,1,0,79,79,56,,,,,,,,,,,,,,,,,,,,,,,,,,,,,,,,,,,,,,,,,,,,509.4152191999601,None,right,1,1.7680125000188127,509.9147936999798,511.20016869995743,509.9147936999798,510.70037830004003,509.9147936999798,510.70037830004003,509.9147936999798,510.70037830004003,509.9147936999798,510.70037830004003,509.9147936999798,510.70037830004003,510.68268960004207,511.1834477999946,510.68268960004207,511.1834477999946,510.68268960004207,511.1834477999946,510.68268960004207,511.1834477999946,510.68268960004207,511.1834477999946,510.68268960004207,511.1834477999946,510.68268960004207,511.1834477999946,510.68268960004207,511.1834477999946,509.9147936999798,None,511.1834477999946,512.6366733999457,0.7800000000000005,512.6515296000289,None,513.4042447999818,None,,,,,,,[1.44425],3.1000000000000023,0.7875,11025,001,2024_Jan_08_0912,MFTM_A_new1021,2021.2.3,59.93425215502135,
,,,,,,,,stim/Instruction_adaptive.png,conditions/adaptive.xlsx,test,0.6,0.6,0.6,-0.6,-0.6,right,R,,,,,0,1,1,1,0,80,80,0,,,,,,,,,,,,,,,,,,,,,,,,,,,,,,,,,,,,,,,,,,,,513.9042060000356,None,right,1,1.3017032999778166,514.4049995000241,515.6735340000596,514.4049995000241,515.190318100038,514.4049995000241,515.190318100038,514.4049995000241,515.190318100038,514.4049995000241,515.190318100038,514.4049995000241,515.190318100038,515.1560680000111,515.657541600056,515.1560680000111,515.657541600056,515.1560680000111,515.657541600056,515.1560680000111,515.657541600056,515.1560680000111,515.657541600056,515.1560680000111,515.657541600056,515.1560680000111,515.657541600056,515.1560680000111,515.657541600056,514.4049995000241,None,515.657541600056,517.1105643999763,0.7700000000000005,517.1254256999819,None,517.8775714000221,None,,,,,,,[1.44777778],3.1200000000000023,0.7901234567901234,11025,001,2024_Jan_08_0912,MFTM_A_new1021,2021.2.3,59.93425215502135,
,,,,,,,,stim/Instruction_adaptive.png,conditions/adaptive.xlsx,test,-0.6,-0.6,-0.6,0.6,0.6,left,L,,,,,0,1,1,1,0,81,81,51,,,,,,,,,,,,,,,,,,,,,,,,,,,,,,,,,,,,,,,,,,,,518.3784056999721,None,right,0,1.6600628000451252,518.878253599978,520.1468061000342,518.878253599978,519.6458455000538,518.878253599978,519.6458455000538,518.878253599978,519.6458455000538,518.878253599978,519.6458455000538,518.878253599978,519.6458455000538,519.6292749999557,520.1300893999869,519.6292749999557,520.1300893999869,519.6292749999557,520.1300893999869,519.6292749999557,520.1300893999869,519.6292749999557,520.1300893999869,519.6292749999557,520.1300893999869,519.6292749999557,520.1300893999869,519.6292749999557,520.1300893999869,518.878253599978,None,520.1134102999931,521.5659507999662,0.7600000000000005,521.598873400013,None,522.350562299951,None,,,,,,,[1.45134146],3.0600000000000023,0.7804878048780488,11025,001,2024_Jan_08_0912,MFTM_A_new1021,2021.2.3,59.93425215502135,
,,,,,,,,stim/Instruction_adaptive.png,conditions/adaptive.xlsx,test,0.6,0.6,0.6,-0.6,-0.6,right,R,,,,,0,1,1,1,0,82,82,16,,,,,,,,,,,,,,,,,,,,,,,,,,,,,,,,,,,,,,,,,,,,522.8512072999729,None,right,1,0.89928809995763,523.351589399972,524.6545920999488,523.351589399972,524.1534836000064,523.351589399972,524.1534836000064,523.351589399972,524.1534836000064,523.351589399972,524.1534836000064,523.351589399972,524.1534836000064,524.1204848999623,524.6208483000519,524.1204848999623,524.6208483000519,524.1204848999623,524.6208483000519,524.1204848999623,524.6208483000519,524.1204848999623,524.6208483000519,524.1204848999623,524.6208483000519,524.1204848999623,524.6208483000519,524.1204848999623,524.6208483000519,523.351589399972,None,524.6208483000519,526.089395500021,0.7900000000000005,526.1055298000574,None,526.8566098000156,None,,,,,,,[1.45445783],3.0800000000000023,0.7831325301204819,11025,001,2024_Jan_08_0912,MFTM_A_new1021,2021.2.3,59.93425215502135,
,,,,,,,,stim/Instruction_adaptive.png,conditions/adaptive.xlsx,test,-0.6,-0.6,-0.6,0.6,0.6,left,L,,,,,0,1,1,1,0,83,83,23,,,,,,,,,,,,,,,,,,,,,,,,,,,,,,,,,,,,,,,,,,,,527.3579236000078,None,right,0,1.3033679999643937,527.8587870999472,529.1435244999593,527.8587870999472,528.6425899000606,527.8587870999472,528.6425899000606,527.8587870999472,528.6425899000606,527.8587870999472,528.6425899000606,527.8587870999472,528.6425899000606,528.6259128999664,529.1270970000187,528.6259128999664,529.1270970000187,528.6259128999664,529.1270970000187,528.6259128999664,529.1270970000187,528.6259128999664,529.1270970000187,528.6259128999664,529.1270970000187,528.6259128999664,529.1270970000187,528.6259128999664,529.1270970000187,527.8587870999472,None,529.1270970000187,None,0.7800000000000005,530.5955177999567,None,531.346874400042,None,,,,,,,[1.45761905],3.0200000000000022,0.7738095238095238,11025,001,2024_Jan_08_0912,MFTM_A_new1021,2021.2.3,59.93425215502135,
,,,,,,,,stim/Instruction_adaptive.png,conditions/adaptive.xlsx,test,-0.6,-0.6,-0.6,0.6,0.6,left,L,,,,,0,1,1,1,0,84,84,93,,,,,,,,,,,,,,,,,,,,,,,,,,,,,,,,,,,,,,,,,,,,531.8474439999554,None,left,1,0.6701317999977618,532.34810069995,533.6675285999663,532.34810069995,533.166184599977,532.34810069995,533.166184599977,532.34810069995,533.166184599977,532.34810069995,533.166184599977,532.34810069995,533.166184599977,533.1497518999968,533.6501711000456,533.1497518999968,533.6501711000456,533.1497518999968,533.6501711000456,533.1497518999968,533.6501711000456,533.1497518999968,533.6501711000456,533.1497518999968,533.6501711000456,533.1497518999968,533.6501711000456,533.1497518999968,533.6501711000456,532.34810069995,None,533.6501711000456,None,0.8100000000000005,535.1189279999817,None,535.870315499953,None,,,,,,,[1.46035294],3.0400000000000023,0.7764705882352941,11025,001,2024_Jan_08_0912,MFTM_A_new1021,2021.2.3,59.93425215502135,
,,,,,,,,stim/Instruction_adaptive.png,conditions/adaptive.xlsx,test,0.6,0.6,0.6,-0.6,-0.6,right,R,,,,,0,1,1,1,0,85,85,78,,,,,,,,,,,,,,,,,,,,,,,,,,,,,,,,,,,,,,,,,,,,536.3720249000471,None,left,0,1.3859182000160217,536.8723373999819,538.1742619000142,536.8723373999819,537.6727178000147,536.8723373999819,537.6727178000147,536.8723373999819,537.6727178000147,536.8723373999819,537.6727178000147,536.8723373999819,537.6727178000147,537.6564555000514,538.1571154999547,537.6564555000514,538.1571154999547,537.6564555000514,538.1571154999547,537.6564555000514,538.1571154999547,537.6564555000514,538.1571154999547,537.6564555000514,538.1571154999547,537.6564555000514,538.1571154999547,537.6564555000514,538.1571154999547,536.8723373999819,None,538.1571154999547,539.626501700026,0.8000000000000005,539.6418055000249,None,540.3946433999809,None,,,,,,,[1.46313953],2.980000000000002,0.7674418604651163,11025,001,2024_Jan_08_0912,MFTM_A_new1021,2021.2.3,59.93425215502135,
,,,,,,,,stim/Instruction_adaptive.png,conditions/adaptive.xlsx,test,-0.6,-0.6,-0.6,0.6,0.6,left,L,,,,,0,1,1,1,0,86,86,29,,,,,,,,,,,,,,,,,,,,,,,,,,,,,,,,,,,,,,,,,,,,540.8949447999476,None,left,1,2.1035731999436393,541.3949129000539,542.7302409999538,541.3949129000539,542.2296551000327,541.3949129000539,542.2296551000327,541.3949129000539,542.2296551000327,541.3949129000539,542.2296551000327,541.3949129000539,542.2296551000327,542.2135673000012,542.7140814999584,542.2135673000012,542.7140814999584,542.2135673000012,542.7140814999584,542.2135673000012,542.7140814999584,542.2135673000012,542.7140814999584,542.2135673000012,542.7140814999584,542.2135673000012,542.7140814999584,542.2135673000012,542.7140814999584,541.3949129000539,None,542.7140814999584,544.1831624000333,0.8300000000000005,544.1989857000299,None,544.9500325999688,None,,,,,,,[1.46551724],3.000000000000002,0.7701149425287356,11025,001,2024_Jan_08_0912,MFTM_A_new1021,2021.2.3,59.93425215502135,
,,,,,,,,stim/Instruction_adaptive.png,conditions/adaptive.xlsx,test,-0.6,-0.6,-0.6,0.6,0.6,left,L,,,,,0,1,1,1,0,87,87,17,,,,,,,,,,,,,,,,,,,,,,,,,,,,,,,,,,,,,,,,,,,,545.451540500042,None,left,1,1.6746050000656396,545.9517365000211,547.2870388999581,545.9517365000211,546.7862459999742,545.9517365000211,546.7862459999742,545.9517365000211,546.7862459999742,545.9517365000211,546.7862459999742,545.9517365000211,546.7862459999742,546.7533060000278,547.2539248999674,546.7533060000278,547.2539248999674,546.7533060000278,547.2539248999674,546.7533060000278,547.2539248999674,546.7533060000278,547.2539248999674,546.7533060000278,547.2539248999674,546.7533060000278,547.2539248999674,546.7533060000278,547.2539248999674,545.9517365000211,None,547.2539248999674,548.7228833000408,0.8200000000000005,548.739425900043,None,549.4904783000238,None,,,,,,,[1.46795455],3.0200000000000022,0.7727272727272727,11025,001,2024_Jan_08_0912,MFTM_A_new1021,2021.2.3,59.93425215502135,
,,,,,,,,stim/Instruction_adaptive.png,conditions/adaptive.xlsx,test,0.6,0.6,0.6,-0.6,-0.6,right,R,,,,,0,1,1,1,0,88,88,94,,,,,,,,,,,,,,,,,,,,,,,,,,,,,,,,,,,,,,,,,,,,549.9922490000026,None,left,0,2.0376725000096485,550.4925569000188,551.8104272000492,550.4925569000188,551.3096175000537,550.4925569000188,551.3096175000537,550.4925569000188,551.3096175000537,550.4925569000188,551.3096175000537,550.4925569000188,551.3096175000537,551.292934600031,551.7937741000205,551.292934600031,551.7937741000205,551.292934600031,551.7937741000205,551.292934600031,551.7937741000205,551.292934600031,551.7937741000205,551.292934600031,551.7937741000205,551.292934600031,551.7937741000205,551.292934600031,551.7937741000205,550.4925569000188,None,551.7937741000205,None,0.8100000000000005,553.2785501000471,None,554.0303365000291,None,,,,,,,[1.47044944],2.960000000000002,0.7640449438202247,11025,001,2024_Jan_08_0912,MFTM_A_new1021,2021.2.3,59.93425215502135,
,,,,,,,,stim/Instruction_adaptive.png,conditions/adaptive.xlsx,test,0.6,0.6,0.6,-0.6,-0.6,right,R,,,,,0,1,1,1,0,89,89,92,,,,,,,,,,,,,,,,,,,,,,,,,,,,,,,,,,,,,,,,,,,,554.5318590999814,None,right,1,2.930656500044279,555.0317691999953,556.385412100004,555.0317691999953,555.8836037999718,555.0317691999953,555.8836037999718,555.0317691999953,555.8836037999718,555.0317691999953,555.8836037999718,555.0317691999953,555.8836037999718,555.8662796999561,556.3684053999605,555.8662796999561,556.3684053999605,555.8662796999561,556.3684053999605,555.8662796999561,556.3684053999605,555.8662796999561,556.3684053999605,555.8662796999561,556.3684053999605,555.8662796999561,556.3684053999605,555.8662796999561,556.3684053999605,555.0317691999953,None,556.3684053999605,557.9869126999984,0.8500000000000005,558.0025917999446,None,558.7550093999598,None,,,,,,,[1.47244444],2.980000000000002,0.7666666666666667,11025,001,2024_Jan_08_0912,MFTM_A_new1021,2021.2.3,59.93425215502135,
,,,,,,,,stim/Instruction_adaptive.png,conditions/adaptive.xlsx,test,-0.6,-0.6,-0.6,0.6,0.6,left,L,,,,,0,1,1,1,0,90,90,37,,,,,,,,,,,,,,,,,,,,,,,,,,,,,,,,,,,,,,,,,,,,559.2559891999699,None,left,1,1.4947558999992907,559.7554573999951,561.091429800028,559.7554573999951,560.5910504000494,559.7554573999951,560.5910504000494,559.7554573999951,560.5910504000494,559.7554573999951,560.5910504000494,559.7554573999951,560.5910504000494,560.5733582000248,561.0746173999505,560.5733582000248,561.0746173999505,560.5733582000248,561.0746173999505,560.5733582000248,561.0746173999505,560.5733582000248,561.0746173999505,560.5733582000248,561.0746173999505,560.5733582000248,561.0746173999505,560.5733582000248,561.0746173999505,559.7554573999951,None,561.0746173999505,None,0.8300000000000005,562.5595520000206,None,563.3114274999825,None,,,,,,,[1.47461538],3.000000000000002,0.7692307692307693,11025,001,2024_Jan_08_0912,MFTM_A_new1021,2021.2.3,59.93425215502135,
,,,,,,,,stim/Instruction_adaptive.png,conditions/adaptive.xlsx,test,0.6,0.6,0.6,-0.6,-0.6,right,R,,,,,0,1,1,1,0,91,91,46,,,,,,,,,,,,,,,,,,,,,,,,,,,,,,,,,,,,,,,,,,,,563.8117010999704,None,right,1,1.8737581999739632,564.3125226000557,565.6314097000286,564.3125226000557,565.1300263999728,564.3125226000557,565.1300263999728,564.3125226000557,565.1300263999728,564.3125226000557,565.1300263999728,564.3125226000557,565.1300263999728,565.1149585000239,565.6149243999971,565.1149585000239,565.6149243999971,565.1149585000239,565.6149243999971,565.1149585000239,565.6149243999971,565.1149585000239,565.6149243999971,565.1149585000239,565.6149243999971,565.1149585000239,565.6149243999971,565.1149585000239,565.6149243999971,564.3125226000557,None,565.6149243999971,567.1017993000569,0.8200000000000005,567.1164375999942,None,567.8673861999996,None,,,,,,,[1.47684783],3.0200000000000022,0.7717391304347826,11025,001,2024_Jan_08_0912,MFTM_A_new1021,2021.2.3,59.93425215502135,
,,,,,,,,stim/Instruction_adaptive.png,conditions/adaptive.xlsx,test,0.6,0.6,0.6,-0.6,-0.6,right,R,,,,,0,1,1,1,0,92,92,88,,,,,,,,,,,,,,,,,,,,,,,,,,,,,,,,,,,,,,,,,,,,568.3690453999443,None,right,1,1.2449239999987185,568.8692879000446,570.187593700015,568.8692879000446,569.6868747000117,568.8692879000446,569.6868747000117,568.8692879000446,569.6868747000117,568.8692879000446,569.6868747000117,568.8692879000446,569.6868747000117,569.653498700005,570.1542326000053,569.653498700005,570.1542326000053,569.653498700005,570.1542326000053,569.653498700005,570.1542326000053,569.653498700005,570.1542326000053,569.653498700005,570.1542326000053,569.653498700005,570.1542326000053,569.653498700005,570.1542326000053,568.8692879000446,None,570.1542326000053,571.640160699957,0.8100000000000005,571.6731234999606,None,572.4248713999987,None,,,,,,,[1.47913978],3.0400000000000023,0.7741935483870968,11025,001,2024_Jan_08_0912,MFTM_A_new1021,2021.2.3,59.93425215502135,
,,,,,,,,stim/Instruction_adaptive.png,conditions/adaptive.xlsx,test,-0.6,-0.6,-0.6,0.6,0.6,left,L,,,,,0,1,1,1,0,93,93,65,,,,,,,,,,,,,,,,,,,,,,,,,,,,,,,,,,,,,,,,,,,,572.9254354999866,None,left,1,1.4727625000523403,573.4257045000559,574.7280067000538,573.4257045000559,574.2277918000473,573.4257045000559,574.2277918000473,573.4257045000559,574.2277918000473,573.4257045000559,574.2277918000473,573.4257045000559,574.2277918000473,574.2107808999717,574.7119651000248,574.2107808999717,574.7119651000248,574.2107808999717,574.7119651000248,574.2107808999717,574.7119651000248,574.2107808999717,574.7119651000248,574.2107808999717,574.7119651000248,574.2107808999717,574.7119651000248,574.2107808999717,574.7119651000248,573.4257045000559,None,574.7119651000248,576.1969502000138,0.8000000000000005,576.2131608000491,None,576.96495100006,None,,,,,,,[1.48148936],3.0600000000000023,0.776595744680851,11025,001,2024_Jan_08_0912,MFTM_A_new1021,2021.2.3,59.93425215502135,
