arrwidth1,arrwidth2,arrwidth3,arrwidth4,arrwidth5,keyb,type,orientation,instruction_image,block_filename,block_type,arrow11,arrow22,arrow33,arrow44,arrow55,keyb_3,orientation3,trials.thisRepN,trials.thisTrialN,trials.thisN,trials.thisIndex,trials_3.thisRepN,trials_3.thisTrialN,trials_3.thisN,trials_3.thisIndex,trials_2.thisRepN,trials_2.thisTrialN,trials_2.thisN,trials_2.thisIndex,welcome.started,welcome.stopped,key_resp.keys,key_resp.rt,key_resp.started,key_resp.stopped,instruction_example.started,instruction_example.stopped,key_resp_3.keys,key_resp_3.rt,key_resp_3.started,key_resp_3.stopped,instruction_task.started,instruction_task.stopped,key_resp_2.keys,key_resp_2.rt,key_resp_2.started,key_resp_2.stopped,text_2.started,text_2.stopped,A1.started,A1.stopped,A2.started,A2.stopped,A3.started,A3.stopped,A4.started,A4.stopped,A5.started,A5.stopped,key_resp_4.keys,key_resp_4.corr,key_resp_4.rt,key_resp_4.started,key_resp_4.stopped,fb.started,fb.stopped,instruction_block.started,instruction_block.stopped,key_resp_8.keys,key_resp_8.rt,key_resp_8.started,key_resp_8.stopped,text_8.started,text_8.stopped,key_resp_9.keys,key_resp_9.corr,key_resp_9.rt,text_5.started,text_5.stopped,A11_3.started,A11_3.stopped,A22_2.started,A22_2.stopped,A33_2.started,A33_2.stopped,A44_2.started,A44_2.stopped,A55_2.started,A55_2.stopped,M1_3.started,M1_3.stopped,M2_2.started,M2_2.stopped,M3_2.started,M3_2.stopped,M4_2.started,M4_2.stopped,M5_2.started,M5_2.stopped,M6_2.started,M6_2.stopped,M7_2.started,M7_2.stopped,M8_2.started,M8_2.stopped,key_resp_9.started,key_resp_9.stopped,fixation.started,fixation.stopped,ET,fb_3.started,fb_3.stopped,text_9.started,text_9.stopped,fb_4.started,fb_4.stopped,text_7.started,text_7.stopped,endtext.started,endtext.stopped,fixation_ITI,CCC,Acc,participant,session,date,expName,psychopyVersion,frameRate,
,,,,,,,,,,,,,,,,,,,,,,,,,,,,,,15.232701299944893,None,space,4.811319099972025,15.232701299944893,None,,,,,,,,,,,,,,,,,,,,,,,,,,,,,,,,,,,,,,,,,,,,,,,,,,,,,,,,,,,,,,,,,,,,,,,,,,,,,,,,,,,,,,,,,11022,002,2024_Jan_05_1933,MFTM_A_new1021,2021.2.3,60.36879296732362,
,,,,,,,,,,,,,,,,,,,,,,,,,,,,,,,,,,,,20.07338429999072,None,space,4.218591200071387,20.07338429999072,None,,,,,,,,,,,,,,,,,,,,,,,,,,,,,,,,,,,,,,,,,,,,,,,,,,,,,,,,,,,,,,,,,,,,,,,,,,,,,,,,,,,11022,002,2024_Jan_05_1933,MFTM_A_new1021,2021.2.3,60.36879296732362,
,,,,,,,,,,,,,,,,,,,,,,,,,,,,,,,,,,,,,,,,,,24.313314799917862,None,space,7.194999500061385,24.313314799917862,None,,,,,,,,,,,,,,,,,,,,,,,,,,,,,,,,,,,,,,,,,,,,,,,,,,,,,,,,,,,,,,,,,,,,,,,,,,,,,11022,002,2024_Jan_05_1933,MFTM_A_new1021,2021.2.3,60.36879296732362,
-0.6,-0.6,-0.6,0.6,0.6,left,3:2,L,,,,,,,,,,,0,0,0,1,,,,,,,,,,,,,,,,,,,,,,,,,,,31.55720019992441,None,31.55720019992441,None,31.55720019992441,None,31.55720019992441,None,31.55720019992441,None,31.55720019992441,None,right,0,5.7593731000088155,31.55720019992441,None,37.34880329994485,None,,,,,,,,,,,,,,,,,,,,,,,,,,,,,,,,,,,,,,,,,,,,,,,,,,,,,,,,,,11022,002,2024_Jan_05_1933,MFTM_A_new1021,2021.2.3,60.36879296732362,
0.6,0.6,0.6,-0.6,-0.6,right,3:2,R,,,,,,,,,,,0,1,1,0,,,,,,,,,,,,,,,,,,,,,,,,,,,38.09963899990544,None,38.09963899990544,None,38.09963899990544,None,38.09963899990544,None,38.09963899990544,None,38.09963899990544,None,right,1,2.560382900061086,38.09963899990544,None,40.68680239992682,None,,,,,,,,,,,,,,,,,,,,,,,,,,,,,,,,,,,,,,,,,,,,,,,,,,,,,,,,,,11022,002,2024_Jan_05_1933,MFTM_A_new1021,2021.2.3,60.36879296732362,
-0.6,-0.6,-0.6,0.6,0.6,left,3:2,L,,,,,,,,,,,1,0,2,1,,,,,,,,,,,,,,,,,,,,,,,,,,,41.43811160000041,None,41.43811160000041,None,41.43811160000041,None,41.43811160000041,None,41.43811160000041,None,41.43811160000041,None,left,1,5.03800219995901,41.43811160000041,None,46.49574269994628,None,,,,,,,,,,,,,,,,,,,,,,,,,,,,,,,,,,,,,,,,,,,,,,,,,,,,,,,,,,11022,002,2024_Jan_05_1933,MFTM_A_new1021,2021.2.3,60.36879296732362,
0.6,0.6,0.6,-0.6,-0.6,right,3:2,R,,,,,,,,,,,1,1,3,0,,,,,,,,,,,,,,,,,,,,,,,,,,,47.246791400015354,None,47.246791400015354,None,47.246791400015354,None,47.246791400015354,None,47.246791400015354,None,47.246791400015354,None,right,1,1.9332667000126094,47.246791400015354,None,49.19967239990365,None,,,,,,,,,,,,,,,,,,,,,,,,,,,,,,,,,,,,,,,,,,,,,,,,,,,,,,,,,,11022,002,2024_Jan_05_1933,MFTM_A_new1021,2021.2.3,60.36879296732362,
,,,,,,,,stim/Instruction_mask.png,conditions/adaptive.xlsx,practice,-0.6,-0.6,-0.6,0.6,0.6,left,L,,,,,0,0,0,0,0,0,0,13,,,,,,,,,,,,,,,,,,,,,,,,,,,,,,,,,,,,,,50.251231399946846,None,space,3.464680799981579,50.251231399946846,None,53.82363689993508,None,left,1,2.1311361000407487,54.25697439990472,None,54.25697439990472,57.262037099921145,54.25697439990472,57.262037099921145,54.25697439990472,57.262037099921145,54.25697439990472,57.262037099921145,54.25697439990472,57.262037099921145,57.24481319996994,57.74562820000574,57.24481319996994,57.74562820000574,57.24481319996994,57.74562820000574,57.24481319996994,57.74562820000574,57.24481319996994,57.74562820000574,57.24481319996994,57.74562820000574,57.24481319996994,57.74562820000574,57.24481319996994,57.74562820000574,54.25697439990472,None,57.74562820000574,57.74562820000574,3,57.76233079994563,None,58.51337299996521,None,,,,,,,,,,11022,002,2024_Jan_05_1933,MFTM_A_new1021,2021.2.3,60.36879296732362,
,,,,,,,,stim/Instruction_mask.png,conditions/adaptive.xlsx,practice,0.6,0.6,0.6,-0.6,-0.6,right,R,,,,,0,0,0,0,0,1,1,18,,,,,,,,,,,,,,,,,,,,,,,,,,,,,,,,,,,,,,,,,,,,59.014056199928746,None,right,1,2.0245634999591857,59.515163799980655,61.51800149993505,59.515163799980655,61.017579499981366,59.515163799980655,61.017579499981366,59.515163799980655,61.017579499981366,59.515163799980655,61.017579499981366,59.515163799980655,61.017579499981366,61.00059449998662,61.50133180001285,61.00059449998662,61.50133180001285,61.00059449998662,61.50133180001285,61.00059449998662,61.50133180001285,61.00059449998662,61.50133180001285,61.00059449998662,61.50133180001285,61.00059449998662,61.50133180001285,61.00059449998662,61.50133180001285,59.515163799980655,None,61.50133180001285,63.00347349990625,1.5,63.020323999924585,None,63.77298199990764,None,,,,,,,,,,11022,002,2024_Jan_05_1933,MFTM_A_new1021,2021.2.3,60.36879296732362,
,,,,,,,,stim/Instruction_mask.png,conditions/adaptive.xlsx,practice,-0.6,-0.6,-0.6,0.6,0.6,left,L,,,,,0,0,0,0,0,2,2,37,,,,,,,,,,,,,,,,,,,,,,,,,,,,,,,,,,,,,,,,,,,,64.27218219998758,None,left,1,1.3350389000261202,64.77291429997422,66.07460549997631,64.77291429997422,65.57385119993705,64.77291429997422,65.57385119993705,64.77291429997422,65.57385119993705,64.77291429997422,65.57385119993705,64.77291429997422,65.57385119993705,65.557374099968,66.05790829996113,65.557374099968,66.05790829996113,65.557374099968,66.05790829996113,65.557374099968,66.05790829996113,65.557374099968,66.05790829996113,65.557374099968,66.05790829996113,65.557374099968,66.05790829996113,65.557374099968,66.05790829996113,64.77291429997422,None,66.05790829996113,68.26126409997232,0.8,68.27793949993793,None,69.02913889999036,None,,,,,,,,,,11022,002,2024_Jan_05_1933,MFTM_A_new1021,2021.2.3,60.36879296732362,
,,,,,,,,stim/Instruction_mask.png,conditions/adaptive.xlsx,practice,-0.6,-0.6,-0.6,0.6,0.6,left,L,,,,,0,0,0,0,0,3,3,51,,,,,,,,,,,,,,,,,,,,,,,,,,,,,,,,,,,,,,,,,,,,69.52981259999797,None,left,1,0.7575497999787331,70.03046879998874,70.78166009997949,70.03046879998874,70.28097079996951,70.03046879998874,70.28097079996951,70.03046879998874,70.28097079996951,70.03046879998874,70.28097079996951,70.03046879998874,70.28097079996951,70.26435269997455,70.76521469990257,70.26435269997455,70.76521469990257,70.26435269997455,70.76521469990257,70.26435269997455,70.76521469990257,70.26435269997455,70.76521469990257,70.26435269997455,70.76521469990257,70.26435269997455,70.76521469990257,70.26435269997455,70.76521469990257,70.03046879998874,None,70.76521469990257,73.51921719999518,3,73.53563419997226,None,74.2871349999914,None,,,,,,,,,,11022,002,2024_Jan_05_1933,MFTM_A_new1021,2021.2.3,60.36879296732362,
,,,,,,,,stim/Instruction_mask.png,conditions/adaptive.xlsx,practice,,,,,,,,,,,,0,0,0,0,,,,,,,,,,,,,,,,,,,,,,,,,,,,,,,,,,,,,,,,,,,,,,,,,,,,,,,,,,,,,,,,,,,,,,,,,,,,,,,,,,,,,,,,,,74.80389859993011,75.80599209992215,75.78921249997802,75.78921249997802,75.78921249997802,None,,,,11022,002,2024_Jan_05_1933,MFTM_A_new1021,2021.2.3,60.36879296732362,
,,,,,,,,stim/Instruction_adaptive.png,conditions/adaptive.xlsx,test,0.6,0.6,0.6,-0.6,-0.6,right,R,,,,,0,1,1,1,0,0,0,34,,,,,,,,,,,,,,,,,,,,,,,,,,,,,,,,,,,,,,79.060487599927,None,space,3.7996499000582844,79.060487599927,None,82.89944219996687,None,right,1,1.8679011999629438,83.40042439999525,None,83.40042439999525,86.40498180000577,83.40042439999525,86.40498180000577,83.40042439999525,86.40498180000577,83.40042439999525,86.40498180000577,83.40042439999525,86.40498180000577,86.3881168999942,86.88871849991847,86.3881168999942,86.88871849991847,86.3881168999942,86.88871849991847,86.3881168999942,86.88871849991847,86.3881168999942,86.88871849991847,86.3881168999942,86.88871849991847,86.3881168999942,86.88871849991847,86.3881168999942,86.88871849991847,83.40042439999525,None,86.88871849991847,86.88871849991847,3,86.90581209992524,None,87.65718209999613,None,,,,,,,0,6.000000000000005,1.0,11022,002,2024_Jan_05_1933,MFTM_A_new1021,2021.2.3,60.36879296732362,
,,,,,,,,stim/Instruction_adaptive.png,conditions/adaptive.xlsx,test,-0.6,-0.6,-0.6,0.6,0.6,left,L,,,,,0,1,1,1,0,1,1,25,,,,,,,,,,,,,,,,,,,,,,,,,,,,,,,,,,,,,,,,,,,,88.1572685999563,None,left,1,0.8256889999611303,88.65817599999718,89.40919989999384,88.65817599999718,88.90869019995444,88.65817599999718,88.90869019995444,88.65817599999718,88.90869019995444,88.65817599999718,88.90869019995444,88.65817599999718,88.90869019995444,88.8919956999598,89.3925247999141,88.8919956999598,89.3925247999141,88.8919956999598,89.3925247999141,88.8919956999598,89.3925247999141,88.8919956999598,89.3925247999141,88.8919956999598,89.3925247999141,88.8919956999598,89.3925247999141,88.8919956999598,89.3925247999141,88.65817599999718,None,89.3925247999141,90.27871819993015,0.25,90.29381519998424,None,91.04517379996832,None,,,,,,,[0.875],6.000000000000005,1.0,11022,002,2024_Jan_05_1933,MFTM_A_new1021,2021.2.3,60.36879296732362,
,,,,,,,,stim/Instruction_adaptive.png,conditions/adaptive.xlsx,test,0.6,0.6,0.6,-0.6,-0.6,right,R,,,,,0,1,1,1,0,2,2,2,,,,,,,,,,,,,,,,,,,,,,,,,,,,,,,,,,,,,,,,,,,,91.54609069996513,None,left,0,0.7187139000743628,92.04637649992947,92.79763639997691,92.04637649992947,92.29733309999574,92.04637649992947,92.29733309999574,92.04637649992947,92.29733309999574,92.04637649992947,92.29733309999574,92.04637649992947,92.29733309999574,92.28009899996687,92.78086850000545,92.28009899996687,92.78086850000545,92.28009899996687,92.78086850000545,92.28009899996687,92.78086850000545,92.28009899996687,92.78086850000545,92.28009899996687,92.78086850000545,92.28009899996687,92.78086850000545,92.28009899996687,92.78086850000545,92.04637649992947,None,92.78086850000545,94.11647130001802,0.25,94.13283689995296,None,94.88412920001429,None,,,,,,,[1.33333333],3.1800000000000024,0.6666666666666666,11022,002,2024_Jan_05_1933,MFTM_A_new1021,2021.2.3,60.36879296732362,
,,,,,,,,stim/Instruction_adaptive.png,conditions/adaptive.xlsx,test,-0.6,-0.6,-0.6,0.6,0.6,left,L,,,,,0,1,1,1,0,3,3,27,,,,,,,,,,,,,,,,,,,,,,,,,,,,,,,,,,,,,,,,,,,,95.38494979997631,None,left,1,1.7421395999845117,95.88576799992006,97.12118959997315,95.88576799992006,96.62014919996727,95.88576799992006,96.62014919996727,95.88576799992006,96.62014919996727,95.88576799992006,96.62014919996727,95.88576799992006,96.62014919996727,96.60359800001606,97.10414899990428,96.60359800001606,97.10414899990428,96.60359800001606,97.10414899990428,96.60359800001606,97.10414899990428,96.60359800001606,97.10414899990428,96.60359800001606,97.10414899990428,96.60359800001606,97.10414899990428,96.60359800001606,97.10414899990428,95.88576799992006,None,97.10414899990428,98.55651569995098,0.7300000000000004,98.57264779997058,None,99.32402639999054,None,,,,,,,[1.4425],4.030000000000003,0.75,11022,002,2024_Jan_05_1933,MFTM_A_new1021,2021.2.3,60.36879296732362,
,,,,,,,,stim/Instruction_adaptive.png,conditions/adaptive.xlsx,test,-0.6,-0.6,-0.6,0.6,0.6,left,L,,,,,0,1,1,1,0,4,4,51,,,,,,,,,,,,,,,,,,,,,,,,,,,,,,,,,,,,,,,,,,,,99.82489719998557,None,right,0,1.2466996000148356,100.3257614999311,101.22670349990949,100.3257614999311,100.7261528999079,100.3257614999311,100.7261528999079,100.3257614999311,100.7261528999079,100.3257614999311,100.7261528999079,100.3257614999311,100.7261528999079,100.70940799999516,101.21015980001539,100.70940799999516,101.21015980001539,100.70940799999516,101.21015980001539,100.70940799999516,101.21015980001539,100.70940799999516,101.21015980001539,100.70940799999516,101.21015980001539,100.70940799999516,101.21015980001539,100.70940799999516,101.21015980001539,100.3257614999311,None,101.21015980001539,102.79627359996084,0.40000000000000013,102.81215659994632,None,103.56372609990649,None,,,,,,,[1.574],2.8100000000000023,0.6,11022,002,2024_Jan_05_1933,MFTM_A_new1021,2021.2.3,60.36879296732362,
,,,,,,,,stim/Instruction_adaptive.png,conditions/adaptive.xlsx,test,0.6,0.6,0.6,-0.6,-0.6,right,R,,,,,0,1,1,1,0,5,5,46,,,,,,,,,,,,,,,,,,,,,,,,,,,,,,,,,,,,,,,,,,,,104.06434749998152,None,left,0,1.3429500000784174,104.56492239993531,106.01728129992262,104.56492239993531,105.5164546999149,104.56492239993531,105.5164546999149,104.56492239993531,105.5164546999149,104.56492239993531,105.5164546999149,104.56492239993531,105.5164546999149,105.48299429996405,105.98434439999983,105.48299429996405,105.98434439999983,105.48299429996405,105.98434439999983,105.48299429996405,105.98434439999983,105.48299429996405,105.98434439999983,105.48299429996405,105.98434439999983,105.48299429996405,105.98434439999983,105.48299429996405,105.98434439999983,104.56492239993531,None,105.98434439999983,107.55301279993728,0.9400000000000006,107.56969129992649,None,108.32064479996916,None,,,,,,,[[1.56]],1.3500000000000008,0.5,11022,002,2024_Jan_05_1933,MFTM_A_new1021,2021.2.3,60.36879296732362,
,,,,,,,,stim/Instruction_adaptive.png,conditions/adaptive.xlsx,test,0.6,0.6,0.6,-0.6,-0.6,right,R,,,,,0,1,1,1,0,6,6,72,,,,,,,,,,,,,,,,,,,,,,,,,,,,,,,,,,,,,,,,,,,,108.82126009999774,None,right,1,1.4982116000028327,109.32190380000975,None,109.32190380000975,111.90928449993953,109.32190380000975,111.90928449993953,109.32190380000975,111.90928449993953,109.32190380000975,111.90928449993953,109.32190380000975,111.90928449993953,111.89255599991884,112.39370359992608,111.89255599991884,112.39370359992608,111.89255599991884,112.39370359992608,111.89255599991884,112.39370359992608,111.89255599991884,112.39370359992608,111.89255599991884,112.39370359992608,111.89255599991884,112.39370359992608,111.89255599991884,112.39370359992608,109.32190380000975,None,112.37680849991739,112.37680849991739,2.580000000000002,112.40973959991243,None,113.16134210000746,None,,,,,,,0,2.0500000000000016,0.5714285714285714,11022,002,2024_Jan_05_1933,MFTM_A_new1021,2021.2.3,60.36879296732362,
,,,,,,,,stim/Instruction_adaptive.png,conditions/adaptive.xlsx,test,-0.6,-0.6,-0.6,0.6,0.6,left,L,,,,,0,1,1,1,0,7,7,19,,,,,,,,,,,,,,,,,,,,,,,,,,,,,,,,,,,,,,,,,,,,113.66291129996534,None,left,1,1.3222381999948993,114.16252959996928,116.26662219990976,114.16252959996928,115.76585199998226,114.16252959996928,115.76585199998226,114.16252959996928,115.76585199998226,114.16252959996928,115.76585199998226,114.16252959996928,115.76585199998226,115.73153260000981,116.23234549991321,115.73153260000981,116.23234549991321,115.73153260000981,116.23234549991321,115.73153260000981,116.23234549991321,115.73153260000981,116.23234549991321,115.73153260000981,116.23234549991321,115.73153260000981,116.23234549991321,115.73153260000981,116.23234549991321,114.16252959996928,None,116.23234549991321,117.1504847999895,1.5900000000000012,117.16713660000823,None,117.91848629992455,None,,,,,,,[[0.91]],2.4300000000000015,0.625,11022,002,2024_Jan_05_1933,MFTM_A_new1021,2021.2.3,60.36879296732362,
,,,,,,,,stim/Instruction_adaptive.png,conditions/adaptive.xlsx,test,-0.6,-0.6,-0.6,0.6,0.6,left,L,,,,,0,1,1,1,0,8,8,95,,,,,,,,,,,,,,,,,,,,,,,,,,,,,,,,,,,,,,,,,,,,118.4190871999599,None,left,1,1.3729690000182018,118.91978969995398,120.63885029999074,118.91978969995398,120.13828229997307,118.91978969995398,120.13828229997307,118.91978969995398,120.13828229997307,118.91978969995398,120.13828229997307,118.91978969995398,120.13828229997307,120.12263699993491,120.6228796999203,120.12263699993491,120.6228796999203,120.12263699993491,120.6228796999203,120.12263699993491,120.6228796999203,120.12263699993491,120.6228796999203,120.12263699993491,120.6228796999203,120.12263699993491,120.6228796999203,120.12263699993491,120.6228796999203,118.91978969995398,None,120.6228796999203,121.9072351999348,1.2200000000000009,121.92463109991513,None,122.67536659992766,None,,,,,,,[[1.28]],2.7100000000000017,0.6666666666666666,11022,002,2024_Jan_05_1933,MFTM_A_new1021,2021.2.3,60.36879296732362,
,,,,,,,,stim/Instruction_adaptive.png,conditions/adaptive.xlsx,test,0.6,0.6,0.6,-0.6,-0.6,right,R,,,,,0,1,1,1,0,9,9,80,,,,,,,,,,,,,,,,,,,,,,,,,,,,,,,,,,,,,,,,,,,,123.17693839990534,None,right,1,1.4877157000591978,123.67719079996459,125.19669359992258,123.67719079996459,124.69564960000571,123.67719079996459,124.69564960000571,123.67719079996459,124.69564960000571,123.67719079996459,124.69564960000571,123.67719079996459,124.69564960000571,124.66145629994571,125.16350819997024,124.66145629994571,125.16350819997024,124.66145629994571,125.16350819997024,124.66145629994571,125.16350819997024,124.66145629994571,125.16350819997024,124.66145629994571,125.16350819997024,124.66145629994571,125.16350819997024,124.66145629994571,125.16350819997024,123.67719079996459,None,125.16350819997024,126.48088329995517,1.0100000000000007,126.49762579996604,None,127.24843089992646,None,,,,,,,[1.303],2.940000000000002,0.7,11022,002,2024_Jan_05_1933,MFTM_A_new1021,2021.2.3,60.36879296732362,
,,,,,,,,stim/Instruction_adaptive.png,conditions/adaptive.xlsx,test,-0.6,-0.6,-0.6,0.6,0.6,left,L,,,,,0,1,1,1,0,10,10,15,,,,,,,,,,,,,,,,,,,,,,,,,,,,,,,,,,,,,,,,,,,,127.750103999977,None,right,0,1.234859999967739,128.25024439999834,129.6188863000134,128.25024439999834,129.11834559997078,128.25024439999834,129.11834559997078,128.25024439999834,129.11834559997078,128.25024439999834,129.11834559997078,128.25024439999834,129.11834559997078,129.08529570000246,129.58646439993754,129.08529570000246,129.58646439993754,129.08529570000246,129.58646439993754,129.08529570000246,129.58646439993754,129.08529570000246,129.58646439993754,129.08529570000246,129.58646439993754,129.08529570000246,129.58646439993754,129.08529570000246,129.58646439993754,128.25024439999834,None,129.58646439993754,130.92129319999367,0.8600000000000005,130.95421479991637,None,131.70552379998844,None,,,,,,,[1.33363636],2.4000000000000017,0.6363636363636364,11022,002,2024_Jan_05_1933,MFTM_A_new1021,2021.2.3,60.36879296732362,
,,,,,,,,stim/Instruction_adaptive.png,conditions/adaptive.xlsx,test,0.6,0.6,0.6,-0.6,-0.6,right,R,,,,,0,1,1,1,0,11,11,96,,,,,,,,,,,,,,,,,,,,,,,,,,,,,,,,,,,,,,,,,,,,132.207079899963,None,right,1,1.5611438000341877,132.70689029991627,134.45954549999442,132.70689029991627,133.9588795999298,132.70689029991627,133.9588795999298,132.70689029991627,133.9588795999298,132.70689029991627,133.9588795999298,132.70689029991627,133.9588795999298,133.94183689996134,134.44272139994428,133.94183689996134,134.44272139994428,133.94183689996134,134.44272139994428,133.94183689996134,134.44272139994428,133.94183689996134,134.44272139994428,133.94183689996134,134.44272139994428,133.94183689996134,134.44272139994428,133.94183689996134,134.44272139994428,132.70689029991627,None,134.44272139994428,135.6944837999763,1.2500000000000009,135.7113067000173,None,136.46251149999443,None,,,,,,,[[1.25]],2.610000000000002,0.6666666666666666,11022,002,2024_Jan_05_1933,MFTM_A_new1021,2021.2.3,60.36879296732362,
,,,,,,,,stim/Instruction_adaptive.png,conditions/adaptive.xlsx,test,0.6,0.6,0.6,-0.6,-0.6,right,R,,,,,0,1,1,1,0,12,12,70,,,,,,,,,,,,,,,,,,,,,,,,,,,,,,,,,,,,,,,,,,,,136.9632825999288,None,right,1,1.5330181000754237,137.46371169993654,139.0498691999819,137.46371169993654,138.54945910000242,137.46371169993654,138.54945910000242,137.46371169993654,138.54945910000242,137.46371169993654,138.54945910000242,137.46371169993654,138.54945910000242,138.53221380000468,139.03276729991194,138.53221380000468,139.03276729991194,138.53221380000468,139.03276729991194,138.53221380000468,139.03276729991194,138.53221380000468,139.03276729991194,138.53221380000468,139.03276729991194,138.53221380000468,139.03276729991194,138.53221380000468,139.03276729991194,137.46371169993654,None,139.03276729991194,140.36885389999952,1.0800000000000007,140.3850167999044,None,141.13590079999994,None,,,,,,,[1.33384615],2.780000000000002,0.6923076923076923,11022,002,2024_Jan_05_1933,MFTM_A_new1021,2021.2.3,60.36879296732362,
,,,,,,,,stim/Instruction_adaptive.png,conditions/adaptive.xlsx,test,-0.6,-0.6,-0.6,0.6,0.6,left,L,,,,,0,1,1,1,0,13,13,43,,,,,,,,,,,,,,,,,,,,,,,,,,,,,,,,,,,,,,,,,,,,141.63679539994337,None,right,0,1.5879746000282466,142.13738629990257,143.60663159994874,142.13738629990257,143.10626909998246,142.13738629990257,143.10626909998246,142.13738629990257,143.10626909998246,142.13738629990257,143.10626909998246,142.13738629990257,143.10626909998246,143.07266930001788,143.57269880000968,143.07266930001788,143.57269880000968,143.07266930001788,143.57269880000968,143.07266930001788,143.57269880000968,143.07266930001788,143.57269880000968,143.07266930001788,143.57269880000968,143.07266930001788,143.57269880000968,143.07266930001788,143.57269880000968,142.13738629990257,None,143.57269880000968,144.9249214999145,0.9600000000000006,144.95835999993142,None,145.71031210001092,None,,,,,,,[1.34857143],2.3400000000000016,0.6428571428571429,11022,002,2024_Jan_05_1933,MFTM_A_new1021,2021.2.3,60.36879296732362,
,,,,,,,,stim/Instruction_adaptive.png,conditions/adaptive.xlsx,test,-0.6,-0.6,-0.6,0.6,0.6,left,L,,,,,0,1,1,1,0,14,14,55,,,,,,,,,,,,,,,,,,,,,,,,,,,,,,,,,,,,,,,,,,,,146.211270699976,None,left,1,2.3008730000583455,146.71105299994815,148.51429929991718,146.71105299994815,148.01380209997296,146.71105299994815,148.01380209997296,146.71105299994815,148.01380209997296,146.71105299994815,148.01380209997296,146.71105299994815,148.01380209997296,147.99605489999522,148.49809919996187,147.99605489999522,148.49809919996187,147.99605489999522,148.49809919996187,147.99605489999522,148.49809919996187,147.99605489999522,148.49809919996187,147.99605489999522,148.49809919996187,147.99605489999522,148.49809919996187,147.99605489999522,148.49809919996187,146.71105299994815,None,148.49809919996187,149.70068869995885,1.300000000000001,149.71523269999307,None,150.46679729991592,None,,,,,,,[[1.2]],2.5100000000000016,0.6666666666666666,11022,002,2024_Jan_05_1933,MFTM_A_new1021,2021.2.3,60.36879296732362,
,,,,,,,,stim/Instruction_adaptive.png,conditions/adaptive.xlsx,test,0.6,0.6,0.6,-0.6,-0.6,right,R,,,,,0,1,1,1,0,15,15,94,,,,,,,,,,,,,,,,,,,,,,,,,,,,,,,,,,,,,,,,,,,,150.9684460000135,None,right,1,1.6333283999701962,151.46764709998388,153.1205151999602,151.46764709998388,152.62062399997376,151.46764709998388,152.62062399997376,151.46764709998388,152.62062399997376,151.46764709998388,152.62062399997376,151.46764709998388,152.62062399997376,152.6030198999215,153.10401409992483,152.6030198999215,153.10401409992483,152.6030198999215,153.10401409992483,152.6030198999215,153.10401409992483,152.6030198999215,153.10401409992483,152.6030198999215,153.10401409992483,152.6030198999215,153.10401409992483,152.6030198999215,153.10401409992483,151.46764709998388,None,153.10401409992483,154.45814879995305,1.1500000000000008,154.47216339991428,None,155.22404699993785,None,,,,,,,[1.339375],2.660000000000002,0.6875,11022,002,2024_Jan_05_1933,MFTM_A_new1021,2021.2.3,60.36879296732362,
,,,,,,,,stim/Instruction_adaptive.png,conditions/adaptive.xlsx,test,-0.6,-0.6,-0.6,0.6,0.6,left,L,,,,,0,1,1,1,0,16,16,79,,,,,,,,,,,,,,,,,,,,,,,,,,,,,,,,,,,,,,,,,,,,155.72567720001098,None,left,1,1.5477231999393553,156.22474819992203,157.77769309992436,156.22474819992203,157.2766725999536,156.22474819992203,157.2766725999536,156.22474819992203,157.2766725999536,156.22474819992203,157.2766725999536,156.22474819992203,157.2766725999536,157.24387479992583,157.74428210000042,157.24387479992583,157.74428210000042,157.24387479992583,157.74428210000042,157.24387479992583,157.74428210000042,157.24387479992583,157.74428210000042,157.24387479992583,157.74428210000042,157.24387479992583,157.74428210000042,157.24387479992583,157.74428210000042,156.22474819992203,None,157.74428210000042,159.09623339993414,1.0400000000000007,159.1126744999783,None,159.86437889991794,None,,,,,,,[1.34647059],2.780000000000002,0.7058823529411765,11022,002,2024_Jan_05_1933,MFTM_A_new1021,2021.2.3,60.36879296732362,
,,,,,,,,stim/Instruction_adaptive.png,conditions/adaptive.xlsx,test,-0.6,-0.6,-0.6,0.6,0.6,left,L,,,,,0,1,1,1,0,17,17,65,,,,,,,,,,,,,,,,,,,,,,,,,,,,,,,,,,,,,,,,,,,,160.36448889994062,None,right,0,1.6430715000024065,160.86522719997447,162.33423879998736,160.86522719997447,161.834274899913,160.86522719997447,161.834274899913,160.86522719997447,161.834274899913,160.86522719997447,161.834274899913,160.86522719997447,161.834274899913,161.81740449997596,162.31766399997286,161.81740449997596,162.31766399997286,161.81740449997596,162.31766399997286,161.81740449997596,162.31766399997286,161.81740449997596,162.31766399997286,161.81740449997596,162.31766399997286,161.81740449997596,162.31766399997286,161.81740449997596,162.31766399997286,160.86522719997447,None,162.3008792999899,163.66991169995163,0.9600000000000006,163.68588649993762,None,164.43733019998763,None,,,,,,,[1.35722222],2.450000000000002,0.6666666666666666,11022,002,2024_Jan_05_1933,MFTM_A_new1021,2021.2.3,60.36879296732362,
,,,,,,,,stim/Instruction_adaptive.png,conditions/adaptive.xlsx,test,-0.6,-0.6,-0.6,0.6,0.6,left,L,,,,,0,1,1,1,0,18,18,37,,,,,,,,,,,,,,,,,,,,,,,,,,,,,,,,,,,,,,,,,,,,164.93887439998798,None,left,1,1.5258274000370875,165.4383953999495,167.1417599999113,165.4383953999495,166.64133949996904,165.4383953999495,166.64133949996904,165.4383953999495,166.64133949996904,165.4383953999495,166.64133949996904,165.4383953999495,166.64133949996904,166.6237475000089,167.1252924000146,166.6237475000089,167.1252924000146,166.6237475000089,167.1252924000146,166.6237475000089,167.1252924000146,166.6237475000089,167.1252924000146,166.6237475000089,167.1252924000146,166.6237475000089,167.1252924000146,166.6237475000089,167.1252924000146,165.4383953999495,None,167.1252924000146,168.4274473999394,1.2000000000000008,168.4425438999897,None,169.19430420000572,None,,,,,,,[[1.3]],2.570000000000002,0.6842105263157895,11022,002,2024_Jan_05_1933,MFTM_A_new1021,2021.2.3,60.36879296732362,
,,,,,,,,stim/Instruction_adaptive.png,conditions/adaptive.xlsx,test,0.6,0.6,0.6,-0.6,-0.6,right,R,,,,,0,1,1,1,0,19,19,14,,,,,,,,,,,,,,,,,,,,,,,,,,,,,,,,,,,,,,,,,,,,169.69529559998773,None,left,0,1.4489784000907093,170.19569239998236,171.81492389994673,170.19569239998236,171.3139335999731,170.19569239998236,171.3139335999731,170.19569239998236,171.3139335999731,170.19569239998236,171.3139335999731,170.19569239998236,171.3139335999731,171.28198289999273,171.78131589991972,171.28198289999273,171.78131589991972,171.28198289999273,171.78131589991972,171.28198289999273,171.78131589991972,171.28198289999273,171.78131589991972,171.28198289999273,171.78131589991972,171.28198289999273,171.78131589991972,171.28198289999273,171.78131589991972,170.19569239998236,None,171.78131589991972,173.15038120001554,1.1100000000000008,173.16666659992188,None,173.917792799999,None,,,,,,,[1.356],2.2300000000000013,0.65,11022,002,2024_Jan_05_1933,MFTM_A_new1021,2021.2.3,60.36879296732362,
,,,,,,,,stim/Instruction_adaptive.png,conditions/adaptive.xlsx,test,-0.6,-0.6,-0.6,0.6,0.6,left,L,,,,,0,1,1,1,0,20,20,29,,,,,,,,,,,,,,,,,,,,,,,,,,,,,,,,,,,,,,,,,,,,174.41857719991822,None,left,1,1.8607813999988139,174.9191890999209,176.82229619997088,174.9191890999209,176.32179069996346,174.9191890999209,176.32179069996346,174.9191890999209,176.32179069996346,174.9191890999209,176.32179069996346,174.9191890999209,176.32179069996346,176.30538749997504,176.80552509997506,176.30538749997504,176.80552509997506,176.30538749997504,176.80552509997506,176.30538749997504,176.80552509997506,176.30538749997504,176.80552509997506,176.30538749997504,176.80552509997506,176.30538749997504,176.80552509997506,176.30538749997504,176.80552509997506,174.9191890999209,None,176.80552509997506,177.9071369000012,1.400000000000001,177.92386709991843,None,178.6754960999824,None,,,,,,,[[1.1]],2.3600000000000017,0.6666666666666666,11022,002,2024_Jan_05_1933,MFTM_A_new1021,2021.2.3,60.36879296732362,
,,,,,,,,stim/Instruction_adaptive.png,conditions/adaptive.xlsx,test,-0.6,-0.6,-0.6,0.6,0.6,left,L,,,,,0,1,1,1,0,21,21,63,,,,,,,,,,,,,,,,,,,,,,,,,,,,,,,,,,,,,,,,,,,,179.17675589991268,None,right,0,1.759931799955666,179.6766339999158,181.46265729994047,179.6766339999158,180.96178010001313,179.6766339999158,180.96178010001313,179.6766339999158,180.96178010001313,179.6766339999158,180.96178010001313,179.6766339999158,180.96178010001313,180.945298000006,181.44571939995512,180.945298000006,181.44571939995512,180.945298000006,181.44571939995512,180.945298000006,181.44571939995512,180.945298000006,181.44571939995512,180.945298000006,181.44571939995512,180.945298000006,181.44571939995512,180.945298000006,181.44571939995512,179.6766339999158,None,181.44571939995512,None,1.280000000000001,182.6811220999807,None,183.43201029999182,None,,,,,,,[[1.22]],2.0200000000000014,0.6363636363636364,11022,002,2024_Jan_05_1933,MFTM_A_new1021,2021.2.3,60.36879296732362,
,,,,,,,,stim/Instruction_adaptive.png,conditions/adaptive.xlsx,test,-0.6,-0.6,-0.6,0.6,0.6,left,L,,,,,0,1,1,1,0,22,22,17,,,,,,,,,,,,,,,,,,,,,,,,,,,,,,,,,,,,,,,,,,,,183.932904999936,None,left,1,2.034569500014186,184.43361880001612,186.5533027999336,184.43361880001612,186.05276599992067,184.43361880001612,186.05276599992067,184.43361880001612,186.05276599992067,184.43361880001612,186.05276599992067,184.43361880001612,186.05276599992067,186.03676769998856,186.5368141999934,186.03676769998856,186.5368141999934,186.03676769998856,186.5368141999934,186.03676769998856,186.5368141999934,186.03676769998856,186.5368141999934,186.03676769998856,186.5368141999934,186.03676769998856,186.5368141999934,186.03676769998856,186.5368141999934,184.43361880001612,None,186.5368141999934,187.42211059993133,1.6200000000000012,187.43710679991636,None,188.18916959990747,None,,,,,,,[[0.88]],2.1500000000000012,0.6521739130434783,11022,002,2024_Jan_05_1933,MFTM_A_new1021,2021.2.3,60.36879296732362,
,,,,,,,,stim/Instruction_adaptive.png,conditions/adaptive.xlsx,test,-0.6,-0.6,-0.6,0.6,0.6,left,L,,,,,0,1,1,1,0,23,23,61,,,,,,,,,,,,,,,,,,,,,,,,,,,,,,,,,,,,,,,,,,,,188.6913045999827,None,left,1,1.9495468999957666,189.19126399990637,191.17706819996238,189.19126399990637,190.67601709999144,189.19126399990637,190.67601709999144,189.19126399990637,190.67601709999144,189.19126399990637,190.67601709999144,189.19126399990637,190.67601709999144,190.6596035999246,191.16019069997128,190.6596035999246,191.16019069997128,190.6596035999246,191.16019069997128,190.6596035999246,191.16019069997128,190.6596035999246,191.16019069997128,190.6596035999246,191.16019069997128,190.6596035999246,191.16019069997128,190.6596035999246,191.16019069997128,189.19126399990637,None,191.16019069997128,None,1.480000000000001,192.19572209997568,None,192.94619049993344,None,,,,,,,[[1.02]],2.2600000000000016,0.6666666666666666,11022,002,2024_Jan_05_1933,MFTM_A_new1021,2021.2.3,60.36879296732362,
,,,,,,,,stim/Instruction_adaptive.png,conditions/adaptive.xlsx,test,-0.6,-0.6,-0.6,0.6,0.6,left,L,,,,,0,1,1,1,0,24,24,73,,,,,,,,,,,,,,,,,,,,,,,,,,,,,,,,,,,,,,,,,,,,193.44675789994653,None,left,1,1.3849211999913678,193.94795760000125,195.81816189992242,193.94795760000125,195.33350710000377,193.94795760000125,195.33350710000377,193.94795760000125,195.33350710000377,193.94795760000125,195.33350710000377,193.94795760000125,195.33350710000377,195.29982949991245,195.8004251999082,195.29982949991245,195.8004251999082,195.29982949991245,195.8004251999082,195.29982949991245,195.8004251999082,195.29982949991245,195.8004251999082,195.29982949991245,195.8004251999082,195.29982949991245,195.8004251999082,195.29982949991245,195.8004251999082,193.94795760000125,None,195.8004251999082,196.93632539990358,1.370000000000001,196.95201639994048,None,197.70331659994554,None,,,,,,,[[1.13]],2.3600000000000017,0.68,11022,002,2024_Jan_05_1933,MFTM_A_new1021,2021.2.3,60.36879296732362,
,,,,,,,,stim/Instruction_adaptive.png,conditions/adaptive.xlsx,test,0.6,0.6,0.6,-0.6,-0.6,right,R,,,,,0,1,1,1,0,25,25,68,,,,,,,,,,,,,,,,,,,,,,,,,,,,,,,,,,,,,,,,,,,,198.20435020001605,None,right,1,1.7075901000062004,198.70463469997048,200.490367099992,198.70463469997048,199.9901018999517,198.70463469997048,199.9901018999517,198.70463469997048,199.9901018999517,198.70463469997048,199.9901018999517,198.70463469997048,199.9901018999517,199.973259099992,200.47371849999763,199.973259099992,200.47371849999763,199.973259099992,200.47371849999763,199.973259099992,200.47371849999763,199.973259099992,200.47371849999763,199.973259099992,200.47371849999763,199.973259099992,200.47371849999763,199.973259099992,200.47371849999763,198.70463469997048,None,200.47371849999763,201.69343709992245,1.280000000000001,201.7103071999736,None,202.46066179999616,None,,,,,,,[[1.22]],2.450000000000002,0.6923076923076923,11022,002,2024_Jan_05_1933,MFTM_A_new1021,2021.2.3,60.36879296732362,
,,,,,,,,stim/Instruction_adaptive.png,conditions/adaptive.xlsx,test,-0.6,-0.6,-0.6,0.6,0.6,left,L,,,,,0,1,1,1,0,26,26,33,,,,,,,,,,,,,,,,,,,,,,,,,,,,,,,,,,,,,,,,,,,,202.96098979993258,None,left,1,1.1908147999783978,203.46164260001387,205.16434989997651,203.46164260001387,204.66333589993883,203.46164260001387,204.66333589993883,203.46164260001387,204.66333589993883,203.46164260001387,204.66333589993883,203.46164260001387,204.66333589993883,204.6469422999071,205.14785339997616,204.6469422999071,205.14785339997616,204.6469422999071,205.14785339997616,204.6469422999071,205.14785339997616,204.6469422999071,205.14785339997616,204.6469422999071,205.14785339997616,204.6469422999071,205.14785339997616,204.6469422999071,205.14785339997616,203.46164260001387,None,205.14785339997616,206.44957749999594,1.2000000000000008,206.4662290000124,None,207.21725909993984,None,,,,,,,[1.29592593],2.530000000000002,0.7037037037037037,11022,002,2024_Jan_05_1933,MFTM_A_new1021,2021.2.3,60.36879296732362,
,,,,,,,,stim/Instruction_adaptive.png,conditions/adaptive.xlsx,test,0.6,0.6,0.6,-0.6,-0.6,right,R,,,,,0,1,1,1,0,27,27,88,,,,,,,,,,,,,,,,,,,,,,,,,,,,,,,,,,,,,,,,,,,,207.71799599996302,None,left,0,1.481905399938114,208.21894469996914,209.87113939994015,208.21894469996914,209.37099909991957,208.21894469996914,209.37099909991957,208.21894469996914,209.37099909991957,208.21894469996914,209.37099909991957,208.21894469996914,209.37099909991957,209.33728069998324,209.83810659998562,209.33728069998324,209.83810659998562,209.33728069998324,209.83810659998562,209.33728069998324,209.83810659998562,209.33728069998324,209.83810659998562,209.33728069998324,209.83810659998562,209.33728069998324,209.83810659998562,209.33728069998324,209.83810659998562,208.21894469996914,None,209.83810659998562,211.14057699998375,1.1400000000000008,211.15583389997482,None,211.90779989992734,None,,,,,,,[1.29821429],2.3000000000000016,0.6785714285714286,11022,002,2024_Jan_05_1933,MFTM_A_new1021,2021.2.3,60.36879296732362,
,,,,,,,,stim/Instruction_adaptive.png,conditions/adaptive.xlsx,test,-0.6,-0.6,-0.6,0.6,0.6,left,L,,,,,0,1,1,1,0,28,28,71,,,,,,,,,,,,,,,,,,,,,,,,,,,,,,,,,,,,,,,,,,,,212.40839140000753,None,left,1,1.1269882000051439,212.90905189991463,214.761652499903,212.90905189991463,214.2616586999502,212.90905189991463,214.2616586999502,212.90905189991463,214.2616586999502,212.90905189991463,214.2616586999502,212.90905189991463,214.2616586999502,214.22756199992727,214.7284785999218,214.22756199992727,214.7284785999218,214.22756199992727,214.7284785999218,214.22756199992727,214.7284785999218,214.22756199992727,214.7284785999218,214.22756199992727,214.7284785999218,214.22756199992727,214.7284785999218,214.22756199992727,214.7284785999218,212.90905189991463,None,214.7284785999218,215.89680119999684,1.340000000000001,215.91392209997866,None,216.6646771999076,None,,,,,,,[[1.16]],2.3900000000000015,0.6896551724137931,11022,002,2024_Jan_05_1933,MFTM_A_new1021,2021.2.3,60.36879296732362,
,,,,,,,,stim/Instruction_adaptive.png,conditions/adaptive.xlsx,test,0.6,0.6,0.6,-0.6,-0.6,right,R,,,,,0,1,1,1,0,29,29,50,,,,,,,,,,,,,,,,,,,,,,,,,,,,,,,,,,,,,,,,,,,,217.16662849998102,None,right,1,1.6830259999260306,217.66571739991195,219.43547369993757,217.66571739991195,218.9345227999147,217.66571739991195,218.9345227999147,217.66571739991195,218.9345227999147,217.66571739991195,218.9345227999147,217.66571739991195,218.9345227999147,218.90171359991655,219.4028474999359,218.90171359991655,219.4028474999359,218.90171359991655,219.4028474999359,218.90171359991655,219.4028474999359,218.90171359991655,219.4028474999359,218.90171359991655,219.4028474999359,218.90171359991655,219.4028474999359,218.90171359991655,219.4028474999359,217.66571739991195,None,219.4028474999359,220.65456719999202,1.260000000000001,220.67112660000566,None,221.42163889994845,None,,,,,,,[[1.24]],2.4600000000000017,0.7,11022,002,2024_Jan_05_1933,MFTM_A_new1021,2021.2.3,60.36879296732362,
,,,,,,,,stim/Instruction_adaptive.png,conditions/adaptive.xlsx,test,-0.6,-0.6,-0.6,0.6,0.6,left,L,,,,,0,1,1,1,0,30,30,23,,,,,,,,,,,,,,,,,,,,,,,,,,,,,,,,,,,,,,,,,,,,221.9236459999811,None,left,1,1.3653861000202596,222.42327579995617,224.12564169999678,222.42327579995617,223.62490339996293,222.42327579995617,223.62490339996293,222.42327579995617,223.62490339996293,222.42327579995617,223.62490339996293,222.42327579995617,223.62490339996293,223.60834519995842,224.1088631999446,223.60834519995842,224.1088631999446,223.60834519995842,224.1088631999446,223.60834519995842,224.1088631999446,223.60834519995842,224.1088631999446,223.60834519995842,224.1088631999446,223.60834519995842,224.1088631999446,223.60834519995842,224.1088631999446,222.42327579995617,None,224.1088631999446,225.41084559995215,1.2000000000000008,225.427973199985,None,226.17891119990963,None,,,,,,,[1.29193548],2.530000000000002,0.7096774193548387,11022,002,2024_Jan_05_1933,MFTM_A_new1021,2021.2.3,60.36879296732362,
,,,,,,,,stim/Instruction_adaptive.png,conditions/adaptive.xlsx,test,0.6,0.6,0.6,-0.6,-0.6,right,R,,,,,0,1,1,1,0,31,31,30,,,,,,,,,,,,,,,,,,,,,,,,,,,,,,,,,,,,,,,,,,,,226.6808382999152,None,right,1,1.5440563999582082,227.17997279996052,228.832323599956,227.17997279996052,228.33176999993157,227.17997279996052,228.33176999993157,227.17997279996052,228.33176999993157,227.17997279996052,228.33176999993157,227.17997279996052,228.33176999993157,228.29855339997448,228.79928289994132,228.29855339997448,228.79928289994132,228.29855339997448,228.79928289994132,228.29855339997448,228.79928289994132,228.29855339997448,228.79928289994132,228.29855339997448,228.79928289994132,228.29855339997448,228.79928289994132,228.29855339997448,228.79928289994132,227.17997279996052,None,228.79928289994132,230.10174159996677,1.1400000000000008,230.1184960999526,None,230.8688368999865,None,,,,,,,[1.2940625],2.600000000000002,0.71875,11022,002,2024_Jan_05_1933,MFTM_A_new1021,2021.2.3,60.36879296732362,
,,,,,,,,stim/Instruction_adaptive.png,conditions/adaptive.xlsx,test,0.6,0.6,0.6,-0.6,-0.6,right,R,,,,,0,1,1,1,0,32,32,56,,,,,,,,,,,,,,,,,,,,,,,,,,,,,,,,,,,,,,,,,,,,231.37166169995908,None,right,1,1.4455134000163525,231.8705648999894,233.4740830999799,231.8705648999894,232.97305059991777,231.8705648999894,232.97305059991777,231.8705648999894,232.97305059991777,231.8705648999894,232.97305059991777,231.8705648999894,232.97305059991777,232.93908969999757,233.43956369999796,232.93908969999757,233.43956369999796,232.93908969999757,233.43956369999796,232.93908969999757,233.43956369999796,232.93908969999757,233.43956369999796,232.93908969999757,233.43956369999796,232.93908969999757,233.43956369999796,232.93908969999757,233.43956369999796,231.8705648999894,None,233.43956369999796,234.74155629996676,1.0900000000000007,234.75796550000086,None,235.51048649998847,None,,,,,,,[1.29757576],2.660000000000002,0.7272727272727273,11022,002,2024_Jan_05_1933,MFTM_A_new1021,2021.2.3,60.36879296732362,
,,,,,,,,stim/Instruction_adaptive.png,conditions/adaptive.xlsx,test,0.6,0.6,0.6,-0.6,-0.6,right,R,,,,,0,1,1,1,0,33,33,12,,,,,,,,,,,,,,,,,,,,,,,,,,,,,,,,,,,,,,,,,,,,236.00983999995515,None,right,1,1.6288696000119671,236.51120770000853,238.0630652999971,236.51120770000853,237.5622857999988,236.51120770000853,237.5622857999988,236.51120770000853,237.5622857999988,236.51120770000853,237.5622857999988,236.51120770000853,237.5622857999988,237.5286521000089,238.02979059994686,237.5286521000089,238.02979059994686,237.5286521000089,238.02979059994686,237.5286521000089,238.02979059994686,237.5286521000089,238.02979059994686,237.5286521000089,238.02979059994686,237.5286521000089,238.02979059994686,237.5286521000089,238.02979059994686,236.51120770000853,None,238.02979059994686,239.33148880000226,1.0400000000000007,239.36483879992738,None,240.11675559997093,None,,,,,,,[1.30235294],2.7100000000000017,0.7352941176470589,11022,002,2024_Jan_05_1933,MFTM_A_new1021,2021.2.3,60.36879296732362,
,,,,,,,,stim/Instruction_adaptive.png,conditions/adaptive.xlsx,test,-0.6,-0.6,-0.6,0.6,0.6,left,L,,,,,0,1,1,1,0,34,34,69,,,,,,,,,,,,,,,,,,,,,,,,,,,,,,,,,,,,,,,,,,,,240.61747149995063,None,left,1,1.287116099963896,241.1172891999595,242.63692889991216,241.1172891999595,242.13603239995427,241.1172891999595,242.13603239995427,241.1172891999595,242.13603239995427,241.1172891999595,242.13603239995427,241.1172891999595,242.13603239995427,242.1190153999487,242.6198758999817,242.1190153999487,242.6198758999817,242.1190153999487,242.6198758999817,242.1190153999487,242.6198758999817,242.1190153999487,242.6198758999817,242.1190153999487,242.6198758999817,242.1190153999487,242.6198758999817,242.1190153999487,242.6198758999817,241.1172891999595,None,242.6198758999817,None,1.0100000000000007,243.93822159990668,None,244.68939299997874,None,,,,,,,[1.30771429],2.7700000000000022,0.7428571428571429,11022,002,2024_Jan_05_1933,MFTM_A_new1021,2021.2.3,60.36879296732362,
,,,,,,,,stim/Instruction_adaptive.png,conditions/adaptive.xlsx,test,-0.6,-0.6,-0.6,0.6,0.6,left,L,,,,,0,1,1,1,0,35,35,85,,,,,,,,,,,,,,,,,,,,,,,,,,,,,,,,,,,,,,,,,,,,245.19033649994526,None,right,0,1.4171797999879345,245.69118769990746,247.16095319995657,245.69118769990746,246.65884219994769,245.69118769990746,246.65884219994769,245.69118769990746,246.65884219994769,245.69118769990746,246.65884219994769,245.69118769990746,246.65884219994769,246.64240689994767,247.14402869995683,246.64240689994767,247.14402869995683,246.64240689994767,247.14402869995683,246.64240689994767,247.14402869995683,246.64240689994767,247.14402869995683,246.64240689994767,247.14402869995683,246.64240689994767,247.14402869995683,246.64240689994767,247.14402869995683,245.69118769990746,None,247.14402869995683,248.46255539997946,0.9600000000000006,248.4795861999737,None,249.22963560000062,None,,,,,,,[1.31416667],2.620000000000002,0.7222222222222222,11022,002,2024_Jan_05_1933,MFTM_A_new1021,2021.2.3,60.36879296732362,
,,,,,,,,stim/Instruction_adaptive.png,conditions/adaptive.xlsx,test,-0.6,-0.6,-0.6,0.6,0.6,left,L,,,,,0,1,1,1,0,36,36,81,,,,,,,,,,,,,,,,,,,,,,,,,,,,,,,,,,,,,,,,,,,,249.73019919998478,None,right,0,1.9495372000383213,250.23154289997183,251.79971389996354,250.23154289997183,251.3158382999245,250.23154289997183,251.3158382999245,250.23154289997183,251.3158382999245,250.23154289997183,251.3158382999245,250.23154289997183,251.3158382999245,251.28267749992665,251.78413019992877,251.28267749992665,251.78413019992877,251.28267749992665,251.78413019992877,251.28267749992665,251.78413019992877,251.28267749992665,251.78413019992877,251.28267749992665,251.78413019992877,251.28267749992665,251.78413019992877,251.28267749992665,251.78413019992877,250.23154289997183,None,251.78413019992877,253.10272989992518,1.0700000000000007,253.1200127999764,None,253.87002549995668,None,,,,,,,[1.3172973],2.450000000000002,0.7027027027027027,11022,002,2024_Jan_05_1933,MFTM_A_new1021,2021.2.3,60.36879296732362,
,,,,,,,,stim/Instruction_adaptive.png,conditions/adaptive.xlsx,test,0.6,0.6,0.6,-0.6,-0.6,right,R,,,,,0,1,1,1,0,37,37,16,,,,,,,,,,,,,,,,,,,,,,,,,,,,,,,,,,,,,,,,,,,,254.37035809992813,None,right,1,1.580822000047192,254.87169309996534,256.5739237999078,254.87169309996534,256.07396710000467,254.87169309996534,256.07396710000467,254.87169309996534,256.07396710000467,254.87169309996534,256.07396710000467,254.87169309996534,256.07396710000467,256.05617270001676,256.557132499991,256.05617270001676,256.557132499991,256.05617270001676,256.557132499991,256.05617270001676,256.557132499991,256.05617270001676,256.557132499991,256.05617270001676,256.557132499991,256.05617270001676,256.557132499991,256.05617270001676,256.557132499991,254.87169309996534,None,256.557132499991,257.8590178999584,1.2000000000000008,257.875620399951,None,258.62703839992173,None,,,,,,,[[1.3]],2.5100000000000016,0.7105263157894737,11022,002,2024_Jan_05_1933,MFTM_A_new1021,2021.2.3,60.36879296732362,
,,,,,,,,stim/Instruction_adaptive.png,conditions/adaptive.xlsx,test,0.6,0.6,0.6,-0.6,-0.6,right,R,,,,,0,1,1,1,0,38,38,18,,,,,,,,,,,,,,,,,,,,,,,,,,,,,,,,,,,,,,,,,,,,259.1279274999397,None,right,1,1.527671999996528,259.628640800016,261.28230079996865,259.628640800016,260.780999599956,259.628640800016,260.780999599956,259.628640800016,260.780999599956,259.628640800016,260.780999599956,259.628640800016,260.780999599956,260.76301509991754,261.26388469990343,260.76301509991754,261.26388469990343,260.76301509991754,261.26388469990343,260.76301509991754,261.26388469990343,260.76301509991754,261.26388469990343,260.76301509991754,261.26388469990343,260.76301509991754,261.26388469990343,260.76301509991754,261.26388469990343,259.628640800016,None,261.26388469990343,262.5832626000047,1.1500000000000008,262.5988254999975,None,263.35029659990687,None,,,,,,,[1.31769231],2.570000000000002,0.717948717948718,11022,002,2024_Jan_05_1933,MFTM_A_new1021,2021.2.3,60.36879296732362,
,,,,,,,,stim/Instruction_adaptive.png,conditions/adaptive.xlsx,test,0.6,0.6,0.6,-0.6,-0.6,right,R,,,,,0,1,1,1,0,39,39,32,,,,,,,,,,,,,,,,,,,,,,,,,,,,,,,,,,,,,,,,,,,,263.8513251999393,None,left,0,1.7249883000040427,264.35171909991186,265.9714584999019,264.35171909991186,265.4702349000145,264.35171909991186,265.4702349000145,264.35171909991186,265.4702349000145,264.35171909991186,265.4702349000145,264.35171909991186,265.4702349000145,265.4534209999256,265.95441359991673,265.4534209999256,265.95441359991673,265.4534209999256,265.95441359991673,265.4534209999256,265.95441359991673,265.4534209999256,265.95441359991673,265.4534209999256,265.95441359991673,265.4534209999256,265.95441359991673,265.4534209999256,265.95441359991673,264.35171909991186,None,265.95441359991673,267.2729755999753,1.1100000000000008,267.28949260001536,None,268.0406041999813,None,,,,,,,[1.3195],2.410000000000002,0.7,11022,002,2024_Jan_05_1933,MFTM_A_new1021,2021.2.3,60.36879296732362,
,,,,,,,,stim/Instruction_adaptive.png,conditions/adaptive.xlsx,test,-0.6,-0.6,-0.6,0.6,0.6,left,L,,,,,0,1,1,1,0,40,40,39,,,,,,,,,,,,,,,,,,,,,,,,,,,,,,,,,,,,,,,,,,,,268.54133989999536,None,left,1,1.2581697000423446,269.04210399999283,270.7954154999461,269.04210399999283,270.29401279997546,269.04210399999283,270.29401279997546,269.04210399999283,270.29401279997546,269.04210399999283,270.29401279997546,269.04210399999283,270.29401279997546,270.2612788999686,270.76157779991627,270.2612788999686,270.76157779991627,270.2612788999686,270.76157779991627,270.2612788999686,270.76157779991627,270.2612788999686,270.76157779991627,270.2612788999686,270.76157779991627,270.2612788999686,270.76157779991627,270.2612788999686,270.76157779991627,269.04210399999283,None,270.76157779991627,272.02998079999816,1.2400000000000009,272.0465227999957,None,272.79842179990374,None,,,,,,,[[1.26]],2.4700000000000015,0.7073170731707317,11022,002,2024_Jan_05_1933,MFTM_A_new1021,2021.2.3,60.36879296732362,
,,,,,,,,stim/Instruction_adaptive.png,conditions/adaptive.xlsx,test,0.6,0.6,0.6,-0.6,-0.6,right,R,,,,,0,1,1,1,0,41,41,4,,,,,,,,,,,,,,,,,,,,,,,,,,,,,,,,,,,,,,,,,,,,273.2995673000114,None,right,1,1.6203688000096008,273.8002658999758,275.5015892999945,273.8002658999758,275.00111630000174,273.8002658999758,275.00111630000174,273.8002658999758,275.00111630000174,273.8002658999758,275.00111630000174,273.8002658999758,275.00111630000174,274.96785729995463,275.4695507999277,274.96785729995463,275.4695507999277,274.96785729995463,275.4695507999277,274.96785729995463,275.4695507999277,274.96785729995463,275.4695507999277,274.96785729995463,275.4695507999277,274.96785729995463,275.4695507999277,274.96785729995463,275.4695507999277,273.8002658999758,None,275.4695507999277,276.78801169991493,1.1900000000000008,276.80378570000175,None,277.5559231999796,None,,,,,,,[[1.31]],2.520000000000002,0.7142857142857143,11022,002,2024_Jan_05_1933,MFTM_A_new1021,2021.2.3,60.36879296732362,
,,,,,,,,stim/Instruction_adaptive.png,conditions/adaptive.xlsx,test,0.6,0.6,0.6,-0.6,-0.6,right,R,,,,,0,1,1,1,0,42,42,74,,,,,,,,,,,,,,,,,,,,,,,,,,,,,,,,,,,,,,,,,,,,278.0559199999552,None,right,1,1.4157496999250725,278.5572751999134,280.2093792000087,278.5572751999134,279.7079964999575,278.5572751999134,279.7079964999575,278.5572751999134,279.7079964999575,278.5572751999134,279.7079964999575,278.5572751999134,279.7079964999575,279.691327599925,280.19274109997787,279.691327599925,280.19274109997787,279.691327599925,280.19274109997787,279.691327599925,280.19274109997787,279.691327599925,280.19274109997787,279.691327599925,280.19274109997787,279.691327599925,280.19274109997787,279.691327599925,280.19274109997787,278.5572751999134,None,280.19274109997787,281.5117888000095,1.1500000000000008,281.52668050001375,None,282.27975049999077,None,,,,,,,[1.31860465],2.570000000000002,0.7209302325581395,11022,002,2024_Jan_05_1933,MFTM_A_new1021,2021.2.3,60.36879296732362,
,,,,,,,,stim/Instruction_adaptive.png,conditions/adaptive.xlsx,test,-0.6,-0.6,-0.6,0.6,0.6,left,L,,,,,0,1,1,1,0,43,43,53,,,,,,,,,,,,,,,,,,,,,,,,,,,,,,,,,,,,,,,,,,,,282.7794535999419,None,left,1,1.236202699947171,283.2799242999172,284.89980579994153,283.2799242999172,284.3988304999657,283.2799242999172,284.3988304999657,283.2799242999172,284.3988304999657,283.2799242999172,284.3988304999657,283.2799242999172,284.3988304999657,284.3819501999533,284.882557899924,284.3819501999533,284.882557899924,284.3819501999533,284.882557899924,284.3819501999533,284.882557899924,284.3819501999533,284.882557899924,284.3819501999533,284.882557899924,284.3819501999533,284.882557899924,284.3819501999533,284.882557899924,283.2799242999172,None,284.8658172999276,286.20246800000314,1.1100000000000008,286.2174586999463,None,286.9687368000159,None,,,,,,,[1.32022727],2.610000000000002,0.7272727272727273,11022,002,2024_Jan_05_1933,MFTM_A_new1021,2021.2.3,60.36879296732362,
,,,,,,,,stim/Instruction_adaptive.png,conditions/adaptive.xlsx,test,-0.6,-0.6,-0.6,0.6,0.6,left,L,,,,,0,1,1,1,0,44,44,21,,,,,,,,,,,,,,,,,,,,,,,,,,,,,,,,,,,,,,,,,,,,287.4694368999917,None,left,1,1.8179381999652833,287.9703654999612,289.5556444999529,287.9703654999612,289.05518829997163,287.9703654999612,289.05518829997163,287.9703654999612,289.05518829997163,287.9703654999612,289.05518829997163,287.9703654999612,289.05518829997163,289.0383563999785,289.53882229991723,289.0383563999785,289.53882229991723,289.0383563999785,289.53882229991723,289.0383563999785,289.53882229991723,289.0383563999785,289.53882229991723,289.0383563999785,289.53882229991723,289.0383563999785,289.53882229991723,289.0383563999785,289.53882229991723,287.9703654999612,None,289.53882229991723,None,1.0800000000000007,290.8748926999979,None,291.6259774999926,None,,,,,,,[1.32244444],2.660000000000002,0.7333333333333333,11022,002,2024_Jan_05_1933,MFTM_A_new1021,2021.2.3,60.36879296732362,
,,,,,,,,stim/Instruction_adaptive.png,conditions/adaptive.xlsx,test,0.6,0.6,0.6,-0.6,-0.6,right,R,,,,,0,1,1,1,0,45,45,10,,,,,,,,,,,,,,,,,,,,,,,,,,,,,,,,,,,,,,,,,,,,292.1261743999785,None,right,1,1.7447722000069916,292.62750619999133,294.1801955999108,292.62750619999133,293.6795171999838,292.62750619999133,293.6795171999838,292.62750619999133,293.6795171999838,292.62750619999133,293.6795171999838,292.62750619999133,293.6795171999838,293.6456159999361,294.14584799995646,293.6456159999361,294.14584799995646,293.6456159999361,294.14584799995646,293.6456159999361,294.14584799995646,293.6456159999361,294.14584799995646,293.6456159999361,294.14584799995646,293.6456159999361,294.14584799995646,293.6456159999361,294.14584799995646,292.62750619999133,None,294.14584799995646,295.4821517999517,1.0400000000000007,295.49833500001114,None,296.24947069992777,None,,,,,,,[1.32543478],2.700000000000002,0.7391304347826086,11022,002,2024_Jan_05_1933,MFTM_A_new1021,2021.2.3,60.36879296732362,
,,,,,,,,stim/Instruction_adaptive.png,conditions/adaptive.xlsx,test,0.6,0.6,0.6,-0.6,-0.6,right,R,,,,,0,1,1,1,0,46,46,78,,,,,,,,,,,,,,,,,,,,,,,,,,,,,,,,,,,,,,,,,,,,296.74985679995734,None,left,0,1.3860297000501305,297.2507981999079,298.77010859991424,297.2507981999079,298.26879090000875,297.2507981999079,298.26879090000875,297.2507981999079,298.26879090000875,297.2507981999079,298.26879090000875,297.2507981999079,298.26879090000875,298.25202829996124,298.7538532000035,298.25202829996124,298.7538532000035,298.25202829996124,298.7538532000035,298.25202829996124,298.7538532000035,298.25202829996124,298.7538532000035,298.25202829996124,298.7538532000035,298.25202829996124,298.7538532000035,298.25202829996124,298.7538532000035,297.2507981999079,None,298.736961199902,300.07239559991285,1.0100000000000007,300.0879593999125,None,300.83945189998485,None,,,,,,,[1.32893617],2.580000000000002,0.723404255319149,11022,002,2024_Jan_05_1933,MFTM_A_new1021,2021.2.3,60.36879296732362,
,,,,,,,,stim/Instruction_adaptive.png,conditions/adaptive.xlsx,test,-0.6,-0.6,-0.6,0.6,0.6,left,L,,,,,0,1,1,1,0,47,47,59,,,,,,,,,,,,,,,,,,,,,,,,,,,,,,,,,,,,,,,,,,,,301.34020249999594,None,left,1,1.269840900087729,301.8406674999278,303.44413339998573,301.8406674999278,302.9421965999063,301.8406674999278,302.9421965999063,301.8406674999278,302.9421965999063,301.8406674999278,302.9421965999063,301.8406674999278,302.9421965999063,302.92571819992736,303.4268709999742,302.92571819992736,303.4268709999742,302.92571819992736,303.4268709999742,302.92571819992736,303.4268709999742,302.92571819992736,303.4268709999742,302.92571819992736,303.4268709999742,302.92571819992736,303.4268709999742,302.92571819992736,303.4268709999742,301.8406674999278,None,303.4268709999742,304.7619212999707,1.1000000000000008,304.7786416999297,None,305.5296522999415,None,,,,,,,[1.33041667],2.620000000000002,0.7291666666666666,11022,002,2024_Jan_05_1933,MFTM_A_new1021,2021.2.3,60.36879296732362,
,,,,,,,,stim/Instruction_adaptive.png,conditions/adaptive.xlsx,test,-0.6,-0.6,-0.6,0.6,0.6,left,L,,,,,0,1,1,1,0,48,48,87,,,,,,,,,,,,,,,,,,,,,,,,,,,,,,,,,,,,,,,,,,,,306.0304771999363,None,right,0,1.5297115000430495,306.53145989996847,308.1179686000105,306.53145989996847,307.6168187999865,306.53145989996847,307.6168187999865,306.53145989996847,307.6168187999865,306.53145989996847,307.6168187999865,306.53145989996847,307.6168187999865,307.5836953999242,308.0833917999407,307.5836953999242,308.0833917999407,307.5836953999242,308.0833917999407,307.5836953999242,308.0833917999407,307.5836953999242,308.0833917999407,307.5836953999242,308.0833917999407,307.5836953999242,308.0833917999407,307.5836953999242,308.0833917999407,306.53145989996847,None,308.0833917999407,309.4186495000031,1.0700000000000007,309.43538919999264,None,310.1871578999562,None,,,,,,,[1.33244898],2.5000000000000018,0.7142857142857143,11022,002,2024_Jan_05_1933,MFTM_A_new1021,2021.2.3,60.36879296732362,
,,,,,,,,stim/Instruction_adaptive.png,conditions/adaptive.xlsx,test,-0.6,-0.6,-0.6,0.6,0.6,left,L,,,,,0,1,1,1,0,49,49,93,,,,,,,,,,,,,,,,,,,,,,,,,,,,,,,,,,,,,,,,,,,,310.68713889992796,None,left,1,1.433636900037527,311.1877830999438,312.8572659000056,311.1877830999438,312.3577551000053,311.1877830999438,312.3577551000053,311.1877830999438,312.3577551000053,311.1877830999438,312.3577551000053,311.1877830999438,312.3577551000053,312.3229765999131,312.82383389992174,312.3229765999131,312.82383389992174,312.3229765999131,312.82383389992174,312.3229765999131,312.82383389992174,312.3229765999131,312.82383389992174,312.3229765999131,312.82383389992174,312.3229765999131,312.82383389992174,312.3229765999131,312.82383389992174,311.1877830999438,None,312.82383389992174,314.1591328999493,1.1600000000000008,314.1925283999881,None,314.9436835999368,None,,,,,,,[1.3326],2.540000000000002,0.72,11022,002,2024_Jan_05_1933,MFTM_A_new1021,2021.2.3,60.36879296732362,
,,,,,,,,stim/Instruction_adaptive.png,conditions/adaptive.xlsx,test,0.6,0.6,0.6,-0.6,-0.6,right,R,,,,,0,1,1,1,0,50,50,60,,,,,,,,,,,,,,,,,,,,,,,,,,,,,,,,,,,,,,,,,,,,315.4449885999784,None,right,1,1.5156529999803752,315.94504329992924,317.58094569994137,315.94504329992924,317.0798235000111,315.94504329992924,317.0798235000111,315.94504329992924,317.0798235000111,315.94504329992924,317.0798235000111,315.94504329992924,317.0798235000111,317.06391199992504,317.56437869998626,317.06391199992504,317.56437869998626,317.06391199992504,317.56437869998626,317.06391199992504,317.56437869998626,317.06391199992504,317.56437869998626,317.06391199992504,317.56437869998626,317.06391199992504,317.56437869998626,317.06391199992504,317.56437869998626,315.94504329992924,None,317.56437869998626,318.89954389992636,1.1300000000000008,318.9157842999557,None,319.6673349000048,None,,,,,,,[1.33333333],2.580000000000002,0.7254901960784313,11022,002,2024_Jan_05_1933,MFTM_A_new1021,2021.2.3,60.36879296732362,
,,,,,,,,stim/Instruction_adaptive.png,conditions/adaptive.xlsx,test,0.6,0.6,0.6,-0.6,-0.6,right,R,,,,,0,1,1,1,0,51,51,40,,,,,,,,,,,,,,,,,,,,,,,,,,,,,,,,,,,,,,,,,,,,320.1688845999306,None,left,0,1.4794024999719113,320.6688058999134,322.27102449990343,320.6688058999134,321.7703216999071,320.6688058999134,321.7703216999071,320.6688058999134,321.7703216999071,320.6688058999134,321.7703216999071,320.6688058999134,321.7703216999071,321.7540477999719,322.25430189992767,321.7540477999719,322.25430189992767,321.7540477999719,322.25430189992767,321.7540477999719,322.25430189992767,321.7540477999719,322.25430189992767,321.7540477999719,322.25430189992767,321.7540477999719,322.25430189992767,321.7540477999719,322.25430189992767,320.6688058999134,None,322.25430189992767,323.5903644999489,1.1000000000000008,323.60612389992457,None,324.3576973999152,None,,,,,,,[1.33461538],2.4600000000000017,0.7115384615384616,11022,002,2024_Jan_05_1933,MFTM_A_new1021,2021.2.3,60.36879296732362,
,,,,,,,,stim/Instruction_adaptive.png,conditions/adaptive.xlsx,test,0.6,0.6,0.6,-0.6,-0.6,right,R,,,,,0,1,1,1,0,52,52,26,,,,,,,,,,,,,,,,,,,,,,,,,,,,,,,,,,,,,,,,,,,,324.8583721999312,None,right,1,1.6700735000194982,325.35910389991477,327.06242219998967,325.35910389991477,326.5607633999316,325.35910389991477,326.5607633999316,325.35910389991477,326.5607633999316,325.35910389991477,326.5607633999316,325.35910389991477,326.5607633999316,326.5447676999029,327.04468449996784,326.5447676999029,327.04468449996784,326.5447676999029,327.04468449996784,326.5447676999029,327.04468449996784,326.5447676999029,327.04468449996784,326.5447676999029,327.04468449996784,326.5447676999029,327.04468449996784,326.5447676999029,327.04468449996784,325.35910389991477,None,327.04468449996784,328.3469876999734,1.2000000000000008,328.3634267000016,None,329.1150456999894,None,,,,,,,[[1.3]],2.5000000000000018,0.7169811320754716,11022,002,2024_Jan_05_1933,MFTM_A_new1021,2021.2.3,60.36879296732362,
,,,,,,,,stim/Instruction_adaptive.png,conditions/adaptive.xlsx,test,-0.6,-0.6,-0.6,0.6,0.6,left,L,,,,,0,1,1,1,0,53,53,41,,,,,,,,,,,,,,,,,,,,,,,,,,,,,,,,,,,,,,,,,,,,329.61530880001374,None,right,0,1.7603466999717057,330.11595189990476,331.78541689994745,330.11595189990476,331.28498389991,330.11595189990476,331.28498389991,330.11595189990476,331.28498389991,330.11595189990476,331.28498389991,330.11595189990476,331.28498389991,331.2676913999021,331.76863770000637,331.2676913999021,331.76863770000637,331.2676913999021,331.76863770000637,331.2676913999021,331.76863770000637,331.2676913999021,331.76863770000637,331.2676913999021,331.76863770000637,331.2676913999021,331.76863770000637,331.2676913999021,331.76863770000637,330.11595189990476,None,331.75223709992133,333.0872915999498,1.1600000000000008,333.1198681999231,None,333.87173629994504,None,,,,,,,[1.33407407],2.3800000000000017,0.7037037037037037,11022,002,2024_Jan_05_1933,MFTM_A_new1021,2021.2.3,60.36879296732362,
,,,,,,,,stim/Instruction_adaptive.png,conditions/adaptive.xlsx,test,0.6,0.6,0.6,-0.6,-0.6,right,R,,,,,0,1,1,1,0,54,54,0,,,,,,,,,,,,,,,,,,,,,,,,,,,,,,,,,,,,,,,,,,,,334.37231040000916,None,right,1,1.570935699972324,334.87318699993193,336.643036799971,334.87318699993193,336.1418895999668,334.87318699993193,336.1418895999668,334.87318699993193,336.1418895999668,334.87318699993193,336.1418895999668,334.87318699993193,336.1418895999668,336.12523739994504,336.6259466999909,336.12523739994504,336.6259466999909,336.12523739994504,336.6259466999909,336.12523739994504,336.6259466999909,336.12523739994504,336.6259466999909,336.12523739994504,336.6259466999909,336.12523739994504,336.6259466999909,336.12523739994504,336.6259466999909,334.87318699993193,None,336.60977119999006,337.86071689997334,1.260000000000001,337.87743549991865,None,338.6296854999382,None,,,,,,,[[1.24]],2.4300000000000015,0.7090909090909091,11022,002,2024_Jan_05_1933,MFTM_A_new1021,2021.2.3,60.36879296732362,
,,,,,,,,stim/Instruction_adaptive.png,conditions/adaptive.xlsx,test,0.6,0.6,0.6,-0.6,-0.6,right,R,,,,,0,1,1,1,0,55,55,22,,,,,,,,,,,,,,,,,,,,,,,,,,,,,,,,,,,,,,,,,,,,339.1299464999465,None,right,1,1.8386563999811187,339.6298683999339,341.3495818999363,339.6298683999339,340.8489036000101,339.6298683999339,340.8489036000101,339.6298683999339,340.8489036000101,339.6298683999339,340.8489036000101,339.6298683999339,340.8489036000101,340.83264169993345,341.3329778999323,340.83264169993345,341.3329778999323,340.83264169993345,341.3329778999323,340.83264169993345,341.3329778999323,340.83264169993345,341.3329778999323,340.83264169993345,341.3329778999323,340.83264169993345,341.3329778999323,340.83264169993345,341.3329778999323,339.6298683999339,None,341.3329778999323,342.61887060001027,1.2200000000000009,342.63458019995596,None,343.3864770999644,None,,,,,,,[[1.28]],2.4700000000000015,0.7142857142857143,11022,002,2024_Jan_05_1933,MFTM_A_new1021,2021.2.3,60.36879296732362,
,,,,,,,,stim/Instruction_adaptive.png,conditions/adaptive.xlsx,test,0.6,0.6,0.6,-0.6,-0.6,right,R,,,,,0,1,1,1,0,56,56,98,,,,,,,,,,,,,,,,,,,,,,,,,,,,,,,,,,,,,,,,,,,,343.88718019996304,None,right,1,1.7450631000101566,344.38731469993945,346.0896856999025,344.38731469993945,345.5898253999185,344.38731469993945,345.5898253999185,344.38731469993945,345.5898253999185,344.38731469993945,345.5898253999185,344.38731469993945,345.5898253999185,345.55601639999077,346.05655510001816,345.55601639999077,346.05655510001816,345.55601639999077,346.05655510001816,345.55601639999077,346.05655510001816,345.55601639999077,346.05655510001816,345.55601639999077,346.05655510001816,345.55601639999077,346.05655510001816,345.55601639999077,346.05655510001816,344.38731469993945,None,346.05655510001816,347.376164300018,1.1900000000000008,347.39227499999106,None,348.14294489996973,None,,,,,,,[[1.31]],2.5000000000000018,0.7192982456140351,11022,002,2024_Jan_05_1933,MFTM_A_new1021,2021.2.3,60.36879296732362,
,,,,,,,,stim/Instruction_adaptive.png,conditions/adaptive.xlsx,test,0.6,0.6,0.6,-0.6,-0.6,right,R,,,,,0,1,1,1,0,57,57,24,,,,,,,,,,,,,,,,,,,,,,,,,,,,,,,,,,,,,,,,,,,,348.6433910999913,None,right,1,2.1800874000182375,349.1441971999593,350.81359449995216,349.1441971999593,350.31248299998697,349.1441971999593,350.31248299998697,349.1441971999593,350.31248299998697,349.1441971999593,350.31248299998697,349.1441971999593,350.31248299998697,350.27928869996686,350.7798240999691,350.27928869996686,350.7798240999691,350.27928869996686,350.7798240999691,350.27928869996686,350.7798240999691,350.27928869996686,350.7798240999691,350.27928869996686,350.7798240999691,350.27928869996686,350.7798240999691,350.27928869996686,350.7798240999691,349.1441971999593,None,350.7798240999691,352.1166888999287,1.1600000000000008,352.14877319999505,None,352.8996288999915,None,,,,,,,[1.3312069],2.540000000000002,0.7241379310344828,11022,002,2024_Jan_05_1933,MFTM_A_new1021,2021.2.3,60.36879296732362,
,,,,,,,,stim/Instruction_adaptive.png,conditions/adaptive.xlsx,test,-0.6,-0.6,-0.6,0.6,0.6,left,L,,,,,0,1,1,1,0,58,58,75,,,,,,,,,,,,,,,,,,,,,,,,,,,,,,,,,,,,,,,,,,,,353.4005582999671,None,left,1,1.5589824999915436,353.9015147999162,355.53719960001763,353.9015147999162,355.03640809992794,353.9015147999162,355.03640809992794,353.9015147999162,355.03640809992794,353.9015147999162,355.03640809992794,353.9015147999162,355.03640809992794,355.0193563000066,355.52081489993725,355.0193563000066,355.52081489993725,355.0193563000066,355.52081489993725,355.0193563000066,355.52081489993725,355.0193563000066,355.52081489993725,355.0193563000066,355.52081489993725,355.0193563000066,355.52081489993725,355.0193563000066,355.52081489993725,353.9015147999162,None,355.52081489993725,356.8561555999331,1.1300000000000008,356.8715847999556,None,357.62357299996074,None,,,,,,,[1.33186441],2.580000000000002,0.7288135593220338,11022,002,2024_Jan_05_1933,MFTM_A_new1021,2021.2.3,60.36879296732362,
,,,,,,,,stim/Instruction_adaptive.png,conditions/adaptive.xlsx,test,-0.6,-0.6,-0.6,0.6,0.6,left,L,,,,,0,1,1,1,0,59,59,45,,,,,,,,,,,,,,,,,,,,,,,,,,,,,,,,,,,,,,,,,,,,358.12487099994905,None,left,1,1.9002927000401542,358.62488009990193,360.2276108999504,358.62488009990193,359.7265833999263,358.62488009990193,359.7265833999263,358.62488009990193,359.7265833999263,358.62488009990193,359.7265833999263,358.62488009990193,359.7265833999263,359.7104385999264,360.21063699992374,359.7104385999264,360.21063699992374,359.7104385999264,360.21063699992374,359.7104385999264,360.21063699992374,359.7104385999264,360.21063699992374,359.7104385999264,360.21063699992374,359.7104385999264,360.21063699992374,359.7104385999264,360.21063699992374,358.62488009990193,None,360.21063699992374,361.5459608999081,1.1000000000000008,361.5626927999547,None,362.31427319999784,None,,,,,,,[1.333],2.610000000000002,0.7333333333333333,11022,002,2024_Jan_05_1933,MFTM_A_new1021,2021.2.3,60.36879296732362,
,,,,,,,,stim/Instruction_adaptive.png,conditions/adaptive.xlsx,test,0.6,0.6,0.6,-0.6,-0.6,right,R,,,,,0,1,1,1,0,60,60,8,,,,,,,,,,,,,,,,,,,,,,,,,,,,,,,,,,,,,,,,,,,,362.8148528999882,None,right,1,1.7378628000151366,363.31498729996383,364.90265429997817,363.31498729996383,364.40109549998306,363.31498729996383,364.40109549998306,363.31498729996383,364.40109549998306,363.31498729996383,364.40109549998306,363.31498729996383,364.40109549998306,364.3836463999469,364.88537479995284,364.3836463999469,364.88537479995284,364.3836463999469,364.88537479995284,364.3836463999469,364.88537479995284,364.3836463999469,364.88537479995284,364.3836463999469,364.88537479995284,364.3836463999469,364.88537479995284,364.3836463999469,364.88537479995284,363.31498729996383,None,364.8677266999148,366.202848099987,1.0800000000000007,366.2356786999153,None,366.9874797000084,None,,,,,,,[1.33442623],2.640000000000002,0.7377049180327869,11022,002,2024_Jan_05_1933,MFTM_A_new1021,2021.2.3,60.36879296732362,
,,,,,,,,stim/Instruction_adaptive.png,conditions/adaptive.xlsx,test,-0.6,-0.6,-0.6,0.6,0.6,left,L,,,,,0,1,1,1,0,61,61,83,,,,,,,,,,,,,,,,,,,,,,,,,,,,,,,,,,,,,,,,,,,,367.4884953999426,None,right,0,1.7367614000104368,367.98868989991024,369.557690699934,367.98868989991024,369.0569476999808,367.98868989991024,369.0569476999808,367.98868989991024,369.0569476999808,367.98868989991024,369.0569476999808,367.98868989991024,369.0569476999808,369.02449370000977,369.5254350999603,369.02449370000977,369.5254350999603,369.02449370000977,369.5254350999603,369.02449370000977,369.5254350999603,369.02449370000977,369.5254350999603,369.02449370000977,369.5254350999603,369.02449370000977,369.5254350999603,369.02449370000977,369.5254350999603,367.98868989991024,None,369.5254350999603,370.876454000012,1.0600000000000007,370.8930323999375,None,371.64446609991137,None,,,,,,,[1.33612903],2.5500000000000016,0.7258064516129032,11022,002,2024_Jan_05_1933,MFTM_A_new1021,2021.2.3,60.36879296732362,
,,,,,,,,stim/Instruction_adaptive.png,conditions/adaptive.xlsx,test,-0.6,-0.6,-0.6,0.6,0.6,left,L,,,,,0,1,1,1,0,62,62,31,,,,,,,,,,,,,,,,,,,,,,,,,,,,,,,,,,,,,,,,,,,,372.1449316999642,None,left,1,1.262921000015922,372.6455891999649,374.2657932000002,372.6455891999649,373.7812936999835,372.6455891999649,373.7812936999835,372.6455891999649,373.7812936999835,372.6455891999649,373.7812936999835,372.6455891999649,373.7812936999835,373.7475471999496,374.24895249994006,373.7475471999496,374.24895249994006,373.7475471999496,374.24895249994006,373.7475471999496,374.24895249994006,373.7475471999496,374.24895249994006,373.7475471999496,374.24895249994006,373.7475471999496,374.24895249994006,373.7475471999496,374.24895249994006,372.6455891999649,None,374.24895249994006,375.6002881999593,1.1200000000000008,375.6167502999306,None,376.3696445999667,None,,,,,,,[1.3368254],2.580000000000002,0.7301587301587301,11022,002,2024_Jan_05_1933,MFTM_A_new1021,2021.2.3,60.36879296732362,
,,,,,,,,stim/Instruction_adaptive.png,conditions/adaptive.xlsx,test,0.6,0.6,0.6,-0.6,-0.6,right,R,,,,,0,1,1,1,0,63,63,58,,,,,,,,,,,,,,,,,,,,,,,,,,,,,,,,,,,,,,,,,,,,376.8694279999472,None,right,1,1.420027200016193,377.3693682999583,378.97194489999674,377.3693682999583,378.47129859996494,377.3693682999583,378.47129859996494,377.3693682999583,378.47129859996494,377.3693682999583,378.47129859996494,377.3693682999583,378.47129859996494,378.45516579994,378.9549725999823,378.45516579994,378.9549725999823,378.45516579994,378.9549725999823,378.45516579994,378.9549725999823,378.45516579994,378.9549725999823,378.45516579994,378.9549725999823,378.45516579994,378.9549725999823,378.45516579994,378.9549725999823,377.3693682999583,None,378.9549725999823,None,1.1000000000000008,380.30786299996544,None,381.0583779999288,None,,,,,,,[1.3378125],2.610000000000002,0.734375,11022,002,2024_Jan_05_1933,MFTM_A_new1021,2021.2.3,60.36879296732362,
,,,,,,,,stim/Instruction_adaptive.png,conditions/adaptive.xlsx,test,-0.6,-0.6,-0.6,0.6,0.6,left,L,,,,,0,1,1,1,0,64,64,91,,,,,,,,,,,,,,,,,,,,,,,,,,,,,,,,,,,,,,,,,,,,381.55923389992677,None,left,1,1.3451285000192001,382.0595709999325,383.64621829998214,382.0595709999325,383.14472819992807,382.0595709999325,383.14472819992807,382.0595709999325,383.14472819992807,382.0595709999325,383.14472819992807,382.0595709999325,383.14472819992807,383.12819309998304,383.6295905999141,383.12819309998304,383.6295905999141,383.12819309998304,383.6295905999141,383.12819309998304,383.6295905999141,383.12819309998304,383.6295905999141,383.12819309998304,383.6295905999141,383.12819309998304,383.6295905999141,383.12819309998304,383.6295905999141,382.0595709999325,None,383.6295905999141,None,1.0800000000000007,384.98121170001104,None,385.7320209000027,None,,,,,,,[1.33907692],2.640000000000002,0.7384615384615385,11022,002,2024_Jan_05_1933,MFTM_A_new1021,2021.2.3,60.36879296732362,
,,,,,,,,stim/Instruction_adaptive.png,conditions/adaptive.xlsx,test,-0.6,-0.6,-0.6,0.6,0.6,left,L,,,,,0,1,1,1,0,65,65,57,,,,,,,,,,,,,,,,,,,,,,,,,,,,,,,,,,,,,,,,,,,,386.2322994999122,None,left,1,1.2385872999439016,386.73368669999763,388.30226229992695,386.73368669999763,387.8023063999135,386.73368669999763,387.8023063999135,386.73368669999763,387.8023063999135,386.73368669999763,387.8023063999135,386.73368669999763,387.8023063999135,387.76829229993746,388.2692042000126,387.76829229993746,388.2692042000126,387.76829229993746,388.2692042000126,387.76829229993746,388.2692042000126,387.76829229993746,388.2692042000126,387.76829229993746,388.2692042000126,387.76829229993746,388.2692042000126,387.76829229993746,388.2692042000126,386.73368669999763,None,388.2692042000126,389.6212031999603,1.0600000000000007,389.6376161999069,None,390.38918920001015,None,,,,,,,[1.34060606],2.6700000000000017,0.7424242424242424,11022,002,2024_Jan_05_1933,MFTM_A_new1021,2021.2.3,60.36879296732362,
,,,,,,,,stim/Instruction_adaptive.png,conditions/adaptive.xlsx,test,0.6,0.6,0.6,-0.6,-0.6,right,R,,,,,0,1,1,1,0,66,66,90,,,,,,,,,,,,,,,,,,,,,,,,,,,,,,,,,,,,,,,,,,,,390.88947850000113,None,right,1,1.5350891000125557,391.390160299954,392.92581189994235,391.390160299954,392.4250792999519,391.390160299954,392.4250792999519,391.390160299954,392.4250792999519,391.390160299954,392.4250792999519,391.390160299954,392.4250792999519,392.40883329999633,392.9093597999308,392.40883329999633,392.9093597999308,392.40883329999633,392.9093597999308,392.40883329999633,392.9093597999308,392.40883329999633,392.9093597999308,392.40883329999633,392.9093597999308,392.40883329999633,392.9093597999308,392.40883329999633,392.9093597999308,391.390160299954,None,392.9093597999308,None,1.0300000000000007,394.26183219999075,None,395.012246600003,None,,,,,,,[1.34253731],2.700000000000002,0.746268656716418,11022,002,2024_Jan_05_1933,MFTM_A_new1021,2021.2.3,60.36879296732362,
,,,,,,,,stim/Instruction_adaptive.png,conditions/adaptive.xlsx,test,-0.6,-0.6,-0.6,0.6,0.6,left,L,,,,,0,1,1,1,0,67,67,99,,,,,,,,,,,,,,,,,,,,,,,,,,,,,,,,,,,,,,,,,,,,395.5138814999955,None,right,0,1.9505503999534994,396.01393099990673,397.53293159999885,396.01393099990673,397.0320988999447,396.01393099990673,397.0320988999447,396.01393099990673,397.0320988999447,396.01393099990673,397.0320988999447,396.01393099990673,397.0320988999447,397.0152802999364,397.5161411999725,397.0152802999364,397.5161411999725,397.0152802999364,397.5161411999725,397.0152802999364,397.5161411999725,397.0152802999364,397.5161411999725,397.0152802999364,397.5161411999725,397.0152802999364,397.5161411999725,397.0152802999364,397.5161411999725,396.01393099990673,None,397.4991588999983,398.85157039994374,1.0100000000000007,398.86794799997006,None,399.6202393999556,None,,,,,,,[1.34470588],2.620000000000002,0.7352941176470589,11022,002,2024_Jan_05_1933,MFTM_A_new1021,2021.2.3,60.36879296732362,
,,,,,,,,stim/Instruction_adaptive.png,conditions/adaptive.xlsx,test,0.6,0.6,0.6,-0.6,-0.6,right,R,,,,,0,1,1,1,0,68,68,64,,,,,,,,,,,,,,,,,,,,,,,,,,,,,,,,,,,,,,,,,,,,400.1200082999421,None,right,1,1.617240299936384,400.6209327999968,402.1892422999954,400.6209327999968,401.7054977999069,400.6209327999968,401.7054977999069,400.6209327999968,401.7054977999069,400.6209327999968,401.7054977999069,400.6209327999968,401.7054977999069,401.672078399919,402.1737038999563,401.672078399919,402.1737038999563,401.672078399919,402.1737038999563,401.672078399919,402.1737038999563,401.672078399919,402.1737038999563,401.672078399919,402.1737038999563,401.672078399919,402.1737038999563,401.672078399919,402.1737038999563,400.6209327999968,None,402.1737038999563,403.52635790000204,1.0700000000000007,403.5408196999924,None,404.29312509996817,None,,,,,,,[1.34594203],2.650000000000002,0.7391304347826086,11022,002,2024_Jan_05_1933,MFTM_A_new1021,2021.2.3,60.36879296732362,
,,,,,,,,stim/Instruction_adaptive.png,conditions/adaptive.xlsx,test,0.6,0.6,0.6,-0.6,-0.6,right,R,,,,,0,1,1,1,0,69,69,52,,,,,,,,,,,,,,,,,,,,,,,,,,,,,,,,,,,,,,,,,,,,404.7937013999326,None,right,1,1.6057752999477088,405.2945534000173,406.8466124999104,405.2945534000173,406.3457796999719,405.2945534000173,406.3457796999719,405.2945534000173,406.3457796999719,405.2945534000173,406.3457796999719,405.2945534000173,406.3457796999719,406.3290622999193,406.8306350999046,406.3290622999193,406.8306350999046,406.3290622999193,406.8306350999046,406.3290622999193,406.8306350999046,406.3290622999193,406.8306350999046,406.3290622999193,406.8306350999046,406.3290622999193,406.8306350999046,406.3290622999193,406.8306350999046,405.2945534000173,None,406.8306350999046,408.18249069992453,1.0500000000000007,408.1982808999019,None,408.9496365999803,None,,,,,,,[1.34742857],2.6700000000000017,0.7428571428571429,11022,002,2024_Jan_05_1933,MFTM_A_new1021,2021.2.3,60.36879296732362,
,,,,,,,,stim/Instruction_adaptive.png,conditions/adaptive.xlsx,test,-0.6,-0.6,-0.6,0.6,0.6,left,L,,,,,0,1,1,1,0,70,70,5,,,,,,,,,,,,,,,,,,,,,,,,,,,,,,,,,,,,,,,,,,,,409.4508598999819,None,right,0,2.029726800043136,409.9508765999926,411.4868245999096,409.9508765999926,410.9869386999635,409.9508765999926,410.9869386999635,409.9508765999926,410.9869386999635,409.9508765999926,410.9869386999635,409.9508765999926,410.9869386999635,410.96921889996156,411.4702415999491,410.96921889996156,411.4702415999491,410.96921889996156,411.4702415999491,410.96921889996156,411.4702415999491,410.96921889996156,411.4702415999491,410.96921889996156,411.4702415999491,410.96921889996156,411.4702415999491,410.96921889996156,411.4702415999491,409.9508765999926,None,411.4702415999491,412.8228798999917,1.0300000000000007,412.8379253000021,None,413.58954399998765,None,,,,,,,[1.34915493],2.5900000000000016,0.7323943661971831,11022,002,2024_Jan_05_1933,MFTM_A_new1021,2021.2.3,60.36879296732362,
,,,,,,,,stim/Instruction_adaptive.png,conditions/adaptive.xlsx,test,-0.6,-0.6,-0.6,0.6,0.6,left,L,,,,,0,1,1,1,0,71,71,3,,,,,,,,,,,,,,,,,,,,,,,,,,,,,,,,,,,,,,,,,,,,414.0905976999784,None,left,1,1.4769214999396354,414.591457100003,416.1937534000026,414.591457100003,415.69365389994346,414.591457100003,415.69365389994346,414.591457100003,415.69365389994346,414.591457100003,415.69365389994346,414.591457100003,415.69365389994346,415.6600808999501,416.1612474999856,415.6600808999501,416.1612474999856,415.6600808999501,416.1612474999856,415.6600808999501,416.1612474999856,415.6600808999501,416.1612474999856,415.6600808999501,416.1612474999856,415.6600808999501,416.1612474999856,415.6600808999501,416.1612474999856,414.591457100003,None,416.1612474999856,417.5125269999262,1.0900000000000007,417.5448048999533,None,418.297622699989,None,,,,,,,[1.35],2.620000000000002,0.7361111111111112,11022,002,2024_Jan_05_1933,MFTM_A_new1021,2021.2.3,60.36879296732362,
,,,,,,,,stim/Instruction_adaptive.png,conditions/adaptive.xlsx,test,0.6,0.6,0.6,-0.6,-0.6,right,R,,,,,0,1,1,1,0,72,72,38,,,,,,,,,,,,,,,,,,,,,,,,,,,,,,,,,,,,,,,,,,,,418.7976821999764,None,right,1,1.6104598001111299,419.29791419999674,420.86738039995544,419.29791419999674,420.38317919999827,419.29791419999674,420.38317919999827,419.29791419999674,420.38317919999827,419.29791419999674,420.38317919999827,419.29791419999674,420.38317919999827,420.3496155999601,420.85058570001274,420.3496155999601,420.85058570001274,420.3496155999601,420.85058570001274,420.3496155999601,420.85058570001274,420.3496155999601,420.85058570001274,420.3496155999601,420.85058570001274,420.3496155999601,420.85058570001274,420.3496155999601,420.85058570001274,419.29791419999674,None,420.85058570001274,422.202687199926,1.0700000000000007,422.21837599994615,None,422.9705488999607,None,,,,,,,[1.35109589],2.650000000000002,0.7397260273972602,11022,002,2024_Jan_05_1933,MFTM_A_new1021,2021.2.3,60.36879296732362,
,,,,,,,,stim/Instruction_adaptive.png,conditions/adaptive.xlsx,test,-0.6,-0.6,-0.6,0.6,0.6,left,L,,,,,0,1,1,1,0,73,73,77,,,,,,,,,,,,,,,,,,,,,,,,,,,,,,,,,,,,,,,,,,,,423.47147240000777,None,left,1,1.6648710001027212,423.9723723999923,425.5242974999128,423.9723723999923,425.0232756999321,423.9723723999923,425.0232756999321,423.9723723999923,425.0232756999321,423.9723723999923,425.0232756999321,423.9723723999923,425.0232756999321,425.0067808999447,425.50728999997955,425.0067808999447,425.50728999997955,425.0067808999447,425.50728999997955,425.0067808999447,425.50728999997955,425.0067808999447,425.50728999997955,425.0067808999447,425.50728999997955,425.0067808999447,425.50728999997955,425.0067808999447,425.50728999997955,423.9723723999923,None,425.50728999997955,426.8592145999428,1.0500000000000007,426.87662290001754,None,427.6272309999913,None,,,,,,,[1.35243243],2.6700000000000017,0.7432432432432432,11022,002,2024_Jan_05_1933,MFTM_A_new1021,2021.2.3,60.36879296732362,
,,,,,,,,stim/Instruction_adaptive.png,conditions/adaptive.xlsx,test,-0.6,-0.6,-0.6,0.6,0.6,left,L,,,,,0,1,1,1,0,74,74,49,,,,,,,,,,,,,,,,,,,,,,,,,,,,,,,,,,,,,,,,,,,,428.12811649998184,None,left,1,1.2882850000169128,428.62869289994705,430.16487500001676,428.62869289994705,429.6644171999069,428.62869289994705,429.6644171999069,428.62869289994705,429.6644171999069,428.62869289994705,429.6644171999069,428.62869289994705,429.6644171999069,429.6469598999247,430.14819179999176,429.6469598999247,430.14819179999176,429.6469598999247,430.14819179999176,429.6469598999247,430.14819179999176,429.6469598999247,430.14819179999176,429.6469598999247,430.14819179999176,429.6469598999247,430.14819179999176,429.6469598999247,430.14819179999176,428.62869289994705,None,430.14819179999176,None,1.0300000000000007,431.51638399995863,None,432.2671739999205,None,,,,,,,[1.354],2.700000000000002,0.7466666666666667,11022,002,2024_Jan_05_1933,MFTM_A_new1021,2021.2.3,60.36879296732362,
,,,,,,,,stim/Instruction_adaptive.png,conditions/adaptive.xlsx,test,-0.6,-0.6,-0.6,0.6,0.6,left,L,,,,,0,1,1,1,0,75,75,13,,,,,,,,,,,,,,,,,,,,,,,,,,,,,,,,,,,,,,,,,,,,432.76904309995007,None,left,1,1.3756514000706375,433.26892979990225,434.7881172999041,433.26892979990225,434.2871432999382,433.26892979990225,434.2871432999382,433.26892979990225,434.2871432999382,433.26892979990225,434.2871432999382,433.26892979990225,434.2871432999382,434.2701106999302,434.77135799999814,434.2701106999302,434.77135799999814,434.2701106999302,434.77135799999814,434.2701106999302,434.77135799999814,434.2701106999302,434.77135799999814,434.2701106999302,434.77135799999814,434.2701106999302,434.77135799999814,434.2701106999302,434.77135799999814,433.26892979990225,None,434.75452499999665,436.1229502999922,1.0100000000000007,436.1396963999141,None,436.891361799906,None,,,,,,,[1.35578947],2.720000000000002,0.75,11022,002,2024_Jan_05_1933,MFTM_A_new1021,2021.2.3,60.36879296732362,
,,,,,,,,stim/Instruction_adaptive.png,conditions/adaptive.xlsx,test,-0.6,-0.6,-0.6,0.6,0.6,left,L,,,,,0,1,1,1,0,76,76,11,,,,,,,,,,,,,,,,,,,,,,,,,,,,,,,,,,,,,,,,,,,,437.3927367000142,None,right,0,1.336562899989076,437.8923001999501,439.394848399912,437.8923001999501,438.8938106999267,437.8923001999501,438.8938106999267,437.8923001999501,438.8938106999267,437.8923001999501,438.8938106999267,437.8923001999501,438.8938106999267,438.87726519990247,439.3781602999661,438.87726519990247,439.3781602999661,438.87726519990247,439.3781602999661,438.87726519990247,439.3781602999661,438.87726519990247,439.3781602999661,438.87726519990247,439.3781602999661,438.87726519990247,439.3781602999661,438.87726519990247,439.3781602999661,437.8923001999501,None,439.3781602999661,440.7478185999207,1.0000000000000007,440.76301150000654,None,441.51502950000577,None,,,,,,,[1.35766234],2.650000000000002,0.7402597402597403,11022,002,2024_Jan_05_1933,MFTM_A_new1021,2021.2.3,60.36879296732362,
,,,,,,,,stim/Instruction_adaptive.png,conditions/adaptive.xlsx,test,-0.6,-0.6,-0.6,0.6,0.6,left,L,,,,,0,1,1,1,0,77,77,35,,,,,,,,,,,,,,,,,,,,,,,,,,,,,,,,,,,,,,,,,,,,442.01555989996996,None,right,0,1.8815025000367314,442.5155816999031,444.06988389999606,442.5155816999031,443.5686861999566,442.5155816999031,443.5686861999566,442.5155816999031,443.5686861999566,442.5155816999031,443.5686861999566,442.5155816999031,443.5686861999566,443.55086139997,444.0518631999148,443.55086139997,444.0518631999148,443.55086139997,444.0518631999148,443.55086139997,444.0518631999148,443.55086139997,444.0518631999148,443.55086139997,444.0518631999148,443.55086139997,444.0518631999148,443.55086139997,444.0518631999148,442.5155816999031,None,444.0518631999148,445.42030100000557,1.0500000000000007,445.4371051999042,None,446.18794510001317,None,,,,,,,[1.35884615],2.570000000000002,0.7307692307692307,11022,002,2024_Jan_05_1933,MFTM_A_new1021,2021.2.3,60.36879296732362,
,,,,,,,,stim/Instruction_adaptive.png,conditions/adaptive.xlsx,test,0.6,0.6,0.6,-0.6,-0.6,right,R,,,,,0,1,1,1,0,78,78,6,,,,,,,,,,,,,,,,,,,,,,,,,,,,,,,,,,,,,,,,,,,,446.6892465999117,None,left,0,1.488155800034292,447.18952179991174,448.80895530001726,447.18952179991174,448.3080059000058,447.18952179991174,448.3080059000058,447.18952179991174,448.3080059000058,447.18952179991174,448.3080059000058,447.18952179991174,448.3080059000058,448.27426189999096,448.77528179995716,448.27426189999096,448.77528179995716,448.27426189999096,448.77528179995716,448.27426189999096,448.77528179995716,448.27426189999096,448.77528179995716,448.27426189999096,448.77528179995716,448.27426189999096,448.77528179995716,448.27426189999096,448.77528179995716,447.18952179991174,None,448.77528179995716,450.1442530999193,1.1100000000000008,450.160486400011,None,450.9128006999381,None,,,,,,,[1.35924051],2.5000000000000018,0.7215189873417721,11022,002,2024_Jan_05_1933,MFTM_A_new1021,2021.2.3,60.36879296732362,
,,,,,,,,stim/Instruction_adaptive.png,conditions/adaptive.xlsx,test,-0.6,-0.6,-0.6,0.6,0.6,left,L,,,,,0,1,1,1,0,79,79,9,,,,,,,,,,,,,,,,,,,,,,,,,,,,,,,,,,,,,,,,,,,,451.41306059993804,None,left,1,1.2667094999924302,451.9141641999595,453.5825582999969,451.9141641999595,453.0818729000166,451.9141641999595,453.0818729000166,451.9141641999595,453.0818729000166,451.9141641999595,453.0818729000166,451.9141641999595,453.0818729000166,453.06556469993666,453.5661950999638,453.06556469993666,453.5661950999638,453.06556469993666,453.5661950999638,453.06556469993666,453.5661950999638,453.06556469993666,453.5661950999638,453.06556469993666,453.5661950999638,453.06556469993666,453.5661950999638,453.06556469993666,453.5661950999638,451.9141641999595,None,453.5493240999058,454.90179899998475,1.1600000000000008,454.9180804999778,None,455.6689873000141,None,,,,,,,[[1.34]],2.520000000000002,0.725,11022,002,2024_Jan_05_1933,MFTM_A_new1021,2021.2.3,60.36879296732362,
,,,,,,,,stim/Instruction_adaptive.png,conditions/adaptive.xlsx,test,0.6,0.6,0.6,-0.6,-0.6,right,R,,,,,0,1,1,1,0,80,80,84,,,,,,,,,,,,,,,,,,,,,,,,,,,,,,,,,,,,,,,,,,,,456.16940449993126,None,right,1,1.6701230999315158,456.6717397000175,458.32281889999285,456.6717397000175,457.8221776999999,456.6717397000175,457.8221776999999,456.6717397000175,457.8221776999999,456.6717397000175,457.8221776999999,456.6717397000175,457.8221776999999,457.8055991999572,458.3061901999172,457.8055991999572,458.3061901999172,457.8055991999572,458.3061901999172,457.8055991999572,458.3061901999172,457.8055991999572,458.3061901999172,457.8055991999572,458.3061901999172,457.8055991999572,458.3061901999172,457.8055991999572,458.3061901999172,456.6717397000175,None,458.3061901999172,459.6582286999328,1.1500000000000008,459.674672299996,None,460.42664319998585,None,,,,,,,[[1.35]],2.5500000000000016,0.7283950617283951,11022,002,2024_Jan_05_1933,MFTM_A_new1021,2021.2.3,60.36879296732362,
,,,,,,,,stim/Instruction_adaptive.png,conditions/adaptive.xlsx,test,0.6,0.6,0.6,-0.6,-0.6,right,R,,,,,0,1,1,1,0,81,81,82,,,,,,,,,,,,,,,,,,,,,,,,,,,,,,,,,,,,,,,,,,,,460.9268406999763,None,left,0,1.6893819000106305,461.427196500008,463.0467623999575,461.427196500008,462.5454925999511,461.427196500008,462.5454925999511,461.427196500008,462.5454925999511,461.427196500008,462.5454925999511,461.427196500008,462.5454925999511,462.52990759990644,463.03035849996377,462.52990759990644,463.03035849996377,462.52990759990644,463.03035849996377,462.52990759990644,463.03035849996377,462.52990759990644,463.03035849996377,462.52990759990644,463.03035849996377,462.52990759990644,463.03035849996377,462.52990759990644,463.03035849996377,461.427196500008,None,463.03035849996377,464.3986007999629,1.1200000000000008,464.41502670000773,None,465.1662228999194,None,,,,,,,[1.35914634],2.4700000000000015,0.7195121951219512,11022,002,2024_Jan_05_1933,MFTM_A_new1021,2021.2.3,60.36879296732362,
,,,,,,,,stim/Instruction_adaptive.png,conditions/adaptive.xlsx,test,-0.6,-0.6,-0.6,0.6,0.6,left,L,,,,,0,1,1,1,0,82,82,97,,,,,,,,,,,,,,,,,,,,,,,,,,,,,,,,,,,,,,,,,,,,465.6670727999881,None,left,1,1.5247227000072598,466.16802779992577,467.87040719995275,466.16802779992577,467.36953059991356,466.16802779992577,467.36953059991356,466.16802779992577,467.36953059991356,466.16802779992577,467.36953059991356,466.16802779992577,467.36953059991356,467.33601600001566,467.8376629999839,467.33601600001566,467.8376629999839,467.33601600001566,467.8376629999839,467.33601600001566,467.8376629999839,467.33601600001566,467.8376629999839,467.33601600001566,467.8376629999839,467.33601600001566,467.8376629999839,467.33601600001566,467.8376629999839,466.16802779992577,None,467.8376629999839,469.155537399929,1.1900000000000008,469.1718616000144,None,469.924007399939,None,,,,,,,[[1.31]],2.5000000000000018,0.7228915662650602,11022,002,2024_Jan_05_1933,MFTM_A_new1021,2021.2.3,60.36879296732362,
,,,,,,,,stim/Instruction_adaptive.png,conditions/adaptive.xlsx,test,0.6,0.6,0.6,-0.6,-0.6,right,R,,,,,0,1,1,1,0,83,83,76,,,,,,,,,,,,,,,,,,,,,,,,,,,,,,,,,,,,,,,,,,,,470.42418059997726,None,left,0,1.5599396000616252,470.9245939999819,472.59374909999315,470.9245939999819,472.09335579990875,470.9245939999819,472.09335579990875,470.9245939999819,472.09335579990875,470.9245939999819,472.09335579990875,470.9245939999819,472.09335579990875,472.06101399997715,472.56043710000813,472.06101399997715,472.56043710000813,472.06101399997715,472.56043710000813,472.06101399997715,472.56043710000813,472.06101399997715,472.56043710000813,472.06101399997715,472.56043710000813,472.06101399997715,472.56043710000813,472.06101399997715,472.56043710000813,470.9245939999819,None,472.56043710000813,473.91299899993464,1.1600000000000008,473.9288622000022,None,474.6803479999071,None,,,,,,,[[1.34]],2.4200000000000017,0.7142857142857143,11022,002,2024_Jan_05_1933,MFTM_A_new1021,2021.2.3,60.36879296732362,
,,,,,,,,stim/Instruction_adaptive.png,conditions/adaptive.xlsx,test,0.6,0.6,0.6,-0.6,-0.6,right,R,,,,,0,1,1,1,0,84,84,62,,,,,,,,,,,,,,,,,,,,,,,,,,,,,,,,,,,,,,,,,,,,475.1808527999092,None,right,1,1.6515147000318393,475.6817311999621,477.41780789999757,475.6817311999621,476.917183799902,475.6817311999621,476.917183799902,475.6817311999621,476.917183799902,475.6817311999621,476.917183799902,475.6817311999621,476.917183799902,476.9000365999527,477.4012877999339,476.9000365999527,477.4012877999339,476.9000365999527,477.4012877999339,476.9000365999527,477.4012877999339,476.9000365999527,477.4012877999339,476.9000365999527,477.4012877999339,476.9000365999527,477.4012877999339,476.9000365999527,477.4012877999339,475.6817311999621,None,477.4012877999339,478.6706002999563,1.2300000000000009,478.68598219996784,None,479.4370502999518,None,,,,,,,[[1.27]],2.450000000000002,0.7176470588235294,11022,002,2024_Jan_05_1933,MFTM_A_new1021,2021.2.3,60.36879296732362,
,,,,,,,,stim/Instruction_adaptive.png,conditions/adaptive.xlsx,test,-0.6,-0.6,-0.6,0.6,0.6,left,L,,,,,0,1,1,1,0,85,85,89,,,,,,,,,,,,,,,,,,,,,,,,,,,,,,,,,,,,,,,,,,,,479.93906259990763,None,left,1,1.3255715999985114,480.4393815000076,482.1414061000105,480.4393815000076,481.64039229997434,480.4393815000076,481.64039229997434,480.4393815000076,481.64039229997434,480.4393815000076,481.64039229997434,480.4393815000076,481.64039229997434,481.6242217000108,482.1246304999804,481.6242217000108,482.1246304999804,481.6242217000108,482.1246304999804,481.6242217000108,482.1246304999804,481.6242217000108,482.1246304999804,481.6242217000108,482.1246304999804,481.6242217000108,482.1246304999804,481.6242217000108,482.1246304999804,480.4393815000076,None,482.1246304999804,483.4270128000062,1.2000000000000008,483.4441442999523,None,484.1963581999298,None,,,,,,,[[1.3]],2.4700000000000015,0.7209302325581395,11022,002,2024_Jan_05_1933,MFTM_A_new1021,2021.2.3,60.36879296732362,
,,,,,,,,stim/Instruction_adaptive.png,conditions/adaptive.xlsx,test,0.6,0.6,0.6,-0.6,-0.6,right,R,,,,,0,1,1,1,0,86,86,92,,,,,,,,,,,,,,,,,,,,,,,,,,,,,,,,,,,,,,,,,,,,484.71176729991566,None,right,1,1.6475848000263795,485.2134020999074,486.9150905999122,485.2134020999074,486.41478389990516,485.2134020999074,486.41478389990516,485.2134020999074,486.41478389990516,485.2134020999074,486.41478389990516,485.2134020999074,486.41478389990516,486.38105279998854,486.8817001999123,486.38105279998854,486.8817001999123,486.38105279998854,486.8817001999123,486.38105279998854,486.8817001999123,486.38105279998854,486.8817001999123,486.38105279998854,486.8817001999123,486.38105279998854,486.8817001999123,486.38105279998854,486.8817001999123,485.2134020999074,None,486.8817001999123,488.20043490000535,1.1900000000000008,488.2166951999534,None,488.9681489999639,None,,,,,,,[[1.31]],2.5000000000000018,0.7241379310344828,11022,002,2024_Jan_05_1933,MFTM_A_new1021,2021.2.3,60.36879296732362,
,,,,,,,,stim/Instruction_adaptive.png,conditions/adaptive.xlsx,test,0.6,0.6,0.6,-0.6,-0.6,right,R,,,,,0,1,1,1,0,87,87,20,,,,,,,,,,,,,,,,,,,,,,,,,,,,,,,,,,,,,,,,,,,,489.4687947999919,None,right,1,1.5386551999254152,489.97031899995636,491.63947269995697,489.97031899995636,491.13778509991243,489.97031899995636,491.13778509991243,489.97031899995636,491.13778509991243,489.97031899995636,491.13778509991243,489.97031899995636,491.13778509991243,491.10444689996075,491.60557959997095,491.10444689996075,491.60557959997095,491.10444689996075,491.60557959997095,491.10444689996075,491.60557959997095,491.10444689996075,491.60557959997095,491.10444689996075,491.60557959997095,491.10444689996075,491.60557959997095,491.10444689996075,491.60557959997095,489.97031899995636,None,491.60557959997095,492.9578299999703,1.1600000000000008,492.973987699952,None,493.72532179998234,None,,,,,,,[[1.34]],2.520000000000002,0.7272727272727273,11022,002,2024_Jan_05_1933,MFTM_A_new1021,2021.2.3,60.36879296732362,
,,,,,,,,stim/Instruction_adaptive.png,conditions/adaptive.xlsx,test,0.6,0.6,0.6,-0.6,-0.6,right,R,,,,,0,1,1,1,0,88,88,86,,,,,,,,,,,,,,,,,,,,,,,,,,,,,,,,,,,,,,,,,,,,494.22649789997377,None,right,1,1.5097191999666393,494.7267130999826,496.3800820999313,494.7267130999826,495.87814209994394,494.7267130999826,495.87814209994394,494.7267130999826,495.87814209994394,494.7267130999826,495.87814209994394,494.7267130999826,495.87814209994394,495.8617984999437,496.3635790999979,495.8617984999437,496.3635790999979,495.8617984999437,496.3635790999979,495.8617984999437,496.3635790999979,495.8617984999437,496.3635790999979,495.8617984999437,496.3635790999979,495.8617984999437,496.3635790999979,495.8617984999437,496.3635790999979,494.7267130999826,None,496.3635790999979,497.7145329999039,1.1500000000000008,497.7311235999223,None,498.48201039992273,None,,,,,,,[[1.35]],2.5500000000000016,0.7303370786516854,11022,002,2024_Jan_05_1933,MFTM_A_new1021,2021.2.3,60.36879296732362,
,,,,,,,,stim/Instruction_adaptive.png,conditions/adaptive.xlsx,test,0.6,0.6,0.6,-0.6,-0.6,right,R,,,,,0,1,1,1,0,89,89,36,,,,,,,,,,,,,,,,,,,,,,,,,,,,,,,,,,,,,,,,,,,,498.98293820000254,None,right,1,1.3527317999396473,499.48409849999007,501.10424429993145,499.48409849999007,500.61867659993004,499.48409849999007,500.61867659993004,499.48409849999007,500.61867659993004,499.48409849999007,500.61867659993004,499.48409849999007,500.61867659993004,500.5853669999633,501.08737199997995,500.5853669999633,501.08737199997995,500.5853669999633,501.08737199997995,500.5853669999633,501.08737199997995,500.5853669999633,501.08737199997995,500.5853669999633,501.08737199997995,500.5853669999633,501.08737199997995,500.5853669999633,501.08737199997995,499.48409849999007,None,501.08737199997995,502.4548824999947,1.1200000000000008,502.4884667999577,None,503.2394207000034,None,,,,,,,[1.35611111],2.570000000000002,0.7333333333333333,11022,002,2024_Jan_05_1933,MFTM_A_new1021,2021.2.3,60.36879296732362,
,,,,,,,,stim/Instruction_adaptive.png,conditions/adaptive.xlsx,test,0.6,0.6,0.6,-0.6,-0.6,right,R,,,,,0,1,1,1,0,90,90,54,,,,,,,,,,,,,,,,,,,,,,,,,,,,,,,,,,,,,,,,,,,,503.74040090001654,None,right,1,1.3955896000843495,504.2409508000128,505.86008709995076,504.2409508000128,505.3598663000157,504.2409508000128,505.3598663000157,504.2409508000128,505.3598663000157,504.2409508000128,505.3598663000157,504.2409508000128,505.3598663000157,505.32587709999643,505.8263790999772,505.32587709999643,505.8263790999772,505.32587709999643,505.8263790999772,505.32587709999643,505.8263790999772,505.32587709999643,505.8263790999772,505.32587709999643,505.8263790999772,505.32587709999643,505.8263790999772,505.32587709999643,505.8263790999772,504.2409508000128,None,505.8263790999772,507.1952985000098,1.1100000000000008,507.2117519999156,None,507.96318229997996,None,,,,,,,[1.35648352],2.5900000000000016,0.7362637362637363,11022,002,2024_Jan_05_1933,MFTM_A_new1021,2021.2.3,60.36879296732362,
,,,,,,,,stim/Instruction_adaptive.png,conditions/adaptive.xlsx,test,-0.6,-0.6,-0.6,0.6,0.6,left,L,,,,,0,1,1,1,0,91,91,67,,,,,,,,,,,,,,,,,,,,,,,,,,,,,,,,,,,,,,,,,,,,508.46383689995855,None,right,0,1.4169095000252128,508.9644081000006,510.56676929991227,508.9644081000006,510.06628579995595,508.9644081000006,510.06628579995595,508.9644081000006,510.06628579995595,508.9644081000006,510.06628579995595,508.9644081000006,510.06628579995595,510.03270340000745,510.533330700011,510.03270340000745,510.533330700011,510.03270340000745,510.533330700011,510.03270340000745,510.533330700011,510.03270340000745,510.533330700011,510.03270340000745,510.533330700011,510.03270340000745,510.533330700011,510.03270340000745,510.533330700011,508.9644081000006,None,510.533330700011,511.9019136999268,1.0900000000000007,511.91980559995864,None,512.6701096999459,None,,,,,,,[1.35706522],2.530000000000002,0.7282608695652174,11022,002,2024_Jan_05_1933,MFTM_A_new1021,2021.2.3,60.36879296732362,
,,,,,,,,stim/Instruction_adaptive.png,conditions/adaptive.xlsx,test,-0.6,-0.6,-0.6,0.6,0.6,left,L,,,,,0,1,1,1,0,92,92,1,,,,,,,,,,,,,,,,,,,,,,,,,,,,,,,,,,,,,,,,,,,,513.1715867000166,None,left,1,1.3253583000041544,513.6714344999054,515.3246571999043,513.6714344999054,514.8233324999455,513.6714344999054,514.8233324999455,513.6714344999054,514.8233324999455,513.6714344999054,514.8233324999455,513.6714344999054,514.8233324999455,514.7898335999344,515.2911384999752,514.7898335999344,515.2911384999752,514.7898335999344,515.2911384999752,514.7898335999344,515.2911384999752,514.7898335999344,515.2911384999752,514.7898335999344,515.2911384999752,514.7898335999344,515.2911384999752,514.7898335999344,515.2911384999752,513.6714344999054,None,515.2911384999752,516.6593690000009,1.1400000000000008,516.6757413999876,None,517.4272099999944,None,,,,,,,[1.35709677],2.5500000000000016,0.7311827956989247,11022,002,2024_Jan_05_1933,MFTM_A_new1021,2021.2.3,60.36879296732362,
