arrwidth1,arrwidth2,arrwidth3,arrwidth4,arrwidth5,keyb,type,orientation,instruction_image,block_filename,block_type,arrow11,arrow22,arrow33,arrow44,arrow55,keyb_3,orientation3,trials.thisRepN,trials.thisTrialN,trials.thisN,trials.thisIndex,trials_3.thisRepN,trials_3.thisTrialN,trials_3.thisN,trials_3.thisIndex,trials_2.thisRepN,trials_2.thisTrialN,trials_2.thisN,trials_2.thisIndex,welcome.started,welcome.stopped,key_resp.keys,key_resp.rt,key_resp.started,key_resp.stopped,instruction_example.started,instruction_example.stopped,key_resp_3.keys,key_resp_3.rt,key_resp_3.started,key_resp_3.stopped,instruction_task.started,instruction_task.stopped,key_resp_2.keys,key_resp_2.rt,key_resp_2.started,key_resp_2.stopped,text_2.started,text_2.stopped,A1.started,A1.stopped,A2.started,A2.stopped,A3.started,A3.stopped,A4.started,A4.stopped,A5.started,A5.stopped,key_resp_4.keys,key_resp_4.corr,key_resp_4.rt,key_resp_4.started,key_resp_4.stopped,fb.started,fb.stopped,instruction_block.started,instruction_block.stopped,key_resp_8.keys,key_resp_8.rt,key_resp_8.started,key_resp_8.stopped,text_8.started,text_8.stopped,key_resp_9.keys,key_resp_9.corr,key_resp_9.rt,text_5.started,text_5.stopped,A11_3.started,A11_3.stopped,A22_2.started,A22_2.stopped,A33_2.started,A33_2.stopped,A44_2.started,A44_2.stopped,A55_2.started,A55_2.stopped,M1_3.started,M1_3.stopped,M2_2.started,M2_2.stopped,M3_2.started,M3_2.stopped,M4_2.started,M4_2.stopped,M5_2.started,M5_2.stopped,M6_2.started,M6_2.stopped,M7_2.started,M7_2.stopped,M8_2.started,M8_2.stopped,key_resp_9.started,key_resp_9.stopped,fixation.started,fixation.stopped,ET,fb_3.started,fb_3.stopped,text_9.started,text_9.stopped,fb_4.started,fb_4.stopped,text_7.started,text_7.stopped,endtext.started,endtext.stopped,fixation_ITI,CCC,Acc,participant,session,date,expName,psychopyVersion,frameRate,
,,,,,,,,,,,,,,,,,,,,,,,,,,,,,,11.885369000025094,None,return,1.5435371999628842,11.885369000025094,None,,,,,,,,,,,,,,,,,,,,,,,,,,,,,,,,,,,,,,,,,,,,,,,,,,,,,,,,,,,,,,,,,,,,,,,,,,,,,,,,,,,,,,,,,11029,002,2024_Jan_10_1613,MFTM_A_new1021,2021.2.3,59.894155024216424,
,,,,,,,,,,,,,,,,,,,,,,,,,,,,,,,,,,,,13.454526500077918,None,return,2.4545305999927223,13.454526500077918,None,,,,,,,,,,,,,,,,,,,,,,,,,,,,,,,,,,,,,,,,,,,,,,,,,,,,,,,,,,,,,,,,,,,,,,,,,,,,,,,,,,,11029,002,2024_Jan_10_1613,MFTM_A_new1021,2021.2.3,59.894155024216424,
,,,,,,,,,,,,,,,,,,,,,,,,,,,,,,,,,,,,,,,,,,15.9254995000083,None,left,2.695403099991381,15.9254995000083,None,,,,,,,,,,,,,,,,,,,,,,,,,,,,,,,,,,,,,,,,,,,,,,,,,,,,,,,,,,,,,,,,,,,,,,,,,,,,,11029,002,2024_Jan_10_1613,MFTM_A_new1021,2021.2.3,59.894155024216424,
0.6,0.6,0.6,-0.6,-0.6,right,3:2,R,,,,,,,,,,,0,0,0,0,,,,,,,,,,,,,,,,,,,,,,,,,,,18.66344100004062,None,18.66344100004062,None,18.66344100004062,None,18.66344100004062,None,18.66344100004062,None,18.66344100004062,None,right,1,6.885456299874932,18.66344100004062,None,25.58963320008479,None,,,,,,,,,,,,,,,,,,,,,,,,,,,,,,,,,,,,,,,,,,,,,,,,,,,,,,,,,,11029,002,2024_Jan_10_1613,MFTM_A_new1021,2021.2.3,59.894155024216424,
-0.6,-0.6,-0.6,0.6,0.6,left,3:2,L,,,,,,,,,,,0,1,1,1,,,,,,,,,,,,,,,,,,,,,,,,,,,26.340544400038198,None,26.340544400038198,None,26.340544400038198,None,26.340544400038198,None,26.340544400038198,None,26.340544400038198,None,left,1,2.168553899973631,26.340544400038198,None,28.526925599901006,None,,,,,,,,,,,,,,,,,,,,,,,,,,,,,,,,,,,,,,,,,,,,,,,,,,,,,,,,,,11029,002,2024_Jan_10_1613,MFTM_A_new1021,2021.2.3,59.894155024216424,
0.6,0.6,0.6,-0.6,-0.6,right,3:2,R,,,,,,,,,,,1,0,2,0,,,,,,,,,,,,,,,,,,,,,,,,,,,29.2781704000663,None,29.2781704000663,None,29.2781704000663,None,29.2781704000663,None,29.2781704000663,None,29.2781704000663,None,right,1,3.3829408998135477,29.2781704000663,None,32.68313809996471,None,,,,,,,,,,,,,,,,,,,,,,,,,,,,,,,,,,,,,,,,,,,,,,,,,,,,,,,,,,11029,002,2024_Jan_10_1613,MFTM_A_new1021,2021.2.3,59.894155024216424,
-0.6,-0.6,-0.6,0.6,0.6,left,3:2,L,,,,,,,,,,,1,1,3,1,,,,,,,,,,,,,,,,,,,,,,,,,,,33.43413900001906,None,33.43413900001906,None,33.43413900001906,None,33.43413900001906,None,33.43413900001906,None,33.43413900001906,None,left,1,2.522706399904564,33.43413900001906,None,35.97140619996935,None,,,,,,,,,,,,,,,,,,,,,,,,,,,,,,,,,,,,,,,,,,,,,,,,,,,,,,,,,,11029,002,2024_Jan_10_1613,MFTM_A_new1021,2021.2.3,59.894155024216424,
,,,,,,,,stim/Instruction_mask.png,conditions/adaptive.xlsx,practice,-0.6,-0.6,-0.6,0.6,0.6,left,L,,,,,0,0,0,0,0,0,0,27,,,,,,,,,,,,,,,,,,,,,,,,,,,,,,,,,,,,,,36.973708800040185,None,left,5.415122300153598,36.973708800040185,None,42.4984500000719,None,None,0,0,42.931692800018936,None,42.931692800018936,45.93691590009257,42.931692800018936,45.93691590009257,42.931692800018936,45.93691590009257,42.931692800018936,45.93691590009257,42.931692800018936,45.93691590009257,45.91938799992204,46.42031600000337,45.91938799992204,46.42031600000337,45.91938799992204,46.42031600000337,45.91938799992204,46.42031600000337,45.91938799992204,46.42031600000337,45.91938799992204,46.42031600000337,45.91938799992204,46.42031600000337,45.91938799992204,46.42031600000337,42.931692800018936,None,46.42031600000337,46.42031600000337,3,46.43696850002743,None,47.18811269989237,None,,,,,,,,,,11029,002,2024_Jan_10_1613,MFTM_A_new1021,2021.2.3,59.894155024216424,
,,,,,,,,stim/Instruction_mask.png,conditions/adaptive.xlsx,practice,0.6,0.6,0.6,-0.6,-0.6,right,R,,,,,0,0,0,0,0,1,1,92,,,,,,,,,,,,,,,,,,,,,,,,,,,,,,,,,,,,,,,,,,,,47.68911919998936,None,left,0,1.743470599874854,48.189448999939486,50.19360510003753,48.189448999939486,49.69212520006113,48.189448999939486,49.69212520006113,48.189448999939486,49.69212520006113,48.189448999939486,49.69212520006113,48.189448999939486,49.69212520006113,49.67536669992842,50.176029100082815,49.67536669992842,50.176029100082815,49.67536669992842,50.176029100082815,49.67536669992842,50.176029100082815,49.67536669992842,50.176029100082815,49.67536669992842,50.176029100082815,49.67536669992842,50.176029100082815,49.67536669992842,50.176029100082815,48.189448999939486,None,50.176029100082815,51.68012690008618,1.5,51.69466180005111,None,52.44590270007029,None,,,,,,,,,,11029,002,2024_Jan_10_1613,MFTM_A_new1021,2021.2.3,59.894155024216424,
,,,,,,,,stim/Instruction_mask.png,conditions/adaptive.xlsx,practice,-0.6,-0.6,-0.6,0.6,0.6,left,L,,,,,0,0,0,0,0,2,2,65,,,,,,,,,,,,,,,,,,,,,,,,,,,,,,,,,,,,,,,,,,,,52.94724959996529,None,right,0,1.2697590999305248,53.44717689999379,54.7492166000884,53.44717689999379,54.248472000006586,53.44717689999379,54.248472000006586,53.44717689999379,54.248472000006586,53.44717689999379,54.248472000006586,53.44717689999379,54.248472000006586,54.23179330001585,54.7324061000254,54.23179330001585,54.7324061000254,54.23179330001585,54.7324061000254,54.23179330001585,54.7324061000254,54.23179330001585,54.7324061000254,54.23179330001585,54.7324061000254,54.23179330001585,54.7324061000254,54.23179330001585,54.7324061000254,53.44717689999379,None,54.7324061000254,56.93669579993002,0.8,56.95297809992917,None,57.70364479999989,None,,,,,,,,,,11029,002,2024_Jan_10_1613,MFTM_A_new1021,2021.2.3,59.894155024216424,
,,,,,,,,stim/Instruction_mask.png,conditions/adaptive.xlsx,practice,0.6,0.6,0.6,-0.6,-0.6,right,R,,,,,0,0,0,0,0,3,3,30,,,,,,,,,,,,,,,,,,,,,,,,,,,,,,,,,,,,,,,,,,,,58.20505509991199,None,left,0,0.7397245999891311,58.705182400066406,59.458528799936175,58.705182400066406,58.95540599990636,58.705182400066406,58.95540599990636,58.705182400066406,58.95540599990636,58.705182400066406,58.95540599990636,58.705182400066406,58.95540599990636,58.939498899970204,59.4396838999819,58.939498899970204,59.4396838999819,58.939498899970204,59.4396838999819,58.939498899970204,59.4396838999819,58.939498899970204,59.4396838999819,58.939498899970204,59.4396838999819,58.939498899970204,59.4396838999819,58.939498899970204,59.4396838999819,58.705182400066406,None,59.4396838999819,62.193704300094396,3,62.21032529999502,None,62.96164110000245,None,,,,,,,,,,11029,002,2024_Jan_10_1613,MFTM_A_new1021,2021.2.3,59.894155024216424,
,,,,,,,,stim/Instruction_mask.png,conditions/adaptive.xlsx,practice,,,,,,,,,,,,0,0,0,0,,,,,,,,,,,,,,,,,,,,,,,,,,,,,,,,,,,,,,,,,,,,,,,,,,,,,,,,,,,,,,,,,,,,,,,,,,,,,,,,,,,,,,,,,,63.478850699961185,64.4804446999915,64.46362060005777,64.46362060005777,64.46362060005777,None,,,,11029,002,2024_Jan_10_1613,MFTM_A_new1021,2021.2.3,59.894155024216424,
,,,,,,,,stim/Instruction_adaptive.png,conditions/adaptive.xlsx,test,0.6,0.6,0.6,-0.6,-0.6,right,R,,,,,0,1,1,1,0,0,0,74,,,,,,,,,,,,,,,,,,,,,,,,,,,,,,,,,,,,,,67.63488789997064,None,space,5.546063699992374,67.63488789997064,None,73.2261395000387,None,left,0,2.493602800182998,73.72735720011406,None,73.72735720011406,76.73258429998532,73.72735720011406,76.73258429998532,73.72735720011406,76.73258429998532,73.72735720011406,76.73258429998532,73.72735720011406,76.73258429998532,76.71494510001503,77.21610340010375,76.71494510001503,77.21610340010375,76.71494510001503,77.21610340010375,76.71494510001503,77.21610340010375,76.71494510001503,77.21610340010375,76.71494510001503,77.21610340010375,76.71494510001503,77.21610340010375,76.71494510001503,77.21610340010375,73.72735720011406,None,77.1991497001145,77.1991497001145,3,77.23266280000098,None,77.98420140007511,None,,,,,,,0,0.5,0.0,11029,002,2024_Jan_10_1613,MFTM_A_new1021,2021.2.3,59.894155024216424,
,,,,,,,,stim/Instruction_adaptive.png,conditions/adaptive.xlsx,test,-0.6,-0.6,-0.6,0.6,0.6,left,L,,,,,0,1,1,1,0,1,1,27,,,,,,,,,,,,,,,,,,,,,,,,,,,,,,,,,,,,,,,,,,,,78.48550130007789,None,left,1,1.2439302999991924,78.98511809995398,None,78.98511809995398,81.9900458001066,78.98511809995398,81.9900458001066,78.98511809995398,81.9900458001066,78.98511809995398,81.9900458001066,78.98511809995398,81.9900458001066,81.97321110009216,82.47371529997326,81.97321110009216,82.47371529997326,81.97321110009216,82.47371529997326,81.97321110009216,82.47371529997326,81.97321110009216,82.47371529997326,81.97321110009216,82.47371529997326,81.97321110009216,82.47371529997326,81.97321110009216,82.47371529997326,78.98511809995398,None,82.47371529997326,82.47371529997326,3.0000000000000027,82.49102579988539,None,83.2413741000928,None,,,,,,,0,0.5,0.5,11029,002,2024_Jan_10_1613,MFTM_A_new1021,2021.2.3,59.894155024216424,
,,,,,,,,stim/Instruction_adaptive.png,conditions/adaptive.xlsx,test,-0.6,-0.6,-0.6,0.6,0.6,left,L,,,,,0,1,1,1,0,2,2,55,,,,,,,,,,,,,,,,,,,,,,,,,,,,,,,,,,,,,,,,,,,,83.74207999999635,None,None,0,0,84.2427294999361,None,84.2427294999361,87.24768280005082,84.2427294999361,87.24768280005082,84.2427294999361,87.24768280005082,84.2427294999361,87.24768280005082,84.2427294999361,87.24768280005082,87.23066530004144,87.7316487999633,87.23066530004144,87.7316487999633,87.23066530004144,87.7316487999633,87.23066530004144,87.7316487999633,87.23066530004144,87.7316487999633,87.23066530004144,87.7316487999633,87.23066530004144,87.7316487999633,87.23066530004144,87.7316487999633,84.2427294999361,None,87.7316487999633,87.7316487999633,3.0000000000000027,87.74791350006126,None,88.49950610008091,None,,,,,,,0,0.5,0.3333333333333333,11029,002,2024_Jan_10_1613,MFTM_A_new1021,2021.2.3,59.894155024216424,
,,,,,,,,stim/Instruction_adaptive.png,conditions/adaptive.xlsx,test,-0.6,-0.6,-0.6,0.6,0.6,left,L,,,,,0,1,1,1,0,3,3,19,,,,,,,,,,,,,,,,,,,,,,,,,,,,,,,,,,,,,,,,,,,,89.00058869994245,None,left,1,1.5691520001273602,89.50078619993292,None,89.50078619993292,92.50577099993825,89.50078619993292,92.50577099993825,89.50078619993292,92.50577099993825,89.50078619993292,92.50577099993825,89.50078619993292,92.50577099993825,92.48847340000793,92.9893604000099,92.48847340000793,92.9893604000099,92.48847340000793,92.9893604000099,92.48847340000793,92.9893604000099,92.48847340000793,92.9893604000099,92.48847340000793,92.9893604000099,92.48847340000793,92.9893604000099,92.48847340000793,92.9893604000099,89.50078619993292,None,92.9893604000099,92.9893604000099,3.0000000000000027,93.0062665999867,None,93.75716500007547,None,,,,,,,0,0.5,0.5,11029,002,2024_Jan_10_1613,MFTM_A_new1021,2021.2.3,59.894155024216424,
,,,,,,,,stim/Instruction_adaptive.png,conditions/adaptive.xlsx,test,0.6,0.6,0.6,-0.6,-0.6,right,R,,,,,0,1,1,1,0,4,4,52,,,,,,,,,,,,,,,,,,,,,,,,,,,,,,,,,,,,,,,,,,,,94.25814169994555,None,right,1,3.0391518000978976,94.75871740002185,None,94.75871740002185,97.76301159989089,94.75871740002185,97.76301159989089,94.75871740002185,97.76301159989089,94.75871740002185,97.76301159989089,94.75871740002185,97.76301159989089,97.74642369989306,98.24796910001896,97.74642369989306,98.24796910001896,97.74642369989306,98.24796910001896,97.74642369989306,98.24796910001896,97.74642369989306,98.24796910001896,97.74642369989306,98.24796910001896,97.74642369989306,98.24796910001896,97.74642369989306,98.24796910001896,94.75871740002185,None,98.24796910001896,98.24796910001896,3.0000000000000027,98.26365519990213,None,99.01528830011375,None,,,,,,,0,0.5,0.6,11029,002,2024_Jan_10_1613,MFTM_A_new1021,2021.2.3,59.894155024216424,
,,,,,,,,stim/Instruction_adaptive.png,conditions/adaptive.xlsx,test,-0.6,-0.6,-0.6,0.6,0.6,left,L,,,,,0,1,1,1,0,5,5,9,,,,,,,,,,,,,,,,,,,,,,,,,,,,,,,,,,,,,,,,,,,,99.51554480008781,None,left,1,1.9168356000445783,100.01616790005937,None,100.01616790005937,103.02130190003663,100.01616790005937,103.02130190003663,100.01616790005937,103.02130190003663,100.01616790005937,103.02130190003663,100.01616790005937,103.02130190003663,103.00415179994889,103.50528150005266,103.00415179994889,103.50528150005266,103.00415179994889,103.50528150005266,103.00415179994889,103.50528150005266,103.00415179994889,103.50528150005266,103.00415179994889,103.50528150005266,103.00415179994889,103.50528150005266,103.00415179994889,103.50528150005266,100.01616790005937,None,103.50528150005266,103.50528150005266,3.0000000000000027,103.52134340000339,None,104.2727157000918,None,,,,,,,0,0.5,0.6666666666666666,11029,002,2024_Jan_10_1613,MFTM_A_new1021,2021.2.3,59.894155024216424,
,,,,,,,,stim/Instruction_adaptive.png,conditions/adaptive.xlsx,test,-0.6,-0.6,-0.6,0.6,0.6,left,L,,,,,0,1,1,1,0,6,6,95,,,,,,,,,,,,,,,,,,,,,,,,,,,,,,,,,,,,,,,,,,,,104.77365410001948,None,left,1,1.5308067998848855,105.27461319998838,None,105.27461319998838,108.2793823000975,105.27461319998838,108.2793823000975,105.27461319998838,108.2793823000975,105.27461319998838,108.2793823000975,105.27461319998838,108.2793823000975,108.26209399988875,108.76296509988606,108.26209399988875,108.76296509988606,108.26209399988875,108.76296509988606,108.26209399988875,108.76296509988606,108.26209399988875,108.76296509988606,108.26209399988875,108.76296509988606,108.26209399988875,108.76296509988606,108.26209399988875,108.76296509988606,105.27461319998838,None,108.76296509988606,108.76296509988606,3.0000000000000027,108.77937099989504,None,109.53113509994,None,,,,,,,0,0.8200000000000003,0.7142857142857143,11029,002,2024_Jan_10_1613,MFTM_A_new1021,2021.2.3,59.894155024216424,
,,,,,,,,stim/Instruction_adaptive.png,conditions/adaptive.xlsx,test,-0.6,-0.6,-0.6,0.6,0.6,left,L,,,,,0,1,1,1,0,7,7,17,,,,,,,,,,,,,,,,,,,,,,,,,,,,,,,,,,,,,,,,,,,,110.03146529989317,None,left,1,1.8811465001199394,110.53182039991952,None,110.53182039991952,113.53636029991321,110.53182039991952,113.53636029991321,110.53182039991952,113.53636029991321,110.53182039991952,113.53636029991321,110.53182039991952,113.53636029991321,113.51966360001825,114.02098229993135,113.51966360001825,114.02098229993135,113.51966360001825,114.02098229993135,113.51966360001825,114.02098229993135,113.51966360001825,114.02098229993135,113.51966360001825,114.02098229993135,113.51966360001825,114.02098229993135,113.51966360001825,114.02098229993135,110.53182039991952,None,114.02098229993135,114.02098229993135,3.0000000000000027,114.03698519989848,None,114.78824850008823,None,,,,,,,0,1.1300000000000006,0.75,11029,002,2024_Jan_10_1613,MFTM_A_new1021,2021.2.3,59.894155024216424,
,,,,,,,,stim/Instruction_adaptive.png,conditions/adaptive.xlsx,test,0.6,0.6,0.6,-0.6,-0.6,right,R,,,,,0,1,1,1,0,8,8,6,,,,,,,,,,,,,,,,,,,,,,,,,,,,,,,,,,,,,,,,,,,,115.28892359999008,None,right,1,1.4554334999993443,115.78949579992332,None,115.78949579992332,118.79402939998545,115.78949579992332,118.79402939998545,115.78949579992332,118.79402939998545,115.78949579992332,118.79402939998545,115.78949579992332,118.79402939998545,118.77730689989403,119.27843949990347,118.77730689989403,119.27843949990347,118.77730689989403,119.27843949990347,118.77730689989403,119.27843949990347,118.77730689989403,119.27843949990347,118.77730689989403,119.27843949990347,118.77730689989403,119.27843949990347,118.77730689989403,119.27843949990347,115.78949579992332,None,119.27843949990347,119.27843949990347,3.0000000000000027,119.29503379995003,None,120.04688509996049,None,,,,,,,0,1.3600000000000008,0.7777777777777778,11029,002,2024_Jan_10_1613,MFTM_A_new1021,2021.2.3,59.894155024216424,
,,,,,,,,stim/Instruction_adaptive.png,conditions/adaptive.xlsx,test,-0.6,-0.6,-0.6,0.6,0.6,left,L,,,,,0,1,1,1,0,9,9,7,,,,,,,,,,,,,,,,,,,,,,,,,,,,,,,,,,,,,,,,,,,,120.54662710009143,None,left,1,1.7334606000222266,121.04760390007868,None,121.04760390007868,123.61797609995119,121.04760390007868,123.61797609995119,121.04760390007868,123.61797609995119,121.04760390007868,123.61797609995119,121.04760390007868,123.61797609995119,123.58462710003369,124.08652470004745,123.58462710003369,124.08652470004745,123.58462710003369,124.08652470004745,123.58462710003369,124.08652470004745,123.58462710003369,124.08652470004745,123.58462710003369,124.08652470004745,123.58462710003369,124.08652470004745,123.58462710003369,124.08652470004745,121.04760390007868,None,124.08652470004745,124.08652470004745,2.5600000000000023,124.11890270002186,None,124.8702603999991,None,,,,,,,0,1.540000000000001,0.8,11029,002,2024_Jan_10_1613,MFTM_A_new1021,2021.2.3,59.894155024216424,
,,,,,,,,stim/Instruction_adaptive.png,conditions/adaptive.xlsx,test,-0.6,-0.6,-0.6,0.6,0.6,left,L,,,,,0,1,1,1,0,10,10,23,,,,,,,,,,,,,,,,,,,,,,,,,,,,,,,,,,,,,,,,,,,,125.37104179989547,None,left,1,1.4776428998447955,125.87132699997164,None,125.87132699997164,128.14153850008734,125.87132699997164,128.14153850008734,125.87132699997164,128.14153850008734,125.87132699997164,128.14153850008734,125.87132699997164,128.14153850008734,128.10802359995432,128.60957069997676,128.10802359995432,128.60957069997676,128.10802359995432,128.60957069997676,128.10802359995432,128.60957069997676,128.10802359995432,128.60957069997676,128.10802359995432,128.60957069997676,128.10802359995432,128.60957069997676,128.10802359995432,128.60957069997676,125.87132699997164,None,128.60957069997676,128.60957069997676,2.2600000000000016,128.642057799967,None,129.3930850001052,None,,,,,,,0,1.690000000000001,0.8181818181818182,11029,002,2024_Jan_10_1613,MFTM_A_new1021,2021.2.3,59.894155024216424,
,,,,,,,,stim/Instruction_adaptive.png,conditions/adaptive.xlsx,test,0.6,0.6,0.6,-0.6,-0.6,right,R,,,,,0,1,1,1,0,11,11,54,,,,,,,,,,,,,,,,,,,,,,,,,,,,,,,,,,,,,,,,,,,,129.89388100011274,None,left,0,2.5140986999031156,130.39493439998478,None,130.39493439998478,132.44857000000775,130.39493439998478,132.44857000000775,130.39493439998478,132.44857000000775,130.39493439998478,132.44857000000775,130.39493439998478,132.44857000000775,132.4147983000148,132.91521000000648,132.4147983000148,132.91521000000648,132.4147983000148,132.91521000000648,132.4147983000148,132.91521000000648,132.4147983000148,132.91521000000648,132.4147983000148,132.91521000000648,132.4147983000148,132.91521000000648,132.4147983000148,132.91521000000648,130.39493439998478,None,132.91521000000648,132.93218720005825,2.040000000000002,132.948361299932,None,133.69956350000575,None,,,,,,,0,1.3000000000000007,0.75,11029,002,2024_Jan_10_1613,MFTM_A_new1021,2021.2.3,59.894155024216424,
,,,,,,,,stim/Instruction_adaptive.png,conditions/adaptive.xlsx,test,-0.6,-0.6,-0.6,0.6,0.6,left,L,,,,,0,1,1,1,0,12,12,21,,,,,,,,,,,,,,,,,,,,,,,,,,,,,,,,,,,,,,,,,,,,134.20034480001777,None,left,1,1.10367550002411,134.70123460004106,None,134.70123460004106,137.37244629999623,134.70123460004106,137.37244629999623,134.70123460004106,137.37244629999623,134.70123460004106,137.37244629999623,134.70123460004106,137.37244629999623,137.35560939996503,137.85567820002325,137.35560939996503,137.85567820002325,137.35560939996503,137.85567820002325,137.35560939996503,137.85567820002325,137.35560939996503,137.85567820002325,137.35560939996503,137.85567820002325,137.35560939996503,137.85567820002325,137.35560939996503,137.85567820002325,134.70123460004106,None,137.85567820002325,137.85567820002325,2.670000000000002,137.87229049997404,None,138.6242575000506,None,,,,,,,0,1.4500000000000008,0.7692307692307693,11029,002,2024_Jan_10_1613,MFTM_A_new1021,2021.2.3,59.894155024216424,
,,,,,,,,stim/Instruction_adaptive.png,conditions/adaptive.xlsx,test,0.6,0.6,0.6,-0.6,-0.6,right,R,,,,,0,1,1,1,0,13,13,2,,,,,,,,,,,,,,,,,,,,,,,,,,,,,,,,,,,,,,,,,,,,139.12468619993888,None,left,0,1.7399498000741005,139.62564030010253,None,139.62564030010253,142.0464319998864,139.62564030010253,142.0464319998864,139.62564030010253,142.0464319998864,139.62564030010253,142.0464319998864,139.62564030010253,142.0464319998864,142.0117351000663,142.51355029991828,142.0117351000663,142.51355029991828,142.0117351000663,142.51355029991828,142.0117351000663,142.51355029991828,142.0117351000663,142.51355029991828,142.0117351000663,142.51355029991828,142.0117351000663,142.51355029991828,142.0117351000663,142.51355029991828,139.62564030010253,None,142.51355029991828,142.51355029991828,2.410000000000002,142.54579539992847,None,143.29723499994725,None,,,,,,,0,1.0500000000000005,0.7142857142857143,11029,002,2024_Jan_10_1613,MFTM_A_new1021,2021.2.3,59.894155024216424,
,,,,,,,,stim/Instruction_adaptive.png,conditions/adaptive.xlsx,test,0.6,0.6,0.6,-0.6,-0.6,right,R,,,,,0,1,1,1,0,14,14,46,,,,,,,,,,,,,,,,,,,,,,,,,,,,,,,,,,,,,,,,,,,,143.7985614000354,None,right,1,1.146431599976495,144.29863959993236,None,144.29863959993236,147.303134100046,144.29863959993236,147.303134100046,144.29863959993236,147.303134100046,144.29863959993236,147.303134100046,144.29863959993236,147.303134100046,147.28676800010726,147.78786189993843,147.28676800010726,147.78786189993843,147.28676800010726,147.78786189993843,147.28676800010726,147.78786189993843,147.28676800010726,147.78786189993843,147.28676800010726,147.78786189993843,147.28676800010726,147.78786189993843,147.28676800010726,147.78786189993843,144.29863959993236,None,147.78786189993843,147.78786189993843,3.0000000000000027,147.80377770005725,None,148.55520859989338,None,,,,,,,0,1.2000000000000006,0.7333333333333333,11029,002,2024_Jan_10_1613,MFTM_A_new1021,2021.2.3,59.894155024216424,
,,,,,,,,stim/Instruction_adaptive.png,conditions/adaptive.xlsx,test,0.6,0.6,0.6,-0.6,-0.6,right,R,,,,,0,1,1,1,0,15,15,4,,,,,,,,,,,,,,,,,,,,,,,,,,,,,,,,,,,,,,,,,,,,149.05586689990014,None,right,1,1.376886600162834,149.55620740004815,None,149.55620740004815,152.42738000000827,149.55620740004815,152.42738000000827,149.55620740004815,152.42738000000827,149.55620740004815,152.42738000000827,149.55620740004815,152.42738000000827,152.39441980002448,152.89512640004978,152.39441980002448,152.89512640004978,152.39441980002448,152.89512640004978,152.39441980002448,152.89512640004978,152.39441980002448,152.89512640004978,152.39441980002448,152.89512640004978,152.39441980002448,152.89512640004978,152.39441980002448,152.89512640004978,149.55620740004815,None,152.89512640004978,152.89512640004978,2.860000000000002,152.92797739990056,None,153.6797464999836,None,,,,,,,0,1.3300000000000007,0.75,11029,002,2024_Jan_10_1613,MFTM_A_new1021,2021.2.3,59.894155024216424,
,,,,,,,,stim/Instruction_adaptive.png,conditions/adaptive.xlsx,test,-0.6,-0.6,-0.6,0.6,0.6,left,L,,,,,0,1,1,1,0,16,16,71,,,,,,,,,,,,,,,,,,,,,,,,,,,,,,,,,,,,,,,,,,,,154.18022219999693,None,left,1,2.6373449999373406,154.6804623999633,None,154.6804623999633,157.3013136999216,154.6804623999633,157.3013136999216,154.6804623999633,157.3013136999216,154.6804623999633,157.3013136999216,154.6804623999633,157.3013136999216,157.28437809995376,157.78531619999558,157.28437809995376,157.78531619999558,157.28437809995376,157.78531619999558,157.28437809995376,157.78531619999558,157.28437809995376,157.78531619999558,157.28437809995376,157.78531619999558,157.28437809995376,157.78531619999558,157.28437809995376,157.78531619999558,154.6804623999633,None,157.78531619999558,157.78531619999558,2.620000000000002,157.80174869997427,None,158.55344370007515,None,,,,,,,0,1.4500000000000008,0.7647058823529411,11029,002,2024_Jan_10_1613,MFTM_A_new1021,2021.2.3,59.894155024216424,
,,,,,,,,stim/Instruction_adaptive.png,conditions/adaptive.xlsx,test,0.6,0.6,0.6,-0.6,-0.6,right,R,,,,,0,1,1,1,0,17,17,76,,,,,,,,,,,,,,,,,,,,,,,,,,,,,,,,,,,,,,,,,,,,159.05377739993855,None,right,1,1.4100703001022339,159.5549147001002,None,159.5549147001002,161.97549839993007,159.5549147001002,161.97549839993007,159.5549147001002,161.97549839993007,159.5549147001002,161.97549839993007,159.5549147001002,161.97549839993007,161.94136890000664,162.44275919999927,161.94136890000664,162.44275919999927,161.94136890000664,162.44275919999927,161.94136890000664,162.44275919999927,161.94136890000664,162.44275919999927,161.94136890000664,162.44275919999927,161.94136890000664,162.44275919999927,161.94136890000664,162.44275919999927,159.5549147001002,None,162.44275919999927,162.44275919999927,2.410000000000002,162.47617319994606,None,163.22699519991875,None,,,,,,,0,1.550000000000001,0.7777777777777778,11029,002,2024_Jan_10_1613,MFTM_A_new1021,2021.2.3,59.894155024216424,
,,,,,,,,stim/Instruction_adaptive.png,conditions/adaptive.xlsx,test,0.6,0.6,0.6,-0.6,-0.6,right,R,,,,,0,1,1,1,0,18,18,92,,,,,,,,,,,,,,,,,,,,,,,,,,,,,,,,,,,,,,,,,,,,163.7275501000695,None,right,1,1.841487199999392,164.22796910000034,None,164.22796910000034,166.4822333001066,164.22796910000034,166.4822333001066,164.22796910000034,166.4822333001066,164.22796910000034,166.4822333001066,164.22796910000034,166.4822333001066,166.4646733000409,166.9655784999486,166.4646733000409,166.9655784999486,166.4646733000409,166.9655784999486,166.4646733000409,166.9655784999486,166.4646733000409,166.9655784999486,166.4646733000409,166.9655784999486,166.4646733000409,166.9655784999486,166.4646733000409,166.9655784999486,164.22796910000034,None,166.9655784999486,166.9655784999486,2.2500000000000018,166.98204970010556,None,167.73356040008366,None,,,,,,,0,1.640000000000001,0.7894736842105263,11029,002,2024_Jan_10_1613,MFTM_A_new1021,2021.2.3,59.894155024216424,
,,,,,,,,stim/Instruction_adaptive.png,conditions/adaptive.xlsx,test,0.6,0.6,0.6,-0.6,-0.6,right,R,,,,,0,1,1,1,0,19,19,60,,,,,,,,,,,,,,,,,,,,,,,,,,,,,,,,,,,,,,,,,,,,168.23479010001756,None,right,1,2.245839999988675,168.73527049995027,None,168.73527049995027,170.8552830000408,168.73527049995027,170.8552830000408,168.73527049995027,170.8552830000408,168.73527049995027,170.8552830000408,168.73527049995027,170.8552830000408,170.8216719001066,171.3227117001079,170.8216719001066,171.3227117001079,170.8216719001066,171.3227117001079,170.8216719001066,171.3227117001079,170.8216719001066,171.3227117001079,170.8216719001066,171.3227117001079,170.8216719001066,171.3227117001079,170.8216719001066,171.3227117001079,168.73527049995027,None,171.3227117001079,171.3227117001079,2.1100000000000017,171.35576700000092,None,172.10634490009397,None,,,,,,,0,1.720000000000001,0.8,11029,002,2024_Jan_10_1613,MFTM_A_new1021,2021.2.3,59.894155024216424,
,,,,,,,,stim/Instruction_adaptive.png,conditions/adaptive.xlsx,test,-0.6,-0.6,-0.6,0.6,0.6,left,L,,,,,0,1,1,1,0,20,20,85,,,,,,,,,,,,,,,,,,,,,,,,,,,,,,,,,,,,,,,,,,,,172.60757389990613,None,left,1,1.6891757999546826,173.10795599990524,None,173.10795599990524,175.11189649999142,173.10795599990524,175.11189649999142,173.10795599990524,175.11189649999142,173.10795599990524,175.11189649999142,173.10795599990524,175.11189649999142,175.0942544999998,175.59535120008513,175.0942544999998,175.59535120008513,175.0942544999998,175.59535120008513,175.0942544999998,175.59535120008513,175.0942544999998,175.59535120008513,175.0942544999998,175.59535120008513,175.0942544999998,175.59535120008513,175.0942544999998,175.59535120008513,173.10795599990524,None,175.59535120008513,175.59535120008513,2.0000000000000018,175.61154219997115,None,176.36331730009988,None,,,,,,,0,1.8000000000000012,0.8095238095238095,11029,002,2024_Jan_10_1613,MFTM_A_new1021,2021.2.3,59.894155024216424,
,,,,,,,,stim/Instruction_adaptive.png,conditions/adaptive.xlsx,test,0.6,0.6,0.6,-0.6,-0.6,right,R,,,,,0,1,1,1,0,21,21,26,,,,,,,,,,,,,,,,,,,,,,,,,,,,,,,,,,,,,,,,,,,,176.86360529996455,None,right,1,2.1929031000472605,177.36434759991243,None,177.36434759991243,179.26779039995745,177.36434759991243,179.26779039995745,177.36434759991243,179.26779039995745,177.36434759991243,179.26779039995745,177.36434759991243,179.26779039995745,179.23403490008786,179.7351528001018,179.23403490008786,179.7351528001018,179.23403490008786,179.7351528001018,179.23403490008786,179.7351528001018,179.23403490008786,179.7351528001018,179.23403490008786,179.7351528001018,179.23403490008786,179.7351528001018,179.23403490008786,179.7351528001018,177.36434759991243,None,179.7351528001018,179.7351528001018,1.8900000000000015,179.76791279995814,None,180.51996039994992,None,,,,,,,0,1.8600000000000012,0.8181818181818182,11029,002,2024_Jan_10_1613,MFTM_A_new1021,2021.2.3,59.894155024216424,
,,,,,,,,stim/Instruction_adaptive.png,conditions/adaptive.xlsx,test,-0.6,-0.6,-0.6,0.6,0.6,left,L,,,,,0,1,1,1,0,22,22,5,,,,,,,,,,,,,,,,,,,,,,,,,,,,,,,,,,,,,,,,,,,,181.02043069992214,None,left,1,1.0925385998561978,181.5204825999681,None,181.5204825999681,183.34004070004448,181.5204825999681,183.34004070004448,181.5204825999681,183.34004070004448,181.5204825999681,183.34004070004448,181.5204825999681,183.34004070004448,183.32335259998217,183.82420650008135,183.32335259998217,183.82420650008135,183.32335259998217,183.82420650008135,183.32335259998217,183.82420650008135,183.32335259998217,183.82420650008135,183.32335259998217,183.82420650008135,183.32335259998217,183.82420650008135,183.32335259998217,183.82420650008135,181.5204825999681,None,183.8071119999513,183.8071119999513,1.8100000000000014,183.84031439991668,None,184.59270639996976,None,,,,,,,0,1.9300000000000013,0.8260869565217391,11029,002,2024_Jan_10_1613,MFTM_A_new1021,2021.2.3,59.894155024216424,
,,,,,,,,stim/Instruction_adaptive.png,conditions/adaptive.xlsx,test,-0.6,-0.6,-0.6,0.6,0.6,left,L,,,,,0,1,1,1,0,23,23,89,,,,,,,,,,,,,,,,,,,,,,,,,,,,,,,,,,,,,,,,,,,,185.09267879999243,None,left,1,2.116448299959302,185.59312890004367,None,185.59312890004367,187.32953720004298,185.59312890004367,187.32953720004298,185.59312890004367,187.32953720004298,185.59312890004367,187.32953720004298,185.59312890004367,187.32953720004298,187.3123884999659,187.81299060001038,187.3123884999659,187.81299060001038,187.3123884999659,187.81299060001038,187.3123884999659,187.81299060001038,187.3123884999659,187.81299060001038,187.3123884999659,187.81299060001038,187.3123884999659,187.81299060001038,187.3123884999659,187.81299060001038,185.59312890004367,None,187.81299060001038,187.81299060001038,1.7300000000000013,187.8297186999116,None,188.58164149988443,None,,,,,,,0,1.9900000000000013,0.8333333333333334,11029,002,2024_Jan_10_1613,MFTM_A_new1021,2021.2.3,59.894155024216424,
,,,,,,,,stim/Instruction_adaptive.png,conditions/adaptive.xlsx,test,0.6,0.6,0.6,-0.6,-0.6,right,R,,,,,0,1,1,1,0,24,24,32,,,,,,,,,,,,,,,,,,,,,,,,,,,,,,,,,,,,,,,,,,,,189.0820838001091,None,right,1,2.070746700046584,189.58241200004704,None,189.58241200004704,191.25204590009525,189.58241200004704,191.25204590009525,189.58241200004704,191.25204590009525,189.58241200004704,191.25204590009525,189.58241200004704,191.25204590009525,191.21808500005864,191.71873659989797,191.21808500005864,191.71873659989797,191.21808500005864,191.71873659989797,191.21808500005864,191.71873659989797,191.21808500005864,191.71873659989797,191.21808500005864,191.71873659989797,191.21808500005864,191.71873659989797,191.21808500005864,191.71873659989797,189.58241200004704,None,191.71873659989797,191.71873659989797,1.6600000000000013,191.75246839993633,None,192.50444880011491,None,,,,,,,0,2.0500000000000016,0.84,11029,002,2024_Jan_10_1613,MFTM_A_new1021,2021.2.3,59.894155024216424,
,,,,,,,,stim/Instruction_adaptive.png,conditions/adaptive.xlsx,test,0.6,0.6,0.6,-0.6,-0.6,right,R,,,,,0,1,1,1,0,25,25,14,,,,,,,,,,,,,,,,,,,,,,,,,,,,,,,,,,,,,,,,,,,,193.0046683999244,None,right,1,2.1956666000187397,193.50524779991247,195.60814619995654,193.50524779991247,195.10718890000135,193.50524779991247,195.10718890000135,193.50524779991247,195.10718890000135,193.50524779991247,195.10718890000135,193.50524779991247,195.10718890000135,195.07381139998324,195.57530759996735,195.07381139998324,195.57530759996735,195.07381139998324,195.57530759996735,195.07381139998324,195.57530759996735,195.07381139998324,195.57530759996735,195.07381139998324,195.57530759996735,195.07381139998324,195.57530759996735,195.07381139998324,195.57530759996735,193.50524779991247,None,195.57530759996735,195.72515100007877,1.5900000000000012,195.74178629997186,None,196.49302840000018,None,,,,,,,[0.005],2.1000000000000014,0.8461538461538461,11029,002,2024_Jan_10_1613,MFTM_A_new1021,2021.2.3,59.894155024216424,
,,,,,,,,stim/Instruction_adaptive.png,conditions/adaptive.xlsx,test,0.6,0.6,0.6,-0.6,-0.6,right,R,,,,,0,1,1,1,0,26,26,66,,,,,,,,,,,,,,,,,,,,,,,,,,,,,,,,,,,,,,,,,,,,196.99392180005088,None,right,1,1.2869021999649704,197.49409579997882,199.53109599999152,197.49409579997882,199.02975509990938,197.49409579997882,199.02975509990938,197.49409579997882,199.02975509990938,197.49409579997882,199.02975509990938,197.49409579997882,199.02975509990938,199.01302319997922,199.5139222999569,199.01302319997922,199.5139222999569,199.01302319997922,199.5139222999569,199.01302319997922,199.5139222999569,199.01302319997922,199.5139222999569,199.01302319997922,199.5139222999569,199.01302319997922,199.5139222999569,199.01302319997922,199.5139222999569,197.49409579997882,None,199.5139222999569,None,1.5300000000000011,199.56381629989482,None,200.31501960009336,None,,,,,,,[0.04074074],2.1600000000000015,0.8518518518518519,11029,002,2024_Jan_10_1613,MFTM_A_new1021,2021.2.3,59.894155024216424,
,,,,,,,,stim/Instruction_adaptive.png,conditions/adaptive.xlsx,test,-0.6,-0.6,-0.6,0.6,0.6,left,L,,,,,0,1,1,1,0,27,27,41,,,,,,,,,,,,,,,,,,,,,,,,,,,,,,,,,,,,,,,,,,,,200.81611609994434,None,left,1,1.7378978000488132,201.31634330004454,203.28617629990913,201.31634330004454,202.78533770004287,201.31634330004454,202.78533770004287,201.31634330004454,202.78533770004287,201.31634330004454,202.78533770004287,201.31634330004454,202.78533770004287,202.7694961000234,203.2691323000472,202.7694961000234,203.2691323000472,202.7694961000234,203.2691323000472,202.7694961000234,203.2691323000472,202.7694961000234,203.2691323000472,202.7694961000234,203.2691323000472,202.7694961000234,203.2691323000472,202.7694961000234,203.2691323000472,201.31634330004454,None,203.2691323000472,203.35325679997914,1.470000000000001,203.36946270009503,None,204.12058599991724,None,,,,,,,[0.07607143],2.2100000000000017,0.8571428571428571,11029,002,2024_Jan_10_1613,MFTM_A_new1021,2021.2.3,59.894155024216424,
,,,,,,,,stim/Instruction_adaptive.png,conditions/adaptive.xlsx,test,0.6,0.6,0.6,-0.6,-0.6,right,R,,,,,0,1,1,1,0,28,28,96,,,,,,,,,,,,,,,,,,,,,,,,,,,,,,,,,,,,,,,,,,,,204.62155860010535,None,right,1,1.4112364000175148,205.1218302999623,207.04160959995352,205.1218302999623,206.54089069995098,205.1218302999623,206.54089069995098,205.1218302999623,206.54089069995098,205.1218302999623,206.54089069995098,205.1218302999623,206.54089069995098,206.52416360005736,207.02668719994836,206.52416360005736,207.02668719994836,206.52416360005736,207.02668719994836,206.52416360005736,207.02668719994836,206.52416360005736,207.02668719994836,206.52416360005736,207.02668719994836,206.52416360005736,207.02668719994836,206.52416360005736,207.02668719994836,205.1218302999623,None,207.02668719994836,207.14258420001715,1.420000000000001,207.15829849988222,None,207.91033359989524,None,,,,,,,[0.11068966],2.2500000000000018,0.8620689655172413,11029,002,2024_Jan_10_1613,MFTM_A_new1021,2021.2.3,59.894155024216424,
,,,,,,,,stim/Instruction_adaptive.png,conditions/adaptive.xlsx,test,0.6,0.6,0.6,-0.6,-0.6,right,R,,,,,0,1,1,1,0,29,29,70,,,,,,,,,,,,,,,,,,,,,,,,,,,,,,,,,,,,,,,,,,,,208.41020560008474,None,right,1,1.589379500132054,208.91169420001097,210.79739390010945,208.91169420001097,210.29626310011372,208.91169420001097,210.29626310011372,208.91169420001097,210.29626310011372,208.91169420001097,210.29626310011372,208.91169420001097,210.29626310011372,210.27964040008374,210.78075230005197,210.27964040008374,210.78075230005197,210.27964040008374,210.78075230005197,210.27964040008374,210.78075230005197,210.27964040008374,210.78075230005197,210.27964040008374,210.78075230005197,210.27964040008374,210.78075230005197,210.27964040008374,210.78075230005197,208.91169420001097,None,210.78075230005197,210.93086379999295,1.380000000000001,210.94734030007385,None,211.69842309993692,None,,,,,,,[0.14433333],2.3000000000000016,0.8666666666666667,11029,002,2024_Jan_10_1613,MFTM_A_new1021,2021.2.3,59.894155024216424,
,,,,,,,,stim/Instruction_adaptive.png,conditions/adaptive.xlsx,test,-0.6,-0.6,-0.6,0.6,0.6,left,L,,,,,0,1,1,1,0,30,30,63,,,,,,,,,,,,,,,,,,,,,,,,,,,,,,,,,,,,,,,,,,,,212.1995590000879,None,left,1,1.2658991999924183,212.70018939999864,214.55339220003225,212.70018939999864,214.05321889999323,212.70018939999864,214.05321889999323,212.70018939999864,214.05321889999323,212.70018939999864,214.05321889999323,212.70018939999864,214.05321889999323,214.01880179997534,214.5196477000136,214.01880179997534,214.5196477000136,214.01880179997534,214.5196477000136,214.01880179997534,214.5196477000136,214.01880179997534,214.5196477000136,214.01880179997534,214.5196477000136,214.01880179997534,214.5196477000136,214.01880179997534,214.5196477000136,212.70018939999864,None,214.5196477000136,214.70301720011048,1.340000000000001,214.719744999893,None,215.47095960006118,None,,,,,,,[0.17709677],2.3400000000000016,0.8709677419354839,11029,002,2024_Jan_10_1613,MFTM_A_new1021,2021.2.3,59.894155024216424,
,,,,,,,,stim/Instruction_adaptive.png,conditions/adaptive.xlsx,test,0.6,0.6,0.6,-0.6,-0.6,right,R,,,,,0,1,1,1,0,31,31,28,,,,,,,,,,,,,,,,,,,,,,,,,,,,,,,,,,,,,,,,,,,,215.97175060003065,None,right,1,1.7332770000211895,216.47227580007166,218.27482210006565,216.47227580007166,217.77499870001338,216.47227580007166,217.77499870001338,216.47227580007166,217.77499870001338,216.47227580007166,217.77499870001338,216.47227580007166,217.77499870001338,217.75738719990477,218.2581376999151,217.75738719990477,218.2581376999151,217.75738719990477,218.2581376999151,217.75738719990477,218.2581376999151,217.75738719990477,218.2581376999151,217.75738719990477,218.2581376999151,217.75738719990477,218.2581376999151,217.75738719990477,218.2581376999151,216.47227580007166,None,218.2581376999151,218.47523700003512,1.300000000000001,218.49192479997873,None,219.24370089988224,None,,,,,,,[0.2090625],2.3800000000000017,0.875,11029,002,2024_Jan_10_1613,MFTM_A_new1021,2021.2.3,59.894155024216424,
,,,,,,,,stim/Instruction_adaptive.png,conditions/adaptive.xlsx,test,0.6,0.6,0.6,-0.6,-0.6,right,R,,,,,0,1,1,1,0,32,32,36,,,,,,,,,,,,,,,,,,,,,,,,,,,,,,,,,,,,,,,,,,,,219.74400849989615,None,right,1,1.5446871002204716,220.24443600000814,222.01373000000603,220.24443600000814,221.51336260000244,220.24443600000814,221.51336260000244,220.24443600000814,221.51336260000244,220.24443600000814,221.51336260000244,220.24443600000814,221.51336260000244,221.4797966000624,221.98078120010905,221.4797966000624,221.98078120010905,221.4797966000624,221.98078120010905,221.4797966000624,221.98078120010905,221.4797966000624,221.98078120010905,221.4797966000624,221.98078120010905,221.4797966000624,221.98078120010905,221.4797966000624,221.98078120010905,220.24443600000814,None,221.98078120010905,222.23075060010888,1.260000000000001,222.24747269996442,None,222.99880590010434,None,,,,,,,[0.24030303],2.4200000000000017,0.8787878787878788,11029,002,2024_Jan_10_1613,MFTM_A_new1021,2021.2.3,59.894155024216424,
,,,,,,,,stim/Instruction_adaptive.png,conditions/adaptive.xlsx,test,-0.6,-0.6,-0.6,0.6,0.6,left,L,,,,,0,1,1,1,0,33,33,15,,,,,,,,,,,,,,,,,,,,,,,,,,,,,,,,,,,,,,,,,,,,223.50024190009572,None,left,1,1.0531716998666525,224.000444999896,225.73685320001096,224.000444999896,225.23522410006262,224.000444999896,225.23522410006262,224.000444999896,225.23522410006262,224.000444999896,225.23522410006262,224.000444999896,225.23522410006262,225.2187993999105,225.7201286999043,225.2187993999105,225.7201286999043,225.2187993999105,225.7201286999043,225.2187993999105,225.7201286999043,225.2187993999105,225.7201286999043,225.2187993999105,225.7201286999043,225.2187993999105,225.7201286999043,225.2187993999105,225.7201286999043,224.000444999896,None,225.7201286999043,None,1.2300000000000009,226.00326059991494,None,226.75423189997673,None,,,,,,,[0.27058824],2.4600000000000017,0.8823529411764706,11029,002,2024_Jan_10_1613,MFTM_A_new1021,2021.2.3,59.894155024216424,
,,,,,,,,stim/Instruction_adaptive.png,conditions/adaptive.xlsx,test,-0.6,-0.6,-0.6,0.6,0.6,left,L,,,,,0,1,1,1,0,34,34,29,,,,,,,,,,,,,,,,,,,,,,,,,,,,,,,,,,,,,,,,,,,,227.25487529998645,None,left,1,1.3217174999881536,227.75557700009085,229.45881150010973,227.75557700009085,228.95790460007265,227.75557700009085,228.95790460007265,227.75557700009085,228.95790460007265,227.75557700009085,228.95790460007265,227.75557700009085,228.95790460007265,228.94062660005875,229.44186119991355,228.94062660005875,229.44186119991355,228.94062660005875,229.44186119991355,228.94062660005875,229.44186119991355,228.94062660005875,229.44186119991355,228.94062660005875,229.44186119991355,228.94062660005875,229.44186119991355,228.94062660005875,229.44186119991355,227.75557700009085,None,229.44186119991355,229.7419606000185,1.2000000000000008,229.75854280008934,None,230.5098081000615,None,,,,,,,[0.3],2.5000000000000018,0.8857142857142857,11029,002,2024_Jan_10_1613,MFTM_A_new1021,2021.2.3,59.894155024216424,
,,,,,,,,stim/Instruction_adaptive.png,conditions/adaptive.xlsx,test,-0.6,-0.6,-0.6,0.6,0.6,left,L,,,,,0,1,1,1,0,35,35,61,,,,,,,,,,,,,,,,,,,,,,,,,,,,,,,,,,,,,,,,,,,,231.01020819996484,None,right,0,1.1410203999839723,231.51220560004003,233.1813650999684,231.51220560004003,232.68011509999633,231.51220560004003,232.68011509999633,231.51220560004003,232.68011509999633,231.51220560004003,232.68011509999633,231.51220560004003,232.68011509999633,232.64640319999307,233.14774919999763,232.64640319999307,233.14774919999763,232.64640319999307,233.14774919999763,232.64640319999307,233.14774919999763,232.64640319999307,233.14774919999763,232.64640319999307,233.14774919999763,232.64640319999307,233.14774919999763,232.64640319999307,233.14774919999763,231.51220560004003,None,233.14774919999763,233.4814871000126,1.1600000000000008,233.51412920001894,None,234.26523149991408,None,,,,,,,[0.32888889],2.3900000000000015,0.8611111111111112,11029,002,2024_Jan_10_1613,MFTM_A_new1021,2021.2.3,59.894155024216424,
,,,,,,,,stim/Instruction_adaptive.png,conditions/adaptive.xlsx,test,0.6,0.6,0.6,-0.6,-0.6,right,R,,,,,0,1,1,1,0,36,36,80,,,,,,,,,,,,,,,,,,,,,,,,,,,,,,,,,,,,,,,,,,,,234.76645820005797,None,right,1,1.6743063000030816,235.26690770010464,237.03600710001774,235.26690770010464,236.53561539994553,235.26690770010464,236.53561539994553,235.26690770010464,236.53561539994553,235.26690770010464,236.53561539994553,235.26690770010464,236.53561539994553,236.5017909000162,237.00266300002113,236.5017909000162,237.00266300002113,236.5017909000162,237.00266300002113,236.5017909000162,237.00266300002113,236.5017909000162,237.00266300002113,236.5017909000162,237.00266300002113,236.5017909000162,237.00266300002113,236.5017909000162,237.00266300002113,235.26690770010464,None,237.00266300002113,237.3705877000466,1.260000000000001,237.38688790006563,None,238.1381431000773,None,,,,,,,[0.35351351],2.4300000000000015,0.8648648648648649,11029,002,2024_Jan_10_1613,MFTM_A_new1021,2021.2.3,59.894155024216424,
,,,,,,,,stim/Instruction_adaptive.png,conditions/adaptive.xlsx,test,0.6,0.6,0.6,-0.6,-0.6,right,R,,,,,0,1,1,1,0,37,37,88,,,,,,,,,,,,,,,,,,,,,,,,,,,,,,,,,,,,,,,,,,,,238.63843320007436,None,left,0,1.505973899969831,239.13938629999757,240.8754352000542,239.13938629999757,240.374309200095,239.13938629999757,240.374309200095,239.13938629999757,240.374309200095,239.13938629999757,240.374309200095,239.13938629999757,240.374309200095,240.34068879997358,240.8416814999655,240.34068879997358,240.8416814999655,240.34068879997358,240.8416814999655,240.34068879997358,240.8416814999655,240.34068879997358,240.8416814999655,240.34068879997358,240.8416814999655,240.34068879997358,240.8416814999655,240.34068879997358,240.8416814999655,239.13938629999757,None,240.8416814999655,241.22689009993337,1.2200000000000009,241.241617300082,None,241.9937255999539,None,,,,,,,[0.37789474],2.3200000000000016,0.8421052631578947,11029,002,2024_Jan_10_1613,MFTM_A_new1021,2021.2.3,59.894155024216424,
,,,,,,,,stim/Instruction_adaptive.png,conditions/adaptive.xlsx,test,0.6,0.6,0.6,-0.6,-0.6,right,R,,,,,0,1,1,1,0,38,38,20,,,,,,,,,,,,,,,,,,,,,,,,,,,,,,,,,,,,,,,,,,,,242.49457659991458,None,right,1,2.2502693000715226,242.99507740000263,244.8145411000587,242.99507740000263,244.33025650004856,242.99507740000263,244.33025650004856,242.99507740000263,244.33025650004856,242.99507740000263,244.33025650004856,242.99507740000263,244.33025650004856,244.29682400007732,244.79757779999636,244.29682400007732,244.79757779999636,244.29682400007732,244.79757779999636,244.29682400007732,244.79757779999636,244.29682400007732,244.79757779999636,244.29682400007732,244.79757779999636,244.29682400007732,244.79757779999636,244.29682400007732,244.79757779999636,242.99507740000263,None,244.79757779999636,245.26491599995643,1.320000000000001,245.28172950004227,None,246.03339480003342,None,,,,,,,[0.39846154],2.3600000000000017,0.8461538461538461,11029,002,2024_Jan_10_1613,MFTM_A_new1021,2021.2.3,59.894155024216424,
,,,,,,,,stim/Instruction_adaptive.png,conditions/adaptive.xlsx,test,0.6,0.6,0.6,-0.6,-0.6,right,R,,,,,0,1,1,1,0,39,39,64,,,,,,,,,,,,,,,,,,,,,,,,,,,,,,,,,,,,,,,,,,,,246.53363940003328,None,right,1,1.7709560000803322,247.03415119997226,248.82006629998796,247.03415119997226,248.31998430006206,247.03415119997226,248.31998430006206,247.03415119997226,248.31998430006206,247.03415119997226,248.31998430006206,247.03415119997226,248.31998430006206,248.3027564000804,248.80349420011044,248.3027564000804,248.80349420011044,248.3027564000804,248.80349420011044,248.3027564000804,248.80349420011044,248.3027564000804,248.80349420011044,248.3027564000804,248.80349420011044,248.3027564000804,248.80349420011044,248.3027564000804,248.80349420011044,247.03415119997226,None,248.80349420011044,None,1.280000000000001,249.23751059989445,None,249.98889230005443,None,,,,,,,[0.419],2.4000000000000017,0.85,11029,002,2024_Jan_10_1613,MFTM_A_new1021,2021.2.3,59.894155024216424,
,,,,,,,,stim/Instruction_adaptive.png,conditions/adaptive.xlsx,test,0.6,0.6,0.6,-0.6,-0.6,right,R,,,,,0,1,1,1,0,40,40,12,,,,,,,,,,,,,,,,,,,,,,,,,,,,,,,,,,,,,,,,,,,,250.48951309989206,None,right,1,1.807101999875158,250.99002730008215,252.74297720007598,250.99002730008215,252.24194279988296,250.99002730008215,252.24194279988296,250.99002730008215,252.24194279988296,250.99002730008215,252.24194279988296,250.99002730008215,252.24194279988296,252.22525790007785,252.7262126998976,252.22525790007785,252.7262126998976,252.22525790007785,252.7262126998976,252.22525790007785,252.7262126998976,252.22525790007785,252.7262126998976,252.22525790007785,252.7262126998976,252.22525790007785,252.7262126998976,252.22525790007785,252.7262126998976,250.99002730008215,None,252.7262126998976,253.17741989996284,1.2500000000000009,253.19317450001836,None,253.94454369996674,None,,,,,,,[0.43926829],2.4300000000000015,0.8536585365853658,11029,002,2024_Jan_10_1613,MFTM_A_new1021,2021.2.3,59.894155024216424,
,,,,,,,,stim/Instruction_adaptive.png,conditions/adaptive.xlsx,test,-0.6,-0.6,-0.6,0.6,0.6,left,L,,,,,0,1,1,1,0,41,41,51,,,,,,,,,,,,,,,,,,,,,,,,,,,,,,,,,,,,,,,,,,,,254.44557680003345,None,left,1,1.4671148997731507,254.94652160000987,256.68160660006106,254.94652160000987,256.18107490008697,254.94652160000987,256.18107490008697,254.94652160000987,256.18107490008697,254.94652160000987,256.18107490008697,254.94652160000987,256.18107490008697,256.14762090006843,256.64856050000526,256.14762090006843,256.64856050000526,256.14762090006843,256.64856050000526,256.14762090006843,256.64856050000526,256.14762090006843,256.64856050000526,256.14762090006843,256.64856050000526,256.14762090006843,256.64856050000526,256.14762090006843,256.64856050000526,254.94652160000987,None,256.64856050000526,257.1158024999313,1.2200000000000009,257.132970900042,None,257.8843876000028,None,,,,,,,[0.45928571],2.4700000000000015,0.8571428571428571,11029,002,2024_Jan_10_1613,MFTM_A_new1021,2021.2.3,59.894155024216424,
,,,,,,,,stim/Instruction_adaptive.png,conditions/adaptive.xlsx,test,0.6,0.6,0.6,-0.6,-0.6,right,R,,,,,0,1,1,1,0,42,42,98,,,,,,,,,,,,,,,,,,,,,,,,,,,,,,,,,,,,,,,,,,,,258.3842762999702,None,right,1,1.4960211999714375,258.8852796999272,260.5874799999874,258.8852796999272,260.0875105999876,258.8852796999272,260.0875105999876,258.8852796999272,260.0875105999876,258.8852796999272,260.0875105999876,258.8852796999272,260.0875105999876,260.05345609993674,260.5542741001118,260.05345609993674,260.5542741001118,260.05345609993674,260.5542741001118,260.05345609993674,260.5542741001118,260.05345609993674,260.5542741001118,260.05345609993674,260.5542741001118,260.05345609993674,260.5542741001118,260.05345609993674,260.5542741001118,258.8852796999272,None,260.5542741001118,261.03894030000083,1.1900000000000008,261.05473649990745,None,261.806786299916,None,,,,,,,[0.47906977],2.5000000000000018,0.8604651162790697,11029,002,2024_Jan_10_1613,MFTM_A_new1021,2021.2.3,59.894155024216424,
,,,,,,,,stim/Instruction_adaptive.png,conditions/adaptive.xlsx,test,0.6,0.6,0.6,-0.6,-0.6,right,R,,,,,0,1,1,1,0,43,43,34,,,,,,,,,,,,,,,,,,,,,,,,,,,,,,,,,,,,,,,,,,,,262.30720839998685,None,right,1,1.5977394001092762,262.8075447001029,264.47772069997154,262.8075447001029,263.97652849997394,262.8075447001029,263.97652849997394,262.8075447001029,263.97652849997394,262.8075447001029,263.97652849997394,262.8075447001029,263.97652849997394,263.9440238000825,264.4440695999656,263.9440238000825,264.4440695999656,263.9440238000825,264.4440695999656,263.9440238000825,264.4440695999656,263.9440238000825,264.4440695999656,263.9440238000825,264.4440695999656,263.9440238000825,264.4440695999656,263.9440238000825,264.4440695999656,262.8075447001029,None,264.4440695999656,264.9449614000041,1.1600000000000008,264.9773893998936,None,265.7286123998929,None,,,,,,,[0.49863636],2.530000000000002,0.8636363636363636,11029,002,2024_Jan_10_1613,MFTM_A_new1021,2021.2.3,59.894155024216424,
,,,,,,,,stim/Instruction_adaptive.png,conditions/adaptive.xlsx,test,0.6,0.6,0.6,-0.6,-0.6,right,R,,,,,0,1,1,1,0,44,44,22,,,,,,,,,,,,,,,,,,,,,,,,,,,,,,,,,,,,,,,,,,,,266.22919049998745,None,right,1,1.9712387998588383,266.7299045000691,268.3824960999191,266.7299045000691,267.8819800000638,266.7299045000691,267.8819800000638,266.7299045000691,267.8819800000638,266.7299045000691,267.8819800000638,266.7299045000691,267.8819800000638,267.848572100047,268.34974449989386,267.848572100047,268.34974449989386,267.848572100047,268.34974449989386,267.848572100047,268.34974449989386,267.848572100047,268.34974449989386,267.848572100047,268.34974449989386,267.848572100047,268.34974449989386,267.848572100047,268.34974449989386,266.7299045000691,None,268.34974449989386,268.8670769999735,1.1400000000000008,268.90064559993334,None,269.651740900008,None,,,,,,,[0.51777778],2.560000000000002,0.8666666666666667,11029,002,2024_Jan_10_1613,MFTM_A_new1021,2021.2.3,59.894155024216424,
,,,,,,,,stim/Instruction_adaptive.png,conditions/adaptive.xlsx,test,-0.6,-0.6,-0.6,0.6,0.6,left,L,,,,,0,1,1,1,0,45,45,43,,,,,,,,,,,,,,,,,,,,,,,,,,,,,,,,,,,,,,,,,,,,270.1517600999214,None,left,1,1.5690745001193136,270.6525830999017,272.28825880005024,270.6525830999017,271.78802570002154,270.6525830999017,271.78802570002154,270.6525830999017,271.78802570002154,270.6525830999017,271.78802570002154,270.6525830999017,271.78802570002154,271.7542948999908,272.2548573000822,271.7542948999908,272.2548573000822,271.7542948999908,272.2548573000822,271.7542948999908,272.2548573000822,271.7542948999908,272.2548573000822,271.7542948999908,272.2548573000822,271.7542948999908,272.2548573000822,271.7542948999908,272.2548573000822,270.6525830999017,None,272.2548573000822,272.8063419999089,1.1200000000000008,272.82319679996,None,273.574142599944,None,,,,,,,[0.53652174],2.5900000000000016,0.8695652173913043,11029,002,2024_Jan_10_1613,MFTM_A_new1021,2021.2.3,59.894155024216424,
,,,,,,,,stim/Instruction_adaptive.png,conditions/adaptive.xlsx,test,0.6,0.6,0.6,-0.6,-0.6,right,R,,,,,0,1,1,1,0,46,46,24,,,,,,,,,,,,,,,,,,,,,,,,,,,,,,,,,,,,,,,,,,,,274.0743368000258,None,right,1,1.4217425999231637,274.57545579993166,276.1775410999544,274.57545579993166,275.67711380007677,274.57545579993166,275.67711380007677,274.57545579993166,275.67711380007677,274.57545579993166,275.67711380007677,274.57545579993166,275.67711380007677,275.6431867000647,276.14395570009947,275.6431867000647,276.14395570009947,275.6431867000647,276.14395570009947,275.6431867000647,276.14395570009947,275.6431867000647,276.14395570009947,275.6431867000647,276.14395570009947,275.6431867000647,276.14395570009947,275.6431867000647,276.14395570009947,274.57545579993166,None,276.14395570009947,276.71368040004745,1.0900000000000007,276.7282656999305,None,277.4792645999696,None,,,,,,,[0.55510638],2.620000000000002,0.8723404255319149,11029,002,2024_Jan_10_1613,MFTM_A_new1021,2021.2.3,59.894155024216424,
,,,,,,,,stim/Instruction_adaptive.png,conditions/adaptive.xlsx,test,-0.6,-0.6,-0.6,0.6,0.6,left,L,,,,,0,1,1,1,0,47,47,79,,,,,,,,,,,,,,,,,,,,,,,,,,,,,,,,,,,,,,,,,,,,277.98027070006356,None,right,0,1.7321737001184374,278.4812616999261,280.0671582999639,278.4812616999261,279.56579159991816,278.4812616999261,279.56579159991816,278.4812616999261,279.56579159991816,278.4812616999261,279.56579159991816,278.4812616999261,279.56579159991816,279.53242209996097,280.0330529001076,279.53242209996097,280.0330529001076,279.53242209996097,280.0330529001076,279.53242209996097,280.0330529001076,279.53242209996097,280.0330529001076,279.53242209996097,280.0330529001076,279.53242209996097,280.0330529001076,279.53242209996097,280.0330529001076,278.4812616999261,None,280.0330529001076,280.61786630004644,1.0700000000000007,280.63401050004177,None,281.38507049996406,None,,,,,,,[0.57333333],2.540000000000002,0.8541666666666666,11029,002,2024_Jan_10_1613,MFTM_A_new1021,2021.2.3,59.894155024216424,
,,,,,,,,stim/Instruction_adaptive.png,conditions/adaptive.xlsx,test,0.6,0.6,0.6,-0.6,-0.6,right,R,,,,,0,1,1,1,0,48,48,44,,,,,,,,,,,,,,,,,,,,,,,,,,,,,,,,,,,,,,,,,,,,281.88630650006235,None,right,1,1.6260391999967396,282.38722910010256,284.0223222000059,282.38722910010256,283.5225915000774,282.38722910010256,283.5225915000774,282.38722910010256,283.5225915000774,282.38722910010256,283.5225915000774,282.38722910010256,283.5225915000774,283.5050280999858,284.00575680006295,283.5050280999858,284.00575680006295,283.5050280999858,284.00575680006295,283.5050280999858,284.00575680006295,283.5050280999858,284.00575680006295,283.5050280999858,284.00575680006295,283.5050280999858,284.00575680006295,283.5050280999858,284.00575680006295,282.38722910010256,None,284.00575680006295,None,1.1300000000000008,284.60627399990335,None,285.358081900049,None,,,,,,,[0.58959184],2.560000000000002,0.8571428571428571,11029,002,2024_Jan_10_1613,MFTM_A_new1021,2021.2.3,59.894155024216424,
,,,,,,,,stim/Instruction_adaptive.png,conditions/adaptive.xlsx,test,0.6,0.6,0.6,-0.6,-0.6,right,R,,,,,0,1,1,1,0,49,49,10,,,,,,,,,,,,,,,,,,,,,,,,,,,,,,,,,,,,,,,,,,,,285.85847890004516,None,right,1,1.654092200100422,286.359070800012,287.97814969997853,286.359070800012,287.49451750004664,286.359070800012,287.49451750004664,286.359070800012,287.49451750004664,286.359070800012,287.49451750004664,286.359070800012,287.49451750004664,287.46110510011204,287.96150829992257,287.46110510011204,287.96150829992257,287.46110510011204,287.96150829992257,287.46110510011204,287.96150829992257,287.46110510011204,287.96150829992257,287.46110510011204,287.96150829992257,287.46110510011204,287.96150829992257,287.46110510011204,287.96150829992257,286.359070800012,None,287.96150829992257,288.5788541000802,1.1200000000000008,288.5956198000349,None,289.3468512999825,None,,,,,,,[0.6054],2.5900000000000016,0.86,11029,002,2024_Jan_10_1613,MFTM_A_new1021,2021.2.3,59.894155024216424,
,,,,,,,,stim/Instruction_adaptive.png,conditions/adaptive.xlsx,test,0.6,0.6,0.6,-0.6,-0.6,right,R,,,,,0,1,1,1,0,50,50,78,,,,,,,,,,,,,,,,,,,,,,,,,,,,,,,,,,,,,,,,,,,,289.8475184000563,None,right,1,1.664143699919805,290.3490796000697,291.95146330003627,290.3490796000697,291.4509598999284,290.3490796000697,291.4509598999284,290.3490796000697,291.4509598999284,290.3490796000697,291.4509598999284,290.3490796000697,291.4509598999284,291.4165231999941,291.91740830009803,291.4165231999941,291.91740830009803,291.4165231999941,291.91740830009803,291.4165231999941,291.91740830009803,291.4165231999941,291.91740830009803,291.4165231999941,291.91740830009803,291.4165231999941,291.91740830009803,291.4165231999941,291.91740830009803,290.3490796000697,None,291.91740830009803,292.5519705999177,1.0900000000000007,292.56865869998,None,293.31933619990014,None,,,,,,,[0.62117647],2.620000000000002,0.8627450980392157,11029,002,2024_Jan_10_1613,MFTM_A_new1021,2021.2.3,59.894155024216424,
,,,,,,,,stim/Instruction_adaptive.png,conditions/adaptive.xlsx,test,0.6,0.6,0.6,-0.6,-0.6,right,R,,,,,0,1,1,1,0,51,51,0,,,,,,,,,,,,,,,,,,,,,,,,,,,,,,,,,,,,,,,,,,,,293.820154099958,None,right,1,1.5331373000517488,294.3207894000225,295.8898293999955,294.3207894000225,295.38925229990855,294.3207894000225,295.38925229990855,294.3207894000225,295.38925229990855,294.3207894000225,295.38925229990855,294.3207894000225,295.38925229990855,295.3732131998986,295.87357609998435,295.3732131998986,295.87357609998435,295.3732131998986,295.87357609998435,295.3732131998986,295.87357609998435,295.3732131998986,295.87357609998435,295.3732131998986,295.87357609998435,295.3732131998986,295.87357609998435,295.3732131998986,295.87357609998435,294.3207894000225,None,295.87357609998435,296.52431060001254,1.0700000000000007,296.54124030005187,None,297.2919775999617,None,,,,,,,[0.63673077],2.650000000000002,0.8653846153846154,11029,002,2024_Jan_10_1613,MFTM_A_new1021,2021.2.3,59.894155024216424,
,,,,,,,,stim/Instruction_adaptive.png,conditions/adaptive.xlsx,test,-0.6,-0.6,-0.6,0.6,0.6,left,L,,,,,0,1,1,1,0,52,52,99,,,,,,,,,,,,,,,,,,,,,,,,,,,,,,,,,,,,,,,,,,,,297.7926946999505,None,left,1,1.4879380001220852,298.29330809996463,299.8462092000991,298.29330809996463,299.3460295998957,298.29330809996463,299.3460295998957,298.29330809996463,299.3460295998957,298.29330809996463,299.3460295998957,298.29330809996463,299.3460295998957,299.32836110005155,299.82994790002704,299.32836110005155,299.82994790002704,299.32836110005155,299.82994790002704,299.32836110005155,299.82994790002704,299.32836110005155,299.82994790002704,299.32836110005155,299.82994790002704,299.32836110005155,299.82994790002704,299.32836110005155,299.82994790002704,298.29330809996463,None,299.82994790002704,None,1.0500000000000007,300.496555400081,None,301.2476766000036,None,,,,,,,[0.65207547],2.6700000000000017,0.8679245283018868,11029,002,2024_Jan_10_1613,MFTM_A_new1021,2021.2.3,59.894155024216424,
,,,,,,,,stim/Instruction_adaptive.png,conditions/adaptive.xlsx,test,-0.6,-0.6,-0.6,0.6,0.6,left,L,,,,,0,1,1,1,0,53,53,87,,,,,,,,,,,,,,,,,,,,,,,,,,,,,,,,,,,,,,,,,,,,301.748556900071,None,left,1,1.1080925001297146,302.24940280010924,303.78686890006065,302.24940280010924,303.28487479989417,302.24940280010924,303.28487479989417,302.24940280010924,303.28487479989417,302.24940280010924,303.28487479989417,302.24940280010924,303.28487479989417,303.26814329996705,303.7683190999087,303.26814329996705,303.7683190999087,303.26814329996705,303.7683190999087,303.26814329996705,303.7683190999087,303.26814329996705,303.7683190999087,303.26814329996705,303.7683190999087,303.26814329996705,303.7683190999087,303.26814329996705,303.7683190999087,302.24940280010924,None,303.7683190999087,304.43667580001056,1.0300000000000007,304.4525488000363,None,305.2042729998939,None,,,,,,,[0.66722222],2.700000000000002,0.8703703703703703,11029,002,2024_Jan_10_1613,MFTM_A_new1021,2021.2.3,59.894155024216424,
,,,,,,,,stim/Instruction_adaptive.png,conditions/adaptive.xlsx,test,0.6,0.6,0.6,-0.6,-0.6,right,R,,,,,0,1,1,1,0,54,54,48,,,,,,,,,,,,,,,,,,,,,,,,,,,,,,,,,,,,,,,,,,,,305.7045905000996,None,right,1,1.424200100125745,306.2049938000273,307.72399399988353,306.2049938000273,307.2234058000613,306.2049938000273,307.2234058000613,306.2049938000273,307.2234058000613,306.2049938000273,307.2234058000613,306.2049938000273,307.2234058000613,307.1899343000259,307.6916437000036,307.1899343000259,307.6916437000036,307.1899343000259,307.6916437000036,307.1899343000259,307.6916437000036,307.1899343000259,307.6916437000036,307.1899343000259,307.6916437000036,307.1899343000259,307.6916437000036,307.1899343000259,307.6916437000036,306.2049938000273,None,307.6916437000036,308.3752784000244,1.0100000000000007,308.40827769995667,None,309.159588099923,None,,,,,,,[0.68218182],2.730000000000002,0.8727272727272727,11029,002,2024_Jan_10_1613,MFTM_A_new1021,2021.2.3,59.894155024216424,
,,,,,,,,stim/Instruction_adaptive.png,conditions/adaptive.xlsx,test,0.6,0.6,0.6,-0.6,-0.6,right,R,,,,,0,1,1,1,0,55,55,82,,,,,,,,,,,,,,,,,,,,,,,,,,,,,,,,,,,,,,,,,,,,309.66089250007644,None,left,0,1.2514093001373112,310.1618435001001,311.6642756999936,310.1618435001001,311.1623917000834,310.1618435001001,311.1623917000834,310.1618435001001,311.1623917000834,310.1618435001001,311.1623917000834,310.1618435001001,311.1623917000834,311.12927379994653,311.63030169997364,311.12927379994653,311.63030169997364,311.12927379994653,311.63030169997364,311.12927379994653,311.63030169997364,311.12927379994653,311.63030169997364,311.12927379994653,311.63030169997364,311.12927379994653,311.63030169997364,311.12927379994653,311.63030169997364,310.1618435001001,None,311.63030169997364,312.33116080006585,0.9900000000000007,312.3476034998894,None,313.0995163000189,None,,,,,,,[0.69696429],2.650000000000002,0.8571428571428571,11029,002,2024_Jan_10_1613,MFTM_A_new1021,2021.2.3,59.894155024216424,
,,,,,,,,stim/Instruction_adaptive.png,conditions/adaptive.xlsx,test,-0.6,-0.6,-0.6,0.6,0.6,left,L,,,,,0,1,1,1,0,56,56,91,,,,,,,,,,,,,,,,,,,,,,,,,,,,,,,,,,,,,,,,,,,,313.5997995999642,None,left,1,1.3046419001184404,314.10062170005403,315.65260799997486,314.10062170005403,315.1527275000699,314.10062170005403,315.1527275000699,314.10062170005403,315.1527275000699,314.10062170005403,315.1527275000699,314.10062170005403,315.1527275000699,315.1354499999434,315.63599879993126,315.1354499999434,315.63599879993126,315.1354499999434,315.63599879993126,315.1354499999434,315.63599879993126,315.1354499999434,315.63599879993126,315.1354499999434,315.63599879993126,315.1354499999434,315.63599879993126,315.1354499999434,315.63599879993126,314.10062170005403,None,315.63599879993126,316.35368110006675,1.0500000000000007,316.3702344999183,None,317.12135650007986,None,,,,,,,[0.71017544],2.680000000000002,0.8596491228070176,11029,002,2024_Jan_10_1613,MFTM_A_new1021,2021.2.3,59.894155024216424,
,,,,,,,,stim/Instruction_adaptive.png,conditions/adaptive.xlsx,test,-0.6,-0.6,-0.6,0.6,0.6,left,L,,,,,0,1,1,1,0,57,57,73,,,,,,,,,,,,,,,,,,,,,,,,,,,,,,,,,,,,,,,,,,,,317.6224988999311,None,left,1,1.8572643001098186,318.1242194001097,319.65847730007954,318.1242194001097,319.1577651000116,318.1242194001097,319.1577651000116,318.1242194001097,319.1577651000116,318.1242194001097,319.1577651000116,318.1242194001097,319.1577651000116,319.14201730000786,319.64265870000236,319.14201730000786,319.64265870000236,319.14201730000786,319.64265870000236,319.14201730000786,319.64265870000236,319.14201730000786,319.64265870000236,319.14201730000786,319.64265870000236,319.14201730000786,319.64265870000236,319.14201730000786,319.64265870000236,318.1242194001097,None,319.64265870000236,320.37614189996384,1.0300000000000007,320.39341209991835,None,321.143962000031,None,,,,,,,[0.72327586],2.700000000000002,0.8620689655172413,11029,002,2024_Jan_10_1613,MFTM_A_new1021,2021.2.3,59.894155024216424,
,,,,,,,,stim/Instruction_adaptive.png,conditions/adaptive.xlsx,test,-0.6,-0.6,-0.6,0.6,0.6,left,L,,,,,0,1,1,1,0,58,58,49,,,,,,,,,,,,,,,,,,,,,,,,,,,,,,,,,,,,,,,,,,,,321.64595829998143,None,left,1,1.8036627999972552,322.1458825999871,323.6643737000413,322.1458825999871,323.16385979996994,322.1458825999871,323.16385979996994,322.1458825999871,323.16385979996994,322.1458825999871,323.16385979996994,322.1458825999871,323.16385979996994,323.13033870002255,323.63203360000625,323.13033870002255,323.63203360000625,323.13033870002255,323.63203360000625,323.13033870002255,323.63203360000625,323.13033870002255,323.63203360000625,323.13033870002255,323.63203360000625,323.13033870002255,323.63203360000625,323.13033870002255,323.63203360000625,322.1458825999871,None,323.63203360000625,324.3822113999631,1.0100000000000007,324.3988693000283,None,325.15077290008776,None,,,,,,,[0.73627119],2.730000000000002,0.864406779661017,11029,002,2024_Jan_10_1613,MFTM_A_new1021,2021.2.3,59.894155024216424,
,,,,,,,,stim/Instruction_adaptive.png,conditions/adaptive.xlsx,test,0.6,0.6,0.6,-0.6,-0.6,right,R,,,,,0,1,1,1,0,59,59,72,,,,,,,,,,,,,,,,,,,,,,,,,,,,,,,,,,,,,,,,,,,,325.6505996999331,None,right,1,1.1812998000532389,326.1520328000188,327.65348200011067,326.1520328000188,327.1528864998836,326.1520328000188,327.1528864998836,326.1520328000188,327.1528864998836,326.1520328000188,327.1528864998836,326.1520328000188,327.1528864998836,327.1194662998896,327.62105510011315,327.1194662998896,327.62105510011315,327.1194662998896,327.62105510011315,327.1194662998896,327.62105510011315,327.1194662998896,327.62105510011315,327.1194662998896,327.62105510011315,327.1194662998896,327.62105510011315,327.1194662998896,327.62105510011315,326.1520328000188,None,327.62105510011315,328.371606499888,0.9900000000000007,328.40459770010784,None,329.156172899995,None,,,,,,,[0.74916667],2.7500000000000018,0.8666666666666667,11029,002,2024_Jan_10_1613,MFTM_A_new1021,2021.2.3,59.894155024216424,
,,,,,,,,stim/Instruction_adaptive.png,conditions/adaptive.xlsx,test,0.6,0.6,0.6,-0.6,-0.6,right,R,,,,,0,1,1,1,0,60,60,18,,,,,,,,,,,,,,,,,,,,,,,,,,,,,,,,,,,,,,,,,,,,329.65648499992676,None,left,0,1.3515558000653982,330.1578726998996,331.6437737001106,330.1578726998996,331.14232570002787,330.1578726998996,331.14232570002787,330.1578726998996,331.14232570002787,330.1578726998996,331.14232570002787,330.1578726998996,331.14232570002787,331.12550559989177,331.6269902000204,331.12550559989177,331.6269902000204,331.12550559989177,331.6269902000204,331.12550559989177,331.6269902000204,331.12550559989177,331.6269902000204,331.12550559989177,331.6269902000204,331.12550559989177,331.6269902000204,331.12550559989177,331.6269902000204,330.1578726998996,None,331.6269902000204,332.3943022999447,0.9800000000000006,332.4105374000501,None,333.1625675999094,None,,,,,,,[0.76180328],2.680000000000002,0.8524590163934426,11029,002,2024_Jan_10_1613,MFTM_A_new1021,2021.2.3,59.894155024216424,
,,,,,,,,stim/Instruction_adaptive.png,conditions/adaptive.xlsx,test,0.6,0.6,0.6,-0.6,-0.6,right,R,,,,,0,1,1,1,0,61,61,68,,,,,,,,,,,,,,,,,,,,,,,,,,,,,,,,,,,,,,,,,,,,333.66341480007395,None,left,0,2.1300697999540716,334.1632679000031,335.69889390002936,334.1632679000031,335.1983890000265,334.1632679000031,335.1983890000265,334.1632679000031,335.1983890000265,334.1632679000031,335.1983890000265,334.1632679000031,335.1983890000265,335.1813097000122,335.68220139993355,335.1813097000122,335.68220139993355,335.1813097000122,335.68220139993355,335.1813097000122,335.68220139993355,335.1813097000122,335.68220139993355,335.1813097000122,335.68220139993355,335.1813097000122,335.68220139993355,335.1813097000122,335.68220139993355,334.1632679000031,None,335.68220139993355,None,1.0300000000000007,336.46657339995727,None,337.2177200000733,None,,,,,,,[0.77322581],2.610000000000002,0.8387096774193549,11029,002,2024_Jan_10_1613,MFTM_A_new1021,2021.2.3,59.894155024216424,
,,,,,,,,stim/Instruction_adaptive.png,conditions/adaptive.xlsx,test,-0.6,-0.6,-0.6,0.6,0.6,left,L,,,,,0,1,1,1,0,62,62,59,,,,,,,,,,,,,,,,,,,,,,,,,,,,,,,,,,,,,,,,,,,,337.7187477000989,None,right,0,2.0338570999447256,338.2198602000717,339.80492340005003,338.2198602000717,339.3042578001041,338.2198602000717,339.3042578001041,338.2198602000717,339.3042578001041,338.2198602000717,339.3042578001041,338.2198602000717,339.3042578001041,339.287472399883,339.7884758999571,339.287472399883,339.7884758999571,339.287472399883,339.7884758999571,339.287472399883,339.7884758999571,339.287472399883,339.7884758999571,339.287472399883,339.7884758999571,339.287472399883,339.7884758999571,339.287472399883,339.7884758999571,338.2198602000717,None,339.7884758999571,340.57326520001516,1.0800000000000007,340.58950080000795,None,341.34076109994203,None,,,,,,,[0.78349206],2.540000000000002,0.8253968253968254,11029,002,2024_Jan_10_1613,MFTM_A_new1021,2021.2.3,59.894155024216424,
,,,,,,,,stim/Instruction_adaptive.png,conditions/adaptive.xlsx,test,-0.6,-0.6,-0.6,0.6,0.6,left,L,,,,,0,1,1,1,0,63,63,57,,,,,,,,,,,,,,,,,,,,,,,,,,,,,,,,,,,,,,,,,,,,341.8416766000446,None,left,1,1.4470941999461502,342.34213460003957,343.9778593000956,342.34213460003957,343.4773693000898,342.34213460003957,343.4773693000898,342.34213460003957,343.4773693000898,342.34213460003957,343.4773693000898,342.34213460003957,343.4773693000898,343.460403499892,343.96129589993507,343.460403499892,343.96129589993507,343.460403499892,343.96129589993507,343.460403499892,343.96129589993507,343.460403499892,343.96129589993507,343.460403499892,343.96129589993507,343.460403499892,343.96129589993507,343.460403499892,343.96129589993507,342.34213460003957,None,343.96129589993507,344.7628653999418,1.1300000000000008,344.77894770004787,None,345.5304227999877,None,,,,,,,[0.79265625],2.560000000000002,0.828125,11029,002,2024_Jan_10_1613,MFTM_A_new1021,2021.2.3,59.894155024216424,
,,,,,,,,stim/Instruction_adaptive.png,conditions/adaptive.xlsx,test,-0.6,-0.6,-0.6,0.6,0.6,left,L,,,,,0,1,1,1,0,64,64,45,,,,,,,,,,,,,,,,,,,,,,,,,,,,,,,,,,,,,,,,,,,,346.03195460001007,None,left,1,1.95395140000619,346.531523700105,348.15067319991067,346.531523700105,347.66757020005025,346.531523700105,347.66757020005025,346.531523700105,347.66757020005025,346.531523700105,347.66757020005025,346.531523700105,347.66757020005025,347.6331136999652,348.1364410999231,347.6331136999652,348.1364410999231,347.6331136999652,348.1364410999231,347.6331136999652,348.1364410999231,347.6331136999652,348.1364410999231,347.6331136999652,348.1364410999231,347.6331136999652,348.1364410999231,347.6331136999652,348.1364410999231,346.531523700105,None,348.1364410999231,348.95175569993444,1.1200000000000008,348.96845520008355,None,349.71973180002533,None,,,,,,,[0.80169231],2.5900000000000016,0.8307692307692308,11029,002,2024_Jan_10_1613,MFTM_A_new1021,2021.2.3,59.894155024216424,
,,,,,,,,stim/Instruction_adaptive.png,conditions/adaptive.xlsx,test,-0.6,-0.6,-0.6,0.6,0.6,left,L,,,,,0,1,1,1,0,65,65,3,,,,,,,,,,,,,,,,,,,,,,,,,,,,,,,,,,,,,,,,,,,,350.2212135998998,None,left,1,1.6600995000917464,350.72119430010207,352.3242297999095,350.72119430010207,351.8234544999432,350.72119430010207,351.8234544999432,350.72119430010207,351.8234544999432,350.72119430010207,351.8234544999432,350.72119430010207,351.8234544999432,351.7893874999136,352.29084699996747,351.7893874999136,352.29084699996747,351.7893874999136,352.29084699996747,351.7893874999136,352.29084699996747,351.7893874999136,352.29084699996747,351.7893874999136,352.29084699996747,351.7893874999136,352.29084699996747,351.7893874999136,352.29084699996747,350.72119430010207,None,352.29084699996747,353.10809989995323,1.0900000000000007,353.1251042999793,None,353.876636199886,None,,,,,,,[0.81090909],2.610000000000002,0.8333333333333334,11029,002,2024_Jan_10_1613,MFTM_A_new1021,2021.2.3,59.894155024216424,
,,,,,,,,stim/Instruction_adaptive.png,conditions/adaptive.xlsx,test,0.6,0.6,0.6,-0.6,-0.6,right,R,,,,,0,1,1,1,0,66,66,38,,,,,,,,,,,,,,,,,,,,,,,,,,,,,,,,,,,,,,,,,,,,354.37727380008437,None,right,1,2.1358644000720233,354.8777993998956,356.4628590999637,354.8777993998956,355.96311819995753,354.8777993998956,355.96311819995753,354.8777993998956,355.96311819995753,354.8777993998956,355.96311819995753,354.8777993998956,355.96311819995753,355.94669270003214,356.446995300008,355.94669270003214,356.446995300008,355.94669270003214,356.446995300008,355.94669270003214,356.446995300008,355.94669270003214,356.446995300008,355.94669270003214,356.446995300008,355.94669270003214,356.446995300008,355.94669270003214,356.446995300008,354.8777993998956,None,356.43035020004027,357.2641845999751,1.0800000000000007,357.2808487000875,None,358.0323316999711,None,,,,,,,[0.82],2.6300000000000017,0.835820895522388,11029,002,2024_Jan_10_1613,MFTM_A_new1021,2021.2.3,59.894155024216424,
,,,,,,,,stim/Instruction_adaptive.png,conditions/adaptive.xlsx,test,0.6,0.6,0.6,-0.6,-0.6,right,R,,,,,0,1,1,1,0,67,67,30,,,,,,,,,,,,,,,,,,,,,,,,,,,,,,,,,,,,,,,,,,,,358.5328132000286,None,left,0,1.3800006001256406,359.0333356000483,360.60292279999703,359.0333356000483,360.1015248999465,359.0333356000483,360.1015248999465,359.0333356000483,360.1015248999465,359.0333356000483,360.1015248999465,359.0333356000483,360.1015248999465,360.0684706000611,360.56961839995347,360.0684706000611,360.56961839995347,360.0684706000611,360.56961839995347,360.0684706000611,360.56961839995347,360.0684706000611,360.56961839995347,360.0684706000611,360.56961839995347,360.0684706000611,360.56961839995347,360.0684706000611,360.56961839995347,359.0333356000483,None,360.56961839995347,361.4038064000197,1.0600000000000007,361.4365399000235,None,362.18823589989915,None,,,,,,,[0.82911765],2.570000000000002,0.8235294117647058,11029,002,2024_Jan_10_1613,MFTM_A_new1021,2021.2.3,59.894155024216424,
,,,,,,,,stim/Instruction_adaptive.png,conditions/adaptive.xlsx,test,0.6,0.6,0.6,-0.6,-0.6,right,R,,,,,0,1,1,1,0,68,68,94,,,,,,,,,,,,,,,,,,,,,,,,,,,,,,,,,,,,,,,,,,,,362.68925380008295,None,right,1,1.4397118999622762,363.18965200008824,364.80887329997495,363.18965200008824,364.30796459992416,363.18965200008824,364.30796459992416,363.18965200008824,364.30796459992416,363.18965200008824,364.30796459992416,363.18965200008824,364.30796459992416,364.2752064000815,364.7755535999313,364.2752064000815,364.7755535999313,364.2752064000815,364.7755535999313,364.2752064000815,364.7755535999313,364.2752064000815,364.7755535999313,364.2752064000815,364.7755535999313,364.2752064000815,364.7755535999313,364.2752064000815,364.7755535999313,363.18965200008824,None,364.7755535999313,365.62732319999486,1.1100000000000008,365.6432334999554,None,366.39430300006643,None,,,,,,,[0.83724638],2.5900000000000016,0.8260869565217391,11029,002,2024_Jan_10_1613,MFTM_A_new1021,2021.2.3,59.894155024216424,
,,,,,,,,stim/Instruction_adaptive.png,conditions/adaptive.xlsx,test,0.6,0.6,0.6,-0.6,-0.6,right,R,,,,,0,1,1,1,0,69,69,58,,,,,,,,,,,,,,,,,,,,,,,,,,,,,,,,,,,,,,,,,,,,366.89510730002075,None,right,1,1.425612899940461,367.3958886999171,368.9985426000785,367.3958886999171,368.4975449000485,367.3958886999171,368.4975449000485,367.3958886999171,368.4975449000485,367.3958886999171,368.4975449000485,367.3958886999171,368.4975449000485,368.46497739991173,368.9649052999448,368.46497739991173,368.9649052999448,368.46497739991173,368.9649052999448,368.46497739991173,368.9649052999448,368.46497739991173,368.9649052999448,368.46497739991173,368.9649052999448,368.46497739991173,368.9649052999448,368.46497739991173,368.9649052999448,367.3958886999171,None,368.9649052999448,369.8167169999797,1.0900000000000007,369.83260420011356,None,370.5847223000601,None,,,,,,,[0.84542857],2.610000000000002,0.8285714285714286,11029,002,2024_Jan_10_1613,MFTM_A_new1021,2021.2.3,59.894155024216424,
,,,,,,,,stim/Instruction_adaptive.png,conditions/adaptive.xlsx,test,-0.6,-0.6,-0.6,0.6,0.6,left,L,,,,,0,1,1,1,0,70,70,39,,,,,,,,,,,,,,,,,,,,,,,,,,,,,,,,,,,,,,,,,,,,371.0854605000932,None,right,0,1.3798255000729114,371.58544300007634,373.17109020007774,371.58544300007634,372.6705451000016,371.58544300007634,372.6705451000016,371.58544300007634,372.6705451000016,371.58544300007634,372.6705451000016,371.58544300007634,372.6705451000016,372.6535139998887,373.15465610008687,372.6535139998887,373.15465610008687,372.6535139998887,373.15465610008687,372.6535139998887,373.15465610008687,372.6535139998887,373.15465610008687,372.6535139998887,373.15465610008687,372.6535139998887,373.15465610008687,372.6535139998887,373.15465610008687,371.58544300007634,None,373.15465610008687,None,1.0800000000000007,374.0223642999772,None,374.77339149988256,None,,,,,,,[0.85352113],2.5500000000000016,0.8169014084507042,11029,002,2024_Jan_10_1613,MFTM_A_new1021,2021.2.3,59.894155024216424,
,,,,,,,,stim/Instruction_adaptive.png,conditions/adaptive.xlsx,test,-0.6,-0.6,-0.6,0.6,0.6,left,L,,,,,0,1,1,1,0,71,71,47,,,,,,,,,,,,,,,,,,,,,,,,,,,,,,,,,,,,,,,,,,,,375.27451370004565,None,left,1,1.1025825999677181,375.77493590000086,377.3938790000975,375.77493590000086,376.91043679998256,375.77493590000086,376.91043679998256,375.77493590000086,376.91043679998256,375.77493590000086,376.91043679998256,375.77493590000086,376.91043679998256,376.8768422000576,377.3777501999866,376.8768422000576,377.3777501999866,376.8768422000576,377.3777501999866,376.8768422000576,377.3777501999866,376.8768422000576,377.3777501999866,376.8768422000576,377.3777501999866,376.8768422000576,377.3777501999866,376.8768422000576,377.3777501999866,375.77493590000086,None,377.3777501999866,378.2453336000908,1.1200000000000008,378.26258410001174,None,379.0137122001033,None,,,,,,,[0.86083333],2.570000000000002,0.8194444444444444,11029,002,2024_Jan_10_1613,MFTM_A_new1021,2021.2.3,59.894155024216424,
,,,,,,,,stim/Instruction_adaptive.png,conditions/adaptive.xlsx,test,0.6,0.6,0.6,-0.6,-0.6,right,R,,,,,0,1,1,1,0,72,72,40,,,,,,,,,,,,,,,,,,,,,,,,,,,,,,,,,,,,,,,,,,,,379.5136188000906,None,right,1,1.6547262999229133,380.01452399999835,381.6339922999032,380.01452399999835,381.1333641000092,380.01452399999835,381.1333641000092,380.01452399999835,381.1333641000092,380.01452399999835,381.1333641000092,380.01452399999835,381.1333641000092,381.099848800106,381.60014809994027,381.099848800106,381.60014809994027,381.099848800106,381.60014809994027,381.099848800106,381.60014809994027,381.099848800106,381.60014809994027,381.099848800106,381.60014809994027,381.099848800106,381.60014809994027,381.099848800106,381.60014809994027,380.01452399999835,None,381.60014809994027,382.46844219998457,1.1100000000000008,382.5014398000203,None,383.2534723998979,None,,,,,,,[0.86808219],2.5900000000000016,0.821917808219178,11029,002,2024_Jan_10_1613,MFTM_A_new1021,2021.2.3,59.894155024216424,
,,,,,,,,stim/Instruction_adaptive.png,conditions/adaptive.xlsx,test,0.6,0.6,0.6,-0.6,-0.6,right,R,,,,,0,1,1,1,0,73,73,62,,,,,,,,,,,,,,,,,,,,,,,,,,,,,,,,,,,,,,,,,,,,383.75363989989273,None,left,0,1.4072133000008762,384.2541932000313,385.8565688000526,384.2541932000313,385.3562292000279,384.2541932000313,385.3562292000279,384.2541932000313,385.3562292000279,384.2541932000313,385.3562292000279,384.2541932000313,385.3562292000279,385.32235940010287,385.8232171998825,385.32235940010287,385.8232171998825,385.32235940010287,385.8232171998825,385.32235940010287,385.8232171998825,385.32235940010287,385.8232171998825,385.32235940010287,385.8232171998825,385.32235940010287,385.8232171998825,385.32235940010287,385.8232171998825,384.2541932000313,None,385.8232171998825,386.7081236001104,1.0900000000000007,386.7238731000107,None,387.4755907000508,None,,,,,,,[0.87540541],2.530000000000002,0.8108108108108109,11029,002,2024_Jan_10_1613,MFTM_A_new1021,2021.2.3,59.894155024216424,
,,,,,,,,stim/Instruction_adaptive.png,conditions/adaptive.xlsx,test,-0.6,-0.6,-0.6,0.6,0.6,left,L,,,,,0,1,1,1,0,74,74,81,,,,,,,,,,,,,,,,,,,,,,,,,,,,,,,,,,,,,,,,,,,,387.9766720999032,None,right,0,1.5123070999979973,388.4770760999527,390.1296093000565,388.4770760999527,389.62944140005857,388.4770760999527,389.62944140005857,388.4770760999527,389.62944140005857,388.4770760999527,389.62944140005857,388.4770760999527,389.62944140005857,389.59558159997687,390.09673139988445,389.59558159997687,390.09673139988445,389.59558159997687,390.09673139988445,389.59558159997687,390.09673139988445,389.59558159997687,390.09673139988445,389.59558159997687,390.09673139988445,389.59558159997687,390.09673139988445,389.59558159997687,390.09673139988445,388.4770760999527,None,390.09673139988445,390.98081269999966,1.1400000000000008,391.01451779995114,None,391.7659575000871,None,,,,,,,[0.88186667],2.4600000000000017,0.8,11029,002,2024_Jan_10_1613,MFTM_A_new1021,2021.2.3,59.894155024216424,
,,,,,,,,stim/Instruction_adaptive.png,conditions/adaptive.xlsx,test,0.6,0.6,0.6,-0.6,-0.6,right,R,,,,,0,1,1,1,0,75,75,42,,,,,,,,,,,,,,,,,,,,,,,,,,,,,,,,,,,,,,,,,,,,392.26605669991113,None,right,1,1.6225582999177277,392.7667551001068,394.4698344001081,392.7667551001068,393.96858069999143,392.7667551001068,393.96858069999143,392.7667551001068,393.96858069999143,392.7667551001068,393.96858069999143,392.7667551001068,393.96858069999143,393.9521335999016,394.45332639990374,393.9521335999016,394.45332639990374,393.9521335999016,394.45332639990374,393.9521335999016,394.45332639990374,393.9521335999016,394.45332639990374,393.9521335999016,394.45332639990374,393.9521335999016,394.45332639990374,393.9521335999016,394.45332639990374,392.7667551001068,None,394.45332639990374,None,1.2000000000000008,395.35388309997506,None,396.10526959993877,None,,,,,,,[0.88736842],2.4800000000000018,0.8026315789473685,11029,002,2024_Jan_10_1613,MFTM_A_new1021,2021.2.3,59.894155024216424,
,,,,,,,,stim/Instruction_adaptive.png,conditions/adaptive.xlsx,test,-0.6,-0.6,-0.6,0.6,0.6,left,L,,,,,0,1,1,1,0,76,76,97,,,,,,,,,,,,,,,,,,,,,,,,,,,,,,,,,,,,,,,,,,,,396.60715189995244,None,left,1,1.2905667000450194,397.1069666999392,398.79242220008746,397.1069666999392,398.2916174000129,397.1069666999392,398.2916174000129,397.1069666999392,398.2916174000129,397.1069666999392,398.2916174000129,397.1069666999392,398.2916174000129,398.27513720002025,398.7760747000575,398.27513720002025,398.7760747000575,398.27513720002025,398.7760747000575,398.27513720002025,398.7760747000575,398.27513720002025,398.7760747000575,398.27513720002025,398.7760747000575,398.27513720002025,398.7760747000575,398.27513720002025,398.7760747000575,397.1069666999392,None,398.7589900000021,399.6608456999529,1.1800000000000008,399.6937524001114,None,400.4452237000223,None,,,,,,,[0.89298701],2.5000000000000018,0.8051948051948052,11029,002,2024_Jan_10_1613,MFTM_A_new1021,2021.2.3,59.894155024216424,
,,,,,,,,stim/Instruction_adaptive.png,conditions/adaptive.xlsx,test,-0.6,-0.6,-0.6,0.6,0.6,left,L,,,,,0,1,1,1,0,77,77,33,,,,,,,,,,,,,,,,,,,,,,,,,,,,,,,,,,,,,,,,,,,,400.9458918001037,None,left,1,1.3911526000592858,401.4462989999447,403.1158680000808,401.4462989999447,402.6155264999252,401.4462989999447,402.6155264999252,401.4462989999447,402.6155264999252,401.4462989999447,402.6155264999252,401.4462989999447,402.6155264999252,402.5980012000073,403.0991132000927,402.5980012000073,403.0991132000927,402.5980012000073,403.0991132000927,402.5980012000073,403.0991132000927,402.5980012000073,403.0991132000927,402.5980012000073,403.0991132000927,402.5980012000073,403.0991132000927,402.5980012000073,403.0991132000927,401.4462989999447,None,403.0991132000927,404.0002502000425,1.1600000000000008,404.0167330999393,None,404.76866620010696,None,,,,,,,[0.89871795],2.530000000000002,0.8076923076923077,11029,002,2024_Jan_10_1613,MFTM_A_new1021,2021.2.3,59.894155024216424,
,,,,,,,,stim/Instruction_adaptive.png,conditions/adaptive.xlsx,test,0.6,0.6,0.6,-0.6,-0.6,right,R,,,,,0,1,1,1,0,78,78,56,,,,,,,,,,,,,,,,,,,,,,,,,,,,,,,,,,,,,,,,,,,,405.2693322999403,None,right,1,1.7403476000763476,405.7693064000923,407.42192659992725,405.7693064000923,406.92111209989525,405.7693064000923,406.92111209989525,405.7693064000923,406.92111209989525,405.7693064000923,406.92111209989525,405.7693064000923,406.92111209989525,406.88876460003667,407.3885381000582,406.88876460003667,407.3885381000582,406.88876460003667,407.3885381000582,406.88876460003667,407.3885381000582,406.88876460003667,407.3885381000582,406.88876460003667,407.3885381000582,406.88876460003667,407.3885381000582,406.88876460003667,407.3885381000582,405.7693064000923,None,407.3885381000582,408.30664129997604,1.1400000000000008,408.3231816999614,None,409.07455860008486,None,,,,,,,[0.90455696],2.5500000000000016,0.810126582278481,11029,002,2024_Jan_10_1613,MFTM_A_new1021,2021.2.3,59.894155024216424,
,,,,,,,,stim/Instruction_adaptive.png,conditions/adaptive.xlsx,test,-0.6,-0.6,-0.6,0.6,0.6,left,L,,,,,0,1,1,1,0,79,79,93,,,,,,,,,,,,,,,,,,,,,,,,,,,,,,,,,,,,,,,,,,,,409.5757863998879,None,left,1,1.4810833998490125,410.07635440002196,411.71155259991065,410.07635440002196,411.21131839999,410.07635440002196,411.21131839999,410.07635440002196,411.21131839999,410.07635440002196,411.21131839999,410.07635440002196,411.21131839999,411.17738129990175,411.67855260008946,411.17738129990175,411.67855260008946,411.17738129990175,411.67855260008946,411.17738129990175,411.67855260008946,411.17738129990175,411.67855260008946,411.17738129990175,411.67855260008946,411.17738129990175,411.67855260008946,411.17738129990175,411.67855260008946,410.07635440002196,None,411.67855260008946,412.5974125000648,1.1200000000000008,412.61287469998933,None,413.3639044999145,None,,,,,,,[0.9105],2.570000000000002,0.8125,11029,002,2024_Jan_10_1613,MFTM_A_new1021,2021.2.3,59.894155024216424,
,,,,,,,,stim/Instruction_adaptive.png,conditions/adaptive.xlsx,test,0.6,0.6,0.6,-0.6,-0.6,right,R,,,,,0,1,1,1,0,80,80,50,,,,,,,,,,,,,,,,,,,,,,,,,,,,,,,,,,,,,,,,,,,,413.8645544000901,None,right,1,1.1843447000719607,414.3655230998993,415.98459480004385,414.3655230998993,415.4844090999104,414.3655230998993,415.4844090999104,414.3655230998993,415.4844090999104,414.3655230998993,415.4844090999104,414.3655230998993,415.4844090999104,415.46716489992104,415.967737399973,415.46716489992104,415.967737399973,415.46716489992104,415.967737399973,415.46716489992104,415.967737399973,415.46716489992104,415.967737399973,415.46716489992104,415.967737399973,415.46716489992104,415.967737399973,415.46716489992104,415.967737399973,414.3655230998993,None,415.967737399973,416.8864414000418,1.1100000000000008,416.90325949992985,None,417.65373319992796,None,,,,,,,[0.91641975],2.5900000000000016,0.8148148148148148,11029,002,2024_Jan_10_1613,MFTM_A_new1021,2021.2.3,59.894155024216424,
,,,,,,,,stim/Instruction_adaptive.png,conditions/adaptive.xlsx,test,-0.6,-0.6,-0.6,0.6,0.6,left,L,,,,,0,1,1,1,0,81,81,37,,,,,,,,,,,,,,,,,,,,,,,,,,,,,,,,,,,,,,,,,,,,418.1549513998907,None,left,1,1.2784150999505073,418.655237399973,420.2582229000982,418.655237399973,419.75679189991206,418.655237399973,419.75679189991206,418.655237399973,419.75679189991206,418.655237399973,419.75679189991206,418.655237399973,419.75679189991206,419.7239655999001,420.2244138000533,419.7239655999001,420.2244138000533,419.7239655999001,420.2244138000533,419.7239655999001,420.2244138000533,419.7239655999001,420.2244138000533,419.7239655999001,420.2244138000533,419.7239655999001,420.2244138000533,419.7239655999001,420.2244138000533,418.655237399973,None,420.2244138000533,421.15993329999037,1.0900000000000007,421.1756202999968,None,421.9265141999349,None,,,,,,,[0.92243902],2.610000000000002,0.8170731707317073,11029,002,2024_Jan_10_1613,MFTM_A_new1021,2021.2.3,59.894155024216424,
,,,,,,,,stim/Instruction_adaptive.png,conditions/adaptive.xlsx,test,-0.6,-0.6,-0.6,0.6,0.6,left,L,,,,,0,1,1,1,0,82,82,69,,,,,,,,,,,,,,,,,,,,,,,,,,,,,,,,,,,,,,,,,,,,422.4274949999526,None,left,1,1.373912600101903,422.9282188001089,424.51456200005487,422.9282188001089,424.0131763999816,422.9282188001089,424.0131763999816,422.9282188001089,424.0131763999816,422.9282188001089,424.0131763999816,422.9282188001089,424.0131763999816,423.99641259992495,424.49790650000796,423.99641259992495,424.49790650000796,423.99641259992495,424.49790650000796,423.99641259992495,424.49790650000796,423.99641259992495,424.49790650000796,423.99641259992495,424.49790650000796,423.99641259992495,424.49790650000796,423.99641259992495,424.49790650000796,422.9282188001089,None,424.49790650000796,425.43186950008385,1.0800000000000007,425.4486088999547,None,426.2002936999779,None,,,,,,,[0.92843373],2.6300000000000017,0.8192771084337349,11029,002,2024_Jan_10_1613,MFTM_A_new1021,2021.2.3,59.894155024216424,
,,,,,,,,stim/Instruction_adaptive.png,conditions/adaptive.xlsx,test,-0.6,-0.6,-0.6,0.6,0.6,left,L,,,,,0,1,1,1,0,83,83,53,,,,,,,,,,,,,,,,,,,,,,,,,,,,,,,,,,,,,,,,,,,,426.7006353000179,None,right,0,1.548174099996686,427.2013218998909,428.77099939994514,427.2013218998909,428.2696491999086,427.2013218998909,428.2696491999086,427.2013218998909,428.2696491999086,427.2013218998909,428.2696491999086,427.2013218998909,428.2696491999086,428.2360153000336,428.7375996999908,428.2360153000336,428.7375996999908,428.2360153000336,428.7375996999908,428.2360153000336,428.7375996999908,428.2360153000336,428.7375996999908,428.2360153000336,428.7375996999908,428.2360153000336,428.7375996999908,428.2360153000336,428.7375996999908,427.2013218998909,None,428.7375996999908,429.6737561998889,1.0600000000000007,429.70539960009046,None,430.4561246999074,None,,,,,,,[0.93452381],2.570000000000002,0.8095238095238095,11029,002,2024_Jan_10_1613,MFTM_A_new1021,2021.2.3,59.894155024216424,
,,,,,,,,stim/Instruction_adaptive.png,conditions/adaptive.xlsx,test,-0.6,-0.6,-0.6,0.6,0.6,left,L,,,,,0,1,1,1,0,84,84,35,,,,,,,,,,,,,,,,,,,,,,,,,,,,,,,,,,,,,,,,,,,,430.9567386000417,None,left,1,2.1160512999631464,431.45737419999205,433.0767546000425,431.45737419999205,432.5757518000901,431.45737419999205,432.5757518000901,431.45737419999205,432.5757518000901,431.45737419999205,432.5757518000901,431.45737419999205,432.5757518000901,432.54227679991163,433.0431554999668,432.54227679991163,433.0431554999668,432.54227679991163,433.0431554999668,432.54227679991163,433.0431554999668,432.54227679991163,433.0431554999668,432.54227679991163,433.0431554999668,432.54227679991163,433.0431554999668,432.54227679991163,433.0431554999668,431.45737419999205,None,433.0431554999668,433.9952869999688,1.1100000000000008,434.01121199992485,None,434.7623501000926,None,,,,,,,[0.93988235],2.5900000000000016,0.8117647058823529,11029,002,2024_Jan_10_1613,MFTM_A_new1021,2021.2.3,59.894155024216424,
,,,,,,,,stim/Instruction_adaptive.png,conditions/adaptive.xlsx,test,-0.6,-0.6,-0.6,0.6,0.6,left,L,,,,,0,1,1,1,0,85,85,75,,,,,,,,,,,,,,,,,,,,,,,,,,,,,,,,,,,,,,,,,,,,435.2631973999087,None,right,0,1.7212398999836296,435.76404300006106,437.36669660010375,435.76404300006106,436.86622310010716,435.76404300006106,436.86622310010716,435.76404300006106,436.86622310010716,435.76404300006106,436.86622310010716,435.76404300006106,436.86622310010716,436.8322012000717,437.3331236001104,436.8322012000717,437.3331236001104,436.8322012000717,437.3331236001104,436.8322012000717,437.3331236001104,436.8322012000717,437.3331236001104,436.8322012000717,437.3331236001104,436.8322012000717,437.3331236001104,436.8322012000717,437.3331236001104,435.76404300006106,None,437.3331236001104,438.2841284000315,1.0900000000000007,438.30085620004684,None,439.05228410009295,None,,,,,,,[0.94534884],2.530000000000002,0.8023255813953488,11029,002,2024_Jan_10_1613,MFTM_A_new1021,2021.2.3,59.894155024216424,
,,,,,,,,stim/Instruction_adaptive.png,conditions/adaptive.xlsx,test,-0.6,-0.6,-0.6,0.6,0.6,left,L,,,,,0,1,1,1,0,86,86,67,,,,,,,,,,,,,,,,,,,,,,,,,,,,,,,,,,,,,,,,,,,,439.5533737000078,None,left,1,1.3837984001729637,440.05360589991324,441.7064690999687,440.05360589991324,441.2051530999597,440.05360589991324,441.2051530999597,440.05360589991324,441.2051530999597,440.05360589991324,441.2051530999597,440.05360589991324,441.2051530999597,441.1722031000536,441.6733099000994,441.1722031000536,441.6733099000994,441.1722031000536,441.6733099000994,441.1722031000536,441.6733099000994,441.1722031000536,441.6733099000994,441.1722031000536,441.6733099000994,441.1722031000536,441.6733099000994,441.1722031000536,441.6733099000994,440.05360589991324,None,441.6733099000994,442.62608830002137,1.1400000000000008,442.64029309991747,None,443.39307549991645,None,,,,,,,[0.95011494],2.5500000000000016,0.8045977011494253,11029,002,2024_Jan_10_1613,MFTM_A_new1021,2021.2.3,59.894155024216424,
,,,,,,,,stim/Instruction_adaptive.png,conditions/adaptive.xlsx,test,0.6,0.6,0.6,-0.6,-0.6,right,R,,,,,0,1,1,1,0,87,87,86,,,,,,,,,,,,,,,,,,,,,,,,,,,,,,,,,,,,,,,,,,,,443.8933067000471,None,right,1,1.9079419001936913,444.39366589998826,446.02895210008137,444.39366589998826,445.52895849989727,444.39366589998826,445.52895849989727,444.39366589998826,445.52895849989727,444.39366589998826,445.52895849989727,444.39366589998826,445.52895849989727,445.49497770005837,445.99551100004464,445.49497770005837,445.99551100004464,445.49497770005837,445.99551100004464,445.49497770005837,445.99551100004464,445.49497770005837,445.99551100004464,445.49497770005837,445.99551100004464,445.49497770005837,445.99551100004464,445.49497770005837,445.99551100004464,444.39366589998826,None,445.99551100004464,446.96394690009765,1.1200000000000008,446.9804080000613,None,447.7315265999641,None,,,,,,,[0.955],2.570000000000002,0.8068181818181818,11029,002,2024_Jan_10_1613,MFTM_A_new1021,2021.2.3,59.894155024216424,
,,,,,,,,stim/Instruction_adaptive.png,conditions/adaptive.xlsx,test,-0.6,-0.6,-0.6,0.6,0.6,left,L,,,,,0,1,1,1,0,88,88,31,,,,,,,,,,,,,,,,,,,,,,,,,,,,,,,,,,,,,,,,,,,,448.2327676001005,None,left,1,1.4404726000502706,448.7330587999895,450.3521352999378,448.7330587999895,449.8513283999637,448.7330587999895,449.8513283999637,448.7330587999895,449.8513283999637,448.7330587999895,449.8513283999637,448.7330587999895,449.8513283999637,449.81835089996457,450.31959079997614,449.81835089996457,450.31959079997614,449.81835089996457,450.31959079997614,449.81835089996457,450.31959079997614,449.81835089996457,450.31959079997614,449.81835089996457,450.31959079997614,449.81835089996457,450.31959079997614,449.81835089996457,450.31959079997614,448.7330587999895,None,450.31959079997614,451.28797130007297,1.1100000000000008,451.3036026000045,None,452.0552908000536,None,,,,,,,[0.95988764],2.5900000000000016,0.8089887640449438,11029,002,2024_Jan_10_1613,MFTM_A_new1021,2021.2.3,59.894155024216424,
,,,,,,,,stim/Instruction_adaptive.png,conditions/adaptive.xlsx,test,-0.6,-0.6,-0.6,0.6,0.6,left,L,,,,,0,1,1,1,0,89,89,1,,,,,,,,,,,,,,,,,,,,,,,,,,,,,,,,,,,,,,,,,,,,452.55542060011066,None,left,1,1.516938399989158,453.05697660008445,454.6589955999516,453.05697660008445,454.15851840004325,453.05697660008445,454.15851840004325,453.05697660008445,454.15851840004325,453.05697660008445,454.15851840004325,453.05697660008445,454.15851840004325,454.1247725998983,454.6251310999505,454.1247725998983,454.6251310999505,454.1247725998983,454.6251310999505,454.1247725998983,454.6251310999505,454.1247725998983,454.6251310999505,454.1247725998983,454.6251310999505,454.1247725998983,454.6251310999505,454.1247725998983,454.6251310999505,453.05697660008445,None,454.6251310999505,455.59390720003285,1.0900000000000007,455.627171699889,None,456.3777443000581,None,,,,,,,[0.96488889],2.610000000000002,0.8111111111111111,11029,002,2024_Jan_10_1613,MFTM_A_new1021,2021.2.3,59.894155024216424,
,,,,,,,,stim/Instruction_adaptive.png,conditions/adaptive.xlsx,test,-0.6,-0.6,-0.6,0.6,0.6,left,L,,,,,0,1,1,1,0,90,90,77,,,,,,,,,,,,,,,,,,,,,,,,,,,,,,,,,,,,,,,,,,,,456.8785812999122,None,left,1,1.586337599903345,457.3792185001075,458.9649433000013,457.3792185001075,458.4643476998899,457.3792185001075,458.4643476998899,457.3792185001075,458.4643476998899,457.3792185001075,458.4643476998899,457.3792185001075,458.4643476998899,458.4473017998971,458.94823600002564,458.4473017998971,458.94823600002564,458.4473017998971,458.94823600002564,458.4473017998971,458.94823600002564,458.4473017998971,458.94823600002564,458.4473017998971,458.94823600002564,458.4473017998971,458.94823600002564,458.4473017998971,458.94823600002564,457.3792185001075,None,458.94823600002564,None,1.0800000000000007,459.9329959000461,None,460.68408960010856,None,,,,,,,[0.96989011],2.6300000000000017,0.8131868131868132,11029,002,2024_Jan_10_1613,MFTM_A_new1021,2021.2.3,59.894155024216424,
,,,,,,,,stim/Instruction_adaptive.png,conditions/adaptive.xlsx,test,-0.6,-0.6,-0.6,0.6,0.6,left,L,,,,,0,1,1,1,0,91,91,25,,,,,,,,,,,,,,,,,,,,,,,,,,,,,,,,,,,,,,,,,,,,461.1850670001004,None,right,0,2.143688099924475,461.68565830006264,463.25476919999346,461.68565830006264,462.75395109993406,461.68565830006264,462.75395109993406,461.68565830006264,462.75395109993406,461.68565830006264,462.75395109993406,461.68565830006264,462.75395109993406,462.7373224000912,463.238098599948,462.7373224000912,463.238098599948,462.7373224000912,463.238098599948,462.7373224000912,463.238098599948,462.7373224000912,463.238098599948,462.7373224000912,463.238098599948,462.7373224000912,463.238098599948,462.7373224000912,463.238098599948,461.68565830006264,None,463.2217143001035,464.20617290004157,1.0600000000000007,464.22274119989015,None,464.9742304000538,None,,,,,,,[0.975],2.570000000000002,0.8043478260869565,11029,002,2024_Jan_10_1613,MFTM_A_new1021,2021.2.3,59.894155024216424,
,,,,,,,,stim/Instruction_adaptive.png,conditions/adaptive.xlsx,test,0.6,0.6,0.6,-0.6,-0.6,right,R,,,,,0,1,1,1,0,92,92,16,,,,,,,,,,,,,,,,,,,,,,,,,,,,,,,,,,,,,,,,,,,,465.4753167000599,None,left,0,1.5424461998045444,465.9752913999837,467.59473149990663,465.9752913999837,467.0936837999616,465.9752913999837,467.0936837999616,465.9752913999837,467.0936837999616,465.9752913999837,467.0936837999616,465.9752913999837,467.0936837999616,467.0607161000371,467.56103440001607,467.0607161000371,467.56103440001607,467.0607161000371,467.56103440001607,467.0607161000371,467.56103440001607,467.0607161000371,467.56103440001607,467.0607161000371,467.56103440001607,467.0607161000371,467.56103440001607,467.0607161000371,467.56103440001607,465.9752913999837,None,467.56103440001607,468.54603189998306,1.1100000000000008,468.5790868999902,None,469.3309965999797,None,,,,,,,[0.97946237],2.520000000000002,0.7956989247311828,11029,002,2024_Jan_10_1613,MFTM_A_new1021,2021.2.3,59.894155024216424,
,,,,,,,,stim/Instruction_adaptive.png,conditions/adaptive.xlsx,test,-0.6,-0.6,-0.6,0.6,0.6,left,L,,,,,0,1,1,1,0,93,93,65,,,,,,,,,,,,,,,,,,,,,,,,,,,,,,,,,,,,,,,,,,,,469.83123859995976,None,left,1,1.8015995000023395,470.33191179996356,471.9842334999703,470.33191179996356,471.4836715001147,470.33191179996356,471.4836715001147,470.33191179996356,471.4836715001147,470.33191179996356,471.4836715001147,470.33191179996356,471.4836715001147,471.46661360003054,471.96754359989427,471.46661360003054,471.96754359989427,471.46661360003054,471.96754359989427,471.46661360003054,471.96754359989427,471.46661360003054,471.96754359989427,471.46661360003054,471.96754359989427,471.46661360003054,471.96754359989427,471.46661360003054,471.96754359989427,470.33191179996356,None,471.96754359989427,472.9525190999266,1.1500000000000008,472.96896849991754,None,473.72026970004663,None,,,,,,,[0.98340426],2.540000000000002,0.7978723404255319,11029,002,2024_Jan_10_1613,MFTM_A_new1021,2021.2.3,59.894155024216424,
