arrwidth1,arrwidth2,arrwidth3,arrwidth4,arrwidth5,keyb,type,orientation,instruction_image,block_filename,block_type,arrow11,arrow22,arrow33,arrow44,arrow55,keyb_3,orientation3,trials.thisRepN,trials.thisTrialN,trials.thisN,trials.thisIndex,trials_3.thisRepN,trials_3.thisTrialN,trials_3.thisN,trials_3.thisIndex,trials_2.thisRepN,trials_2.thisTrialN,trials_2.thisN,trials_2.thisIndex,welcome.started,welcome.stopped,key_resp.keys,key_resp.rt,key_resp.started,key_resp.stopped,instruction_example.started,instruction_example.stopped,key_resp_3.keys,key_resp_3.rt,key_resp_3.started,key_resp_3.stopped,instruction_task.started,instruction_task.stopped,key_resp_2.keys,key_resp_2.rt,key_resp_2.started,key_resp_2.stopped,text_2.started,text_2.stopped,A1.started,A1.stopped,A2.started,A2.stopped,A3.started,A3.stopped,A4.started,A4.stopped,A5.started,A5.stopped,key_resp_4.keys,key_resp_4.corr,key_resp_4.rt,key_resp_4.started,key_resp_4.stopped,fb.started,fb.stopped,instruction_block.started,instruction_block.stopped,key_resp_8.keys,key_resp_8.rt,key_resp_8.started,key_resp_8.stopped,text_8.started,text_8.stopped,key_resp_9.keys,key_resp_9.corr,key_resp_9.rt,text_5.started,text_5.stopped,A11_3.started,A11_3.stopped,A22_2.started,A22_2.stopped,A33_2.started,A33_2.stopped,A44_2.started,A44_2.stopped,A55_2.started,A55_2.stopped,M1_3.started,M1_3.stopped,M2_2.started,M2_2.stopped,M3_2.started,M3_2.stopped,M4_2.started,M4_2.stopped,M5_2.started,M5_2.stopped,M6_2.started,M6_2.stopped,M7_2.started,M7_2.stopped,M8_2.started,M8_2.stopped,key_resp_9.started,key_resp_9.stopped,fixation.started,fixation.stopped,ET,fb_3.started,fb_3.stopped,text_9.started,text_9.stopped,fb_4.started,fb_4.stopped,text_7.started,text_7.stopped,endtext.started,endtext.stopped,fixation_ITI,CCC,Acc,participant,session,date,expName,psychopyVersion,frameRate,
,,,,,,,,,,,,,,,,,,,,,,,,,,,,,,12.018432299955748,None,space,6.3762384000001475,12.018432299955748,None,,,,,,,,,,,,,,,,,,,,,,,,,,,,,,,,,,,,,,,,,,,,,,,,,,,,,,,,,,,,,,,,,,,,,,,,,,,,,,,,,,,,,,,,,11024,001,2024_Jan_07_1100,MFTM_A_new1021,2021.2.3,59.569408482212715,
,,,,,,,,,,,,,,,,,,,,,,,,,,,,,,,,,,,,18.411049899994396,None,space,32.51119260000996,18.411049899994396,None,,,,,,,,,,,,,,,,,,,,,,,,,,,,,,,,,,,,,,,,,,,,,,,,,,,,,,,,,,,,,,,,,,,,,,,,,,,,,,,,,,,11024,001,2024_Jan_07_1100,MFTM_A_new1021,2021.2.3,59.569408482212715,
,,,,,,,,,,,,,,,,,,,,,,,,,,,,,,,,,,,,,,,,,,50.94267519994173,None,space,7.219213799922727,50.94267519994173,None,,,,,,,,,,,,,,,,,,,,,,,,,,,,,,,,,,,,,,,,,,,,,,,,,,,,,,,,,,,,,,,,,,,,,,,,,,,,,11024,001,2024_Jan_07_1100,MFTM_A_new1021,2021.2.3,59.569408482212715,
0.6,0.6,0.6,-0.6,-0.6,right,3:2,R,,,,,,,,,,,0,0,0,0,,,,,,,,,,,,,,,,,,,,,,,,,,,58.20542260003276,None,58.20542260003276,None,58.20542260003276,None,58.20542260003276,None,58.20542260003276,None,58.20542260003276,None,right,1,3.5011720000766218,58.20542260003276,None,61.74346290004905,None,,,,,,,,,,,,,,,,,,,,,,,,,,,,,,,,,,,,,,,,,,,,,,,,,,,,,,,,,,11024,001,2024_Jan_07_1100,MFTM_A_new1021,2021.2.3,59.569408482212715,
-0.6,-0.6,-0.6,0.6,0.6,left,3:2,L,,,,,,,,,,,0,1,1,1,,,,,,,,,,,,,,,,,,,,,,,,,,,62.494329100009054,None,62.494329100009054,None,62.494329100009054,None,62.494329100009054,None,62.494329100009054,None,62.494329100009054,None,left,1,2.2755297999829054,62.494329100009054,None,64.79700270004105,None,,,,,,,,,,,,,,,,,,,,,,,,,,,,,,,,,,,,,,,,,,,,,,,,,,,,,,,,,,11024,001,2024_Jan_07_1100,MFTM_A_new1021,2021.2.3,59.569408482212715,
-0.6,-0.6,-0.6,0.6,0.6,left,3:2,L,,,,,,,,,,,1,0,2,1,,,,,,,,,,,,,,,,,,,,,,,,,,,65.54856210004073,None,65.54856210004073,None,65.54856210004073,None,65.54856210004073,None,65.54856210004073,None,65.54856210004073,None,left,1,1.9823712999932468,65.54856210004073,None,67.55075469997246,None,,,,,,,,,,,,,,,,,,,,,,,,,,,,,,,,,,,,,,,,,,,,,,,,,,,,,,,,,,11024,001,2024_Jan_07_1100,MFTM_A_new1021,2021.2.3,59.569408482212715,
0.6,0.6,0.6,-0.6,-0.6,right,3:2,R,,,,,,,,,,,1,1,3,0,,,,,,,,,,,,,,,,,,,,,,,,,,,68.30181820003781,None,68.30181820003781,None,68.30181820003781,None,68.30181820003781,None,68.30181820003781,None,68.30181820003781,None,left,0,2.628068499965593,68.30181820003781,None,70.95510489994194,None,,,,,,,,,,,,,,,,,,,,,,,,,,,,,,,,,,,,,,,,,,,,,,,,,,,,,,,,,,11024,001,2024_Jan_07_1100,MFTM_A_new1021,2021.2.3,59.569408482212715,
,,,,,,,,stim/Instruction_mask.png,conditions/adaptive.xlsx,practice,-0.6,-0.6,-0.6,0.6,0.6,left,L,,,,,0,0,0,0,0,0,0,75,,,,,,,,,,,,,,,,,,,,,,,,,,,,,,,,,,,,,,71.95760720001999,None,space,52.49265330005437,71.95760720001999,None,124.55252799997106,None,left,1,1.4397034000139683,124.98657319997437,None,124.98657319997437,127.99026949994732,124.98657319997437,127.99026949994732,124.98657319997437,127.99026949994732,124.98657319997437,127.99026949994732,124.98657319997437,127.99026949994732,127.97343070001807,128.47511400002986,127.97343070001807,128.47511400002986,127.97343070001807,128.47511400002986,127.97343070001807,128.47511400002986,127.97343070001807,128.47511400002986,127.97343070001807,128.47511400002986,127.97343070001807,128.47511400002986,127.97343070001807,128.47511400002986,124.98657319997437,None,128.47511400002986,128.47511400002986,3,128.4917864999734,None,129.2428941000253,None,,,,,,,,,,11024,001,2024_Jan_07_1100,MFTM_A_new1021,2021.2.3,59.569408482212715,
,,,,,,,,stim/Instruction_mask.png,conditions/adaptive.xlsx,practice,0.6,0.6,0.6,-0.6,-0.6,right,R,,,,,0,0,0,0,0,1,1,94,,,,,,,,,,,,,,,,,,,,,,,,,,,,,,,,,,,,,,,,,,,,129.74362089997157,None,left,0,1.7095025000162423,130.24432309996337,132.2475871000206,130.24432309996337,131.74667729996145,130.24432309996337,131.74667729996145,130.24432309996337,131.74667729996145,130.24432309996337,131.74667729996145,130.24432309996337,131.74667729996145,131.7300527000334,132.23047269997187,131.7300527000334,132.23047269997187,131.7300527000334,132.23047269997187,131.7300527000334,132.23047269997187,131.7300527000334,132.23047269997187,131.7300527000334,132.23047269997187,131.7300527000334,132.23047269997187,131.7300527000334,132.23047269997187,130.24432309996337,None,132.23047269997187,133.7322229000274,1.5,133.75025120005012,None,134.50044900004286,None,,,,,,,,,,11024,001,2024_Jan_07_1100,MFTM_A_new1021,2021.2.3,59.569408482212715,
,,,,,,,,stim/Instruction_mask.png,conditions/adaptive.xlsx,practice,0.6,0.6,0.6,-0.6,-0.6,right,R,,,,,0,0,0,0,0,2,2,30,,,,,,,,,,,,,,,,,,,,,,,,,,,,,,,,,,,,,,,,,,,,135.00109759997576,None,right,1,0.9323884999612346,135.50178789999336,136.80386380001437,135.50178789999336,136.30331410001963,135.50178789999336,136.30331410001963,135.50178789999336,136.30331410001963,135.50178789999336,136.30331410001963,135.50178789999336,136.30331410001963,136.28645809995942,136.7866389999399,136.28645809995942,136.7866389999399,136.28645809995942,136.7866389999399,136.28645809995942,136.7866389999399,136.28645809995942,136.7866389999399,136.28645809995942,136.7866389999399,136.28645809995942,136.7866389999399,136.28645809995942,136.7866389999399,135.50178789999336,None,136.7866389999399,138.99105630000122,0.8,139.0072490000166,None,139.75778840004932,None,,,,,,,,,,11024,001,2024_Jan_07_1100,MFTM_A_new1021,2021.2.3,59.569408482212715,
,,,,,,,,stim/Instruction_mask.png,conditions/adaptive.xlsx,practice,0.6,0.6,0.6,-0.6,-0.6,right,R,,,,,0,0,0,0,0,3,3,60,,,,,,,,,,,,,,,,,,,,,,,,,,,,,,,,,,,,,,,,,,,,140.25953709997702,None,left,0,0.7636519999941811,140.7591368999565,141.51109399995767,140.7591368999565,141.01027800003067,140.7591368999565,141.01027800003067,140.7591368999565,141.01027800003067,140.7591368999565,141.01027800003067,140.7591368999565,141.01027800003067,140.99398749996908,141.494241300039,140.99398749996908,141.494241300039,140.99398749996908,141.494241300039,140.99398749996908,141.494241300039,140.99398749996908,141.494241300039,140.99398749996908,141.494241300039,140.99398749996908,141.494241300039,140.99398749996908,141.494241300039,140.7591368999565,None,141.494241300039,144.24908600002527,3,144.26450279995333,None,145.01531509996857,None,,,,,,,,,,11024,001,2024_Jan_07_1100,MFTM_A_new1021,2021.2.3,59.569408482212715,
,,,,,,,,stim/Instruction_mask.png,conditions/adaptive.xlsx,practice,,,,,,,,,,,,0,0,0,0,,,,,,,,,,,,,,,,,,,,,,,,,,,,,,,,,,,,,,,,,,,,,,,,,,,,,,,,,,,,,,,,,,,,,,,,,,,,,,,,,,,,,,,,,,145.53291069995612,146.53435410000384,146.51906069996767,146.51906069996767,146.51906069996767,None,,,,11024,001,2024_Jan_07_1100,MFTM_A_new1021,2021.2.3,59.569408482212715,
,,,,,,,,stim/Instruction_adaptive.png,conditions/adaptive.xlsx,test,0.6,0.6,0.6,-0.6,-0.6,right,R,,,,,0,1,1,1,0,0,0,24,,,,,,,,,,,,,,,,,,,,,,,,,,,,,,,,,,,,,,149.63867040001787,None,space,61.50836919993162,149.63867040001787,None,211.19844379997812,None,right,1,1.593143800040707,211.681059799972,None,211.681059799972,214.686204800033,211.681059799972,214.686204800033,211.681059799972,214.686204800033,211.681059799972,214.686204800033,211.681059799972,214.686204800033,214.66940809995867,215.1695942999795,214.66940809995867,215.1695942999795,214.66940809995867,215.1695942999795,214.66940809995867,215.1695942999795,214.66940809995867,215.1695942999795,214.66940809995867,215.1695942999795,214.66940809995867,215.1695942999795,214.66940809995867,215.1695942999795,211.681059799972,None,215.1695942999795,215.1695942999795,3,215.18619449995458,None,215.93725670001004,None,,,,,,,0,6.000000000000005,1.0,11024,001,2024_Jan_07_1100,MFTM_A_new1021,2021.2.3,59.569408482212715,
,,,,,,,,stim/Instruction_adaptive.png,conditions/adaptive.xlsx,test,-0.6,-0.6,-0.6,0.6,0.6,left,L,,,,,0,1,1,1,0,1,1,31,,,,,,,,,,,,,,,,,,,,,,,,,,,,,,,,,,,,,,,,,,,,216.43876990000717,None,right,0,0.91064700006973,216.9395635999972,217.6906068000244,216.9395635999972,217.18964220001362,216.9395635999972,217.18964220001362,216.9395635999972,217.18964220001362,216.9395635999972,217.18964220001362,216.9395635999972,217.18964220001362,217.17304899997544,217.67454499995802,217.17304899997544,217.67454499995802,217.17304899997544,217.67454499995802,217.17304899997544,217.67454499995802,217.17304899997544,217.67454499995802,217.17304899997544,217.67454499995802,217.17304899997544,217.67454499995802,217.17304899997544,217.67454499995802,216.9395635999972,None,217.67454499995802,218.55808240000624,0.25,218.5744420000119,None,219.32555720000528,None,,,,,,,[0.875],2.570000000000002,0.5,11024,001,2024_Jan_07_1100,MFTM_A_new1021,2021.2.3,59.569408482212715,
,,,,,,,,stim/Instruction_adaptive.png,conditions/adaptive.xlsx,test,-0.6,-0.6,-0.6,0.6,0.6,left,L,,,,,0,1,1,1,0,2,2,61,,,,,,,,,,,,,,,,,,,,,,,,,,,,,,,,,,,,,,,,,,,,219.82756829995196,None,left,1,0.6348748001037166,220.3281460000435,221.94645119993947,220.3281460000435,221.44548100000247,220.3281460000435,221.44548100000247,220.3281460000435,221.44548100000247,220.3281460000435,221.44548100000247,220.3281460000435,221.44548100000247,221.41277239995543,221.91329389996827,221.41277239995543,221.91329389996827,221.41277239995543,221.91329389996827,221.41277239995543,221.91329389996827,221.41277239995543,221.91329389996827,221.41277239995543,221.91329389996827,221.41277239995543,221.91329389996827,221.41277239995543,221.91329389996827,220.3281460000435,None,221.91329389996827,222.96436730003916,1.1100000000000008,222.99838130001444,None,223.74938249995466,None,,,,,,,[1.04666667],3.3800000000000026,0.6666666666666666,11024,001,2024_Jan_07_1100,MFTM_A_new1021,2021.2.3,59.569408482212715,
,,,,,,,,stim/Instruction_adaptive.png,conditions/adaptive.xlsx,test,-0.6,-0.6,-0.6,0.6,0.6,left,L,,,,,0,1,1,1,0,3,3,1,,,,,,,,,,,,,,,,,,,,,,,,,,,,,,,,,,,,,,,,,,,,224.25044460000936,None,right,0,0.7865916000446305,224.7515057999408,225.88626769999973,224.7515057999408,225.38515250000637,224.7515057999408,225.38515250000637,224.7515057999408,225.38515250000637,224.7515057999408,225.38515250000637,224.7515057999408,225.38515250000637,225.36896330001764,225.86952579999343,225.36896330001764,225.86952579999343,225.36896330001764,225.86952579999343,225.36896330001764,225.86952579999343,225.36896330001764,225.86952579999343,225.36896330001764,225.86952579999343,225.36896330001764,225.86952579999343,225.36896330001764,225.86952579999343,224.7515057999408,None,225.86952579999343,None,0.6300000000000003,227.13718019996304,None,227.88908069999889,None,,,,,,,[1.2525],2.1700000000000017,0.5,11024,001,2024_Jan_07_1100,MFTM_A_new1021,2021.2.3,59.569408482212715,
,,,,,,,,stim/Instruction_adaptive.png,conditions/adaptive.xlsx,test,0.6,0.6,0.6,-0.6,-0.6,right,R,,,,,0,1,1,1,0,4,4,4,,,,,,,,,,,,,,,,,,,,,,,,,,,,,,,,,,,,,,,,,,,,228.38996880000923,None,left,0,0.656584299984388,228.89002599997912,230.86043570004404,228.89002599997912,230.35866409994196,228.89002599997912,230.35866409994196,228.89002599997912,230.35866409994196,228.89002599997912,230.35866409994196,228.89002599997912,230.35866409994196,230.34355850005522,230.84359479998238,230.34355850005522,230.84359479998238,230.34355850005522,230.84359479998238,230.34355850005522,230.84359479998238,230.34355850005522,230.84359479998238,230.34355850005522,230.84359479998238,230.34355850005522,230.84359479998238,230.34355850005522,230.84359479998238,228.89002599997912,None,230.82675859995652,231.8776573999785,1.460000000000001,231.8943389999913,None,232.6452785000438,None,,,,,,,[[1.04]],0.5,0.4,11024,001,2024_Jan_07_1100,MFTM_A_new1021,2021.2.3,59.569408482212715,
,,,,,,,,stim/Instruction_adaptive.png,conditions/adaptive.xlsx,test,0.6,0.6,0.6,-0.6,-0.6,right,R,,,,,0,1,1,1,0,5,5,78,,,,,,,,,,,,,,,,,,,,,,,,,,,,,,,,,,,,,,,,,,,,233.14706099999603,None,left,0,0.794651500065811,233.64746679994278,None,233.64746679994278,236.65223060001153,233.64746679994278,236.65223060001153,233.64746679994278,236.65223060001153,233.64746679994278,236.65223060001153,233.64746679994278,236.65223060001153,236.63524289999623,237.13608119997662,236.63524289999623,237.13608119997662,236.63524289999623,237.13608119997662,236.63524289999623,237.13608119997662,236.63524289999623,237.13608119997662,236.63524289999623,237.13608119997662,236.63524289999623,237.13608119997662,236.63524289999623,237.13608119997662,233.64746679994278,None,237.13608119997662,237.13608119997662,3.0000000000000027,237.15211909997743,None,237.9038053000113,None,,,,,,,0,0.5,0.3333333333333333,11024,001,2024_Jan_07_1100,MFTM_A_new1021,2021.2.3,59.569408482212715,
,,,,,,,,stim/Instruction_adaptive.png,conditions/adaptive.xlsx,test,-0.6,-0.6,-0.6,0.6,0.6,left,L,,,,,0,1,1,1,0,6,6,21,,,,,,,,,,,,,,,,,,,,,,,,,,,,,,,,,,,,,,,,,,,,238.4039537999779,None,right,0,0.9204630000749603,238.90577449998818,None,238.90577449998818,241.90967990003992,238.90577449998818,241.90967990003992,238.90577449998818,241.90967990003992,238.90577449998818,241.90967990003992,238.90577449998818,241.90967990003992,241.89259529998526,242.39404909999575,241.89259529998526,242.39404909999575,241.89259529998526,242.39404909999575,241.89259529998526,242.39404909999575,241.89259529998526,242.39404909999575,241.89259529998526,242.39404909999575,241.89259529998526,242.39404909999575,241.89259529998526,242.39404909999575,238.90577449998818,None,242.39404909999575,242.39404909999575,3.0000000000000027,242.4101587999612,None,243.1615054999711,None,,,,,,,0,0.5,0.2857142857142857,11024,001,2024_Jan_07_1100,MFTM_A_new1021,2021.2.3,59.569408482212715,
,,,,,,,,stim/Instruction_adaptive.png,conditions/adaptive.xlsx,test,0.6,0.6,0.6,-0.6,-0.6,right,R,,,,,0,1,1,1,0,7,7,28,,,,,,,,,,,,,,,,,,,,,,,,,,,,,,,,,,,,,,,,,,,,243.6615728000179,None,right,1,1.431472699972801,244.16294309997465,None,244.16294309997465,247.16766539996024,244.16294309997465,247.16766539996024,244.16294309997465,247.16766539996024,244.16294309997465,247.16766539996024,244.16294309997465,247.16766539996024,247.15013740002178,247.65125360002276,247.15013740002178,247.65125360002276,247.15013740002178,247.65125360002276,247.15013740002178,247.65125360002276,247.15013740002178,247.65125360002276,247.15013740002178,247.65125360002276,247.15013740002178,247.65125360002276,247.15013740002178,247.65125360002276,244.16294309997465,None,247.65125360002276,247.65125360002276,3.0000000000000027,247.66695850004908,None,248.41873080004007,None,,,,,,,0,0.5,0.375,11024,001,2024_Jan_07_1100,MFTM_A_new1021,2021.2.3,59.569408482212715,
,,,,,,,,stim/Instruction_adaptive.png,conditions/adaptive.xlsx,test,0.6,0.6,0.6,-0.6,-0.6,right,R,,,,,0,1,1,1,0,8,8,68,,,,,,,,,,,,,,,,,,,,,,,,,,,,,,,,,,,,,,,,,,,,248.92014219996054,None,right,1,1.1822800000663847,249.4202303000493,None,249.4202303000493,252.42545260000043,249.4202303000493,252.42545260000043,249.4202303000493,252.42545260000043,249.4202303000493,252.42545260000043,249.4202303000493,252.42545260000043,252.40812829998322,252.90938049997203,252.40812829998322,252.90938049997203,252.40812829998322,252.90938049997203,252.40812829998322,252.90938049997203,252.40812829998322,252.90938049997203,252.40812829998322,252.90938049997203,252.40812829998322,252.90938049997203,252.40812829998322,252.90938049997203,249.4202303000493,None,252.90938049997203,252.90938049997203,3.0000000000000027,252.925967499963,None,253.67723829997703,None,,,,,,,0,0.5,0.4444444444444444,11024,001,2024_Jan_07_1100,MFTM_A_new1021,2021.2.3,59.569408482212715,
,,,,,,,,stim/Instruction_adaptive.png,conditions/adaptive.xlsx,test,0.6,0.6,0.6,-0.6,-0.6,right,R,,,,,0,1,1,1,0,9,9,64,,,,,,,,,,,,,,,,,,,,,,,,,,,,,,,,,,,,,,,,,,,,254.1785089999903,None,right,1,1.516025000018999,254.67854720004834,None,254.67854720004834,257.6826477999566,254.67854720004834,257.6826477999566,254.67854720004834,257.6826477999566,254.67854720004834,257.6826477999566,254.67854720004834,257.6826477999566,257.6659755000146,258.1672543999739,257.6659755000146,258.1672543999739,257.6659755000146,258.1672543999739,257.6659755000146,258.1672543999739,257.6659755000146,258.1672543999739,257.6659755000146,258.1672543999739,257.6659755000146,258.1672543999739,257.6659755000146,258.1672543999739,254.67854720004834,None,258.1672543999739,258.1672543999739,3.0000000000000027,258.183255800046,None,258.93494159996044,None,,,,,,,0,0.5,0.5,11024,001,2024_Jan_07_1100,MFTM_A_new1021,2021.2.3,59.569408482212715,
,,,,,,,,stim/Instruction_adaptive.png,conditions/adaptive.xlsx,test,-0.6,-0.6,-0.6,0.6,0.6,left,L,,,,,0,1,1,1,0,10,10,27,,,,,,,,,,,,,,,,,,,,,,,,,,,,,,,,,,,,,,,,,,,,259.43527170002926,None,left,1,1.1872159999329597,259.93581890000496,None,259.93581890000496,262.9401312000118,259.93581890000496,262.9401312000118,259.93581890000496,262.9401312000118,259.93581890000496,262.9401312000118,259.93581890000496,262.9401312000118,262.9244801000459,263.42482199997175,262.9244801000459,263.42482199997175,262.9244801000459,263.42482199997175,262.9244801000459,263.42482199997175,262.9244801000459,263.42482199997175,262.9244801000459,263.42482199997175,262.9244801000459,263.42482199997175,262.9244801000459,263.42482199997175,259.93581890000496,None,263.42482199997175,263.42482199997175,3.0000000000000027,263.44097590004094,None,264.19292219995987,None,,,,,,,0,0.5,0.5454545454545454,11024,001,2024_Jan_07_1100,MFTM_A_new1021,2021.2.3,59.569408482212715,
,,,,,,,,stim/Instruction_adaptive.png,conditions/adaptive.xlsx,test,0.6,0.6,0.6,-0.6,-0.6,right,R,,,,,0,1,1,1,0,11,11,70,,,,,,,,,,,,,,,,,,,,,,,,,,,,,,,,,,,,,,,,,,,,264.69385729997884,None,right,1,1.4084587999386713,265.19383140001446,None,265.19383140001446,268.1987801999785,265.19383140001446,268.1987801999785,265.19383140001446,268.1987801999785,265.19383140001446,268.1987801999785,265.19383140001446,268.1987801999785,268.1821939999936,268.6825769999996,268.1821939999936,268.6825769999996,268.1821939999936,268.6825769999996,268.1821939999936,268.6825769999996,268.1821939999936,268.6825769999996,268.1821939999936,268.6825769999996,268.1821939999936,268.6825769999996,268.1821939999936,268.6825769999996,265.19383140001446,None,268.6825769999996,268.6825769999996,3.0000000000000027,268.6987549000187,None,269.4504836000269,None,,,,,,,0,0.7300000000000002,0.5833333333333334,11024,001,2024_Jan_07_1100,MFTM_A_new1021,2021.2.3,59.569408482212715,
,,,,,,,,stim/Instruction_adaptive.png,conditions/adaptive.xlsx,test,0.6,0.6,0.6,-0.6,-0.6,right,R,,,,,0,1,1,1,0,12,12,90,,,,,,,,,,,,,,,,,,,,,,,,,,,,,,,,,,,,,,,,,,,,269.9509796999628,None,left,0,1.4305035000434145,270.45210929994937,None,270.45210929994937,273.4565774999792,270.45210929994937,273.4565774999792,270.45210929994937,273.4565774999792,270.45210929994937,273.4565774999792,270.45210929994937,273.4565774999792,273.43923559994437,273.9408353000181,273.43923559994437,273.9408353000181,273.43923559994437,273.9408353000181,273.43923559994437,273.9408353000181,273.43923559994437,273.9408353000181,273.43923559994437,273.9408353000181,273.43923559994437,273.9408353000181,273.43923559994437,273.9408353000181,270.45210929994937,None,273.9408353000181,273.9408353000181,3.0000000000000027,273.95642850000877,None,274.7078825000208,None,,,,,,,0,0.5,0.5384615384615384,11024,001,2024_Jan_07_1100,MFTM_A_new1021,2021.2.3,59.569408482212715,
,,,,,,,,stim/Instruction_adaptive.png,conditions/adaptive.xlsx,test,0.6,0.6,0.6,-0.6,-0.6,right,R,,,,,0,1,1,1,0,13,13,62,,,,,,,,,,,,,,,,,,,,,,,,,,,,,,,,,,,,,,,,,,,,275.209310599952,None,right,1,1.4600722999311984,275.71005049999803,None,275.71005049999803,278.71413710003253,275.71005049999803,278.71413710003253,275.71005049999803,278.71413710003253,275.71005049999803,278.71413710003253,275.71005049999803,278.71413710003253,278.6980272999499,279.1984217000427,278.6980272999499,279.1984217000427,278.6980272999499,279.1984217000427,278.6980272999499,279.1984217000427,278.6980272999499,279.1984217000427,278.6980272999499,279.1984217000427,278.6980272999499,279.1984217000427,278.6980272999499,279.1984217000427,275.71005049999803,None,279.1984217000427,279.1984217000427,3.0000000000000027,279.21446769998875,None,279.9662850999739,None,,,,,,,0,0.5,0.5714285714285714,11024,001,2024_Jan_07_1100,MFTM_A_new1021,2021.2.3,59.569408482212715,
,,,,,,,,stim/Instruction_adaptive.png,conditions/adaptive.xlsx,test,-0.6,-0.6,-0.6,0.6,0.6,left,L,,,,,0,1,1,1,0,14,14,55,,,,,,,,,,,,,,,,,,,,,,,,,,,,,,,,,,,,,,,,,,,,280.4667338000145,None,right,0,1.7872183999279514,280.9670235000085,None,280.9670235000085,283.9723290000111,280.9670235000085,283.9723290000111,280.9670235000085,283.9723290000111,280.9670235000085,283.9723290000111,280.9670235000085,283.9723290000111,283.9548610999482,284.45616049994715,283.9548610999482,284.45616049994715,283.9548610999482,284.45616049994715,283.9548610999482,284.45616049994715,283.9548610999482,284.45616049994715,283.9548610999482,284.45616049994715,283.9548610999482,284.45616049994715,283.9548610999482,284.45616049994715,280.9670235000085,None,284.45616049994715,284.45616049994715,3.0000000000000027,284.47290010005236,None,285.2239606999792,None,,,,,,,0,0.5,0.5333333333333333,11024,001,2024_Jan_07_1100,MFTM_A_new1021,2021.2.3,59.569408482212715,
,,,,,,,,stim/Instruction_adaptive.png,conditions/adaptive.xlsx,test,-0.6,-0.6,-0.6,0.6,0.6,left,L,,,,,0,1,1,1,0,15,15,43,,,,,,,,,,,,,,,,,,,,,,,,,,,,,,,,,,,,,,,,,,,,285.72529460000806,None,left,1,0.9534642000216991,286.22467929997947,None,286.22467929997947,289.22997109999415,286.22467929997947,289.22997109999415,286.22467929997947,289.22997109999415,286.22467929997947,289.22997109999415,286.22467929997947,289.22997109999415,289.2125323000364,289.71303900005296,289.2125323000364,289.71303900005296,289.2125323000364,289.71303900005296,289.2125323000364,289.71303900005296,289.2125323000364,289.71303900005296,289.2125323000364,289.71303900005296,289.2125323000364,289.71303900005296,289.2125323000364,289.71303900005296,286.22467929997947,None,289.71303900005296,289.71303900005296,3.0000000000000027,289.73063699994236,None,290.4823451000266,None,,,,,,,0,0.5,0.5625,11024,001,2024_Jan_07_1100,MFTM_A_new1021,2021.2.3,59.569408482212715,
,,,,,,,,stim/Instruction_adaptive.png,conditions/adaptive.xlsx,test,-0.6,-0.6,-0.6,0.6,0.6,left,L,,,,,0,1,1,1,0,16,16,47,,,,,,,,,,,,,,,,,,,,,,,,,,,,,,,,,,,,,,,,,,,,290.98177359998226,None,left,1,1.8628868999658152,291.4832483000355,None,291.4832483000355,294.48775309999473,291.4832483000355,294.48775309999473,291.4832483000355,294.48775309999473,291.4832483000355,294.48775309999473,291.4832483000355,294.48775309999473,294.4714828999713,294.97120310005266,294.4714828999713,294.97120310005266,294.4714828999713,294.97120310005266,294.4714828999713,294.97120310005266,294.4714828999713,294.97120310005266,294.4714828999713,294.97120310005266,294.4714828999713,294.97120310005266,294.4714828999713,294.97120310005266,291.4832483000355,None,294.97120310005266,294.97120310005266,3.0000000000000027,294.9880711999722,None,295.7394967,None,,,,,,,0,0.5,0.5882352941176471,11024,001,2024_Jan_07_1100,MFTM_A_new1021,2021.2.3,59.569408482212715,
,,,,,,,,stim/Instruction_adaptive.png,conditions/adaptive.xlsx,test,0.6,0.6,0.6,-0.6,-0.6,right,R,,,,,0,1,1,1,0,17,17,98,,,,,,,,,,,,,,,,,,,,,,,,,,,,,,,,,,,,,,,,,,,,296.2397262000013,None,right,1,1.2777612999780104,296.74044490000233,None,296.74044490000233,299.74580260005314,296.74044490000233,299.74580260005314,296.74044490000233,299.74580260005314,296.74044490000233,299.74580260005314,296.74044490000233,299.74580260005314,299.7281921999529,300.2296421000501,299.7281921999529,300.2296421000501,299.7281921999529,300.2296421000501,299.7281921999529,300.2296421000501,299.7281921999529,300.2296421000501,299.7281921999529,300.2296421000501,299.7281921999529,300.2296421000501,299.7281921999529,300.2296421000501,296.74044490000233,None,300.2296421000501,300.2296421000501,3.0000000000000027,300.2456696999725,None,300.9974905999843,None,,,,,,,0,0.5900000000000001,0.6111111111111112,11024,001,2024_Jan_07_1100,MFTM_A_new1021,2021.2.3,59.569408482212715,
,,,,,,,,stim/Instruction_adaptive.png,conditions/adaptive.xlsx,test,0.6,0.6,0.6,-0.6,-0.6,right,R,,,,,0,1,1,1,0,18,18,92,,,,,,,,,,,,,,,,,,,,,,,,,,,,,,,,,,,,,,,,,,,,301.49867050000466,None,right,1,1.4434384999331087,301.9988353999797,None,301.9988353999797,305.0033416999504,301.9988353999797,305.0033416999504,301.9988353999797,305.0033416999504,301.9988353999797,305.0033416999504,301.9988353999797,305.0033416999504,304.9870450999588,305.4874533000402,304.9870450999588,305.4874533000402,304.9870450999588,305.4874533000402,304.9870450999588,305.4874533000402,304.9870450999588,305.4874533000402,304.9870450999588,305.4874533000402,304.9870450999588,305.4874533000402,304.9870450999588,305.4874533000402,301.9988353999797,None,305.4874533000402,305.4874533000402,3.0000000000000027,305.50419769994915,None,306.25563489994965,None,,,,,,,0,0.7700000000000002,0.631578947368421,11024,001,2024_Jan_07_1100,MFTM_A_new1021,2021.2.3,59.569408482212715,
,,,,,,,,stim/Instruction_adaptive.png,conditions/adaptive.xlsx,test,-0.6,-0.6,-0.6,0.6,0.6,left,L,,,,,0,1,1,1,0,19,19,97,,,,,,,,,,,,,,,,,,,,,,,,,,,,,,,,,,,,,,,,,,,,306.75613600004,None,left,1,2.0178814999526367,307.2565926000243,None,307.2565926000243,310.2611829000525,307.2565926000243,310.2611829000525,307.2565926000243,310.2611829000525,307.2565926000243,310.2611829000525,307.2565926000243,310.2611829000525,310.24392699997406,310.7451317999512,310.24392699997406,310.7451317999512,310.24392699997406,310.7451317999512,310.24392699997406,310.7451317999512,310.24392699997406,310.7451317999512,310.24392699997406,310.7451317999512,310.24392699997406,310.7451317999512,310.24392699997406,310.7451317999512,307.2565926000243,None,310.7451317999512,310.7451317999512,3.0000000000000027,310.761827899958,None,311.5122910999926,None,,,,,,,0,0.9300000000000004,0.65,11024,001,2024_Jan_07_1100,MFTM_A_new1021,2021.2.3,59.569408482212715,
,,,,,,,,stim/Instruction_adaptive.png,conditions/adaptive.xlsx,test,0.6,0.6,0.6,-0.6,-0.6,right,R,,,,,0,1,1,1,0,20,20,80,,,,,,,,,,,,,,,,,,,,,,,,,,,,,,,,,,,,,,,,,,,,312.01379340002313,None,right,1,1.8319447999820113,312.5143962999573,None,312.5143962999573,315.5189121000003,312.5143962999573,315.5189121000003,312.5143962999573,315.5189121000003,312.5143962999573,315.5189121000003,312.5143962999573,315.5189121000003,315.50154109997675,316.00291799998377,315.50154109997675,316.00291799998377,315.50154109997675,316.00291799998377,315.50154109997675,316.00291799998377,315.50154109997675,316.00291799998377,315.50154109997675,316.00291799998377,315.50154109997675,316.00291799998377,315.50154109997675,316.00291799998377,312.5143962999573,None,316.00291799998377,316.00291799998377,3.0000000000000027,316.01957150001545,None,316.7707386999391,None,,,,,,,0,1.0600000000000005,0.6666666666666666,11024,001,2024_Jan_07_1100,MFTM_A_new1021,2021.2.3,59.569408482212715,
,,,,,,,,stim/Instruction_adaptive.png,conditions/adaptive.xlsx,test,0.6,0.6,0.6,-0.6,-0.6,right,R,,,,,0,1,1,1,0,21,21,14,,,,,,,,,,,,,,,,,,,,,,,,,,,,,,,,,,,,,,,,,,,,317.27197110001,None,right,1,1.7342939999653026,317.7721945999656,None,317.7721945999656,320.776143199997,317.7721945999656,320.776143199997,317.7721945999656,320.776143199997,317.7721945999656,320.776143199997,317.7721945999656,320.776143199997,320.76006360002793,321.2600158000132,320.76006360002793,321.2600158000132,320.76006360002793,321.2600158000132,320.76006360002793,321.2600158000132,320.76006360002793,321.2600158000132,320.76006360002793,321.2600158000132,320.76006360002793,321.2600158000132,320.76006360002793,321.2600158000132,317.7721945999656,None,321.2600158000132,321.2600158000132,3.0000000000000027,321.27691030001733,None,322.0278570000082,None,,,,,,,0,1.1700000000000006,0.6818181818181818,11024,001,2024_Jan_07_1100,MFTM_A_new1021,2021.2.3,59.569408482212715,
,,,,,,,,stim/Instruction_adaptive.png,conditions/adaptive.xlsx,test,-0.6,-0.6,-0.6,0.6,0.6,left,L,,,,,0,1,1,1,0,22,22,99,,,,,,,,,,,,,,,,,,,,,,,,,,,,,,,,,,,,,,,,,,,,322.5294114999706,None,right,0,1.740611300105229,323.02986410004087,None,323.02986410004087,325.95105280005373,323.02986410004087,325.95105280005373,323.02986410004087,325.95105280005373,323.02986410004087,325.95105280005373,323.02986410004087,325.95105280005373,325.93365190003533,326.43543860001955,325.93365190003533,326.43543860001955,325.93365190003533,326.43543860001955,325.93365190003533,326.43543860001955,325.93365190003533,326.43543860001955,325.93365190003533,326.43543860001955,325.93365190003533,326.43543860001955,325.93365190003533,326.43543860001955,323.02986410004087,None,326.43543860001955,326.43543860001955,2.9200000000000026,326.4516525999643,None,327.2028341999976,None,,,,,,,0,0.8600000000000003,0.6521739130434783,11024,001,2024_Jan_07_1100,MFTM_A_new1021,2021.2.3,59.569408482212715,
,,,,,,,,stim/Instruction_adaptive.png,conditions/adaptive.xlsx,test,0.6,0.6,0.6,-0.6,-0.6,right,R,,,,,0,1,1,1,0,23,23,40,,,,,,,,,,,,,,,,,,,,,,,,,,,,,,,,,,,,,,,,,,,,327.7028104000492,None,right,1,1.8299474000232294,328.20434739999473,None,328.20434739999473,331.2085414000321,328.20434739999473,331.2085414000321,328.20434739999473,331.2085414000321,328.20434739999473,331.2085414000321,328.20434739999473,331.2085414000321,331.191290399991,331.6928956999909,331.191290399991,331.6928956999909,331.191290399991,331.6928956999909,331.191290399991,331.6928956999909,331.191290399991,331.6928956999909,331.191290399991,331.6928956999909,331.191290399991,331.6928956999909,331.191290399991,331.6928956999909,328.20434739999473,None,331.6928956999909,331.6928956999909,3.0000000000000027,331.708754900028,None,332.4613660000032,None,,,,,,,0,0.9700000000000004,0.6666666666666666,11024,001,2024_Jan_07_1100,MFTM_A_new1021,2021.2.3,59.569408482212715,
,,,,,,,,stim/Instruction_adaptive.png,conditions/adaptive.xlsx,test,-0.6,-0.6,-0.6,0.6,0.6,left,L,,,,,0,1,1,1,0,24,24,77,,,,,,,,,,,,,,,,,,,,,,,,,,,,,,,,,,,,,,,,,,,,332.9609699000139,None,left,1,1.7083233000012115,333.462054100004,None,333.462054100004,336.46660579997115,333.462054100004,336.46660579997115,333.462054100004,336.46660579997115,333.462054100004,336.46660579997115,333.462054100004,336.46660579997115,336.45049780001864,336.9504858000437,336.45049780001864,336.9504858000437,336.45049780001864,336.9504858000437,336.45049780001864,336.9504858000437,336.45049780001864,336.9504858000437,336.45049780001864,336.9504858000437,336.45049780001864,336.9504858000437,336.45049780001864,336.9504858000437,333.462054100004,None,336.9504858000437,336.9504858000437,3.0000000000000027,336.9666153000435,None,337.7186973999487,None,,,,,,,0,1.0800000000000005,0.68,11024,001,2024_Jan_07_1100,MFTM_A_new1021,2021.2.3,59.569408482212715,
,,,,,,,,stim/Instruction_adaptive.png,conditions/adaptive.xlsx,test,0.6,0.6,0.6,-0.6,-0.6,right,R,,,,,0,1,1,1,0,25,25,94,,,,,,,,,,,,,,,,,,,,,,,,,,,,,,,,,,,,,,,,,,,,338.21919329999946,None,left,0,2.4750978999072686,338.7192661999725,None,338.7192661999725,341.7243591999868,338.7192661999725,341.7243591999868,338.7192661999725,341.7243591999868,338.7192661999725,341.7243591999868,338.7192661999725,341.7243591999868,341.7070726000238,342.2088673999533,341.7070726000238,342.2088673999533,341.7070726000238,342.2088673999533,341.7070726000238,342.2088673999533,341.7070726000238,342.2088673999533,341.7070726000238,342.2088673999533,341.7070726000238,342.2088673999533,341.7070726000238,342.2088673999533,338.7192661999725,None,342.2088673999533,342.2088673999533,3.0000000000000027,342.2237888999516,None,342.9762560999952,None,,,,,,,0,0.8000000000000003,0.6538461538461539,11024,001,2024_Jan_07_1100,MFTM_A_new1021,2021.2.3,59.569408482212715,
,,,,,,,,stim/Instruction_adaptive.png,conditions/adaptive.xlsx,test,0.6,0.6,0.6,-0.6,-0.6,right,R,,,,,0,1,1,1,0,26,26,16,,,,,,,,,,,,,,,,,,,,,,,,,,,,,,,,,,,,,,,,,,,,343.4772022999823,None,right,1,1.7696652000304312,343.9770918999566,None,343.9770918999566,346.98155170003884,343.9770918999566,346.98155170003884,343.9770918999566,346.98155170003884,343.9770918999566,346.98155170003884,343.9770918999566,346.98155170003884,346.9647269999841,347.4654080000473,346.9647269999841,347.4654080000473,346.9647269999841,347.4654080000473,346.9647269999841,347.4654080000473,346.9647269999841,347.4654080000473,346.9647269999841,347.4654080000473,346.9647269999841,347.4654080000473,346.9647269999841,347.4654080000473,343.9770918999566,None,347.4654080000473,347.4654080000473,3.0000000000000027,347.482921399991,None,348.2333464999683,None,,,,,,,0,0.9000000000000004,0.6666666666666666,11024,001,2024_Jan_07_1100,MFTM_A_new1021,2021.2.3,59.569408482212715,
,,,,,,,,stim/Instruction_adaptive.png,conditions/adaptive.xlsx,test,-0.6,-0.6,-0.6,0.6,0.6,left,L,,,,,0,1,1,1,0,27,27,3,,,,,,,,,,,,,,,,,,,,,,,,,,,,,,,,,,,,,,,,,,,,348.7350676000351,None,right,0,1.870870599988848,349.2354482000228,None,349.2354482000228,352.24000320001505,349.2354482000228,352.24000320001505,349.2354482000228,352.24000320001505,349.2354482000228,352.24000320001505,349.2354482000228,352.24000320001505,352.22336269996595,352.7239280999638,352.22336269996595,352.7239280999638,352.22336269996595,352.7239280999638,352.22336269996595,352.7239280999638,352.22336269996595,352.7239280999638,352.22336269996595,352.7239280999638,352.22336269996595,352.7239280999638,352.22336269996595,352.7239280999638,349.2354482000228,None,352.70704380003735,352.70704380003735,3.0000000000000027,352.73955509997904,None,353.49125700001605,None,,,,,,,0,0.6400000000000001,0.6428571428571429,11024,001,2024_Jan_07_1100,MFTM_A_new1021,2021.2.3,59.569408482212715,
,,,,,,,,stim/Instruction_adaptive.png,conditions/adaptive.xlsx,test,0.6,0.6,0.6,-0.6,-0.6,right,R,,,,,0,1,1,1,0,28,28,12,,,,,,,,,,,,,,,,,,,,,,,,,,,,,,,,,,,,,,,,,,,,353.9922674000263,None,left,0,1.9888271999079734,354.49364530004095,None,354.49364530004095,357.4977731000399,354.49364530004095,357.4977731000399,354.49364530004095,357.4977731000399,354.49364530004095,357.4977731000399,354.49364530004095,357.4977731000399,357.4810987999663,357.9817424999783,357.4810987999663,357.9817424999783,357.4810987999663,357.9817424999783,357.4810987999663,357.9817424999783,357.4810987999663,357.9817424999783,357.4810987999663,357.9817424999783,357.4810987999663,357.9817424999783,357.4810987999663,357.9817424999783,354.49364530004095,None,357.9817424999783,357.9817424999783,3.0000000000000027,357.9978751000017,None,358.7495076999767,None,,,,,,,0,0.5,0.6206896551724138,11024,001,2024_Jan_07_1100,MFTM_A_new1021,2021.2.3,59.569408482212715,
,,,,,,,,stim/Instruction_adaptive.png,conditions/adaptive.xlsx,test,-0.6,-0.6,-0.6,0.6,0.6,left,L,,,,,0,1,1,1,0,29,29,69,,,,,,,,,,,,,,,,,,,,,,,,,,,,,,,,,,,,,,,,,,,,359.2506221999647,None,left,1,1.0846242000116035,359.75039439997636,None,359.75039439997636,362.7564433000516,359.75039439997636,362.7564433000516,359.75039439997636,362.7564433000516,359.75039439997636,362.7564433000516,359.75039439997636,362.7564433000516,362.73893550003413,363.2396152999718,362.73893550003413,363.2396152999718,362.73893550003413,363.2396152999718,362.73893550003413,363.2396152999718,362.73893550003413,363.2396152999718,362.73893550003413,363.2396152999718,362.73893550003413,363.2396152999718,362.73893550003413,363.2396152999718,359.75039439997636,None,363.2396152999718,363.2396152999718,3.0000000000000027,363.25541810004506,None,364.00746480003,None,,,,,,,0,0.5,0.6333333333333333,11024,001,2024_Jan_07_1100,MFTM_A_new1021,2021.2.3,59.569408482212715,
,,,,,,,,stim/Instruction_adaptive.png,conditions/adaptive.xlsx,test,0.6,0.6,0.6,-0.6,-0.6,right,R,,,,,0,1,1,1,0,30,30,0,,,,,,,,,,,,,,,,,,,,,,,,,,,,,,,,,,,,,,,,,,,,364.50811689998955,None,right,1,1.6661153000313789,365.00822319998406,None,365.00822319998406,368.0133348000236,365.00822319998406,368.0133348000236,365.00822319998406,368.0133348000236,365.00822319998406,368.0133348000236,365.00822319998406,368.0133348000236,367.99619320000056,368.4968547000317,367.99619320000056,368.4968547000317,367.99619320000056,368.4968547000317,367.99619320000056,368.4968547000317,367.99619320000056,368.4968547000317,367.99619320000056,368.4968547000317,367.99619320000056,368.4968547000317,367.99619320000056,368.4968547000317,365.00822319998406,None,368.4968547000317,368.4968547000317,3.0000000000000027,368.51361639995594,None,369.2651646999875,None,,,,,,,0,0.6100000000000001,0.6451612903225806,11024,001,2024_Jan_07_1100,MFTM_A_new1021,2021.2.3,59.569408482212715,
,,,,,,,,stim/Instruction_adaptive.png,conditions/adaptive.xlsx,test,-0.6,-0.6,-0.6,0.6,0.6,left,L,,,,,0,1,1,1,0,31,31,63,,,,,,,,,,,,,,,,,,,,,,,,,,,,,,,,,,,,,,,,,,,,369.7659675000468,None,left,1,1.3925707000307739,370.26603569998406,None,370.26603569998406,373.2705529000377,370.26603569998406,373.2705529000377,370.26603569998406,373.2705529000377,370.26603569998406,373.2705529000377,370.26603569998406,373.2705529000377,373.2538316999562,373.7552587999962,373.2538316999562,373.7552587999962,373.2538316999562,373.7552587999962,373.2538316999562,373.7552587999962,373.2538316999562,373.7552587999962,373.2538316999562,373.7552587999962,373.2538316999562,373.7552587999962,373.2538316999562,373.7552587999962,370.26603569998406,None,373.7552587999962,373.7552587999962,3.0000000000000027,373.7712567000417,None,374.5227244000416,None,,,,,,,0,0.7100000000000002,0.65625,11024,001,2024_Jan_07_1100,MFTM_A_new1021,2021.2.3,59.569408482212715,
,,,,,,,,stim/Instruction_adaptive.png,conditions/adaptive.xlsx,test,-0.6,-0.6,-0.6,0.6,0.6,left,L,,,,,0,1,1,1,0,32,32,89,,,,,,,,,,,,,,,,,,,,,,,,,,,,,,,,,,,,,,,,,,,,375.02339909994043,None,left,1,2.0221105999080464,375.52440320001915,None,375.52440320001915,378.5286812999984,375.52440320001915,378.5286812999984,375.52440320001915,378.5286812999984,375.52440320001915,378.5286812999984,375.52440320001915,378.5286812999984,378.5117014000425,379.013191999984,378.5117014000425,379.013191999984,378.5117014000425,379.013191999984,378.5117014000425,379.013191999984,378.5117014000425,379.013191999984,378.5117014000425,379.013191999984,378.5117014000425,379.013191999984,378.5117014000425,379.013191999984,375.52440320001915,None,379.013191999984,379.013191999984,3.0000000000000027,379.0289252999937,None,379.78096530004404,None,,,,,,,0,0.8000000000000003,0.6666666666666666,11024,001,2024_Jan_07_1100,MFTM_A_new1021,2021.2.3,59.569408482212715,
,,,,,,,,stim/Instruction_adaptive.png,conditions/adaptive.xlsx,test,0.6,0.6,0.6,-0.6,-0.6,right,R,,,,,0,1,1,1,0,33,33,50,,,,,,,,,,,,,,,,,,,,,,,,,,,,,,,,,,,,,,,,,,,,380.2815050999634,None,right,1,1.828733199974522,380.78160430002026,None,380.78160430002026,383.78704169997945,380.78160430002026,383.78704169997945,380.78160430002026,383.78704169997945,380.78160430002026,383.78704169997945,380.78160430002026,383.78704169997945,383.7701563000446,384.2701645999914,383.7701563000446,384.2701645999914,383.7701563000446,384.2701645999914,383.7701563000446,384.2701645999914,383.7701563000446,384.2701645999914,383.7701563000446,384.2701645999914,383.7701563000446,384.2701645999914,383.7701563000446,384.2701645999914,380.78160430002026,None,384.2701645999914,384.2701645999914,3.0000000000000027,384.28683430003,None,385.0387458000332,None,,,,,,,0,0.8900000000000003,0.6764705882352942,11024,001,2024_Jan_07_1100,MFTM_A_new1021,2021.2.3,59.569408482212715,
,,,,,,,,stim/Instruction_adaptive.png,conditions/adaptive.xlsx,test,-0.6,-0.6,-0.6,0.6,0.6,left,L,,,,,0,1,1,1,0,34,34,91,,,,,,,,,,,,,,,,,,,,,,,,,,,,,,,,,,,,,,,,,,,,385.53906700003427,None,left,1,2.5707278000190854,386.0404491999652,None,386.0404491999652,389.0444502000464,386.0404491999652,389.0444502000464,386.0404491999652,389.0444502000464,386.0404491999652,389.0444502000464,386.0404491999652,389.0444502000464,389.0271075000055,389.52851880004164,389.0271075000055,389.52851880004164,389.0271075000055,389.52851880004164,389.0271075000055,389.52851880004164,389.0271075000055,389.52851880004164,389.0271075000055,389.52851880004164,389.0271075000055,389.52851880004164,389.0271075000055,389.52851880004164,386.0404491999652,None,389.52851880004164,389.52851880004164,3.0000000000000027,389.54448499996215,None,390.29691190004814,None,,,,,,,0,0.9600000000000004,0.6857142857142857,11024,001,2024_Jan_07_1100,MFTM_A_new1021,2021.2.3,59.569408482212715,
,,,,,,,,stim/Instruction_adaptive.png,conditions/adaptive.xlsx,test,0.6,0.6,0.6,-0.6,-0.6,right,R,,,,,0,1,1,1,0,35,35,18,,,,,,,,,,,,,,,,,,,,,,,,,,,,,,,,,,,,,,,,,,,,390.79752400005236,None,right,1,2.024462900008075,391.29794179997407,None,391.29794179997407,394.30279760004487,391.29794179997407,394.30279760004487,391.29794179997407,394.30279760004487,391.29794179997407,394.30279760004487,391.29794179997407,394.30279760004487,394.285894199973,394.7863944999408,394.285894199973,394.7863944999408,394.285894199973,394.7863944999408,394.285894199973,394.7863944999408,394.285894199973,394.7863944999408,394.285894199973,394.7863944999408,394.285894199973,394.7863944999408,394.285894199973,394.7863944999408,391.29794179997407,None,394.7863944999408,394.7863944999408,3.0000000000000027,394.8021938999882,None,395.554065000033,None,,,,,,,0,1.0300000000000005,0.6944444444444444,11024,001,2024_Jan_07_1100,MFTM_A_new1021,2021.2.3,59.569408482212715,
,,,,,,,,stim/Instruction_adaptive.png,conditions/adaptive.xlsx,test,-0.6,-0.6,-0.6,0.6,0.6,left,L,,,,,0,1,1,1,0,36,36,29,,,,,,,,,,,,,,,,,,,,,,,,,,,,,,,,,,,,,,,,,,,,396.0544209999498,None,right,0,1.711383800022304,396.55492150003556,None,396.55492150003556,399.5606432999484,396.55492150003556,399.5606432999484,396.55492150003556,399.5606432999484,396.55492150003556,399.5606432999484,396.55492150003556,399.5606432999484,399.5427809000248,400.0442698999541,399.5427809000248,400.0442698999541,399.5427809000248,400.0442698999541,399.5427809000248,400.0442698999541,399.5427809000248,400.0442698999541,399.5427809000248,400.0442698999541,399.5427809000248,400.0442698999541,399.5427809000248,400.0442698999541,396.55492150003556,None,400.0442698999541,400.0442698999541,3.0000000000000027,400.05993019999005,None,400.81233220000286,None,,,,,,,0,0.8400000000000003,0.6756756756756757,11024,001,2024_Jan_07_1100,MFTM_A_new1021,2021.2.3,59.569408482212715,
,,,,,,,,stim/Instruction_adaptive.png,conditions/adaptive.xlsx,test,-0.6,-0.6,-0.6,0.6,0.6,left,L,,,,,0,1,1,1,0,37,37,45,,,,,,,,,,,,,,,,,,,,,,,,,,,,,,,,,,,,,,,,,,,,401.312753999955,None,left,1,1.9810228999704123,401.8137377999956,None,401.8137377999956,404.8171929999953,401.8137377999956,404.8171929999953,401.8137377999956,404.8171929999953,401.8137377999956,404.8171929999953,401.8137377999956,404.8171929999953,404.8006237000227,405.3024049999658,404.8006237000227,405.3024049999658,404.8006237000227,405.3024049999658,404.8006237000227,405.3024049999658,404.8006237000227,405.3024049999658,404.8006237000227,405.3024049999658,404.8006237000227,405.3024049999658,404.8006237000227,405.3024049999658,401.8137377999956,None,405.3024049999658,405.3024049999658,3.0000000000000027,405.3177633000305,None,406.06975100003183,None,,,,,,,0,0.9200000000000004,0.6842105263157895,11024,001,2024_Jan_07_1100,MFTM_A_new1021,2021.2.3,59.569408482212715,
,,,,,,,,stim/Instruction_adaptive.png,conditions/adaptive.xlsx,test,0.6,0.6,0.6,-0.6,-0.6,right,R,,,,,0,1,1,1,0,38,38,56,,,,,,,,,,,,,,,,,,,,,,,,,,,,,,,,,,,,,,,,,,,,406.5707311000442,None,left,0,2.3552017000038177,407.07112009997945,None,407.07112009997945,410.0764096999774,407.07112009997945,410.0764096999774,407.07112009997945,410.0764096999774,407.07112009997945,410.0764096999774,407.07112009997945,410.0764096999774,410.05881329998374,410.55973640002776,410.05881329998374,410.55973640002776,410.05881329998374,410.55973640002776,410.05881329998374,410.55973640002776,410.05881329998374,410.55973640002776,410.05881329998374,410.55973640002776,410.05881329998374,410.55973640002776,410.05881329998374,410.55973640002776,407.07112009997945,None,410.55973640002776,410.55973640002776,3.0000000000000027,410.5755139000248,None,411.32686429994646,None,,,,,,,0,0.7300000000000002,0.6666666666666666,11024,001,2024_Jan_07_1100,MFTM_A_new1021,2021.2.3,59.569408482212715,
,,,,,,,,stim/Instruction_adaptive.png,conditions/adaptive.xlsx,test,-0.6,-0.6,-0.6,0.6,0.6,left,L,,,,,0,1,1,1,0,39,39,85,,,,,,,,,,,,,,,,,,,,,,,,,,,,,,,,,,,,,,,,,,,,411.82830159994774,None,left,1,1.2734311000676826,412.3289397000335,None,412.3289397000335,415.33344890002627,412.3289397000335,415.33344890002627,412.3289397000335,415.33344890002627,412.3289397000335,415.33344890002627,412.3289397000335,415.33344890002627,415.31678700004704,415.8178099000361,415.31678700004704,415.8178099000361,415.31678700004704,415.8178099000361,415.31678700004704,415.8178099000361,415.31678700004704,415.8178099000361,415.31678700004704,415.8178099000361,415.31678700004704,415.8178099000361,415.31678700004704,415.8178099000361,412.3289397000335,None,415.8178099000361,415.8178099000361,3.0000000000000027,415.8335067000007,None,416.5853430000134,None,,,,,,,0,0.8100000000000003,0.675,11024,001,2024_Jan_07_1100,MFTM_A_new1021,2021.2.3,59.569408482212715,
,,,,,,,,stim/Instruction_adaptive.png,conditions/adaptive.xlsx,test,-0.6,-0.6,-0.6,0.6,0.6,left,L,,,,,0,1,1,1,0,40,40,81,,,,,,,,,,,,,,,,,,,,,,,,,,,,,,,,,,,,,,,,,,,,417.0857835999923,None,left,1,2.0326641999417916,417.5861577000469,None,417.5861577000469,420.5912676999578,417.5861577000469,420.5912676999578,417.5861577000469,420.5912676999578,417.5861577000469,420.5912676999578,417.5861577000469,420.5912676999578,420.5745394000551,421.0746589000337,420.5745394000551,421.0746589000337,420.5745394000551,421.0746589000337,420.5745394000551,421.0746589000337,420.5745394000551,421.0746589000337,420.5745394000551,421.0746589000337,420.5745394000551,421.0746589000337,420.5745394000551,421.0746589000337,417.5861577000469,None,421.0746589000337,421.0746589000337,3.0000000000000027,421.09131259995047,None,421.8430159999989,None,,,,,,,0,0.8700000000000003,0.6829268292682927,11024,001,2024_Jan_07_1100,MFTM_A_new1021,2021.2.3,59.569408482212715,
,,,,,,,,stim/Instruction_adaptive.png,conditions/adaptive.xlsx,test,0.6,0.6,0.6,-0.6,-0.6,right,R,,,,,0,1,1,1,0,41,41,74,,,,,,,,,,,,,,,,,,,,,,,,,,,,,,,,,,,,,,,,,,,,422.34426060004625,None,left,0,1.8777277000481263,422.8445532999467,None,422.8445532999467,425.84850009996444,422.8445532999467,425.84850009996444,422.8445532999467,425.84850009996444,422.8445532999467,425.84850009996444,422.8445532999467,425.84850009996444,425.8316501999507,426.3332003999967,425.8316501999507,426.3332003999967,425.8316501999507,426.3332003999967,425.8316501999507,426.3332003999967,425.8316501999507,426.3332003999967,425.8316501999507,426.3332003999967,425.8316501999507,426.3332003999967,425.8316501999507,426.3332003999967,422.8445532999467,None,426.3332003999967,426.3332003999967,3.0000000000000027,426.3488932000473,None,427.101229300024,None,,,,,,,0,0.7100000000000002,0.6666666666666666,11024,001,2024_Jan_07_1100,MFTM_A_new1021,2021.2.3,59.569408482212715,
,,,,,,,,stim/Instruction_adaptive.png,conditions/adaptive.xlsx,test,-0.6,-0.6,-0.6,0.6,0.6,left,L,,,,,0,1,1,1,0,42,42,51,,,,,,,,,,,,,,,,,,,,,,,,,,,,,,,,,,,,,,,,,,,,427.6017561999615,None,left,1,2.0532856999197975,428.10170680005103,None,428.10170680005103,431.1067116999766,428.10170680005103,431.1067116999766,428.10170680005103,431.1067116999766,428.10170680005103,431.1067116999766,428.10170680005103,431.1067116999766,431.08980069996323,431.59110600000713,431.08980069996323,431.59110600000713,431.08980069996323,431.59110600000713,431.08980069996323,431.59110600000713,431.08980069996323,431.59110600000713,431.08980069996323,431.59110600000713,431.08980069996323,431.59110600000713,431.08980069996323,431.59110600000713,428.10170680005103,None,431.59110600000713,431.59110600000713,3.0000000000000027,431.6067139999941,None,432.3591830000514,None,,,,,,,0,0.7800000000000002,0.6744186046511628,11024,001,2024_Jan_07_1100,MFTM_A_new1021,2021.2.3,59.569408482212715,
,,,,,,,,stim/Instruction_adaptive.png,conditions/adaptive.xlsx,test,0.6,0.6,0.6,-0.6,-0.6,right,R,,,,,0,1,1,1,0,43,43,86,,,,,,,,,,,,,,,,,,,,,,,,,,,,,,,,,,,,,,,,,,,,432.8587558999425,None,right,1,2.0666813000570983,433.3604691999499,None,433.3604691999499,436.36394209996797,433.3604691999499,436.36394209996797,433.3604691999499,436.36394209996797,433.3604691999499,436.36394209996797,433.3604691999499,436.36394209996797,436.34773759997915,436.84790789999533,436.34773759997915,436.84790789999533,436.34773759997915,436.84790789999533,436.34773759997915,436.84790789999533,436.34773759997915,436.84790789999533,436.34773759997915,436.84790789999533,436.34773759997915,436.84790789999533,436.34773759997915,436.84790789999533,433.3604691999499,None,436.84790789999533,436.84790789999533,3.0000000000000027,436.8646273999475,None,437.6163836000487,None,,,,,,,0,0.8400000000000003,0.6818181818181818,11024,001,2024_Jan_07_1100,MFTM_A_new1021,2021.2.3,59.569408482212715,
,,,,,,,,stim/Instruction_adaptive.png,conditions/adaptive.xlsx,test,0.6,0.6,0.6,-0.6,-0.6,right,R,,,,,0,1,1,1,0,44,44,20,,,,,,,,,,,,,,,,,,,,,,,,,,,,,,,,,,,,,,,,,,,,438.1174458999885,None,right,1,1.6163474000059068,438.6181463999674,None,438.6181463999674,441.62185270001646,438.6181463999674,441.62185270001646,438.6181463999674,441.62185270001646,438.6181463999674,441.62185270001646,438.6181463999674,441.62185270001646,441.6050016999943,442.105970100034,441.6050016999943,442.105970100034,441.6050016999943,442.105970100034,441.6050016999943,442.105970100034,441.6050016999943,442.105970100034,441.6050016999943,442.105970100034,441.6050016999943,442.105970100034,441.6050016999943,442.105970100034,438.6181463999674,None,442.105970100034,442.105970100034,3.0000000000000027,442.1233446999686,None,442.87414009997156,None,,,,,,,0,0.9000000000000004,0.6888888888888889,11024,001,2024_Jan_07_1100,MFTM_A_new1021,2021.2.3,59.569408482212715,
,,,,,,,,stim/Instruction_adaptive.png,conditions/adaptive.xlsx,test,0.6,0.6,0.6,-0.6,-0.6,right,R,,,,,0,1,1,1,0,45,45,32,,,,,,,,,,,,,,,,,,,,,,,,,,,,,,,,,,,,,,,,,,,,443.3746160999872,None,right,1,1.607258899952285,443.8751224000007,None,443.8751224000007,446.8797412000131,443.8751224000007,446.8797412000131,443.8751224000007,446.8797412000131,443.8751224000007,446.8797412000131,443.8751224000007,446.8797412000131,446.8630820000544,447.36427130002994,446.8630820000544,447.36427130002994,446.8630820000544,447.36427130002994,446.8630820000544,447.36427130002994,446.8630820000544,447.36427130002994,446.8630820000544,447.36427130002994,446.8630820000544,447.36427130002994,446.8630820000544,447.36427130002994,443.8751224000007,None,447.36427130002994,447.36427130002994,3.0000000000000027,447.3808770000469,None,448.1321584000252,None,,,,,,,0,0.9600000000000004,0.6956521739130435,11024,001,2024_Jan_07_1100,MFTM_A_new1021,2021.2.3,59.569408482212715,
,,,,,,,,stim/Instruction_adaptive.png,conditions/adaptive.xlsx,test,-0.6,-0.6,-0.6,0.6,0.6,left,L,,,,,0,1,1,1,0,46,46,33,,,,,,,,,,,,,,,,,,,,,,,,,,,,,,,,,,,,,,,,,,,,448.6329530000221,None,left,1,1.49284910003189,449.13385139999446,None,449.13385139999446,452.137386300019,449.13385139999446,452.137386300019,449.13385139999446,452.137386300019,449.13385139999446,452.137386300019,449.13385139999446,452.137386300019,452.12129699997604,452.62137459998485,452.12129699997604,452.62137459998485,452.12129699997604,452.62137459998485,452.12129699997604,452.62137459998485,452.12129699997604,452.62137459998485,452.12129699997604,452.62137459998485,452.12129699997604,452.62137459998485,452.12129699997604,452.62137459998485,449.13385139999446,None,452.62137459998485,452.62137459998485,3.0000000000000027,452.63856650004163,None,453.3893456000369,None,,,,,,,0,1.0100000000000005,0.7021276595744681,11024,001,2024_Jan_07_1100,MFTM_A_new1021,2021.2.3,59.569408482212715,
,,,,,,,,stim/Instruction_adaptive.png,conditions/adaptive.xlsx,test,-0.6,-0.6,-0.6,0.6,0.6,left,L,,,,,0,1,1,1,0,47,47,75,,,,,,,,,,,,,,,,,,,,,,,,,,,,,,,,,,,,,,,,,,,,453.8911764000077,None,left,1,1.8360068999463692,454.3912357999943,None,454.3912357999943,457.39514429995324,454.3912357999943,457.39514429995324,454.3912357999943,457.39514429995324,454.3912357999943,457.39514429995324,454.3912357999943,457.39514429995324,457.378467499977,457.8798666000366,457.378467499977,457.8798666000366,457.378467499977,457.8798666000366,457.378467499977,457.8798666000366,457.378467499977,457.8798666000366,457.378467499977,457.8798666000366,457.378467499977,457.8798666000366,457.378467499977,457.8798666000366,454.3912357999943,None,457.8798666000366,457.8798666000366,3.0000000000000027,457.8966978000244,None,458.6476882999996,None,,,,,,,0,1.0600000000000005,0.7083333333333334,11024,001,2024_Jan_07_1100,MFTM_A_new1021,2021.2.3,59.569408482212715,
,,,,,,,,stim/Instruction_adaptive.png,conditions/adaptive.xlsx,test,0.6,0.6,0.6,-0.6,-0.6,right,R,,,,,0,1,1,1,0,48,48,30,,,,,,,,,,,,,,,,,,,,,,,,,,,,,,,,,,,,,,,,,,,,459.1478145000292,None,right,1,1.2418510999996215,459.6484180999687,None,459.6484180999687,462.65323960001115,459.6484180999687,462.65323960001115,459.6484180999687,462.65323960001115,459.6484180999687,462.65323960001115,459.6484180999687,462.65323960001115,462.6371644999599,463.13772690005135,462.6371644999599,463.13772690005135,462.6371644999599,463.13772690005135,462.6371644999599,463.13772690005135,462.6371644999599,463.13772690005135,462.6371644999599,463.13772690005135,462.6371644999599,463.13772690005135,462.6371644999599,463.13772690005135,459.6484180999687,None,463.13772690005135,463.13772690005135,3.0000000000000027,463.15419659996405,None,463.905365100014,None,,,,,,,0,1.1100000000000005,0.7142857142857143,11024,001,2024_Jan_07_1100,MFTM_A_new1021,2021.2.3,59.569408482212715,
,,,,,,,,stim/Instruction_adaptive.png,conditions/adaptive.xlsx,test,0.6,0.6,0.6,-0.6,-0.6,right,R,,,,,0,1,1,1,0,49,49,84,,,,,,,,,,,,,,,,,,,,,,,,,,,,,,,,,,,,,,,,,,,,464.4055720999604,None,right,1,1.848436399945058,464.90616959996987,None,464.90616959996987,467.9114665000234,464.90616959996987,467.9114665000234,464.90616959996987,467.9114665000234,464.90616959996987,467.9114665000234,464.90616959996987,467.9114665000234,467.8941424000077,468.3952272000024,467.8941424000077,468.3952272000024,467.8941424000077,468.3952272000024,467.8941424000077,468.3952272000024,467.8941424000077,468.3952272000024,467.8941424000077,468.3952272000024,467.8941424000077,468.3952272000024,467.8941424000077,468.3952272000024,464.90616959996987,None,468.3952272000024,468.3952272000024,3.0000000000000027,468.4114003999857,None,469.163689399953,None,,,,,,,0,1.1500000000000006,0.72,11024,001,2024_Jan_07_1100,MFTM_A_new1021,2021.2.3,59.569408482212715,
,,,,,,,,stim/Instruction_adaptive.png,conditions/adaptive.xlsx,test,0.6,0.6,0.6,-0.6,-0.6,right,R,,,,,0,1,1,1,0,50,50,38,,,,,,,,,,,,,,,,,,,,,,,,,,,,,,,,,,,,,,,,,,,,469.6644707999658,None,right,1,1.5024018998956308,470.1646165000275,None,470.1646165000275,473.13596750004217,470.1646165000275,473.13596750004217,470.1646165000275,473.13596750004217,470.1646165000275,473.13596750004217,470.1646165000275,473.13596750004217,473.1023109999951,473.6032481000293,473.1023109999951,473.6032481000293,473.1023109999951,473.6032481000293,473.1023109999951,473.6032481000293,473.1023109999951,473.6032481000293,473.1023109999951,473.6032481000293,473.1023109999951,473.6032481000293,473.1023109999951,473.6032481000293,470.1646165000275,None,473.6032481000293,473.6032481000293,2.9600000000000026,473.63668370002415,None,474.38747179997154,None,,,,,,,0,1.1900000000000006,0.7254901960784313,11024,001,2024_Jan_07_1100,MFTM_A_new1021,2021.2.3,59.569408482212715,
,,,,,,,,stim/Instruction_adaptive.png,conditions/adaptive.xlsx,test,0.6,0.6,0.6,-0.6,-0.6,right,R,,,,,0,1,1,1,0,51,51,44,,,,,,,,,,,,,,,,,,,,,,,,,,,,,,,,,,,,,,,,,,,,474.88780040002894,None,right,1,2.902021599933505,475.38862390001304,None,475.38862390001304,478.2768115999643,475.38862390001304,478.2768115999643,475.38862390001304,478.2768115999643,475.38862390001304,478.2768115999643,475.38862390001304,478.2768115999643,478.2601058,478.7609875999624,478.2601058,478.7609875999624,478.2601058,478.7609875999624,478.2601058,478.7609875999624,478.2601058,478.7609875999624,478.2601058,478.7609875999624,478.2601058,478.7609875999624,478.2601058,478.7609875999624,475.38862390001304,None,478.74395060003735,478.74395060003735,2.8800000000000026,478.7768849999411,None,479.52873250003904,None,,,,,,,0,1.2400000000000007,0.7307692307692307,11024,001,2024_Jan_07_1100,MFTM_A_new1021,2021.2.3,59.569408482212715,
,,,,,,,,stim/Instruction_adaptive.png,conditions/adaptive.xlsx,test,-0.6,-0.6,-0.6,0.6,0.6,left,L,,,,,0,1,1,1,0,52,52,49,,,,,,,,,,,,,,,,,,,,,,,,,,,,,,,,,,,,,,,,,,,,480.02919559995644,None,left,1,1.6972475000657141,480.529267200036,None,480.529267200036,483.33418010000605,480.529267200036,483.33418010000605,480.529267200036,483.33418010000605,480.529267200036,483.33418010000605,480.529267200036,483.33418010000605,483.30020860000513,483.80062869994435,483.30020860000513,483.80062869994435,483.30020860000513,483.80062869994435,483.30020860000513,483.80062869994435,483.30020860000513,483.80062869994435,483.30020860000513,483.80062869994435,483.30020860000513,483.80062869994435,483.30020860000513,483.80062869994435,480.529267200036,None,483.80062869994435,483.80062869994435,2.7900000000000023,483.83416299999226,None,484.58608539996203,None,,,,,,,0,1.2700000000000007,0.7358490566037735,11024,001,2024_Jan_07_1100,MFTM_A_new1021,2021.2.3,59.569408482212715,
,,,,,,,,stim/Instruction_adaptive.png,conditions/adaptive.xlsx,test,-0.6,-0.6,-0.6,0.6,0.6,left,L,,,,,0,1,1,1,0,53,53,79,,,,,,,,,,,,,,,,,,,,,,,,,,,,,,,,,,,,,,,,,,,,485.08675160002895,None,left,1,2.4155110999708995,485.5868833999848,None,485.5868833999848,488.324790499988,485.5868833999848,488.324790499988,485.5868833999848,488.324790499988,485.5868833999848,488.324790499988,485.5868833999848,488.324790499988,488.3078704000218,488.80858269997407,488.3078704000218,488.80858269997407,488.3078704000218,488.80858269997407,488.3078704000218,488.80858269997407,488.3078704000218,488.80858269997407,488.3078704000218,488.80858269997407,488.3078704000218,488.80858269997407,488.3078704000218,488.80858269997407,485.5868833999848,None,488.80858269997407,488.80858269997407,2.730000000000002,488.8253166000359,None,489.5769293999765,None,,,,,,,0,1.3100000000000007,0.7407407407407407,11024,001,2024_Jan_07_1100,MFTM_A_new1021,2021.2.3,59.569408482212715,
,,,,,,,,stim/Instruction_adaptive.png,conditions/adaptive.xlsx,test,-0.6,-0.6,-0.6,0.6,0.6,left,L,,,,,0,1,1,1,0,54,54,5,,,,,,,,,,,,,,,,,,,,,,,,,,,,,,,,,,,,,,,,,,,,490.0782676000381,None,left,1,2.679519600002095,490.5789424000541,None,490.5789424000541,493.232308799983,490.5789424000541,493.232308799983,490.5789424000541,493.232308799983,490.5789424000541,493.232308799983,490.5789424000541,493.232308799983,493.21567720000166,493.71678869996686,493.21567720000166,493.71678869996686,493.21567720000166,493.71678869996686,493.21567720000166,493.71678869996686,493.21567720000166,493.71678869996686,493.21567720000166,493.71678869996686,493.21567720000166,493.71678869996686,493.21567720000166,493.71678869996686,490.5789424000541,None,493.71678869996686,493.71678869996686,2.650000000000002,493.7328117999714,None,494.4834706999827,None,,,,,,,0,1.3500000000000008,0.7454545454545455,11024,001,2024_Jan_07_1100,MFTM_A_new1021,2021.2.3,59.569408482212715,
,,,,,,,,stim/Instruction_adaptive.png,conditions/adaptive.xlsx,test,0.6,0.6,0.6,-0.6,-0.6,right,R,,,,,0,1,1,1,0,55,55,46,,,,,,,,,,,,,,,,,,,,,,,,,,,,,,,,,,,,,,,,,,,,494.983979600016,None,right,1,1.8216066000750288,495.4848585999571,None,495.4848585999571,498.07217639999,495.4848585999571,498.07217639999,495.4848585999571,498.07217639999,495.4848585999571,498.07217639999,495.4848585999571,498.07217639999,498.0552224999992,498.55722189997323,498.0552224999992,498.55722189997323,498.0552224999992,498.55722189997323,498.0552224999992,498.55722189997323,498.0552224999992,498.55722189997323,498.0552224999992,498.55722189997323,498.0552224999992,498.55722189997323,498.0552224999992,498.55722189997323,495.4848585999571,None,498.55722189997323,498.55722189997323,2.580000000000002,498.5729041999439,None,499.3245565999532,None,,,,,,,0,1.3800000000000008,0.75,11024,001,2024_Jan_07_1100,MFTM_A_new1021,2021.2.3,59.569408482212715,
,,,,,,,,stim/Instruction_adaptive.png,conditions/adaptive.xlsx,test,0.6,0.6,0.6,-0.6,-0.6,right,R,,,,,0,1,1,1,0,56,56,10,,,,,,,,,,,,,,,,,,,,,,,,,,,,,,,,,,,,,,,,,,,,499.8248395000119,None,right,1,2.3167227000230923,500.32569129997864,None,500.32569129997864,502.86252309998963,500.32569129997864,502.86252309998963,500.32569129997864,502.86252309998963,500.32569129997864,502.86252309998963,500.32569129997864,502.86252309998963,502.84647089999635,503.34746800002176,502.84647089999635,503.34746800002176,502.84647089999635,503.34746800002176,502.84647089999635,503.34746800002176,502.84647089999635,503.34746800002176,502.84647089999635,503.34746800002176,502.84647089999635,503.34746800002176,502.84647089999635,503.34746800002176,500.32569129997864,None,503.34746800002176,503.34746800002176,2.530000000000002,503.3632042000536,None,504.11535950005054,None,,,,,,,0,1.4100000000000008,0.7543859649122807,11024,001,2024_Jan_07_1100,MFTM_A_new1021,2021.2.3,59.569408482212715,
,,,,,,,,stim/Instruction_adaptive.png,conditions/adaptive.xlsx,test,0.6,0.6,0.6,-0.6,-0.6,right,R,,,,,0,1,1,1,0,57,57,6,,,,,,,,,,,,,,,,,,,,,,,,,,,,,,,,,,,,,,,,,,,,504.6151380999945,None,left,0,2.2065595999592915,505.11587870004587,None,505.11587870004587,507.6035463999724,505.11587870004587,507.6035463999724,505.11587870004587,507.6035463999724,505.11587870004587,507.6035463999724,505.11587870004587,507.6035463999724,507.58628869999666,508.08770439994987,507.58628869999666,508.08770439994987,507.58628869999666,508.08770439994987,507.58628869999666,508.08770439994987,507.58628869999666,508.08770439994987,507.58628869999666,508.08770439994987,507.58628869999666,508.08770439994987,507.58628869999666,508.08770439994987,505.11587870004587,None,508.08770439994987,508.08770439994987,2.480000000000002,508.10307980002835,None,508.8557750999462,None,,,,,,,0,1.3200000000000007,0.7413793103448276,11024,001,2024_Jan_07_1100,MFTM_A_new1021,2021.2.3,59.569408482212715,
,,,,,,,,stim/Instruction_adaptive.png,conditions/adaptive.xlsx,test,0.6,0.6,0.6,-0.6,-0.6,right,R,,,,,0,1,1,1,0,58,58,36,,,,,,,,,,,,,,,,,,,,,,,,,,,,,,,,,,,,,,,,,,,,509.3562353999587,None,right,1,1.2585743999807164,509.85620359994937,None,509.85620359994937,512.5105632999912,509.85620359994937,512.5105632999912,509.85620359994937,512.5105632999912,509.85620359994937,512.5105632999912,509.85620359994937,512.5105632999912,512.4774215000216,512.9781104000285,512.4774215000216,512.9781104000285,512.4774215000216,512.9781104000285,512.4774215000216,512.9781104000285,512.4774215000216,512.9781104000285,512.4774215000216,512.9781104000285,512.4774215000216,512.9781104000285,512.4774215000216,512.9781104000285,509.85620359994937,None,512.9781104000285,512.9781104000285,2.6400000000000023,513.0107538000448,None,513.7628699999768,None,,,,,,,0,1.3500000000000008,0.7457627118644068,11024,001,2024_Jan_07_1100,MFTM_A_new1021,2021.2.3,59.569408482212715,
,,,,,,,,stim/Instruction_adaptive.png,conditions/adaptive.xlsx,test,-0.6,-0.6,-0.6,0.6,0.6,left,L,,,,,0,1,1,1,0,59,59,53,,,,,,,,,,,,,,,,,,,,,,,,,,,,,,,,,,,,,,,,,,,,514.2642656000098,None,left,1,1.2387158999918029,514.7640833000187,None,514.7640833000187,517.3515111999586,514.7640833000187,517.3515111999586,514.7640833000187,517.3515111999586,514.7640833000187,517.3515111999586,514.7640833000187,517.3515111999586,517.3173169000074,517.8185690999962,517.3173169000074,517.8185690999962,517.3173169000074,517.8185690999962,517.3173169000074,517.8185690999962,517.3173169000074,517.8185690999962,517.3173169000074,517.8185690999962,517.3173169000074,517.8185690999962,517.3173169000074,517.8185690999962,514.7640833000187,None,517.8185690999962,517.8185690999962,2.580000000000002,517.8530039000325,None,518.6033487999812,None,,,,,,,0,1.3800000000000008,0.75,11024,001,2024_Jan_07_1100,MFTM_A_new1021,2021.2.3,59.569408482212715,
,,,,,,,,stim/Instruction_adaptive.png,conditions/adaptive.xlsx,test,0.6,0.6,0.6,-0.6,-0.6,right,R,,,,,0,1,1,1,0,60,60,8,,,,,,,,,,,,,,,,,,,,,,,,,,,,,,,,,,,,,,,,,,,,519.1040059999796,None,right,1,1.502574700047262,519.6045080999611,None,519.6045080999611,522.1411054000491,519.6045080999611,522.1411054000491,519.6045080999611,522.1411054000491,519.6045080999611,522.1411054000491,519.6045080999611,522.1411054000491,522.1242221000139,522.6259693000466,522.1242221000139,522.6259693000466,522.1242221000139,522.6259693000466,522.1242221000139,522.6259693000466,522.1242221000139,522.6259693000466,522.1242221000139,522.6259693000466,522.1242221000139,522.6259693000466,522.1242221000139,522.6259693000466,519.6045080999611,None,522.6259693000466,522.6259693000466,2.530000000000002,522.6418880999554,None,523.3939233999699,None,,,,,,,0,1.4100000000000008,0.7540983606557377,11024,001,2024_Jan_07_1100,MFTM_A_new1021,2021.2.3,59.569408482212715,
,,,,,,,,stim/Instruction_adaptive.png,conditions/adaptive.xlsx,test,-0.6,-0.6,-0.6,0.6,0.6,left,L,,,,,0,1,1,1,0,61,61,19,,,,,,,,,,,,,,,,,,,,,,,,,,,,,,,,,,,,,,,,,,,,523.8943136000307,None,left,1,1.2401868000160903,524.3943286000285,None,524.3943286000285,526.8820055000251,524.3943286000285,526.8820055000251,524.3943286000285,526.8820055000251,524.3943286000285,526.8820055000251,524.3943286000285,526.8820055000251,526.8646417999407,527.3659553000471,526.8646417999407,527.3659553000471,526.8646417999407,527.3659553000471,526.8646417999407,527.3659553000471,526.8646417999407,527.3659553000471,526.8646417999407,527.3659553000471,526.8646417999407,527.3659553000471,526.8646417999407,527.3659553000471,524.3943286000285,None,527.3659553000471,527.3659553000471,2.480000000000002,527.3823184999637,None,528.1340084000258,None,,,,,,,0,1.4400000000000008,0.7580645161290323,11024,001,2024_Jan_07_1100,MFTM_A_new1021,2021.2.3,59.569408482212715,
,,,,,,,,stim/Instruction_adaptive.png,conditions/adaptive.xlsx,test,-0.6,-0.6,-0.6,0.6,0.6,left,L,,,,,0,1,1,1,0,62,62,71,,,,,,,,,,,,,,,,,,,,,,,,,,,,,,,,,,,,,,,,,,,,528.6341107999906,None,left,1,1.5233834000537172,529.1353143999586,None,529.1353143999586,531.5560701000504,529.1353143999586,531.5560701000504,529.1353143999586,531.5560701000504,529.1353143999586,531.5560701000504,529.1353143999586,531.5560701000504,531.53869820002,532.0390916999895,531.53869820002,532.0390916999895,531.53869820002,532.0390916999895,531.53869820002,532.0390916999895,531.53869820002,532.0390916999895,531.53869820002,532.0390916999895,531.53869820002,532.0390916999895,531.53869820002,532.0390916999895,529.1353143999586,None,532.0390916999895,532.0390916999895,2.4200000000000017,532.0560067000333,None,532.8074468999403,None,,,,,,,0,1.4700000000000009,0.7619047619047619,11024,001,2024_Jan_07_1100,MFTM_A_new1021,2021.2.3,59.569408482212715,
,,,,,,,,stim/Instruction_adaptive.png,conditions/adaptive.xlsx,test,-0.6,-0.6,-0.6,0.6,0.6,left,L,,,,,0,1,1,1,0,63,63,13,,,,,,,,,,,,,,,,,,,,,,,,,,,,,,,,,,,,,,,,,,,,533.3084693000419,None,left,1,1.625573999946937,533.8091040999861,None,533.8091040999861,536.1786504000193,533.8091040999861,536.1786504000193,533.8091040999861,536.1786504000193,533.8091040999861,536.1786504000193,533.8091040999861,536.1786504000193,536.16181770002,536.6639894000255,536.16181770002,536.6639894000255,536.16181770002,536.6639894000255,536.16181770002,536.6639894000255,536.16181770002,536.6639894000255,536.16181770002,536.6639894000255,536.16181770002,536.6639894000255,536.16181770002,536.6639894000255,533.8091040999861,None,536.6639894000255,536.6639894000255,2.370000000000002,536.6795985000208,None,537.4311872000108,None,,,,,,,0,1.5000000000000009,0.765625,11024,001,2024_Jan_07_1100,MFTM_A_new1021,2021.2.3,59.569408482212715,
,,,,,,,,stim/Instruction_adaptive.png,conditions/adaptive.xlsx,test,0.6,0.6,0.6,-0.6,-0.6,right,R,,,,,0,1,1,1,0,64,64,66,,,,,,,,,,,,,,,,,,,,,,,,,,,,,,,,,,,,,,,,,,,,537.9317953999853,None,right,1,2.1782850000308827,538.4322610000381,None,538.4322610000381,540.7687110999832,538.4322610000381,540.7687110999832,538.4322610000381,540.7687110999832,538.4322610000381,540.7687110999832,538.4322610000381,540.7687110999832,540.7520599999698,541.2534850999946,540.7520599999698,541.2534850999946,540.7520599999698,541.2534850999946,540.7520599999698,541.2534850999946,540.7520599999698,541.2534850999946,540.7520599999698,541.2534850999946,540.7520599999698,541.2534850999946,540.7520599999698,541.2534850999946,538.4322610000381,None,541.2534850999946,541.2534850999946,2.330000000000002,541.2698576999828,None,542.0205188000109,None,,,,,,,0,1.530000000000001,0.7692307692307693,11024,001,2024_Jan_07_1100,MFTM_A_new1021,2021.2.3,59.569408482212715,
,,,,,,,,stim/Instruction_adaptive.png,conditions/adaptive.xlsx,test,-0.6,-0.6,-0.6,0.6,0.6,left,L,,,,,0,1,1,1,0,65,65,35,,,,,,,,,,,,,,,,,,,,,,,,,,,,,,,,,,,,,,,,,,,,542.5224069999531,None,left,1,1.348638000083156,543.0219061999815,None,543.0219061999815,545.3087604000466,543.0219061999815,545.3087604000466,543.0219061999815,545.3087604000466,543.0219061999815,545.3087604000466,543.0219061999815,545.3087604000466,545.2758396000136,545.7771092000185,545.2758396000136,545.7771092000185,545.2758396000136,545.7771092000185,545.2758396000136,545.7771092000185,545.2758396000136,545.7771092000185,545.2758396000136,545.7771092000185,545.2758396000136,545.7771092000185,545.2758396000136,545.7771092000185,543.0219061999815,None,545.7771092000185,545.7771092000185,2.280000000000002,545.8101890999824,None,546.5614369000541,None,,,,,,,0,1.550000000000001,0.7727272727272727,11024,001,2024_Jan_07_1100,MFTM_A_new1021,2021.2.3,59.569408482212715,
,,,,,,,,stim/Instruction_adaptive.png,conditions/adaptive.xlsx,test,0.6,0.6,0.6,-0.6,-0.6,right,R,,,,,0,1,1,1,0,66,66,88,,,,,,,,,,,,,,,,,,,,,,,,,,,,,,,,,,,,,,,,,,,,547.062097899965,None,right,1,1.8965287000173703,547.5618944000453,None,547.5618944000453,549.8161826999858,547.5618944000453,549.8161826999858,547.5618944000453,549.8161826999858,547.5618944000453,549.8161826999858,547.5618944000453,549.8161826999858,549.7994041000493,550.3000330999494,549.7994041000493,550.3000330999494,549.7994041000493,550.3000330999494,549.7994041000493,550.3000330999494,549.7994041000493,550.3000330999494,549.7994041000493,550.3000330999494,549.7994041000493,550.3000330999494,549.7994041000493,550.3000330999494,547.5618944000453,None,550.3000330999494,550.3000330999494,2.2500000000000018,550.3170557999983,None,551.0673092999496,None,,,,,,,0,1.580000000000001,0.7761194029850746,11024,001,2024_Jan_07_1100,MFTM_A_new1021,2021.2.3,59.569408482212715,
,,,,,,,,stim/Instruction_adaptive.png,conditions/adaptive.xlsx,test,-0.6,-0.6,-0.6,0.6,0.6,left,L,,,,,0,1,1,1,0,67,67,9,,,,,,,,,,,,,,,,,,,,,,,,,,,,,,,,,,,,,,,,,,,,551.5687663999852,None,left,1,1.8376806000014767,552.0692803999409,None,552.0692803999409,554.2720095999539,552.0692803999409,554.2720095999539,552.0692803999409,554.2720095999539,552.0692803999409,554.2720095999539,552.0692803999409,554.2720095999539,554.2565755000105,554.7560435000341,554.2565755000105,554.7560435000341,554.2565755000105,554.7560435000341,554.2565755000105,554.7560435000341,554.2565755000105,554.7560435000341,554.2565755000105,554.7560435000341,554.2565755000105,554.7560435000341,554.2565755000105,554.7560435000341,552.0692803999409,None,554.7560435000341,554.7560435000341,2.200000000000002,554.7727240000386,None,555.5239349999465,None,,,,,,,0,1.600000000000001,0.7794117647058824,11024,001,2024_Jan_07_1100,MFTM_A_new1021,2021.2.3,59.569408482212715,
,,,,,,,,stim/Instruction_adaptive.png,conditions/adaptive.xlsx,test,-0.6,-0.6,-0.6,0.6,0.6,left,L,,,,,0,1,1,1,0,68,68,17,,,,,,,,,,,,,,,,,,,,,,,,,,,,,,,,,,,,,,,,,,,,556.0255314999959,None,right,0,2.124936099979095,556.5259172000224,None,556.5259172000224,558.6952558000339,556.5259172000224,558.6952558000339,556.5259172000224,558.6952558000339,556.5259172000224,558.6952558000339,556.5259172000224,558.6952558000339,558.6785126000177,559.179339400027,558.6785126000177,559.179339400027,558.6785126000177,559.179339400027,558.6785126000177,559.179339400027,558.6785126000177,559.179339400027,558.6785126000177,559.179339400027,558.6785126000177,559.179339400027,558.6785126000177,559.179339400027,556.5259172000224,None,559.179339400027,559.179339400027,2.1700000000000017,559.19700559997,None,559.9482419999549,None,,,,,,,0,1.530000000000001,0.7681159420289855,11024,001,2024_Jan_07_1100,MFTM_A_new1021,2021.2.3,59.569408482212715,
,,,,,,,,stim/Instruction_adaptive.png,conditions/adaptive.xlsx,test,-0.6,-0.6,-0.6,0.6,0.6,left,L,,,,,0,1,1,1,0,69,69,39,,,,,,,,,,,,,,,,,,,,,,,,,,,,,,,,,,,,,,,,,,,,560.4485719000222,None,left,1,1.7894518000539392,560.9490092999768,None,560.9490092999768,563.2364175999537,560.9490092999768,563.2364175999537,560.9490092999768,563.2364175999537,560.9490092999768,563.2364175999537,560.9490092999768,563.2364175999537,563.2025510000531,563.7036026000278,563.2025510000531,563.7036026000278,563.2025510000531,563.7036026000278,563.2025510000531,563.7036026000278,563.2025510000531,563.7036026000278,563.2025510000531,563.7036026000278,563.2025510000531,563.7036026000278,563.2025510000531,563.7036026000278,560.9490092999768,None,563.7036026000278,563.7036026000278,2.280000000000002,563.7358138000127,None,564.4873268000083,None,,,,,,,0,1.550000000000001,0.7714285714285715,11024,001,2024_Jan_07_1100,MFTM_A_new1021,2021.2.3,59.569408482212715,
,,,,,,,,stim/Instruction_adaptive.png,conditions/adaptive.xlsx,test,-0.6,-0.6,-0.6,0.6,0.6,left,L,,,,,0,1,1,1,0,70,70,57,,,,,,,,,,,,,,,,,,,,,,,,,,,,,,,,,,,,,,,,,,,,564.9889483000152,None,left,1,1.3938859000336379,565.4886996999849,None,565.4886996999849,567.7426782000111,565.4886996999849,567.7426782000111,565.4886996999849,567.7426782000111,565.4886996999849,567.7426782000111,565.4886996999849,567.7426782000111,567.7253409000114,568.2265941000078,567.7253409000114,568.2265941000078,567.7253409000114,568.2265941000078,567.7253409000114,568.2265941000078,567.7253409000114,568.2265941000078,567.7253409000114,568.2265941000078,567.7253409000114,568.2265941000078,567.7253409000114,568.2265941000078,565.4886996999849,None,568.2265941000078,568.2265941000078,2.2500000000000018,568.243038799963,None,568.9938227999955,None,,,,,,,0,1.580000000000001,0.7746478873239436,11024,001,2024_Jan_07_1100,MFTM_A_new1021,2021.2.3,59.569408482212715,
,,,,,,,,stim/Instruction_adaptive.png,conditions/adaptive.xlsx,test,0.6,0.6,0.6,-0.6,-0.6,right,R,,,,,0,1,1,1,0,71,71,34,,,,,,,,,,,,,,,,,,,,,,,,,,,,,,,,,,,,,,,,,,,,569.4952748999931,None,right,1,2.127654300071299,569.9952876999741,None,569.9952876999741,572.1995001999894,569.9952876999741,572.1995001999894,569.9952876999741,572.1995001999894,569.9952876999741,572.1995001999894,569.9952876999741,572.1995001999894,572.1818804000504,572.6837711000117,572.1818804000504,572.6837711000117,572.1818804000504,572.6837711000117,572.1818804000504,572.6837711000117,572.1818804000504,572.6837711000117,572.1818804000504,572.6837711000117,572.1818804000504,572.6837711000117,572.1818804000504,572.6837711000117,569.9952876999741,None,572.6837711000117,572.6837711000117,2.200000000000002,572.6993401000509,None,573.4502855000319,None,,,,,,,0,1.600000000000001,0.7777777777777778,11024,001,2024_Jan_07_1100,MFTM_A_new1021,2021.2.3,59.569408482212715,
,,,,,,,,stim/Instruction_adaptive.png,conditions/adaptive.xlsx,test,-0.6,-0.6,-0.6,0.6,0.6,left,L,,,,,0,1,1,1,0,72,72,25,,,,,,,,,,,,,,,,,,,,,,,,,,,,,,,,,,,,,,,,,,,,573.952194100013,None,left,1,1.7183763000648469,574.452450199984,None,574.452450199984,576.6228472000221,574.452450199984,576.6228472000221,574.452450199984,576.6228472000221,574.452450199984,576.6228472000221,574.452450199984,576.6228472000221,576.6051727000158,577.1067366000498,576.6051727000158,577.1067366000498,576.6051727000158,577.1067366000498,576.6051727000158,577.1067366000498,576.6051727000158,577.1067366000498,576.6051727000158,577.1067366000498,576.6051727000158,577.1067366000498,576.6051727000158,577.1067366000498,574.452450199984,None,577.1067366000498,577.1067366000498,2.1700000000000017,577.1223406000063,None,577.8735180000076,None,,,,,,,0,1.630000000000001,0.7808219178082192,11024,001,2024_Jan_07_1100,MFTM_A_new1021,2021.2.3,59.569408482212715,
,,,,,,,,stim/Instruction_adaptive.png,conditions/adaptive.xlsx,test,-0.6,-0.6,-0.6,0.6,0.6,left,L,,,,,0,1,1,1,0,73,73,11,,,,,,,,,,,,,,,,,,,,,,,,,,,,,,,,,,,,,,,,,,,,578.3753130999394,None,left,1,1.2316641999641433,578.8751905000536,None,578.8751905000536,581.0126206999412,578.8751905000536,581.0126206999412,578.8751905000536,581.0126206999412,578.8751905000536,581.0126206999412,578.8751905000536,581.0126206999412,580.9956945000449,581.496494699968,580.9956945000449,581.496494699968,580.9956945000449,581.496494699968,580.9956945000449,581.496494699968,580.9956945000449,581.496494699968,580.9956945000449,581.496494699968,580.9956945000449,581.496494699968,580.9956945000449,581.496494699968,578.8751905000536,None,581.496494699968,581.496494699968,2.1300000000000017,581.5129326999886,None,582.2633026000112,None,,,,,,,0,1.650000000000001,0.7837837837837838,11024,001,2024_Jan_07_1100,MFTM_A_new1021,2021.2.3,59.569408482212715,
,,,,,,,,stim/Instruction_adaptive.png,conditions/adaptive.xlsx,test,-0.6,-0.6,-0.6,0.6,0.6,left,L,,,,,0,1,1,1,0,74,74,15,,,,,,,,,,,,,,,,,,,,,,,,,,,,,,,,,,,,,,,,,,,,582.7643724000081,None,left,1,1.5612569000804797,583.2652792000445,None,583.2652792000445,585.3688101000153,583.2652792000445,585.3688101000153,583.2652792000445,585.3688101000153,583.2652792000445,585.3688101000153,583.2652792000445,585.3688101000153,585.3523593000136,585.8526396000525,585.3523593000136,585.8526396000525,585.3523593000136,585.8526396000525,585.3523593000136,585.8526396000525,585.3523593000136,585.8526396000525,585.3523593000136,585.8526396000525,585.3523593000136,585.8526396000525,585.3523593000136,585.8526396000525,583.2652792000445,None,585.8526396000525,585.8526396000525,2.1000000000000014,585.8688872000203,None,586.6207306999713,None,,,,,,,0,1.670000000000001,0.7866666666666666,11024,001,2024_Jan_07_1100,MFTM_A_new1021,2021.2.3,59.569408482212715,
,,,,,,,,stim/Instruction_adaptive.png,conditions/adaptive.xlsx,test,0.6,0.6,0.6,-0.6,-0.6,right,R,,,,,0,1,1,1,0,75,75,72,,,,,,,,,,,,,,,,,,,,,,,,,,,,,,,,,,,,,,,,,,,,587.1207155999728,None,left,0,1.5561080999905244,587.622421600041,None,587.622421600041,589.7078852000413,587.622421600041,589.7078852000413,587.622421600041,589.7078852000413,587.622421600041,589.7078852000413,587.622421600041,589.7078852000413,589.6745301999617,590.1764861999545,589.6745301999617,590.1764861999545,589.6745301999617,590.1764861999545,589.6745301999617,590.1764861999545,589.6745301999617,590.1764861999545,589.6745301999617,590.1764861999545,589.6745301999617,590.1764861999545,589.6745301999617,590.1764861999545,587.622421600041,None,590.1764861999545,590.1764861999545,2.0700000000000016,590.1917621999746,None,590.9436162000056,None,,,,,,,0,1.610000000000001,0.7763157894736842,11024,001,2024_Jan_07_1100,MFTM_A_new1021,2021.2.3,59.569408482212715,
,,,,,,,,stim/Instruction_adaptive.png,conditions/adaptive.xlsx,test,-0.6,-0.6,-0.6,0.6,0.6,left,L,,,,,0,1,1,1,0,76,76,23,,,,,,,,,,,,,,,,,,,,,,,,,,,,,,,,,,,,,,,,,,,,591.4437409000238,None,left,1,1.5061625000089407,591.9446047999663,None,591.9446047999663,594.1148562999442,591.9446047999663,594.1148562999442,591.9446047999663,594.1148562999442,591.9446047999663,594.1148562999442,591.9446047999663,594.1148562999442,594.0822733000387,594.5817499000113,594.0822733000387,594.5817499000113,594.0822733000387,594.5817499000113,594.0822733000387,594.5817499000113,594.0822733000387,594.5817499000113,594.0822733000387,594.5817499000113,594.0822733000387,594.5817499000113,594.0822733000387,594.5817499000113,591.9446047999663,None,594.5817499000113,594.5817499000113,2.160000000000002,594.6156901000068,None,595.366898200009,None,,,,,,,0,1.630000000000001,0.7792207792207793,11024,001,2024_Jan_07_1100,MFTM_A_new1021,2021.2.3,59.569408482212715,
,,,,,,,,stim/Instruction_adaptive.png,conditions/adaptive.xlsx,test,0.6,0.6,0.6,-0.6,-0.6,right,R,,,,,0,1,1,1,0,77,77,54,,,,,,,,,,,,,,,,,,,,,,,,,,,,,,,,,,,,,,,,,,,,595.8674397999421,None,right,1,1.5783400000073016,596.368236499955,None,596.368236499955,598.5047737000277,596.368236499955,598.5047737000277,596.368236499955,598.5047737000277,596.368236499955,598.5047737000277,596.368236499955,598.5047737000277,598.4877188999671,598.9894176999805,598.4877188999671,598.9894176999805,598.4877188999671,598.9894176999805,598.4877188999671,598.9894176999805,598.4877188999671,598.9894176999805,598.4877188999671,598.9894176999805,598.4877188999671,598.9894176999805,598.4877188999671,598.9894176999805,596.368236499955,None,598.9894176999805,598.9894176999805,2.1300000000000017,599.0049905000487,None,599.7567614000291,None,,,,,,,0,1.650000000000001,0.782051282051282,11024,001,2024_Jan_07_1100,MFTM_A_new1021,2021.2.3,59.569408482212715,
,,,,,,,,stim/Instruction_adaptive.png,conditions/adaptive.xlsx,test,-0.6,-0.6,-0.6,0.6,0.6,left,L,,,,,0,1,1,1,0,78,78,37,,,,,,,,,,,,,,,,,,,,,,,,,,,,,,,,,,,,,,,,,,,,600.257636000053,None,left,1,2.2847910000709817,600.7583217000356,None,600.7583217000356,602.8616768999491,600.7583217000356,602.8616768999491,600.7583217000356,602.8616768999491,600.7583217000356,602.8616768999491,600.7583217000356,602.8616768999491,602.8445528999437,603.3457241000142,602.8445528999437,603.3457241000142,602.8445528999437,603.3457241000142,602.8445528999437,603.3457241000142,602.8445528999437,603.3457241000142,602.8445528999437,603.3457241000142,602.8445528999437,603.3457241000142,602.8445528999437,603.3457241000142,600.7583217000356,None,603.3457241000142,603.3457241000142,2.1000000000000014,603.3612756000366,None,604.1133345999988,None,,,,,,,0,1.670000000000001,0.7848101265822784,11024,001,2024_Jan_07_1100,MFTM_A_new1021,2021.2.3,59.569408482212715,
,,,,,,,,stim/Instruction_adaptive.png,conditions/adaptive.xlsx,test,0.6,0.6,0.6,-0.6,-0.6,right,R,,,,,0,1,1,1,0,79,79,48,,,,,,,,,,,,,,,,,,,,,,,,,,,,,,,,,,,,,,,,,,,,604.6139861999545,None,right,1,1.656572400010191,605.1140363999875,None,605.1140363999875,607.1837151000509,605.1140363999875,607.1837151000509,605.1140363999875,607.1837151000509,605.1140363999875,607.1837151000509,605.1140363999875,607.1837151000509,607.1677646000171,607.6685249999864,607.1677646000171,607.6685249999864,607.1677646000171,607.6685249999864,607.1677646000171,607.6685249999864,607.1677646000171,607.6685249999864,607.1677646000171,607.6685249999864,607.1677646000171,607.6685249999864,607.1677646000171,607.6685249999864,605.1140363999875,None,607.6685249999864,607.6685249999864,2.0700000000000016,607.6845398000441,None,608.4363983999938,None,,,,,,,0,1.690000000000001,0.7875,11024,001,2024_Jan_07_1100,MFTM_A_new1021,2021.2.3,59.569408482212715,
,,,,,,,,stim/Instruction_adaptive.png,conditions/adaptive.xlsx,test,-0.6,-0.6,-0.6,0.6,0.6,left,L,,,,,0,1,1,1,0,80,80,95,,,,,,,,,,,,,,,,,,,,,,,,,,,,,,,,,,,,,,,,,,,,608.9366532999557,None,left,1,1.2296025999821723,609.4370103999972,None,609.4370103999972,611.491696299985,609.4370103999972,611.491696299985,609.4370103999972,611.491696299985,609.4370103999972,611.491696299985,609.4370103999972,611.491696299985,611.457875299966,611.9600005999673,611.457875299966,611.9600005999673,611.457875299966,611.9600005999673,611.457875299966,611.9600005999673,611.457875299966,611.9600005999673,611.457875299966,611.9600005999673,611.457875299966,611.9600005999673,611.457875299966,611.9600005999673,609.4370103999972,None,611.9600005999673,611.9600005999673,2.040000000000002,611.9741646000184,None,612.7252657000208,None,,,,,,,0,1.710000000000001,0.7901234567901234,11024,001,2024_Jan_07_1100,MFTM_A_new1021,2021.2.3,59.569408482212715,
,,,,,,,,stim/Instruction_adaptive.png,conditions/adaptive.xlsx,test,-0.6,-0.6,-0.6,0.6,0.6,left,L,,,,,0,1,1,1,0,81,81,59,,,,,,,,,,,,,,,,,,,,,,,,,,,,,,,,,,,,,,,,,,,,613.2270130000543,None,left,1,1.2598593999864534,613.7267264999682,None,613.7267264999682,615.7469620000338,613.7267264999682,615.7469620000338,613.7267264999682,615.7469620000338,613.7267264999682,615.7469620000338,613.7267264999682,615.7469620000338,615.7144933999516,616.2145471000113,615.7144933999516,616.2145471000113,615.7144933999516,616.2145471000113,615.7144933999516,616.2145471000113,615.7144933999516,616.2145471000113,615.7144933999516,616.2145471000113,615.7144933999516,616.2145471000113,615.7144933999516,616.2145471000113,613.7267264999682,None,616.2145471000113,616.2145471000113,2.0100000000000016,616.248321800027,None,616.9996182000032,None,,,,,,,0,1.730000000000001,0.7926829268292683,11024,001,2024_Jan_07_1100,MFTM_A_new1021,2021.2.3,59.569408482212715,
,,,,,,,,stim/Instruction_adaptive.png,conditions/adaptive.xlsx,test,-0.6,-0.6,-0.6,0.6,0.6,left,L,,,,,0,1,1,1,0,82,82,67,,,,,,,,,,,,,,,,,,,,,,,,,,,,,,,,,,,,,,,,,,,,617.4999085000018,None,left,1,1.5940362999681383,618.0006795000518,None,618.0006795000518,619.9871768000303,618.0006795000518,619.9871768000303,618.0006795000518,619.9871768000303,618.0006795000518,619.9871768000303,618.0006795000518,619.9871768000303,619.9701549999882,620.470789300045,619.9701549999882,620.470789300045,619.9701549999882,620.470789300045,619.9701549999882,620.470789300045,619.9701549999882,620.470789300045,619.9701549999882,620.470789300045,619.9701549999882,620.470789300045,619.9701549999882,620.470789300045,618.0006795000518,None,620.470789300045,620.470789300045,1.9800000000000015,620.4867606000043,None,621.2385911999736,None,,,,,,,0,1.750000000000001,0.7951807228915663,11024,001,2024_Jan_07_1100,MFTM_A_new1021,2021.2.3,59.569408482212715,
,,,,,,,,stim/Instruction_adaptive.png,conditions/adaptive.xlsx,test,0.6,0.6,0.6,-0.6,-0.6,right,R,,,,,0,1,1,1,0,83,83,2,,,,,,,,,,,,,,,,,,,,,,,,,,,,,,,,,,,,,,,,,,,,621.7396695000352,None,left,0,1.5393906999379396,622.2391689999495,None,622.2391689999495,624.2096416000277,622.2391689999495,624.2096416000277,622.2391689999495,624.2096416000277,622.2391689999495,624.2096416000277,622.2391689999495,624.2096416000277,624.175615599961,624.6772583000129,624.175615599961,624.6772583000129,624.175615599961,624.6772583000129,624.175615599961,624.6772583000129,624.175615599961,624.6772583000129,624.175615599961,624.6772583000129,624.175615599961,624.6772583000129,624.175615599961,624.6772583000129,622.2391689999495,None,624.6772583000129,624.6772583000129,1.9600000000000015,624.709633899969,None,625.4614852999803,None,,,,,,,0,1.690000000000001,0.7857142857142857,11024,001,2024_Jan_07_1100,MFTM_A_new1021,2021.2.3,59.569408482212715,
,,,,,,,,stim/Instruction_adaptive.png,conditions/adaptive.xlsx,test,0.6,0.6,0.6,-0.6,-0.6,right,R,,,,,0,1,1,1,0,84,84,42,,,,,,,,,,,,,,,,,,,,,,,,,,,,,,,,,,,,,,,,,,,,625.9625760000199,None,left,0,1.4997328000608832,626.4633472999558,None,626.4633472999558,628.5158111000201,626.4633472999558,628.5158111000201,626.4633472999558,628.5158111000201,626.4633472999558,628.5158111000201,626.4633472999558,628.5158111000201,628.4825143000344,628.982854199945,628.4825143000344,628.982854199945,628.4825143000344,628.982854199945,628.4825143000344,628.982854199945,628.4825143000344,628.982854199945,628.4825143000344,628.982854199945,628.4825143000344,628.982854199945,628.4825143000344,628.982854199945,626.4633472999558,None,628.982854199945,628.982854199945,2.040000000000002,629.0157064000377,None,629.7679228000343,None,,,,,,,0,1.630000000000001,0.7764705882352941,11024,001,2024_Jan_07_1100,MFTM_A_new1021,2021.2.3,59.569408482212715,
,,,,,,,,stim/Instruction_adaptive.png,conditions/adaptive.xlsx,test,-0.6,-0.6,-0.6,0.6,0.6,left,L,,,,,0,1,1,1,0,85,85,41,,,,,,,,,,,,,,,,,,,,,,,,,,,,,,,,,,,,,,,,,,,,630.2688717000419,None,left,1,1.5706716000568122,630.7686640999746,None,630.7686640999746,632.9063923000358,630.7686640999746,632.9063923000358,630.7686640999746,632.9063923000358,630.7686640999746,632.9063923000358,630.7686640999746,632.9063923000358,632.8896242999472,633.3896662000334,632.8896242999472,633.3896662000334,632.8896242999472,633.3896662000334,632.8896242999472,633.3896662000334,632.8896242999472,633.3896662000334,632.8896242999472,633.3896662000334,632.8896242999472,633.3896662000334,632.8896242999472,633.3896662000334,630.7686640999746,None,633.3896662000334,633.3896662000334,2.1300000000000017,633.405670600012,None,634.1570795000298,None,,,,,,,0,1.650000000000001,0.7790697674418605,11024,001,2024_Jan_07_1100,MFTM_A_new1021,2021.2.3,59.569408482212715,
,,,,,,,,stim/Instruction_adaptive.png,conditions/adaptive.xlsx,test,0.6,0.6,0.6,-0.6,-0.6,right,R,,,,,0,1,1,1,0,86,86,26,,,,,,,,,,,,,,,,,,,,,,,,,,,,,,,,,,,,,,,,,,,,634.6584213000024,None,right,1,1.868436999968253,635.1585674999515,None,635.1585674999515,637.2624897999922,635.1585674999515,637.2624897999922,635.1585674999515,637.2624897999922,635.1585674999515,637.2624897999922,635.1585674999515,637.2624897999922,637.2456030000467,637.7464499999769,637.2456030000467,637.7464499999769,637.2456030000467,637.7464499999769,637.2456030000467,637.7464499999769,637.2456030000467,637.7464499999769,637.2456030000467,637.7464499999769,637.2456030000467,637.7464499999769,637.2456030000467,637.7464499999769,635.1585674999515,None,637.7464499999769,637.7464499999769,2.1000000000000014,637.7623525999952,None,638.5142763999756,None,,,,,,,0,1.670000000000001,0.7816091954022989,11024,001,2024_Jan_07_1100,MFTM_A_new1021,2021.2.3,59.569408482212715,
,,,,,,,,stim/Instruction_adaptive.png,conditions/adaptive.xlsx,test,0.6,0.6,0.6,-0.6,-0.6,right,R,,,,,0,1,1,1,0,87,87,58,,,,,,,,,,,,,,,,,,,,,,,,,,,,,,,,,,,,,,,,,,,,639.0149853000185,None,right,1,1.4561930999625474,639.5150623000227,None,639.5150623000227,641.5850043999963,639.5150623000227,641.5850043999963,639.5150623000227,641.5850043999963,639.5150623000227,641.5850043999963,639.5150623000227,641.5850043999963,641.5680646999972,642.0686928000068,641.5680646999972,642.0686928000068,641.5680646999972,642.0686928000068,641.5680646999972,642.0686928000068,641.5680646999972,642.0686928000068,641.5680646999972,642.0686928000068,641.5680646999972,642.0686928000068,641.5680646999972,642.0686928000068,639.5150623000227,None,642.0686928000068,642.0686928000068,2.0700000000000016,642.0855476999423,None,642.8376922999742,None,,,,,,,0,1.690000000000001,0.7840909090909091,11024,001,2024_Jan_07_1100,MFTM_A_new1021,2021.2.3,59.569408482212715,
,,,,,,,,stim/Instruction_adaptive.png,conditions/adaptive.xlsx,test,0.6,0.6,0.6,-0.6,-0.6,right,R,,,,,0,1,1,1,0,88,88,22,,,,,,,,,,,,,,,,,,,,,,,,,,,,,,,,,,,,,,,,,,,,643.3385644999798,None,left,0,2.0605653000529855,643.8380679000402,None,643.8380679000402,645.8918452999787,643.8380679000402,645.8918452999787,643.8380679000402,645.8918452999787,643.8380679000402,645.8918452999787,643.8380679000402,645.8918452999787,645.8583487999858,646.3592224000022,645.8583487999858,646.3592224000022,645.8583487999858,646.3592224000022,645.8583487999858,646.3592224000022,645.8583487999858,646.3592224000022,645.8583487999858,646.3592224000022,645.8583487999858,646.3592224000022,645.8583487999858,646.3592224000022,643.8380679000402,None,646.3592224000022,646.3592224000022,2.040000000000002,646.3925650999881,None,647.1436777999625,None,,,,,,,0,1.640000000000001,0.7752808988764045,11024,001,2024_Jan_07_1100,MFTM_A_new1021,2021.2.3,59.569408482212715,
,,,,,,,,stim/Instruction_adaptive.png,conditions/adaptive.xlsx,test,0.6,0.6,0.6,-0.6,-0.6,right,R,,,,,0,1,1,1,0,89,89,76,,,,,,,,,,,,,,,,,,,,,,,,,,,,,,,,,,,,,,,,,,,,647.6443088999949,None,right,1,1.697362900013104,648.1454721000046,None,648.1454721000046,650.2649906999432,648.1454721000046,650.2649906999432,648.1454721000046,650.2649906999432,648.1454721000046,650.2649906999432,648.1454721000046,650.2649906999432,650.2314662999706,650.7328294999897,650.2314662999706,650.7328294999897,650.2314662999706,650.7328294999897,650.2314662999706,650.7328294999897,650.2314662999706,650.7328294999897,650.2314662999706,650.7328294999897,650.2314662999706,650.7328294999897,650.2314662999706,650.7328294999897,648.1454721000046,None,650.7328294999897,650.7328294999897,2.1100000000000017,650.7644057000289,None,651.516301900032,None,,,,,,,0,1.660000000000001,0.7777777777777778,11024,001,2024_Jan_07_1100,MFTM_A_new1021,2021.2.3,59.569408482212715,
,,,,,,,,stim/Instruction_adaptive.png,conditions/adaptive.xlsx,test,0.6,0.6,0.6,-0.6,-0.6,right,R,,,,,0,1,1,1,0,90,90,82,,,,,,,,,,,,,,,,,,,,,,,,,,,,,,,,,,,,,,,,,,,,652.0179441999644,None,right,1,1.4051439000759274,652.5176151000196,None,652.5176151000196,654.6043826000532,652.5176151000196,654.6043826000532,652.5176151000196,654.6043826000532,652.5176151000196,654.6043826000532,652.5176151000196,654.6043826000532,654.5873569999821,655.0889216000214,654.5873569999821,655.0889216000214,654.5873569999821,655.0889216000214,654.5873569999821,655.0889216000214,654.5873569999821,655.0889216000214,654.5873569999821,655.0889216000214,654.5873569999821,655.0889216000214,654.5873569999821,655.0889216000214,652.5176151000196,None,655.0889216000214,655.0889216000214,2.080000000000002,655.1057179999771,None,655.8569592999993,None,,,,,,,0,1.670000000000001,0.7802197802197802,11024,001,2024_Jan_07_1100,MFTM_A_new1021,2021.2.3,59.569408482212715,
,,,,,,,,stim/Instruction_adaptive.png,conditions/adaptive.xlsx,test,-0.6,-0.6,-0.6,0.6,0.6,left,L,,,,,0,1,1,1,0,91,91,73,,,,,,,,,,,,,,,,,,,,,,,,,,,,,,,,,,,,,,,,,,,,656.3574658000143,None,left,1,1.705412800074555,656.8573392999824,None,656.8573392999824,658.9279353000456,656.8573392999824,658.9279353000456,656.8573392999824,658.9279353000456,656.8573392999824,658.9279353000456,656.8573392999824,658.9279353000456,658.9111268999986,659.4114566999488,658.9111268999986,659.4114566999488,658.9111268999986,659.4114566999488,658.9111268999986,659.4114566999488,658.9111268999986,659.4114566999488,658.9111268999986,659.4114566999488,658.9111268999986,659.4114566999488,658.9111268999986,659.4114566999488,656.8573392999824,None,659.4114566999488,659.4114566999488,2.0700000000000016,659.4281354999403,None,660.1799418999581,None,,,,,,,0,1.690000000000001,0.782608695652174,11024,001,2024_Jan_07_1100,MFTM_A_new1021,2021.2.3,59.569408482212715,
,,,,,,,,stim/Instruction_adaptive.png,conditions/adaptive.xlsx,test,-0.6,-0.6,-0.6,0.6,0.6,left,L,,,,,0,1,1,1,0,92,92,65,,,,,,,,,,,,,,,,,,,,,,,,,,,,,,,,,,,,,,,,,,,,660.6803685999475,None,left,1,1.7422961000120267,661.180926400004,None,661.180926400004,663.2333779999753,661.180926400004,663.2333779999753,661.180926400004,663.2333779999753,661.180926400004,663.2333779999753,661.180926400004,663.2333779999753,663.2004011999816,663.7016627000412,663.2004011999816,663.7016627000412,663.2004011999816,663.7016627000412,663.2004011999816,663.7016627000412,663.2004011999816,663.7016627000412,663.2004011999816,663.7016627000412,663.2004011999816,663.7016627000412,663.2004011999816,663.7016627000412,661.180926400004,None,663.7016627000412,663.7016627000412,2.040000000000002,663.7354016000172,None,664.4866504999809,None,,,,,,,0,1.710000000000001,0.7849462365591398,11024,001,2024_Jan_07_1100,MFTM_A_new1021,2021.2.3,59.569408482212715,
,,,,,,,,stim/Instruction_adaptive.png,conditions/adaptive.xlsx,test,-0.6,-0.6,-0.6,0.6,0.6,left,L,,,,,0,1,1,1,0,93,93,87,,,,,,,,,,,,,,,,,,,,,,,,,,,,,,,,,,,,,,,,,,,,664.9868602999486,None,left,1,1.4838842999888584,665.4873250999954,None,665.4873250999954,667.5069398999913,665.4873250999954,667.5069398999913,665.4873250999954,667.5069398999913,665.4873250999954,667.5069398999913,665.4873250999954,667.5069398999913,667.4737218000228,667.9749291000189,667.4737218000228,667.9749291000189,667.4737218000228,667.9749291000189,667.4737218000228,667.9749291000189,667.4737218000228,667.9749291000189,667.4737218000228,667.9749291000189,667.4737218000228,667.9749291000189,667.4737218000228,667.9749291000189,665.4873250999954,None,667.9749291000189,667.9749291000189,2.0100000000000016,668.0078463000245,None,668.7583838000428,None,,,,,,,0,1.730000000000001,0.7872340425531915,11024,001,2024_Jan_07_1100,MFTM_A_new1021,2021.2.3,59.569408482212715,
,,,,,,,,stim/Instruction_adaptive.png,conditions/adaptive.xlsx,test,0.6,0.6,0.6,-0.6,-0.6,right,R,,,,,0,1,1,1,0,94,94,52,,,,,,,,,,,,,,,,,,,,,,,,,,,,,,,,,,,,,,,,,,,,669.2604387999745,None,right,1,1.4742165000643581,669.7605698000407,None,669.7605698000407,671.7472944000037,669.7605698000407,671.7472944000037,669.7605698000407,671.7472944000037,669.7605698000407,671.7472944000037,669.7605698000407,671.7472944000037,671.7299183999421,672.2306987999473,671.7299183999421,672.2306987999473,671.7299183999421,672.2306987999473,671.7299183999421,672.2306987999473,671.7299183999421,672.2306987999473,671.7299183999421,672.2306987999473,671.7299183999421,672.2306987999473,671.7299183999421,672.2306987999473,669.7605698000407,None,672.2139733999502,672.2139733999502,1.9800000000000015,672.2475141000468,None,672.9987520000432,None,,,,,,,0,1.750000000000001,0.7894736842105263,11024,001,2024_Jan_07_1100,MFTM_A_new1021,2021.2.3,59.569408482212715,
,,,,,,,,stim/Instruction_adaptive.png,conditions/adaptive.xlsx,test,0.6,0.6,0.6,-0.6,-0.6,right,R,,,,,0,1,1,1,0,95,95,96,,,,,,,,,,,,,,,,,,,,,,,,,,,,,,,,,,,,,,,,,,,,673.4991669999436,None,right,1,1.1954198000021279,673.9992053000024,None,673.9992053000024,675.9697500000475,673.9992053000024,675.9697500000475,673.9992053000024,675.9697500000475,673.9992053000024,675.9697500000475,673.9992053000024,675.9697500000475,675.9523924000096,676.4537888000486,675.9523924000096,676.4537888000486,675.9523924000096,676.4537888000486,675.9523924000096,676.4537888000486,675.9523924000096,676.4537888000486,675.9523924000096,676.4537888000486,675.9523924000096,676.4537888000486,675.9523924000096,676.4537888000486,673.9992053000024,None,676.4371511000209,676.4371511000209,1.9600000000000015,676.4703743000282,None,677.2219163000118,None,,,,,,,0,1.7600000000000011,0.7916666666666666,11024,001,2024_Jan_07_1100,MFTM_A_new1021,2021.2.3,59.569408482212715,
