arrwidth1,arrwidth2,arrwidth3,arrwidth4,arrwidth5,keyb,type,orientation,instruction_image,block_filename,block_type,arrow11,arrow22,arrow33,arrow44,arrow55,keyb_3,orientation3,trials.thisRepN,trials.thisTrialN,trials.thisN,trials.thisIndex,trials_3.thisRepN,trials_3.thisTrialN,trials_3.thisN,trials_3.thisIndex,trials_2.thisRepN,trials_2.thisTrialN,trials_2.thisN,trials_2.thisIndex,welcome.started,welcome.stopped,key_resp.keys,key_resp.rt,key_resp.started,key_resp.stopped,instruction_example.started,instruction_example.stopped,key_resp_3.keys,key_resp_3.rt,key_resp_3.started,key_resp_3.stopped,instruction_task.started,instruction_task.stopped,key_resp_2.keys,key_resp_2.rt,key_resp_2.started,key_resp_2.stopped,text_2.started,text_2.stopped,A1.started,A1.stopped,A2.started,A2.stopped,A3.started,A3.stopped,A4.started,A4.stopped,A5.started,A5.stopped,key_resp_4.keys,key_resp_4.corr,key_resp_4.rt,key_resp_4.started,key_resp_4.stopped,fb.started,fb.stopped,instruction_block.started,instruction_block.stopped,key_resp_8.keys,key_resp_8.rt,key_resp_8.started,key_resp_8.stopped,text_8.started,text_8.stopped,key_resp_9.keys,key_resp_9.corr,key_resp_9.rt,text_5.started,text_5.stopped,A11_3.started,A11_3.stopped,A22_2.started,A22_2.stopped,A33_2.started,A33_2.stopped,A44_2.started,A44_2.stopped,A55_2.started,A55_2.stopped,M1_3.started,M1_3.stopped,M2_2.started,M2_2.stopped,M3_2.started,M3_2.stopped,M4_2.started,M4_2.stopped,M5_2.started,M5_2.stopped,M6_2.started,M6_2.stopped,M7_2.started,M7_2.stopped,M8_2.started,M8_2.stopped,key_resp_9.started,key_resp_9.stopped,fixation.started,fixation.stopped,ET,fb_3.started,fb_3.stopped,text_9.started,text_9.stopped,fb_4.started,fb_4.stopped,text_7.started,text_7.stopped,endtext.started,endtext.stopped,fixation_ITI,CCC,Acc,participant,session,date,expName,psychopyVersion,frameRate,
,,,,,,,,,,,,,,,,,,,,,,,,,,,,,,15.289258299977519,None,space,6.700540199992247,15.289258299977519,None,,,,,,,,,,,,,,,,,,,,,,,,,,,,,,,,,,,,,,,,,,,,,,,,,,,,,,,,,,,,,,,,,,,,,,,,,,,,,,,,,,,,,,,,,11020,001,2024_Jan_05_1012,MFTM_A_new1021,2021.2.3,60.02959459185393,
,,,,,,,,,,,,,,,,,,,,,,,,,,,,,,,,,,,,22.015768399927765,None,right,18.669572700047866,22.015768399927765,None,,,,,,,,,,,,,,,,,,,,,,,,,,,,,,,,,,,,,,,,,,,,,,,,,,,,,,,,,,,,,,,,,,,,,,,,,,,,,,,,,,,11020,001,2024_Jan_05_1012,MFTM_A_new1021,2021.2.3,60.02959459185393,
,,,,,,,,,,,,,,,,,,,,,,,,,,,,,,,,,,,,,,,,,,40.71053029992618,None,right,8.343681500060484,40.71053029992618,None,,,,,,,,,,,,,,,,,,,,,,,,,,,,,,,,,,,,,,,,,,,,,,,,,,,,,,,,,,,,,,,,,,,,,,,,,,,,,11020,001,2024_Jan_05_1012,MFTM_A_new1021,2021.2.3,60.02959459185393,
-0.6,-0.6,-0.6,0.6,0.6,left,3:2,L,,,,,,,,,,,0,0,0,1,,,,,,,,,,,,,,,,,,,,,,,,,,,49.089931099908426,None,49.089931099908426,None,49.089931099908426,None,49.089931099908426,None,49.089931099908426,None,49.089931099908426,None,left,1,1.2195255000842735,49.089931099908426,None,50.341829799930565,None,,,,,,,,,,,,,,,,,,,,,,,,,,,,,,,,,,,,,,,,,,,,,,,,,,,,,,,,,,11020,001,2024_Jan_05_1012,MFTM_A_new1021,2021.2.3,60.02959459185393,
0.6,0.6,0.6,-0.6,-0.6,right,3:2,R,,,,,,,,,,,0,1,1,0,,,,,,,,,,,,,,,,,,,,,,,,,,,51.09286599990446,None,51.09286599990446,None,51.09286599990446,None,51.09286599990446,None,51.09286599990446,None,51.09286599990446,None,right,1,2.352923300000839,51.09286599990446,None,53.4625482999254,None,,,,,,,,,,,,,,,,,,,,,,,,,,,,,,,,,,,,,,,,,,,,,,,,,,,,,,,,,,11020,001,2024_Jan_05_1012,MFTM_A_new1021,2021.2.3,60.02959459185393,
0.6,0.6,0.6,-0.6,-0.6,right,3:2,R,,,,,,,,,,,1,0,2,0,,,,,,,,,,,,,,,,,,,,,,,,,,,54.21439549990464,None,54.21439549990464,None,54.21439549990464,None,54.21439549990464,None,54.21439549990464,None,54.21439549990464,None,right,1,1.8149197000311688,54.21439549990464,None,56.04971959989052,None,,,,,,,,,,,,,,,,,,,,,,,,,,,,,,,,,,,,,,,,,,,,,,,,,,,,,,,,,,11020,001,2024_Jan_05_1012,MFTM_A_new1021,2021.2.3,60.02959459185393,
-0.6,-0.6,-0.6,0.6,0.6,left,3:2,L,,,,,,,,,,,1,1,3,1,,,,,,,,,,,,,,,,,,,,,,,,,,,56.801160499919206,None,56.801160499919206,None,56.801160499919206,None,56.801160499919206,None,56.801160499919206,None,56.801160499919206,None,left,1,1.9483284000307322,56.801160499919206,None,58.77036009996664,None,,,,,,,,,,,,,,,,,,,,,,,,,,,,,,,,,,,,,,,,,,,,,,,,,,,,,,,,,,11020,001,2024_Jan_05_1012,MFTM_A_new1021,2021.2.3,60.02959459185393,
,,,,,,,,stim/Instruction_mask.png,conditions/adaptive.xlsx,practice,-0.6,-0.6,-0.6,0.6,0.6,left,L,,,,,0,0,0,0,0,0,0,27,,,,,,,,,,,,,,,,,,,,,,,,,,,,,,,,,,,,,,59.722484099911526,None,right,32.64279039995745,59.722484099911526,None,92.4706875999691,None,left,1,2.2930704000173137,92.90432219998911,None,92.90432219998911,95.9086837999057,92.90432219998911,95.9086837999057,92.90432219998911,95.9086837999057,92.90432219998911,95.9086837999057,92.90432219998911,95.9086837999057,95.89222899999004,96.39303749997634,95.89222899999004,96.39303749997634,95.89222899999004,96.39303749997634,95.89222899999004,96.39303749997634,95.89222899999004,96.39303749997634,95.89222899999004,96.39303749997634,95.89222899999004,96.39303749997634,95.89222899999004,96.39303749997634,92.90432219998911,None,96.39303749997634,96.39303749997634,3,96.40946779993828,None,97.16073569993023,None,,,,,,,,,,11020,001,2024_Jan_05_1012,MFTM_A_new1021,2021.2.3,60.02959459185393,
,,,,,,,,stim/Instruction_mask.png,conditions/adaptive.xlsx,practice,0.6,0.6,0.6,-0.6,-0.6,right,R,,,,,0,0,0,0,0,1,1,76,,,,,,,,,,,,,,,,,,,,,,,,,,,,,,,,,,,,,,,,,,,,97.66169619990978,None,right,1,1.1871674999129027,98.16214749997016,100.16528609988745,98.16214749997016,99.66436539997812,98.16214749997016,99.66436539997812,98.16214749997016,99.66436539997812,98.16214749997016,99.66436539997812,98.16214749997016,99.66436539997812,99.64848889992572,100.14938679989427,99.64848889992572,100.14938679989427,99.64848889992572,100.14938679989427,99.64848889992572,100.14938679989427,99.64848889992572,100.14938679989427,99.64848889992572,100.14938679989427,99.64848889992572,100.14938679989427,99.64848889992572,100.14938679989427,98.16214749997016,None,100.14938679989427,101.6506521999836,1.5,101.66741159989033,None,102.41931189992465,None,,,,,,,,,,11020,001,2024_Jan_05_1012,MFTM_A_new1021,2021.2.3,60.02959459185393,
,,,,,,,,stim/Instruction_mask.png,conditions/adaptive.xlsx,practice,-0.6,-0.6,-0.6,0.6,0.6,left,L,,,,,0,0,0,0,0,2,2,11,,,,,,,,,,,,,,,,,,,,,,,,,,,,,,,,,,,,,,,,,,,,102.91971759998705,None,right,0,1.290156300063245,103.4197546999203,104.72184729995206,103.4197546999203,104.2214083999861,103.4197546999203,104.2214083999861,103.4197546999203,104.2214083999861,103.4197546999203,104.2214083999861,103.4197546999203,104.2214083999861,104.20457009994425,104.70500149996951,104.20457009994425,104.70500149996951,104.20457009994425,104.70500149996951,104.20457009994425,104.70500149996951,104.20457009994425,104.70500149996951,104.20457009994425,104.70500149996951,104.20457009994425,104.70500149996951,104.20457009994425,104.70500149996951,103.4197546999203,None,104.70500149996951,106.90965019993018,0.8,106.9249832999194,None,107.67657049989793,None,,,,,,,,,,11020,001,2024_Jan_05_1012,MFTM_A_new1021,2021.2.3,60.02959459185393,
,,,,,,,,stim/Instruction_mask.png,conditions/adaptive.xlsx,practice,0.6,0.6,0.6,-0.6,-0.6,right,R,,,,,0,0,0,0,0,3,3,4,,,,,,,,,,,,,,,,,,,,,,,,,,,,,,,,,,,,,,,,,,,,108.17792279995047,None,None,0,0,108.67833529994823,109.42877089988906,108.67833529994823,108.92811539990362,108.67833529994823,108.92811539990362,108.67833529994823,108.92811539990362,108.67833529994823,108.92811539990362,108.67833529994823,108.92811539990362,108.91152549989056,109.41222909989301,108.91152549989056,109.41222909989301,108.91152549989056,109.41222909989301,108.91152549989056,109.41222909989301,108.91152549989056,109.41222909989301,108.91152549989056,109.41222909989301,108.91152549989056,109.41222909989301,108.91152549989056,109.41222909989301,108.67833529994823,None,109.41222909989301,112.16685279994272,3,112.1829132999992,None,112.93407269997988,None,,,,,,,,,,11020,001,2024_Jan_05_1012,MFTM_A_new1021,2021.2.3,60.02959459185393,
,,,,,,,,stim/Instruction_mask.png,conditions/adaptive.xlsx,practice,,,,,,,,,,,,0,0,0,0,,,,,,,,,,,,,,,,,,,,,,,,,,,,,,,,,,,,,,,,,,,,,,,,,,,,,,,,,,,,,,,,,,,,,,,,,,,,,,,,,,,,,,,,,,113.45159219997004,114.45424199989066,114.41966499993578,114.41966499993578,114.41966499993578,None,,,,11020,001,2024_Jan_05_1012,MFTM_A_new1021,2021.2.3,60.02959459185393,
,,,,,,,,stim/Instruction_adaptive.png,conditions/adaptive.xlsx,test,0.6,0.6,0.6,-0.6,-0.6,right,R,,,,,0,1,1,1,0,0,0,54,,,,,,,,,,,,,,,,,,,,,,,,,,,,,,,,,,,,,,117.54063149995636,None,right,27.80081089993473,117.54063149995636,None,145.38177069998346,None,right,1,0.7708867000183091,145.88282149995212,None,145.88282149995212,148.8879956000019,145.88282149995212,148.8879956000019,145.88282149995212,148.8879956000019,145.88282149995212,148.8879956000019,145.88282149995212,148.8879956000019,148.87130519992206,149.37176519993227,148.87130519992206,149.37176519993227,148.87130519992206,149.37176519993227,148.87130519992206,149.37176519993227,148.87130519992206,149.37176519993227,148.87130519992206,149.37176519993227,148.87130519992206,149.37176519993227,148.87130519992206,149.37176519993227,145.88282149995212,None,149.37176519993227,149.37176519993227,3,149.38772769994102,None,150.13926039997023,None,,,,,,,0,6.000000000000005,1.0,11020,001,2024_Jan_05_1012,MFTM_A_new1021,2021.2.3,60.02959459185393,
,,,,,,,,stim/Instruction_adaptive.png,conditions/adaptive.xlsx,test,-0.6,-0.6,-0.6,0.6,0.6,left,L,,,,,0,1,1,1,0,1,1,9,,,,,,,,,,,,,,,,,,,,,,,,,,,,,,,,,,,,,,,,,,,,150.64080419996753,None,left,1,1.096747300005518,151.1406914999243,151.89165689994115,151.1406914999243,151.39161659998354,151.1406914999243,151.39161659998354,151.1406914999243,151.39161659998354,151.1406914999243,151.39161659998354,151.1406914999243,151.39161659998354,151.37452249997295,151.87507029995322,151.37452249997295,151.87507029995322,151.37452249997295,151.87507029995322,151.37452249997295,151.87507029995322,151.37452249997295,151.87507029995322,151.37452249997295,151.87507029995322,151.37452249997295,151.87507029995322,151.37452249997295,151.87507029995322,151.1406914999243,None,151.87507029995322,152.76116939994972,0.25,152.77731259993743,None,153.52848499990068,None,,,,,,,[0.875],6.000000000000005,1.0,11020,001,2024_Jan_05_1012,MFTM_A_new1021,2021.2.3,60.02959459185393,
,,,,,,,,stim/Instruction_adaptive.png,conditions/adaptive.xlsx,test,-0.6,-0.6,-0.6,0.6,0.6,left,L,,,,,0,1,1,1,0,2,2,81,,,,,,,,,,,,,,,,,,,,,,,,,,,,,,,,,,,,,,,,,,,,154.02901229995769,None,left,1,0.7244696000125259,154.5291343999561,155.28021889994852,154.5291343999561,154.78106769989245,154.5291343999561,154.78106769989245,154.5291343999561,154.78106769989245,154.5291343999561,154.78106769989245,154.5291343999561,154.78106769989245,154.76330689992756,155.26406159996986,154.76330689992756,155.26406159996986,154.76330689992756,155.26406159996986,154.76330689992756,155.26406159996986,154.76330689992756,155.26406159996986,154.76330689992756,155.26406159996986,154.76330689992756,155.26406159996986,154.76330689992756,155.26406159996986,154.5291343999561,None,155.26406159996986,156.59903569996823,0.25,156.61599099996965,None,157.366580999922,None,,,,,,,[1.33333333],6.000000000000005,1.0,11020,001,2024_Jan_05_1012,MFTM_A_new1021,2021.2.3,60.02959459185393,
,,,,,,,,stim/Instruction_adaptive.png,conditions/adaptive.xlsx,test,-0.6,-0.6,-0.6,0.6,0.6,left,L,,,,,0,1,1,1,0,3,3,29,,,,,,,,,,,,,,,,,,,,,,,,,,,,,,,,,,,,,,,,,,,,157.86754899995867,None,left,1,0.5737413999158889,158.3681206998881,159.11956409993581,158.3681206998881,158.61861089989543,158.3681206998881,158.61861089989543,158.3681206998881,158.61861089989543,158.3681206998881,158.61861089989543,158.3681206998881,158.61861089989543,158.60173339990433,159.102766099968,158.60173339990433,159.102766099968,158.60173339990433,159.102766099968,158.60173339990433,159.102766099968,158.60173339990433,159.102766099968,158.60173339990433,159.102766099968,158.60173339990433,159.102766099968,158.60173339990433,159.102766099968,158.3681206998881,None,159.102766099968,160.6720045999391,0.25,160.688095599995,None,161.4392473999178,None,,,,,,,[1.5625],6.000000000000005,1.0,11020,001,2024_Jan_05_1012,MFTM_A_new1021,2021.2.3,60.02959459185393,
,,,,,,,,stim/Instruction_adaptive.png,conditions/adaptive.xlsx,test,-0.6,-0.6,-0.6,0.6,0.6,left,L,,,,,0,1,1,1,0,4,4,67,,,,,,,,,,,,,,,,,,,,,,,,,,,,,,,,,,,,,,,,,,,,161.9397992999293,None,left,1,0.5967834999319166,162.44072739989497,163.19388409995008,162.44072739989497,162.69094719993882,162.44072739989497,162.69094719993882,162.44072739989497,162.69094719993882,162.44072739989497,162.69094719993882,162.44072739989497,162.69094719993882,162.67420359991957,163.1752818999812,162.67420359991957,163.1752818999812,162.67420359991957,163.1752818999812,162.67420359991957,163.1752818999812,162.67420359991957,163.1752818999812,162.67420359991957,163.1752818999812,162.67420359991957,163.1752818999812,162.67420359991957,163.1752818999812,162.44072739989497,None,163.1752818999812,164.87776869989466,0.25,164.89435519999824,None,165.64667159994133,None,,,,,,,[1.7],6.000000000000005,1.0,11020,001,2024_Jan_05_1012,MFTM_A_new1021,2021.2.3,60.02959459185393,
,,,,,,,,stim/Instruction_adaptive.png,conditions/adaptive.xlsx,test,-0.6,-0.6,-0.6,0.6,0.6,left,L,,,,,0,1,1,1,0,5,5,21,,,,,,,,,,,,,,,,,,,,,,,,,,,,,,,,,,,,,,,,,,,,166.14627179992385,None,right,0,1.0699147999985144,166.64762399997562,167.3988591999514,166.64762399997562,166.8989442999009,166.64762399997562,166.8989442999009,166.64762399997562,166.8989442999009,166.64762399997562,166.8989442999009,166.64762399997562,166.8989442999009,166.8808779999381,167.38209319999442,166.8808779999381,167.38209319999442,166.8808779999381,167.38209319999442,166.8808779999381,167.38209319999442,166.8808779999381,167.38209319999442,166.8808779999381,167.38209319999442,166.8808779999381,167.38209319999442,166.8808779999381,167.38209319999442,166.64762399997562,None,167.38209319999442,169.18404629989527,0.25,169.20073709997814,None,169.95239939994644,None,,,,,,,[1.79166667],5.1200000000000045,0.8333333333333334,11020,001,2024_Jan_05_1012,MFTM_A_new1021,2021.2.3,60.02959459185393,
,,,,,,,,stim/Instruction_adaptive.png,conditions/adaptive.xlsx,test,0.6,0.6,0.6,-0.6,-0.6,right,R,,,,,0,1,1,1,0,6,6,68,,,,,,,,,,,,,,,,,,,,,,,,,,,,,,,,,,,,,,,,,,,,170.4531440999126,None,right,1,0.5878907999722287,170.9539593999507,171.70475149992853,170.9539593999507,171.20435709995218,170.9539593999507,171.20435709995218,170.9539593999507,171.20435709995218,170.9539593999507,171.20435709995218,170.9539593999507,171.20435709995218,171.18698349990882,171.6889366999967,171.18698349990882,171.6889366999967,171.18698349990882,171.6889366999967,171.18698349990882,171.6889366999967,171.18698349990882,171.6889366999967,171.18698349990882,171.6889366999967,171.18698349990882,171.6889366999967,171.18698349990882,171.6889366999967,170.9539593999507,None,171.6889366999967,173.55737939989194,0.25,173.57385889999568,None,174.32567759999074,None,,,,,,,[1.85714286],5.380000000000004,0.8571428571428571,11020,001,2024_Jan_05_1012,MFTM_A_new1021,2021.2.3,60.02959459185393,
,,,,,,,,stim/Instruction_adaptive.png,conditions/adaptive.xlsx,test,0.6,0.6,0.6,-0.6,-0.6,right,R,,,,,0,1,1,1,0,7,7,4,,,,,,,,,,,,,,,,,,,,,,,,,,,,,,,,,,,,,,,,,,,,174.82633349997923,None,right,1,0.9430081000318751,175.326433399925,176.0782791998936,175.326433399925,175.57712099992204,175.326433399925,175.57712099992204,175.326433399925,175.57712099992204,175.326433399925,175.57712099992204,175.326433399925,175.57712099992204,175.56019329989795,176.06108379992656,175.56019329989795,176.06108379992656,175.56019329989795,176.06108379992656,175.56019329989795,176.06108379992656,175.56019329989795,176.06108379992656,175.56019329989795,176.06108379992656,175.56019329989795,176.06108379992656,175.56019329989795,176.06108379992656,175.326433399925,None,176.06108379992656,177.98062649997883,0.25,177.99793669988867,None,178.7482752999058,None,,,,,,,[1.90625],5.570000000000005,0.875,11020,001,2024_Jan_05_1012,MFTM_A_new1021,2021.2.3,60.02959459185393,
,,,,,,,,stim/Instruction_adaptive.png,conditions/adaptive.xlsx,test,0.6,0.6,0.6,-0.6,-0.6,right,R,,,,,0,1,1,1,0,8,8,38,,,,,,,,,,,,,,,,,,,,,,,,,,,,,,,,,,,,,,,,,,,,179.24959289992694,None,right,1,0.5268388000549749,179.7507838999154,180.5020097999368,179.7507838999154,180.00045729998965,179.7507838999154,180.00045729998965,179.7507838999154,180.00045729998965,179.7507838999154,180.00045729998965,179.7507838999154,180.00045729998965,179.98340439994354,180.4844471999677,179.98340439994354,180.4844471999677,179.98340439994354,180.4844471999677,179.98340439994354,180.4844471999677,179.98340439994354,180.4844471999677,179.98340439994354,180.4844471999677,179.98340439994354,180.4844471999677,179.98340439994354,180.4844471999677,179.7507838999154,None,180.4844471999677,182.43781109992415,0.25,182.45385549997445,None,183.20463729999028,None,,,,,,,[1.94444444],5.720000000000004,0.8888888888888888,11020,001,2024_Jan_05_1012,MFTM_A_new1021,2021.2.3,60.02959459185393,
,,,,,,,,stim/Instruction_adaptive.png,conditions/adaptive.xlsx,test,-0.6,-0.6,-0.6,0.6,0.6,left,L,,,,,0,1,1,1,0,9,9,33,,,,,,,,,,,,,,,,,,,,,,,,,,,,,,,,,,,,,,,,,,,,183.70571389992256,None,left,1,0.727301900042221,184.20626739994623,184.95741839997936,184.20626739994623,184.45672599994577,184.20626739994623,184.45672599994577,184.20626739994623,184.45672599994577,184.20626739994623,184.45672599994577,184.20626739994623,184.45672599994577,184.44051629991736,184.94063049997203,184.44051629991736,184.94063049997203,184.44051629991736,184.94063049997203,184.44051629991736,184.94063049997203,184.44051629991736,184.94063049997203,184.44051629991736,184.94063049997203,184.44051629991736,184.94063049997203,184.44051629991736,184.94063049997203,184.20626739994623,None,184.94063049997203,186.92719609988853,0.25,186.94364599999972,None,187.69496619992424,None,,,,,,,[1.975],5.840000000000005,0.9,11020,001,2024_Jan_05_1012,MFTM_A_new1021,2021.2.3,60.02959459185393,
,,,,,,,,stim/Instruction_adaptive.png,conditions/adaptive.xlsx,test,0.6,0.6,0.6,-0.6,-0.6,right,R,,,,,0,1,1,1,0,10,10,72,,,,,,,,,,,,,,,,,,,,,,,,,,,,,,,,,,,,,,,,,,,,188.1957755999174,None,right,1,0.4767308000009507,188.69666619994678,189.44728959992062,188.69666619994678,188.9480929999845,188.69666619994678,188.9480929999845,188.69666619994678,188.9480929999845,188.69666619994678,188.9480929999845,188.69666619994678,188.9480929999845,188.93002779991366,189.43058739998378,188.93002779991366,189.43058739998378,188.93002779991366,189.43058739998378,188.93002779991366,189.43058739998378,188.93002779991366,189.43058739998378,188.93002779991366,189.43058739998378,188.93002779991366,189.43058739998378,188.93002779991366,189.43058739998378,188.69666619994678,None,189.43058739998378,191.43529659998603,0.25,191.45115259999875,None,192.20176249998622,None,,,,,,,[2.],5.930000000000005,0.9090909090909091,11020,001,2024_Jan_05_1012,MFTM_A_new1021,2021.2.3,60.02959459185393,
,,,,,,,,stim/Instruction_adaptive.png,conditions/adaptive.xlsx,test,0.6,0.6,0.6,-0.6,-0.6,right,R,,,,,0,1,1,1,0,11,11,8,,,,,,,,,,,,,,,,,,,,,,,,,,,,,,,,,,,,,,,,,,,,192.7023288999917,None,right,1,0.47460730001330376,193.20294219988864,193.95419619989116,193.20294219988864,193.45340759993996,193.20294219988864,193.45340759993996,193.20294219988864,193.45340759993996,193.20294219988864,193.45340759993996,193.20294219988864,193.45340759993996,193.4367242999142,193.93749649997335,193.4367242999142,193.93749649997335,193.4367242999142,193.93749649997335,193.4367242999142,193.93749649997335,193.4367242999142,193.93749649997335,193.4367242999142,193.93749649997335,193.4367242999142,193.93749649997335,193.4367242999142,193.93749649997335,193.20294219988864,None,193.93749649997335,None,0.25,195.9737526999088,None,196.72485040000174,None,,,,,,,[2.02083333],6.000000000000005,0.9166666666666666,11020,001,2024_Jan_05_1012,MFTM_A_new1021,2021.2.3,60.02959459185393,
,,,,,,,,stim/Instruction_adaptive.png,conditions/adaptive.xlsx,test,-0.6,-0.6,-0.6,0.6,0.6,left,L,,,,,0,1,1,1,0,12,12,39,,,,,,,,,,,,,,,,,,,,,,,,,,,,,,,,,,,,,,,,,,,,197.22637069993652,None,left,1,0.4151987999211997,197.726151599898,198.47870249999687,197.726151599898,197.97664509993047,197.726151599898,197.97664509993047,197.726151599898,197.97664509993047,197.726151599898,197.97664509993047,197.726151599898,197.97664509993047,197.9599069999531,198.4620714999037,197.9599069999531,198.4620714999037,197.9599069999531,198.4620714999037,197.9599069999531,198.4620714999037,197.9599069999531,198.4620714999037,197.9599069999531,198.4620714999037,197.9599069999531,198.4620714999037,197.9599069999531,198.4620714999037,197.726151599898,None,198.4620714999037,None,0.25,200.51440569991246,None,201.2656877998961,None,,,,,,,[2.03846154],6.000000000000005,0.9230769230769231,11020,001,2024_Jan_05_1012,MFTM_A_new1021,2021.2.3,60.02959459185393,
,,,,,,,,stim/Instruction_adaptive.png,conditions/adaptive.xlsx,test,-0.6,-0.6,-0.6,0.6,0.6,left,L,,,,,0,1,1,1,0,13,13,23,,,,,,,,,,,,,,,,,,,,,,,,,,,,,,,,,,,,,,,,,,,,201.76570119999815,None,left,1,0.4910688999807462,202.26644069992471,203.0181371999206,202.26644069992471,202.51670089992695,202.26644069992471,202.51670089992695,202.26644069992471,202.51670089992695,202.26644069992471,202.51670089992695,202.26644069992471,202.51670089992695,202.50074619997758,203.00140529999044,202.50074619997758,203.00140529999044,202.50074619997758,203.00140529999044,202.50074619997758,203.00140529999044,202.50074619997758,203.00140529999044,202.50074619997758,203.00140529999044,202.50074619997758,203.00140529999044,202.50074619997758,203.00140529999044,202.26644069992471,None,203.00140529999044,205.05489019991364,0.25,205.07047799997963,None,205.8223703999538,None,,,,,,,[2.05357143],6.000000000000005,0.9285714285714286,11020,001,2024_Jan_05_1012,MFTM_A_new1021,2021.2.3,60.02959459185393,
,,,,,,,,stim/Instruction_adaptive.png,conditions/adaptive.xlsx,test,-0.6,-0.6,-0.6,0.6,0.6,left,L,,,,,0,1,1,1,0,14,14,53,,,,,,,,,,,,,,,,,,,,,,,,,,,,,,,,,,,,,,,,,,,,206.32227659993805,None,right,0,1.0224277999950573,206.82318939990364,207.57509619998746,206.82318939990364,207.07464729994535,206.82318939990364,207.07464729994535,206.82318939990364,207.07464729994535,206.82318939990364,207.07464729994535,206.82318939990364,207.07464729994535,207.05669969995506,207.55765939992853,207.05669969995506,207.55765939992853,207.05669969995506,207.55765939992853,207.05669969995506,207.55765939992853,207.05669969995506,207.55765939992853,207.05669969995506,207.55765939992853,207.05669969995506,207.55765939992853,207.05669969995506,207.55765939992853,206.82318939990364,None,207.55765939992853,209.62773789989296,0.25,209.64393529994413,None,210.39498029998504,None,,,,,,,[2.06666667],5.570000000000005,0.8666666666666667,11020,001,2024_Jan_05_1012,MFTM_A_new1021,2021.2.3,60.02959459185393,
,,,,,,,,stim/Instruction_adaptive.png,conditions/adaptive.xlsx,test,-0.6,-0.6,-0.6,0.6,0.6,left,L,,,,,0,1,1,1,0,15,15,59,,,,,,,,,,,,,,,,,,,,,,,,,,,,,,,,,,,,,,,,,,,,210.89577429997735,None,left,1,0.5364878000691533,211.39710539998487,212.1486218998907,211.39710539998487,211.6472793999128,211.39710539998487,211.6472793999128,211.39710539998487,211.6472793999128,211.39710539998487,211.6472793999128,211.39710539998487,211.6472793999128,211.63007289997768,212.1316184999887,211.63007289997768,212.1316184999887,211.63007289997768,212.1316184999887,211.63007289997768,212.1316184999887,211.63007289997768,212.1316184999887,211.63007289997768,212.1316184999887,211.63007289997768,212.1316184999887,211.63007289997768,212.1316184999887,211.39710539998487,None,212.1316184999887,214.21838609990664,0.25,214.23405169998296,None,214.98640279995743,None,,,,,,,[2.078125],5.650000000000005,0.875,11020,001,2024_Jan_05_1012,MFTM_A_new1021,2021.2.3,60.02959459185393,
,,,,,,,,stim/Instruction_adaptive.png,conditions/adaptive.xlsx,test,0.6,0.6,0.6,-0.6,-0.6,right,R,,,,,0,1,1,1,0,16,16,62,,,,,,,,,,,,,,,,,,,,,,,,,,,,,,,,,,,,,,,,,,,,215.48683479998726,None,right,1,0.5623022000072524,215.98720099998172,216.73903349996544,215.98720099998172,216.23699339991435,215.98720099998172,216.23699339991435,215.98720099998172,216.23699339991435,215.98720099998172,216.23699339991435,215.98720099998172,216.23699339991435,216.22135229990818,216.72144139988814,216.22135229990818,216.72144139988814,216.22135229990818,216.72144139988814,216.22135229990818,216.72144139988814,216.22135229990818,216.72144139988814,216.22135229990818,216.72144139988814,216.22135229990818,216.72144139988814,216.22135229990818,216.72144139988814,215.98720099998172,None,216.72144139988814,None,0.25,218.82447859994136,None,219.5762072999496,None,,,,,,,[2.08823529],5.720000000000004,0.8823529411764706,11020,001,2024_Jan_05_1012,MFTM_A_new1021,2021.2.3,60.02959459185393,
,,,,,,,,stim/Instruction_adaptive.png,conditions/adaptive.xlsx,test,-0.6,-0.6,-0.6,0.6,0.6,left,L,,,,,0,1,1,1,0,17,17,57,,,,,,,,,,,,,,,,,,,,,,,,,,,,,,,,,,,,,,,,,,,,220.07594659994356,None,left,1,0.5395410000346601,220.5781197999604,221.32804629998282,220.5781197999604,220.84467809996568,220.5781197999604,220.84467809996568,220.5781197999604,220.84467809996568,220.5781197999604,220.84467809996568,220.5781197999604,220.84467809996568,220.81036639993545,221.31173059996217,220.81036639993545,221.31173059996217,220.81036639993545,221.31173059996217,220.81036639993545,221.31173059996217,220.81036639993545,221.31173059996217,220.81036639993545,221.31173059996217,220.81036639993545,221.31173059996217,220.81036639993545,221.31173059996217,220.5781197999604,None,221.31173059996217,223.4145646999823,0.25,223.43112179997843,None,224.1827002998907,None,,,,,,,[2.09722222],5.780000000000005,0.8888888888888888,11020,001,2024_Jan_05_1012,MFTM_A_new1021,2021.2.3,60.02959459185393,
,,,,,,,,stim/Instruction_adaptive.png,conditions/adaptive.xlsx,test,-0.6,-0.6,-0.6,0.6,0.6,left,L,,,,,0,1,1,1,0,18,18,71,,,,,,,,,,,,,,,,,,,,,,,,,,,,,,,,,,,,,,,,,,,,224.68428849999327,None,right,0,0.9813547000521794,225.18441459990572,225.9357038999442,225.18441459990572,225.43414409994148,225.18441459990572,225.43414409994148,225.18441459990572,225.43414409994148,225.18441459990572,225.43414409994148,225.18441459990572,225.43414409994148,225.4172817999497,225.91809819999617,225.4172817999497,225.91809819999617,225.4172817999497,225.91809819999617,225.4172817999497,225.91809819999617,225.4172817999497,225.91809819999617,225.4172817999497,225.91809819999617,225.4172817999497,225.91809819999617,225.4172817999497,225.91809819999617,225.18441459990572,None,225.91809819999617,228.03795959998388,0.25,228.0545482999878,None,228.8061722998973,None,,,,,,,[2.10526316],5.380000000000004,0.8421052631578947,11020,001,2024_Jan_05_1012,MFTM_A_new1021,2021.2.3,60.02959459185393,
,,,,,,,,stim/Instruction_adaptive.png,conditions/adaptive.xlsx,test,0.6,0.6,0.6,-0.6,-0.6,right,R,,,,,0,1,1,1,0,19,19,14,,,,,,,,,,,,,,,,,,,,,,,,,,,,,,,,,,,,,,,,,,,,229.30637939996086,None,right,1,0.7670578000834212,229.80703529994935,230.55843619990628,229.80703529994935,230.05821189994458,229.80703529994935,230.05821189994458,229.80703529994935,230.05821189994458,229.80703529994935,230.05821189994458,229.80703529994935,230.05821189994458,230.04109949991107,230.54238849994726,230.04109949991107,230.54238849994726,230.04109949991107,230.54238849994726,230.04109949991107,230.54238849994726,230.04109949991107,230.54238849994726,230.04109949991107,230.54238849994726,230.04109949991107,230.54238849994726,230.04109949991107,230.54238849994726,229.80703529994935,None,230.54238849994726,232.6619936999632,0.25,232.67823149997275,None,233.42929199989885,None,,,,,,,[2.1125],5.450000000000005,0.85,11020,001,2024_Jan_05_1012,MFTM_A_new1021,2021.2.3,60.02959459185393,
,,,,,,,,stim/Instruction_adaptive.png,conditions/adaptive.xlsx,test,0.6,0.6,0.6,-0.6,-0.6,right,R,,,,,0,1,1,1,0,20,20,0,,,,,,,,,,,,,,,,,,,,,,,,,,,,,,,,,,,,,,,,,,,,233.92994959990028,None,left,0,0.5907234000042081,234.43074709991924,235.1824798999587,234.43074709991924,234.68163449992426,234.43074709991924,234.68163449992426,234.43074709991924,234.68163449992426,234.43074709991924,234.68163449992426,234.43074709991924,234.68163449992426,234.66443779994734,235.16579529992305,234.66443779994734,235.16579529992305,234.66443779994734,235.16579529992305,234.66443779994734,235.16579529992305,234.66443779994734,235.16579529992305,234.66443779994734,235.16579529992305,234.66443779994734,235.16579529992305,234.66443779994734,235.16579529992305,234.43074709991924,None,235.16579529992305,237.28578249993734,0.25,237.3016158998944,None,238.0536429999629,None,,,,,,,[2.11904762],5.1200000000000045,0.8095238095238095,11020,001,2024_Jan_05_1012,MFTM_A_new1021,2021.2.3,60.02959459185393,
,,,,,,,,stim/Instruction_adaptive.png,conditions/adaptive.xlsx,test,0.6,0.6,0.6,-0.6,-0.6,right,R,,,,,0,1,1,1,0,21,21,58,,,,,,,,,,,,,,,,,,,,,,,,,,,,,,,,,,,,,,,,,,,,238.55442249996122,None,right,1,0.5032970000756904,239.05431689997204,239.80605909996666,239.05431689997204,239.3046698999824,239.05431689997204,239.3046698999824,239.05431689997204,239.3046698999824,239.05431689997204,239.3046698999824,239.05431689997204,239.3046698999824,239.28821509995032,239.788689399953,239.28821509995032,239.788689399953,239.28821509995032,239.788689399953,239.28821509995032,239.788689399953,239.28821509995032,239.788689399953,239.28821509995032,239.788689399953,239.28821509995032,239.788689399953,239.28821509995032,239.788689399953,239.05431689997204,None,239.788689399953,241.9254668999929,0.25,241.94252959999721,None,242.69285419990774,None,,,,,,,[2.125],5.200000000000005,0.8181818181818182,11020,001,2024_Jan_05_1012,MFTM_A_new1021,2021.2.3,60.02959459185393,
,,,,,,,,stim/Instruction_adaptive.png,conditions/adaptive.xlsx,test,-0.6,-0.6,-0.6,0.6,0.6,left,L,,,,,0,1,1,1,0,22,22,13,,,,,,,,,,,,,,,,,,,,,,,,,,,,,,,,,,,,,,,,,,,,243.19467819994316,None,right,0,0.8799796999664977,243.69454419997055,244.44559309992474,243.69454419997055,243.94558909989428,243.69454419997055,243.94558909989428,243.69454419997055,243.94558909989428,243.69454419997055,243.94558909989428,243.69454419997055,243.94558909989428,243.92813009989914,244.4293567999266,243.92813009989914,244.4293567999266,243.92813009989914,244.4293567999266,243.92813009989914,244.4293567999266,243.92813009989914,244.4293567999266,243.92813009989914,244.4293567999266,243.92813009989914,244.4293567999266,243.92813009989914,244.4293567999266,243.69454419997055,None,244.4293567999266,246.56640459992923,0.25,246.58211979991756,None,247.33330869989004,None,,,,,,,[2.13043478],4.900000000000004,0.782608695652174,11020,001,2024_Jan_05_1012,MFTM_A_new1021,2021.2.3,60.02959459185393,
,,,,,,,,stim/Instruction_adaptive.png,conditions/adaptive.xlsx,test,0.6,0.6,0.6,-0.6,-0.6,right,R,,,,,0,1,1,1,0,23,23,98,,,,,,,,,,,,,,,,,,,,,,,,,,,,,,,,,,,,,,,,,,,,247.83447039988823,None,left,0,1.0073224999941885,248.33456839993596,249.08566519990563,248.33456839993596,248.585284999921,248.33456839993596,248.585284999921,248.33456839993596,248.585284999921,248.33456839993596,248.585284999921,248.33456839993596,248.585284999921,248.56841149996035,249.06951619999018,248.56841149996035,249.06951619999018,248.56841149996035,249.06951619999018,248.56841149996035,249.06951619999018,248.56841149996035,249.06951619999018,248.56841149996035,249.06951619999018,248.56841149996035,249.06951619999018,248.56841149996035,249.06951619999018,248.33456839993596,None,249.06951619999018,251.2061649999814,0.25,251.2223273999989,None,251.97429309994914,None,,,,,,,[2.13541667],4.6300000000000034,0.75,11020,001,2024_Jan_05_1012,MFTM_A_new1021,2021.2.3,60.02959459185393,
,,,,,,,,stim/Instruction_adaptive.png,conditions/adaptive.xlsx,test,-0.6,-0.6,-0.6,0.6,0.6,left,L,,,,,0,1,1,1,0,24,24,3,,,,,,,,,,,,,,,,,,,,,,,,,,,,,,,,,,,,,,,,,,,,252.47473959997296,None,right,0,0.735292199999094,252.97484309994616,253.7600659999298,252.97484309994616,253.258664199966,252.97484309994616,253.258664199966,252.97484309994616,253.258664199966,252.97484309994616,253.258664199966,252.97484309994616,253.258664199966,253.22529429988936,253.72660109994467,253.22529429988936,253.72660109994467,253.22529429988936,253.72660109994467,253.22529429988936,253.72660109994467,253.22529429988936,253.72660109994467,253.22529429988936,253.72660109994467,253.22529429988936,253.72660109994467,253.22529429988936,253.72660109994467,252.97484309994616,None,253.72660109994467,255.8798396999482,0.27,255.89588029996958,None,256.64873699995223,None,,,,,,,[2.1392],4.340000000000003,0.72,11020,001,2024_Jan_05_1012,MFTM_A_new1021,2021.2.3,60.02959459185393,
,,,,,,,,stim/Instruction_adaptive.png,conditions/adaptive.xlsx,test,-0.6,-0.6,-0.6,0.6,0.6,left,L,,,,,0,1,1,1,0,25,25,89,,,,,,,,,,,,,,,,,,,,,,,,,,,,,,,,,,,,,,,,,,,,257.14867719996255,None,left,1,0.5168465999886394,257.6487944999244,258.4839571999619,257.6487944999244,257.98338989994954,257.6487944999244,257.98338989994954,257.6487944999244,257.98338989994954,257.6487944999244,257.98338989994954,257.6487944999244,257.98338989994954,257.9489002999617,258.44982280000113,257.9489002999617,258.44982280000113,257.9489002999617,258.44982280000113,257.9489002999617,258.44982280000113,257.9489002999617,258.44982280000113,257.9489002999617,258.44982280000113,257.9489002999617,258.44982280000113,257.9489002999617,258.44982280000113,257.6487944999244,None,258.44982280000113,260.6036285998998,0.32000000000000006,260.6197359999642,None,261.37075149989687,None,,,,,,,[2.14076923],4.440000000000003,0.7307692307692307,11020,001,2024_Jan_05_1012,MFTM_A_new1021,2021.2.3,60.02959459185393,
,,,,,,,,stim/Instruction_adaptive.png,conditions/adaptive.xlsx,test,-0.6,-0.6,-0.6,0.6,0.6,left,L,,,,,0,1,1,1,0,26,26,19,,,,,,,,,,,,,,,,,,,,,,,,,,,,,,,,,,,,,,,,,,,,261.8723706000019,None,left,1,1.041508900001645,262.372121399967,263.1733833999606,262.372121399967,262.67265779990703,262.372121399967,262.67265779990703,262.372121399967,262.67265779990703,262.372121399967,262.67265779990703,262.372121399967,262.67265779990703,262.65657579991966,263.1566877999576,262.65657579991966,263.1566877999576,262.65657579991966,263.1566877999576,262.65657579991966,263.1566877999576,262.65657579991966,263.1566877999576,262.65657579991966,263.1566877999576,262.65657579991966,263.1566877999576,262.65657579991966,263.1566877999576,262.372121399967,None,263.1566877999576,265.30991099996027,0.30000000000000004,265.32729799998924,None,266.0784946999047,None,,,,,,,[2.14296296],4.540000000000004,0.7407407407407407,11020,001,2024_Jan_05_1012,MFTM_A_new1021,2021.2.3,60.02959459185393,
,,,,,,,,stim/Instruction_adaptive.png,conditions/adaptive.xlsx,test,0.6,0.6,0.6,-0.6,-0.6,right,R,,,,,0,1,1,1,0,27,27,88,,,,,,,,,,,,,,,,,,,,,,,,,,,,,,,,,,,,,,,,,,,,266.5784085999476,None,right,1,0.6469814999727532,267.07901879993733,267.86431189998984,267.07901879993733,267.36428139999043,267.07901879993733,267.36428139999043,267.07901879993733,267.36428139999043,267.07901879993733,267.36428139999043,267.07901879993733,267.36428139999043,267.3466455999296,267.8468238998903,267.3466455999296,267.8468238998903,267.3466455999296,267.8468238998903,267.3466455999296,267.8468238998903,267.3466455999296,267.8468238998903,267.3466455999296,267.8468238998903,267.3466455999296,267.8468238998903,267.3466455999296,267.8468238998903,267.07901879993733,None,267.8468238998903,270.0004260999849,0.28,270.0179531999165,None,270.76783619995695,None,,,,,,,[2.14571429],4.620000000000004,0.75,11020,001,2024_Jan_05_1012,MFTM_A_new1021,2021.2.3,60.02959459185393,
,,,,,,,,stim/Instruction_adaptive.png,conditions/adaptive.xlsx,test,-0.6,-0.6,-0.6,0.6,0.6,left,L,,,,,0,1,1,1,0,28,28,25,,,,,,,,,,,,,,,,,,,,,,,,,,,,,,,,,,,,,,,,,,,,271.26924729999155,None,left,1,0.7644021000014618,271.7694409999531,272.5547440999653,271.7694409999531,272.05382169992663,271.7694409999531,272.05382169992663,271.7694409999531,272.05382169992663,271.7694409999531,272.05382169992663,271.7694409999531,272.05382169992663,272.0195132999215,272.52036499988753,272.0195132999215,272.52036499988753,272.0195132999215,272.52036499988753,272.0195132999215,272.52036499988753,272.0195132999215,272.52036499988753,272.0195132999215,272.52036499988753,272.0195132999215,272.52036499988753,272.0195132999215,272.52036499988753,271.7694409999531,None,272.52036499988753,274.6736924999859,0.27,274.69036109989975,None,275.44144079997204,None,,,,,,,[2.14862069],4.700000000000004,0.7586206896551724,11020,001,2024_Jan_05_1012,MFTM_A_new1021,2021.2.3,60.02959459185393,
,,,,,,,,stim/Instruction_adaptive.png,conditions/adaptive.xlsx,test,-0.6,-0.6,-0.6,0.6,0.6,left,L,,,,,0,1,1,1,0,29,29,79,,,,,,,,,,,,,,,,,,,,,,,,,,,,,,,,,,,,,,,,,,,,275.9422762999311,None,right,0,0.9632715999614447,276.44295769999735,277.19467070000246,276.44295769999735,276.6945510999067,276.44295769999735,276.6945510999067,276.44295769999735,276.6945510999067,276.44295769999735,276.6945510999067,276.44295769999735,276.6945510999067,276.67696249997243,277.17758879996836,276.67696249997243,277.17758879996836,276.67696249997243,277.17758879996836,276.67696249997243,277.17758879996836,276.67696249997243,277.17758879996836,276.67696249997243,277.17758879996836,276.67696249997243,277.17758879996836,276.67696249997243,277.17758879996836,276.44295769999735,None,277.17758879996836,279.3304433999583,0.25,279.3472308999626,None,280.0988903999096,None,,,,,,,[2.152],4.490000000000004,0.7333333333333333,11020,001,2024_Jan_05_1012,MFTM_A_new1021,2021.2.3,60.02959459185393,
,,,,,,,,stim/Instruction_adaptive.png,conditions/adaptive.xlsx,test,-0.6,-0.6,-0.6,0.6,0.6,left,L,,,,,0,1,1,1,0,30,30,5,,,,,,,,,,,,,,,,,,,,,,,,,,,,,,,,,,,,,,,,,,,,280.59993389993906,None,right,0,1.1690132999792695,281.10053159995005,281.90117049997207,281.10053159995005,281.4002378999721,281.10053159995005,281.4002378999721,281.10053159995005,281.4002378999721,281.10053159995005,281.4002378999721,281.10053159995005,281.4002378999721,281.36711130000185,281.86773039994296,281.36711130000185,281.86773039994296,281.36711130000185,281.86773039994296,281.36711130000185,281.86773039994296,281.36711130000185,281.86773039994296,281.36711130000185,281.86773039994296,281.36711130000185,281.86773039994296,281.36711130000185,281.86773039994296,281.10053159995005,None,281.86773039994296,284.0220470998902,0.29000000000000004,284.05458149989136,None,284.806122399983,None,,,,,,,[2.15387097],4.240000000000004,0.7096774193548387,11020,001,2024_Jan_05_1012,MFTM_A_new1021,2021.2.3,60.02959459185393,
,,,,,,,,stim/Instruction_adaptive.png,conditions/adaptive.xlsx,test,0.6,0.6,0.6,-0.6,-0.6,right,R,,,,,0,1,1,1,0,31,31,46,,,,,,,,,,,,,,,,,,,,,,,,,,,,,,,,,,,,,,,,,,,,285.3063453999348,None,right,1,0.5590832000598311,285.806790899951,286.65872559999116,285.806790899951,286.15768759988714,285.806790899951,286.15768759988714,285.806790899951,286.15768759988714,285.806790899951,286.15768759988714,285.806790899951,286.15768759988714,286.14107499993406,286.6423870999133,286.14107499993406,286.6423870999133,286.14107499993406,286.6423870999133,286.14107499993406,286.6423870999133,286.14107499993406,286.6423870999133,286.14107499993406,286.6423870999133,286.14107499993406,286.6423870999133,286.14107499993406,286.6423870999133,285.806790899951,None,286.6423870999133,288.79535659996327,0.3500000000000001,288.81131929997355,None,289.5624751999276,None,,,,,,,[[2.15]],4.330000000000004,0.71875,11020,001,2024_Jan_05_1012,MFTM_A_new1021,2021.2.3,60.02959459185393,
,,,,,,,,stim/Instruction_adaptive.png,conditions/adaptive.xlsx,test,0.6,0.6,0.6,-0.6,-0.6,right,R,,,,,0,1,1,1,0,32,32,94,,,,,,,,,,,,,,,,,,,,,,,,,,,,,,,,,,,,,,,,,,,,290.06323339999653,None,right,1,0.5935680000111461,290.5640181999188,291.398576199892,290.5640181999188,290.8976821999531,290.5640181999188,290.8976821999531,290.5640181999188,290.8976821999531,290.5640181999188,290.8976821999531,290.5640181999188,290.8976821999531,290.881989199901,291.38206099998206,290.881989199901,291.38206099998206,290.881989199901,291.38206099998206,290.881989199901,291.38206099998206,290.881989199901,291.38206099998206,290.881989199901,291.38206099998206,290.881989199901,291.38206099998206,290.881989199901,291.38206099998206,290.5640181999188,None,291.38206099998206,None,0.33000000000000007,293.55167679989245,None,294.3028523999965,None,,,,,,,[2.15424242],4.4200000000000035,0.7272727272727273,11020,001,2024_Jan_05_1012,MFTM_A_new1021,2021.2.3,60.02959459185393,
,,,,,,,,stim/Instruction_adaptive.png,conditions/adaptive.xlsx,test,0.6,0.6,0.6,-0.6,-0.6,right,R,,,,,0,1,1,1,0,33,33,44,,,,,,,,,,,,,,,,,,,,,,,,,,,,,,,,,,,,,,,,,,,,294.80363149999175,None,right,1,0.4529790999367833,295.3046837999718,296.1234030999476,295.3046837999718,295.62199269991834,295.3046837999718,295.62199269991834,295.3046837999718,295.62199269991834,295.3046837999718,295.62199269991834,295.3046837999718,295.62199269991834,295.5885352999903,296.0894520999864,295.5885352999903,296.0894520999864,295.5885352999903,296.0894520999864,295.5885352999903,296.0894520999864,295.5885352999903,296.0894520999864,295.5885352999903,296.0894520999864,295.5885352999903,296.0894520999864,295.5885352999903,296.0894520999864,295.3046837999718,None,296.0894520999864,298.2597588999197,0.31000000000000005,298.27561089990195,None,299.02646679989994,None,,,,,,,[2.15529412],4.490000000000004,0.7352941176470589,11020,001,2024_Jan_05_1012,MFTM_A_new1021,2021.2.3,60.02959459185393,
,,,,,,,,stim/Instruction_adaptive.png,conditions/adaptive.xlsx,test,-0.6,-0.6,-0.6,0.6,0.6,left,L,,,,,0,1,1,1,0,34,34,17,,,,,,,,,,,,,,,,,,,,,,,,,,,,,,,,,,,,,,,,,,,,299.528140099952,None,right,0,1.041670999955386,300.0279366999166,300.82902730000205,300.0279366999166,300.32840249990113,300.0279366999166,300.32840249990113,300.0279366999166,300.32840249990113,300.0279366999166,300.32840249990113,300.0279366999166,300.32840249990113,300.29597889992874,300.79624409996904,300.29597889992874,300.79624409996904,300.29597889992874,300.79624409996904,300.29597889992874,300.79624409996904,300.29597889992874,300.79624409996904,300.29597889992874,300.79624409996904,300.29597889992874,300.79624409996904,300.29597889992874,300.79624409996904,300.0279366999166,None,300.79624409996904,302.96572899993043,0.29000000000000004,302.98221609997563,None,303.73405039997306,None,,,,,,,[2.15685714],4.280000000000003,0.7142857142857143,11020,001,2024_Jan_05_1012,MFTM_A_new1021,2021.2.3,60.02959459185393,
,,,,,,,,stim/Instruction_adaptive.png,conditions/adaptive.xlsx,test,-0.6,-0.6,-0.6,0.6,0.6,left,L,,,,,0,1,1,1,0,35,35,85,,,,,,,,,,,,,,,,,,,,,,,,,,,,,,,,,,,,,,,,,,,,304.2347656999482,None,left,1,0.4787068000296131,304.73495749989524,305.58744129992556,304.73495749989524,305.0855398999993,304.73495749989524,305.0855398999993,304.73495749989524,305.0855398999993,304.73495749989524,305.0855398999993,304.73495749989524,305.0855398999993,305.05321419995744,305.5526259999024,305.05321419995744,305.5526259999024,305.05321419995744,305.5526259999024,305.05321419995744,305.5526259999024,305.05321419995744,305.5526259999024,305.05321419995744,305.5526259999024,305.05321419995744,305.5526259999024,305.05321419995744,305.5526259999024,304.73495749989524,None,305.5526259999024,307.7227640999481,0.3400000000000001,307.7391735999845,None,308.49104969995096,None,,,,,,,[2.15694444],4.360000000000003,0.7222222222222222,11020,001,2024_Jan_05_1012,MFTM_A_new1021,2021.2.3,60.02959459185393,
,,,,,,,,stim/Instruction_adaptive.png,conditions/adaptive.xlsx,test,-0.6,-0.6,-0.6,0.6,0.6,left,L,,,,,0,1,1,1,0,36,36,61,,,,,,,,,,,,,,,,,,,,,,,,,,,,,,,,,,,,,,,,,,,,308.9921749999048,None,right,0,0.4574855000246316,309.49219069990795,310.3264845999656,309.49219069990795,309.82565949996933,309.49219069990795,309.82565949996933,309.49219069990795,309.82565949996933,309.49219069990795,309.82565949996933,309.49219069990795,309.82565949996933,309.79300659999717,310.2942269999767,309.79300659999717,310.2942269999767,309.79300659999717,310.2942269999767,309.79300659999717,310.2942269999767,309.79300659999717,310.2942269999767,309.79300659999717,310.2942269999767,309.79300659999717,310.2942269999767,309.79300659999717,310.2942269999767,309.49219069990795,None,310.2942269999767,312.463178099948,0.32000000000000006,312.4799121998949,None,313.2312789999414,None,,,,,,,[2.15756757],4.140000000000003,0.7027027027027027,11020,001,2024_Jan_05_1012,MFTM_A_new1021,2021.2.3,60.02959459185393,
,,,,,,,,stim/Instruction_adaptive.png,conditions/adaptive.xlsx,test,-0.6,-0.6,-0.6,0.6,0.6,left,L,,,,,0,1,1,1,0,37,37,99,,,,,,,,,,,,,,,,,,,,,,,,,,,,,,,,,,,,,,,,,,,,313.732111099991,None,left,1,0.7639895000029355,314.2337421999546,315.11682249989826,314.2337421999546,314.61647219990846,314.2337421999546,314.61647219990846,314.2337421999546,314.61647219990846,314.2337421999546,314.61647219990846,314.2337421999546,314.61647219990846,314.58339769998565,315.08340959995985,314.58339769998565,315.08340959995985,314.58339769998565,315.08340959995985,314.58339769998565,315.08340959995985,314.58339769998565,315.08340959995985,314.58339769998565,315.08340959995985,314.58339769998565,315.08340959995985,314.58339769998565,315.08340959995985,314.2337421999546,None,315.08340959995985,317.22016969998367,0.3700000000000001,317.23682159988675,None,317.9889171998948,None,,,,,,,[[2.13]],4.220000000000003,0.7105263157894737,11020,001,2024_Jan_05_1012,MFTM_A_new1021,2021.2.3,60.02959459185393,
,,,,,,,,stim/Instruction_adaptive.png,conditions/adaptive.xlsx,test,0.6,0.6,0.6,-0.6,-0.6,right,R,,,,,0,1,1,1,0,38,38,42,,,,,,,,,,,,,,,,,,,,,,,,,,,,,,,,,,,,,,,,,,,,318.48871579999104,None,right,1,1.272556700045243,318.98936329991557,319.84149529994465,318.98936329991557,319.3401989999693,318.98936329991557,319.3401989999693,318.98936329991557,319.3401989999693,318.98936329991557,319.3401989999693,318.98936329991557,319.3401989999693,319.3233853999991,319.8249284999911,319.3233853999991,319.8249284999911,319.3233853999991,319.8249284999911,319.3233853999991,319.8249284999911,319.3233853999991,319.8249284999911,319.3233853999991,319.8249284999911,319.3233853999991,319.8249284999911,319.3233853999991,319.8249284999911,318.98936329991557,None,319.8249284999911,321.97766219999176,0.3500000000000001,321.9938544998877,None,322.7458549999865,None,,,,,,,[[2.15]],4.290000000000004,0.717948717948718,11020,001,2024_Jan_05_1012,MFTM_A_new1021,2021.2.3,60.02959459185393,
,,,,,,,,stim/Instruction_adaptive.png,conditions/adaptive.xlsx,test,0.6,0.6,0.6,-0.6,-0.6,right,R,,,,,0,1,1,1,0,39,39,26,,,,,,,,,,,,,,,,,,,,,,,,,,,,,,,,,,,,,,,,,,,,323.2465576999821,None,right,1,1.0590403000824153,323.7466551999096,324.5984902998898,323.7466551999096,324.09732619998977,323.7466551999096,324.09732619998977,323.7466551999096,324.09732619998977,323.7466551999096,324.09732619998977,323.7466551999096,324.09732619998977,324.0635011999402,324.56500279996544,324.0635011999402,324.56500279996544,324.0635011999402,324.56500279996544,324.0635011999402,324.56500279996544,324.0635011999402,324.56500279996544,324.0635011999402,324.56500279996544,324.0635011999402,324.56500279996544,324.0635011999402,324.56500279996544,323.7466551999096,None,324.56500279996544,326.73493909998797,0.3400000000000001,326.75130769994576,None,327.5021352999611,None,,,,,,,[2.15675],4.360000000000003,0.725,11020,001,2024_Jan_05_1012,MFTM_A_new1021,2021.2.3,60.02959459185393,
,,,,,,,,stim/Instruction_adaptive.png,conditions/adaptive.xlsx,test,-0.6,-0.6,-0.6,0.6,0.6,left,L,,,,,0,1,1,1,0,40,40,63,,,,,,,,,,,,,,,,,,,,,,,,,,,,,,,,,,,,,,,,,,,,328.0028006999055,None,left,1,0.904032799997367,328.50342849991284,329.3386113999877,328.50342849991284,328.8370191999711,328.50342849991284,328.8370191999711,328.50342849991284,328.8370191999711,328.50342849991284,328.8370191999711,328.50342849991284,328.8370191999711,328.804197999998,329.30477529997006,328.804197999998,329.30477529997006,328.804197999998,329.30477529997006,328.804197999998,329.30477529997006,328.804197999998,329.30477529997006,328.804197999998,329.30477529997006,328.804197999998,329.30477529997006,328.804197999998,329.30477529997006,328.50342849991284,None,329.30477529997006,331.47514969995245,0.32000000000000006,331.4911819999106,None,332.24317909998354,None,,,,,,,[2.15731707],4.4200000000000035,0.7317073170731707,11020,001,2024_Jan_05_1012,MFTM_A_new1021,2021.2.3,60.02959459185393,
,,,,,,,,stim/Instruction_adaptive.png,conditions/adaptive.xlsx,test,-0.6,-0.6,-0.6,0.6,0.6,left,L,,,,,0,1,1,1,0,41,41,1,,,,,,,,,,,,,,,,,,,,,,,,,,,,,,,,,,,,,,,,,,,,332.7433639999945,None,right,0,1.0741564999334514,333.24372059991583,334.0621245999355,333.24372059991583,333.5610311999917,333.24372059991583,333.5610311999917,333.24372059991583,333.5610311999917,333.24372059991583,333.5610311999917,333.24372059991583,333.5610311999917,333.5450203999644,334.0456125999335,333.5450203999644,334.0456125999335,333.5450203999644,334.0456125999335,333.5450203999644,334.0456125999335,333.5450203999644,334.0456125999335,333.5450203999644,334.0456125999335,333.5450203999644,334.0456125999335,333.5450203999644,334.0456125999335,333.24372059991583,None,334.0456125999335,None,0.31000000000000005,336.21480089996476,None,336.9658710999647,None,,,,,,,[2.15809524],4.240000000000004,0.7142857142857143,11020,001,2024_Jan_05_1012,MFTM_A_new1021,2021.2.3,60.02959459185393,
,,,,,,,,stim/Instruction_adaptive.png,conditions/adaptive.xlsx,test,0.6,0.6,0.6,-0.6,-0.6,right,R,,,,,0,1,1,1,0,42,42,20,,,,,,,,,,,,,,,,,,,,,,,,,,,,,,,,,,,,,,,,,,,,337.46698689996265,None,left,0,2.1192162000807,337.9678508999059,338.8189693999011,337.9678508999059,338.31810409994796,337.9678508999059,338.31810409994796,337.9678508999059,338.31810409994796,337.9678508999059,338.31810409994796,337.9678508999059,338.31810409994796,338.3018856999697,338.8021335999947,338.3018856999697,338.8021335999947,338.3018856999697,338.8021335999947,338.3018856999697,338.8021335999947,338.3018856999697,338.8021335999947,338.3018856999697,338.8021335999947,338.3018856999697,338.8021335999947,338.3018856999697,338.8021335999947,337.9678508999059,None,338.8021335999947,340.9565841999138,0.3500000000000001,340.9718355999794,None,341.7230455999961,None,,,,,,,[[2.15]],4.050000000000003,0.6976744186046512,11020,001,2024_Jan_05_1012,MFTM_A_new1021,2021.2.3,60.02959459185393,
,,,,,,,,stim/Instruction_adaptive.png,conditions/adaptive.xlsx,test,-0.6,-0.6,-0.6,0.6,0.6,left,L,,,,,0,1,1,1,0,43,43,15,,,,,,,,,,,,,,,,,,,,,,,,,,,,,,,,,,,,,,,,,,,,342.22478799999226,None,right,0,1.1447030999697745,342.72494809993077,343.62656749994494,342.72494809993077,343.1251650999766,342.72494809993077,343.1251650999766,342.72494809993077,343.1251650999766,342.72494809993077,343.1251650999766,342.72494809993077,343.1251650999766,343.10851849999744,343.60963099997025,343.10851849999744,343.60963099997025,343.10851849999744,343.60963099997025,343.10851849999744,343.60963099997025,343.10851849999744,343.60963099997025,343.10851849999744,343.60963099997025,343.10851849999744,343.60963099997025,343.10851849999744,343.60963099997025,342.72494809993077,None,343.60963099997025,345.7131906999275,0.40000000000000013,345.7288741999073,None,346.4814738999121,None,,,,,,,[[2.1]],3.820000000000003,0.6818181818181818,11020,001,2024_Jan_05_1012,MFTM_A_new1021,2021.2.3,60.02959459185393,
,,,,,,,,stim/Instruction_adaptive.png,conditions/adaptive.xlsx,test,0.6,0.6,0.6,-0.6,-0.6,right,R,,,,,0,1,1,1,0,44,44,16,,,,,,,,,,,,,,,,,,,,,,,,,,,,,,,,,,,,,,,,,,,,346.9807204999961,None,right,1,1.4362791000166908,347.48198629997205,348.46858579991385,347.48198629997205,347.96559129992966,347.48198629997205,347.96559129992966,347.48198629997205,347.96559129992966,347.48198629997205,347.96559129992966,347.48198629997205,347.96559129992966,347.93257159995846,348.4330695999088,347.93257159995846,348.4330695999088,347.93257159995846,348.4330695999088,347.93257159995846,348.4330695999088,347.93257159995846,348.4330695999088,347.93257159995846,348.4330695999088,347.93257159995846,348.4330695999088,347.93257159995846,348.4330695999088,347.48198629997205,None,348.4330695999088,350.46946649998426,0.4700000000000002,350.48599109996576,None,351.2373774999287,None,,,,,,,[[2.03]],3.900000000000003,0.6888888888888889,11020,001,2024_Jan_05_1012,MFTM_A_new1021,2021.2.3,60.02959459185393,
,,,,,,,,stim/Instruction_adaptive.png,conditions/adaptive.xlsx,test,0.6,0.6,0.6,-0.6,-0.6,right,R,,,,,0,1,1,1,0,45,45,60,,,,,,,,,,,,,,,,,,,,,,,,,,,,,,,,,,,,,,,,,,,,351.73802629997954,None,right,1,0.9582051000325009,352.2394079999067,353.1906119999476,352.2394079999067,352.6893076999113,352.2394079999067,352.6893076999113,352.2394079999067,352.6893076999113,352.2394079999067,352.6893076999113,352.2394079999067,352.6893076999113,352.6560030999826,353.1574667999521,352.6560030999826,353.1574667999521,352.6560030999826,353.1574667999521,352.6560030999826,353.1574667999521,352.6560030999826,353.1574667999521,352.6560030999826,353.1574667999521,352.6560030999826,353.1574667999521,352.6560030999826,353.1574667999521,352.2394079999067,None,353.1574667999521,355.22635799995624,0.44000000000000017,355.24356819991954,None,355.9948938000016,None,,,,,,,[[2.06]],3.980000000000003,0.6956521739130435,11020,001,2024_Jan_05_1012,MFTM_A_new1021,2021.2.3,60.02959459185393,
,,,,,,,,stim/Instruction_adaptive.png,conditions/adaptive.xlsx,test,-0.6,-0.6,-0.6,0.6,0.6,left,L,,,,,0,1,1,1,0,46,46,95,,,,,,,,,,,,,,,,,,,,,,,,,,,,,,,,,,,,,,,,,,,,356.4952253999654,None,right,0,1.0100614000111818,356.99566149991006,357.93048289988656,356.99566149991006,357.4297000999795,356.99566149991006,357.4297000999795,356.99566149991006,357.4297000999795,356.99566149991006,357.4297000999795,356.99566149991006,357.4297000999795,357.3964951999951,357.8970905999886,357.3964951999951,357.8970905999886,357.3964951999951,357.8970905999886,357.3964951999951,357.8970905999886,357.3964951999951,357.8970905999886,357.3964951999951,357.8970905999886,357.3964951999951,357.8970905999886,357.3964951999951,357.8970905999886,356.99566149991006,None,357.8970905999886,359.984193299897,0.42000000000000015,360.0001494999742,None,360.75238329998683,None,,,,,,,[[2.08]],3.770000000000003,0.6808510638297872,11020,001,2024_Jan_05_1012,MFTM_A_new1021,2021.2.3,60.02959459185393,
,,,,,,,,stim/Instruction_adaptive.png,conditions/adaptive.xlsx,test,-0.6,-0.6,-0.6,0.6,0.6,left,L,,,,,0,1,1,1,0,47,47,41,,,,,,,,,,,,,,,,,,,,,,,,,,,,,,,,,,,,,,,,,,,,361.2521360999672,None,left,1,0.7261745999567211,361.7526934999041,362.7375828999793,361.7526934999041,362.2365986999357,361.7526934999041,362.2365986999357,361.7526934999041,362.2365986999357,361.7526934999041,362.2365986999357,361.7526934999041,362.2365986999357,362.21986079995986,362.72093429998495,362.21986079995986,362.72093429998495,362.21986079995986,362.72093429998495,362.21986079995986,362.72093429998495,362.21986079995986,362.72093429998495,362.21986079995986,362.72093429998495,362.21986079995986,362.72093429998495,362.21986079995986,362.72093429998495,361.7526934999041,None,362.72093429998495,364.74075189989526,0.4800000000000002,364.7572018998908,None,365.5086876999121,None,,,,,,,[[2.02]],3.840000000000003,0.6875,11020,001,2024_Jan_05_1012,MFTM_A_new1021,2021.2.3,60.02959459185393,
,,,,,,,,stim/Instruction_adaptive.png,conditions/adaptive.xlsx,test,-0.6,-0.6,-0.6,0.6,0.6,left,L,,,,,0,1,1,1,0,48,48,97,,,,,,,,,,,,,,,,,,,,,,,,,,,,,,,,,,,,,,,,,,,,366.0090423999354,None,left,1,0.5033595999702811,366.51034169993363,367.4785503000021,366.51034169993363,366.9770227998961,366.51034169993363,366.9770227998961,366.51034169993363,366.9770227998961,366.51034169993363,366.9770227998961,366.51034169993363,366.9770227998961,366.96201369992923,367.46267809998244,366.96201369992923,367.46267809998244,366.96201369992923,367.46267809998244,366.96201369992923,367.46267809998244,366.96201369992923,367.46267809998244,366.96201369992923,367.46267809998244,366.96201369992923,367.46267809998244,366.96201369992923,367.46267809998244,366.51034169993363,None,367.46267809998244,None,0.4600000000000002,369.51514469995163,None,370.2666177999927,None,,,,,,,[[2.04]],3.910000000000003,0.6938775510204082,11020,001,2024_Jan_05_1012,MFTM_A_new1021,2021.2.3,60.02959459185393,
,,,,,,,,stim/Instruction_adaptive.png,conditions/adaptive.xlsx,test,-0.6,-0.6,-0.6,0.6,0.6,left,L,,,,,0,1,1,1,0,49,49,7,,,,,,,,,,,,,,,,,,,,,,,,,,,,,,,,,,,,,,,,,,,,370.76664349995553,None,right,0,0.5233021000167355,371.26690869999584,372.2183367999969,371.26690869999584,371.71754309989046,371.26690869999584,371.71754309989046,371.26690869999584,371.71754309989046,371.26690869999584,371.71754309989046,371.26690869999584,371.71754309989046,371.6848860998871,372.18494549999014,371.6848860998871,372.18494549999014,371.6848860998871,372.18494549999014,371.6848860998871,372.18494549999014,371.6848860998871,372.18494549999014,371.6848860998871,372.18494549999014,371.6848860998871,372.18494549999014,371.6848860998871,372.18494549999014,371.26690869999584,None,372.18494549999014,374.2552549999673,0.44000000000000017,374.2707929998869,None,375.02252349990886,None,,,,,,,[[2.06]],3.7100000000000026,0.68,11020,001,2024_Jan_05_1012,MFTM_A_new1021,2021.2.3,60.02959459185393,
,,,,,,,,stim/Instruction_adaptive.png,conditions/adaptive.xlsx,test,-0.6,-0.6,-0.6,0.6,0.6,left,L,,,,,0,1,1,1,0,50,50,83,,,,,,,,,,,,,,,,,,,,,,,,,,,,,,,,,,,,,,,,,,,,375.52352579997387,None,right,0,1.2460056999698281,376.02407489996403,377.02619819995016,376.02407489996403,376.52538009989075,376.02407489996403,376.52538009989075,376.02407489996403,376.52538009989075,376.02407489996403,376.52538009989075,376.02407489996403,376.52538009989075,376.5079162999755,377.0108429999091,376.5079162999755,377.0108429999091,376.5079162999755,377.0108429999091,376.5079162999755,377.0108429999091,376.5079162999755,377.0108429999091,376.5079162999755,377.0108429999091,376.5079162999755,377.0108429999091,376.5079162999755,377.0108429999091,376.02407489996403,None,377.0108429999091,379.0122506999178,0.5000000000000002,379.0283187999157,None,379.7800144999055,None,,,,,,,[[2.]],3.4800000000000026,0.6666666666666666,11020,001,2024_Jan_05_1012,MFTM_A_new1021,2021.2.3,60.02959459185393,
,,,,,,,,stim/Instruction_adaptive.png,conditions/adaptive.xlsx,test,0.6,0.6,0.6,-0.6,-0.6,right,R,,,,,0,1,1,1,0,51,51,30,,,,,,,,,,,,,,,,,,,,,,,,,,,,,,,,,,,,,,,,,,,,380.28038799995556,None,right,1,1.1694153000134975,380.7811148999026,381.8826382999541,380.7811148999026,381.38219219993334,380.7811148999026,381.38219219993334,380.7811148999026,381.38219219993334,380.7811148999026,381.38219219993334,380.7811148999026,381.38219219993334,381.348329499946,381.84965089999605,381.348329499946,381.84965089999605,381.348329499946,381.84965089999605,381.348329499946,381.84965089999605,381.348329499946,381.84965089999605,381.348329499946,381.84965089999605,381.348329499946,381.84965089999605,381.348329499946,381.84965089999605,380.7811148999026,None,381.84965089999605,383.76886569999624,0.5900000000000003,383.78542229998857,None,384.5370340999216,None,,,,,,,[[1.91]],3.5600000000000027,0.6730769230769231,11020,001,2024_Jan_05_1012,MFTM_A_new1021,2021.2.3,60.02959459185393,
,,,,,,,,stim/Instruction_adaptive.png,conditions/adaptive.xlsx,test,0.6,0.6,0.6,-0.6,-0.6,right,R,,,,,0,1,1,1,0,52,52,96,,,,,,,,,,,,,,,,,,,,,,,,,,,,,,,,,,,,,,,,,,,,385.0376448999159,None,right,1,0.7160865999758244,385.53816249989904,386.60726979991887,385.53816249989904,386.10530119994655,385.53816249989904,386.10530119994655,385.53816249989904,386.10530119994655,385.53816249989904,386.10530119994655,385.53816249989904,386.10530119994655,386.07212679996155,386.57314019999467,386.07212679996155,386.57314019999467,386.07212679996155,386.57314019999467,386.07212679996155,386.57314019999467,386.07212679996155,386.57314019999467,386.07212679996155,386.57314019999467,386.07212679996155,386.57314019999467,386.07212679996155,386.57314019999467,385.53816249989904,None,386.57314019999467,388.52577979990747,0.5600000000000003,388.5424973999616,None,389.2939546999987,None,,,,,,,[[1.94]],3.640000000000003,0.6792452830188679,11020,001,2024_Jan_05_1012,MFTM_A_new1021,2021.2.3,60.02959459185393,
,,,,,,,,stim/Instruction_adaptive.png,conditions/adaptive.xlsx,test,0.6,0.6,0.6,-0.6,-0.6,right,R,,,,,0,1,1,1,0,53,53,84,,,,,,,,,,,,,,,,,,,,,,,,,,,,,,,,,,,,,,,,,,,,389.79438849992584,None,right,1,1.0463185999542475,390.29605699994136,391.3299269999843,390.29605699994136,390.83011439989787,390.29605699994136,390.83011439989787,390.29605699994136,390.83011439989787,390.29605699994136,390.83011439989787,390.29605699994136,390.83011439989787,390.81411559996195,391.31318779999856,390.81411559996195,391.31318779999856,390.81411559996195,391.31318779999856,390.81411559996195,391.31318779999856,390.81411559996195,391.31318779999856,390.81411559996195,391.31318779999856,390.81411559996195,391.31318779999856,390.81411559996195,391.31318779999856,390.29605699994136,None,391.31318779999856,393.2829003999941,0.5300000000000002,393.2999402999412,None,394.0507022999227,None,,,,,,,[[1.97]],3.7100000000000026,0.6851851851851852,11020,001,2024_Jan_05_1012,MFTM_A_new1021,2021.2.3,60.02959459185393,
,,,,,,,,stim/Instruction_adaptive.png,conditions/adaptive.xlsx,test,-0.6,-0.6,-0.6,0.6,0.6,left,L,,,,,0,1,1,1,0,54,54,75,,,,,,,,,,,,,,,,,,,,,,,,,,,,,,,,,,,,,,,,,,,,394.5514504999155,None,left,1,1.082234299974516,395.0520851999754,396.05379889998585,395.0520851999754,395.5527824999299,395.0520851999754,395.5527824999299,395.0520851999754,395.5527824999299,395.0520851999754,395.5527824999299,395.0520851999754,395.5527824999299,395.5361851999769,396.0368730999762,395.5361851999769,396.0368730999762,395.5361851999769,396.0368730999762,395.5361851999769,396.0368730999762,395.5361851999769,396.0368730999762,395.5361851999769,396.0368730999762,395.5361851999769,396.0368730999762,395.5361851999769,396.0368730999762,395.0520851999754,None,396.0368730999762,398.0399961998919,0.5000000000000002,398.0567947999807,None,398.80764069990255,None,,,,,,,[[2.]],3.780000000000003,0.6909090909090909,11020,001,2024_Jan_05_1012,MFTM_A_new1021,2021.2.3,60.02959459185393,
,,,,,,,,stim/Instruction_adaptive.png,conditions/adaptive.xlsx,test,0.6,0.6,0.6,-0.6,-0.6,right,R,,,,,0,1,1,1,0,55,55,92,,,,,,,,,,,,,,,,,,,,,,,,,,,,,,,,,,,,,,,,,,,,399.309334199992,None,left,0,0.5887014000909403,399.80905389995314,400.7948830999667,399.80905389995314,400.2935930999229,399.80905389995314,400.2935930999229,399.80905389995314,400.2935930999229,399.80905389995314,400.2935930999229,399.80905389995314,400.2935930999229,400.27666439989116,400.7790488000028,400.27666439989116,400.7790488000028,400.27666439989116,400.7790488000028,400.27666439989116,400.7790488000028,400.27666439989116,400.7790488000028,400.27666439989116,400.7790488000028,400.27666439989116,400.7790488000028,400.27666439989116,400.7790488000028,399.80905389995314,None,400.7790488000028,None,0.4800000000000002,402.8135351999663,None,403.5647237999365,None,,,,,,,[[2.02]],3.5900000000000025,0.6785714285714286,11020,001,2024_Jan_05_1012,MFTM_A_new1021,2021.2.3,60.02959459185393,
,,,,,,,,stim/Instruction_adaptive.png,conditions/adaptive.xlsx,test,0.6,0.6,0.6,-0.6,-0.6,right,R,,,,,0,1,1,1,0,56,56,24,,,,,,,,,,,,,,,,,,,,,,,,,,,,,,,,,,,,,,,,,,,,404.06577039998956,None,right,1,0.927739099948667,404.5661407998996,405.6174860999454,404.5661407998996,405.11726649990305,404.5661407998996,405.11726649990305,404.5661407998996,405.11726649990305,404.5661407998996,405.11726649990305,404.5661407998996,405.11726649990305,405.10036629997194,405.6010325999232,405.10036629997194,405.6010325999232,405.10036629997194,405.6010325999232,405.10036629997194,405.6010325999232,405.10036629997194,405.6010325999232,405.10036629997194,405.6010325999232,405.10036629997194,405.6010325999232,405.10036629997194,405.6010325999232,404.5661407998996,None,405.6010325999232,407.55379269993864,0.5500000000000003,407.57059249992017,None,408.3225160998991,None,,,,,,,[[1.95]],3.660000000000003,0.6842105263157895,11020,001,2024_Jan_05_1012,MFTM_A_new1021,2021.2.3,60.02959459185393,
,,,,,,,,stim/Instruction_adaptive.png,conditions/adaptive.xlsx,test,0.6,0.6,0.6,-0.6,-0.6,right,R,,,,,0,1,1,1,0,57,57,86,,,,,,,,,,,,,,,,,,,,,,,,,,,,,,,,,,,,,,,,,,,,408.82372289989144,None,right,1,1.4419412000570446,409.3239850999089,410.3581486999756,409.3239850999089,409.85751639993396,409.3239850999089,409.85751639993396,409.3239850999089,409.85751639993396,409.3239850999089,409.85751639993396,409.3239850999089,409.85751639993396,409.82394689996727,410.3247231999412,409.82394689996727,410.3247231999412,409.82394689996727,410.3247231999412,409.82394689996727,410.3247231999412,409.82394689996727,410.3247231999412,409.82394689996727,410.3247231999412,409.82394689996727,410.3247231999412,409.82394689996727,410.3247231999412,409.3239850999089,None,410.3247231999412,412.31089139997493,0.5200000000000002,412.3286447999999,None,413.0791137999622,None,,,,,,,[[1.98]],3.720000000000003,0.6896551724137931,11020,001,2024_Jan_05_1012,MFTM_A_new1021,2021.2.3,60.02959459185393,
,,,,,,,,stim/Instruction_adaptive.png,conditions/adaptive.xlsx,test,-0.6,-0.6,-0.6,0.6,0.6,left,L,,,,,0,1,1,1,0,58,58,69,,,,,,,,,,,,,,,,,,,,,,,,,,,,,,,,,,,,,,,,,,,,413.5800257999217,None,left,1,1.4208421999355778,414.08106709993444,415.0817338998895,414.08106709993444,414.5809897999279,414.08106709993444,414.5809897999279,414.08106709993444,414.5809897999279,414.08106709993444,414.5809897999279,414.08106709993444,414.5809897999279,414.5642988999607,415.06527369993273,414.5642988999607,415.06527369993273,414.5642988999607,415.06527369993273,414.5642988999607,415.06527369993273,414.5642988999607,415.06527369993273,414.5642988999607,415.06527369993273,414.5642988999607,415.06527369993273,414.5642988999607,415.06527369993273,414.08106709993444,None,415.06527369993273,417.06844509998336,0.5000000000000002,417.0845894999802,None,417.83648839988746,None,,,,,,,[[2.]],3.780000000000003,0.6949152542372882,11020,001,2024_Jan_05_1012,MFTM_A_new1021,2021.2.3,60.02959459185393,
,,,,,,,,stim/Instruction_adaptive.png,conditions/adaptive.xlsx,test,-0.6,-0.6,-0.6,0.6,0.6,left,L,,,,,0,1,1,1,0,59,59,65,,,,,,,,,,,,,,,,,,,,,,,,,,,,,,,,,,,,,,,,,,,,418.33762869995553,None,left,1,1.8486475999234244,418.83737379999366,419.82211719988845,418.83737379999366,419.32143859995995,418.83737379999366,419.32143859995995,418.83737379999366,419.32143859995995,418.83737379999366,419.32143859995995,418.83737379999366,419.32143859995995,419.30476469988935,419.80661229998805,419.30476469988935,419.80661229998805,419.30476469988935,419.80661229998805,419.30476469988935,419.80661229998805,419.30476469988935,419.80661229998805,419.30476469988935,419.80661229998805,419.30476469988935,419.80661229998805,419.30476469988935,419.80661229998805,418.83737379999366,None,419.80661229998805,None,0.4800000000000002,421.8417183998972,None,422.593704400002,None,,,,,,,[[2.02]],3.8300000000000027,0.7,11020,001,2024_Jan_05_1012,MFTM_A_new1021,2021.2.3,60.02959459185393,
,,,,,,,,stim/Instruction_adaptive.png,conditions/adaptive.xlsx,test,0.6,0.6,0.6,-0.6,-0.6,right,R,,,,,0,1,1,1,0,60,60,2,,,,,,,,,,,,,,,,,,,,,,,,,,,,,,,,,,,,,,,,,,,,423.09370969992597,None,right,1,0.5155358000192791,423.5943718999624,424.5626088998979,423.5943718999624,424.0624109999044,423.5943718999624,424.0624109999044,423.5943718999624,424.0624109999044,423.5943718999624,424.0624109999044,423.5943718999624,424.0624109999044,424.02943769993726,424.5295568999136,424.02943769993726,424.5295568999136,424.02943769993726,424.5295568999136,424.02943769993726,424.5295568999136,424.02943769993726,424.5295568999136,424.02943769993726,424.5295568999136,424.02943769993726,424.5295568999136,424.02943769993726,424.5295568999136,423.5943718999624,None,424.5295568999136,426.5821978999302,0.4600000000000002,426.59880899998825,None,427.35061389999464,None,,,,,,,[[2.04]],3.880000000000003,0.7049180327868853,11020,001,2024_Jan_05_1012,MFTM_A_new1021,2021.2.3,60.02959459185393,
,,,,,,,,stim/Instruction_adaptive.png,conditions/adaptive.xlsx,test,0.6,0.6,0.6,-0.6,-0.6,right,R,,,,,0,1,1,1,0,61,61,56,,,,,,,,,,,,,,,,,,,,,,,,,,,,,,,,,,,,,,,,,,,,427.85073289996944,None,right,1,0.9500506999902427,428.35167719994206,429.30280569999013,428.35167719994206,428.8018437999999,428.35167719994206,428.8018437999999,428.35167719994206,428.8018437999999,428.35167719994206,428.8018437999999,428.35167719994206,428.8018437999999,428.7860122999409,429.2864307999844,428.7860122999409,429.2864307999844,428.7860122999409,429.2864307999844,428.7860122999409,429.2864307999844,428.7860122999409,429.2864307999844,428.7860122999409,429.2864307999844,428.7860122999409,429.2864307999844,428.7860122999409,429.2864307999844,428.35167719994206,None,429.2864307999844,431.3402550999308,0.4500000000000002,431.3560518999584,None,432.10693319991697,None,,,,,,,[[2.05]],3.920000000000003,0.7096774193548387,11020,001,2024_Jan_05_1012,MFTM_A_new1021,2021.2.3,60.02959459185393,
,,,,,,,,stim/Instruction_adaptive.png,conditions/adaptive.xlsx,test,-0.6,-0.6,-0.6,0.6,0.6,left,L,,,,,0,1,1,1,0,62,62,87,,,,,,,,,,,,,,,,,,,,,,,,,,,,,,,,,,,,,,,,,,,,432.60844629991334,None,left,1,0.6249893000349402,433.108775199973,434.04325059999246,433.108775199973,433.5426471999381,433.108775199973,433.5426471999381,433.108775199973,433.5426471999381,433.108775199973,433.5426471999381,433.108775199973,433.5426471999381,433.5265124998987,434.0264807998901,433.5265124998987,434.0264807998901,433.5265124998987,434.0264807998901,433.5265124998987,434.0264807998901,433.5265124998987,434.0264807998901,433.5265124998987,434.0264807998901,433.5265124998987,434.0264807998901,433.5265124998987,434.0264807998901,433.108775199973,None,434.0264807998901,436.0970422999235,0.43000000000000016,436.11297759995796,None,436.86429069994483,None,,,,,,,[[2.07]],3.9700000000000033,0.7142857142857143,11020,001,2024_Jan_05_1012,MFTM_A_new1021,2021.2.3,60.02959459185393,
,,,,,,,,stim/Instruction_adaptive.png,conditions/adaptive.xlsx,test,0.6,0.6,0.6,-0.6,-0.6,right,R,,,,,0,1,1,1,0,63,63,76,,,,,,,,,,,,,,,,,,,,,,,,,,,,,,,,,,,,,,,,,,,,437.364825299941,None,right,1,0.6602342000696808,437.86563519993797,438.78412409999873,437.86563519993797,438.3001263999613,437.86563519993797,438.3001263999613,437.86563519993797,438.3001263999613,437.86563519993797,438.3001263999613,437.86563519993797,438.3001263999613,438.2666973999003,438.76825999992434,438.2666973999003,438.76825999992434,438.2666973999003,438.76825999992434,438.2666973999003,438.76825999992434,438.2666973999003,438.76825999992434,438.2666973999003,438.76825999992434,438.2666973999003,438.76825999992434,438.2666973999003,438.76825999992434,437.86563519993797,None,438.76825999992434,440.85409529996105,0.42000000000000015,440.87006669992115,None,441.6213176999008,None,,,,,,,[[2.08]],4.010000000000003,0.71875,11020,001,2024_Jan_05_1012,MFTM_A_new1021,2021.2.3,60.02959459185393,
,,,,,,,,stim/Instruction_adaptive.png,conditions/adaptive.xlsx,test,-0.6,-0.6,-0.6,0.6,0.6,left,L,,,,,0,1,1,1,0,64,64,31,,,,,,,,,,,,,,,,,,,,,,,,,,,,,,,,,,,,,,,,,,,,442.12223789992277,None,left,1,0.7353891000384465,442.6225784999551,443.5406205999898,442.6225784999551,443.039883099962,442.6225784999551,443.039883099962,442.6225784999551,443.039883099962,442.6225784999551,443.039883099962,442.6225784999551,443.039883099962,443.023562099901,443.5243667999748,443.023562099901,443.5243667999748,443.023562099901,443.5243667999748,443.023562099901,443.5243667999748,443.023562099901,443.5243667999748,443.023562099901,443.5243667999748,443.023562099901,443.5243667999748,443.023562099901,443.5243667999748,442.6225784999551,None,443.5243667999748,None,0.41000000000000014,445.62714029999916,None,446.37838479992934,None,,,,,,,[[2.09]],4.050000000000003,0.7230769230769231,11020,001,2024_Jan_05_1012,MFTM_A_new1021,2021.2.3,60.02959459185393,
,,,,,,,,stim/Instruction_adaptive.png,conditions/adaptive.xlsx,test,-0.6,-0.6,-0.6,0.6,0.6,left,L,,,,,0,1,1,1,0,65,65,51,,,,,,,,,,,,,,,,,,,,,,,,,,,,,,,,,,,,,,,,,,,,446.87949009996373,None,right,0,0.442248799954541,447.3796570999548,448.28203919995576,447.3796570999548,447.7807547999546,447.3796570999548,447.7807547999546,447.3796570999548,447.7807547999546,447.3796570999548,447.7807547999546,447.3796570999548,447.7807547999546,447.76367869996466,448.26527739991434,447.76367869996466,448.26527739991434,447.76367869996466,448.26527739991434,447.76367869996466,448.26527739991434,447.76367869996466,448.26527739991434,447.76367869996466,448.26527739991434,447.76367869996466,448.26527739991434,447.76367869996466,448.26527739991434,447.3796570999548,None,448.26527739991434,450.3675149999326,0.40000000000000013,450.3843966999557,None,451.13577239995357,None,,,,,,,[[2.1]],3.9300000000000033,0.7121212121212122,11020,001,2024_Jan_05_1012,MFTM_A_new1021,2021.2.3,60.02959459185393,
,,,,,,,,stim/Instruction_adaptive.png,conditions/adaptive.xlsx,test,0.6,0.6,0.6,-0.6,-0.6,right,R,,,,,0,1,1,1,0,66,66,50,,,,,,,,,,,,,,,,,,,,,,,,,,,,,,,,,,,,,,,,,,,,451.6365476999199,None,right,1,1.4541237000375986,452.1366073999088,453.0714753998909,452.1366073999088,452.5713563999161,452.1366073999088,452.5713563999161,452.1366073999088,452.5713563999161,452.1366073999088,452.5713563999161,452.1366073999088,452.5713563999161,452.5544108999893,453.05478409992065,452.5544108999893,453.05478409992065,452.5544108999893,453.05478409992065,452.5544108999893,453.05478409992065,452.5544108999893,453.05478409992065,452.5544108999893,453.05478409992065,452.5544108999893,453.05478409992065,452.5544108999893,453.05478409992065,452.1366073999088,None,453.05478409992065,455.1257807998918,0.43000000000000016,455.1408895999193,None,455.8923568999162,None,,,,,,,[[2.07]],3.9700000000000033,0.7164179104477612,11020,001,2024_Jan_05_1012,MFTM_A_new1021,2021.2.3,60.02959459185393,
,,,,,,,,stim/Instruction_adaptive.png,conditions/adaptive.xlsx,test,0.6,0.6,0.6,-0.6,-0.6,right,R,,,,,0,1,1,1,0,67,67,22,,,,,,,,,,,,,,,,,,,,,,,,,,,,,,,,,,,,,,,,,,,,456.39517329994123,None,left,0,1.8480557000730187,456.8939769999124,457.82960919989273,456.8939769999124,457.32783460000064,456.8939769999124,457.32783460000064,456.8939769999124,457.32783460000064,456.8939769999124,457.32783460000064,456.8939769999124,457.32783460000064,457.2942990999436,457.7950404000003,457.2942990999436,457.7950404000003,457.2942990999436,457.7950404000003,457.2942990999436,457.7950404000003,457.2942990999436,457.7950404000003,457.2942990999436,457.7950404000003,457.2942990999436,457.7950404000003,457.2942990999436,457.7950404000003,456.8939769999124,None,457.7950404000003,459.8816543999128,0.42000000000000015,459.8980829999782,None,460.65004789992236,None,,,,,,,[[2.08]],3.860000000000003,0.7058823529411765,11020,001,2024_Jan_05_1012,MFTM_A_new1021,2021.2.3,60.02959459185393,
,,,,,,,,stim/Instruction_adaptive.png,conditions/adaptive.xlsx,test,0.6,0.6,0.6,-0.6,-0.6,right,R,,,,,0,1,1,1,0,68,68,6,,,,,,,,,,,,,,,,,,,,,,,,,,,,,,,,,,,,,,,,,,,,461.1508063999936,None,right,1,1.3226967999944463,461.6510728999274,462.6023310999153,461.6510728999274,462.10141979996115,461.6510728999274,462.10141979996115,461.6510728999274,462.10141979996115,461.6510728999274,462.10141979996115,461.6510728999274,462.10141979996115,462.0846856998978,462.58540829992853,462.0846856998978,462.58540829992853,462.0846856998978,462.58540829992853,462.0846856998978,462.58540829992853,462.0846856998978,462.58540829992853,462.0846856998978,462.58540829992853,462.0846856998978,462.58540829992853,462.0846856998978,462.58540829992853,461.6510728999274,None,462.58540829992853,464.6387913998915,0.4500000000000002,464.6554158999352,None,465.40674999996554,None,,,,,,,[[2.05]],3.900000000000003,0.7101449275362319,11020,001,2024_Jan_05_1012,MFTM_A_new1021,2021.2.3,60.02959459185393,
,,,,,,,,stim/Instruction_adaptive.png,conditions/adaptive.xlsx,test,-0.6,-0.6,-0.6,0.6,0.6,left,L,,,,,0,1,1,1,0,69,69,35,,,,,,,,,,,,,,,,,,,,,,,,,,,,,,,,,,,,,,,,,,,,465.90822289988864,None,left,1,1.5817735999589786,466.4085586000001,467.36152019992005,466.4085586000001,466.85900309996214,466.4085586000001,466.85900309996214,466.4085586000001,466.85900309996214,466.4085586000001,466.85900309996214,466.4085586000001,466.85900309996214,466.8249612998916,467.327086999896,466.8249612998916,467.327086999896,466.8249612998916,467.327086999896,466.8249612998916,467.327086999896,466.8249612998916,467.327086999896,466.8249612998916,467.327086999896,466.8249612998916,467.327086999896,466.8249612998916,467.327086999896,466.4085586000001,None,467.327086999896,469.3961730999872,0.44000000000000017,469.4123724999372,None,470.1633866999764,None,,,,,,,[[2.06]],3.940000000000003,0.7142857142857143,11020,001,2024_Jan_05_1012,MFTM_A_new1021,2021.2.3,60.02959459185393,
,,,,,,,,stim/Instruction_adaptive.png,conditions/adaptive.xlsx,test,-0.6,-0.6,-0.6,0.6,0.6,left,L,,,,,0,1,1,1,0,70,70,93,,,,,,,,,,,,,,,,,,,,,,,,,,,,,,,,,,,,,,,,,,,,470.66405619995203,None,left,1,1.3612584999063984,471.1646455998998,472.09944909997284,471.1646455998998,471.59874659997877,471.1646455998998,471.59874659997877,471.1646455998998,471.59874659997877,471.1646455998998,471.59874659997877,471.1646455998998,471.59874659997877,471.58208619989455,472.0828104999382,471.58208619989455,472.0828104999382,471.58208619989455,472.0828104999382,471.58208619989455,472.0828104999382,471.58208619989455,472.0828104999382,471.58208619989455,472.0828104999382,471.58208619989455,472.0828104999382,471.58208619989455,472.0828104999382,471.1646455998998,None,472.0828104999382,474.1525540999137,0.43000000000000016,474.16955639992375,None,474.92101879999973,None,,,,,,,[[2.07]],3.9700000000000033,0.7183098591549296,11020,001,2024_Jan_05_1012,MFTM_A_new1021,2021.2.3,60.02959459185393,
,,,,,,,,stim/Instruction_adaptive.png,conditions/adaptive.xlsx,test,0.6,0.6,0.6,-0.6,-0.6,right,R,,,,,0,1,1,1,0,71,71,18,,,,,,,,,,,,,,,,,,,,,,,,,,,,,,,,,,,,,,,,,,,,475.42201429989655,None,right,1,0.6844301000237465,475.9226777999429,476.8569001998985,475.9226777999429,476.3557126999367,475.9226777999429,476.3557126999367,475.9226777999429,476.3557126999367,475.9226777999429,476.3557126999367,475.9226777999429,476.3557126999367,476.32254879991524,476.8236011998961,476.32254879991524,476.8236011998961,476.32254879991524,476.8236011998961,476.32254879991524,476.8236011998961,476.32254879991524,476.8236011998961,476.32254879991524,476.8236011998961,476.32254879991524,476.8236011998961,476.32254879991524,476.8236011998961,475.9226777999429,None,476.8236011998961,478.90981199999806,0.42000000000000015,478.926288299961,None,479.6774730999023,None,,,,,,,[[2.08]],4.010000000000003,0.7222222222222222,11020,001,2024_Jan_05_1012,MFTM_A_new1021,2021.2.3,60.02959459185393,
,,,,,,,,stim/Instruction_adaptive.png,conditions/adaptive.xlsx,test,-0.6,-0.6,-0.6,0.6,0.6,left,L,,,,,0,1,1,1,0,72,72,73,,,,,,,,,,,,,,,,,,,,,,,,,,,,,,,,,,,,,,,,,,,,480.1802018999588,None,right,0,0.574496699962765,480.67943799996283,481.59707779996097,480.67943799996283,481.0970753999427,480.67943799996283,481.0970753999427,480.67943799996283,481.0970753999427,480.67943799996283,481.0970753999427,480.67943799996283,481.0970753999427,481.06287319993135,481.56438829994295,481.06287319993135,481.56438829994295,481.06287319993135,481.56438829994295,481.06287319993135,481.56438829994295,481.06287319993135,481.56438829994295,481.06287319993135,481.56438829994295,481.06287319993135,481.56438829994295,481.06287319993135,481.56438829994295,480.67943799996283,None,481.56438829994295,483.6666535999393,0.41000000000000014,483.6834244999336,None,484.43480889999773,None,,,,,,,[[2.09]],3.910000000000003,0.7123287671232876,11020,001,2024_Jan_05_1012,MFTM_A_new1021,2021.2.3,60.02959459185393,
,,,,,,,,stim/Instruction_adaptive.png,conditions/adaptive.xlsx,test,0.6,0.6,0.6,-0.6,-0.6,right,R,,,,,0,1,1,1,0,73,73,70,,,,,,,,,,,,,,,,,,,,,,,,,,,,,,,,,,,,,,,,,,,,484.93529679998755,None,left,0,0.7933574999915436,485.43652239989024,486.3872953999089,485.43652239989024,485.8867971999571,485.43652239989024,485.8867971999571,485.43652239989024,485.8867971999571,485.43652239989024,485.8867971999571,485.43652239989024,485.8867971999571,485.8540022999514,486.3542275999207,485.8540022999514,486.3542275999207,485.8540022999514,486.3542275999207,485.8540022999514,486.3542275999207,485.8540022999514,486.3542275999207,485.8540022999514,486.3542275999207,485.8540022999514,486.3542275999207,485.8540022999514,486.3542275999207,485.43652239989024,None,486.3542275999207,488.42382459994406,0.44000000000000017,488.4402507999912,None,489.1916553999763,None,,,,,,,[[2.06]],3.7900000000000027,0.7027027027027027,11020,001,2024_Jan_05_1012,MFTM_A_new1021,2021.2.3,60.02959459185393,
,,,,,,,,stim/Instruction_adaptive.png,conditions/adaptive.xlsx,test,0.6,0.6,0.6,-0.6,-0.6,right,R,,,,,0,1,1,1,0,74,74,52,,,,,,,,,,,,,,,,,,,,,,,,,,,,,,,,,,,,,,,,,,,,489.69263009994756,None,right,1,1.7560442000394687,490.19378969992977,491.17860849993303,490.19378969992977,490.6771499000024,490.19378969992977,490.6771499000024,490.19378969992977,490.6771499000024,490.19378969992977,490.6771499000024,490.19378969992977,490.6771499000024,490.66044409992173,491.1616236999398,490.66044409992173,491.1616236999398,490.66044409992173,491.1616236999398,490.66044409992173,491.1616236999398,490.66044409992173,491.1616236999398,490.66044409992173,491.1616236999398,490.66044409992173,491.1616236999398,490.66044409992173,491.1616236999398,490.19378969992977,None,491.1616236999398,493.1814878999721,0.4800000000000002,493.19739399990067,None,493.94920099992305,None,,,,,,,[[2.02]],3.8300000000000027,0.7066666666666667,11020,001,2024_Jan_05_1012,MFTM_A_new1021,2021.2.3,60.02959459185393,
,,,,,,,,stim/Instruction_adaptive.png,conditions/adaptive.xlsx,test,-0.6,-0.6,-0.6,0.6,0.6,left,L,,,,,0,1,1,1,0,75,75,45,,,,,,,,,,,,,,,,,,,,,,,,,,,,,,,,,,,,,,,,,,,,494.44949519995134,None,right,0,2.1272783000022173,494.95064909989014,495.918846399989,494.95064909989014,495.4178639999591,494.95064909989014,495.4178639999591,494.95064909989014,495.4178639999591,494.95064909989014,495.4178639999591,494.95064909989014,495.4178639999591,495.3841842999682,495.8848817999242,495.3841842999682,495.8848817999242,495.3841842999682,495.8848817999242,495.3841842999682,495.8848817999242,495.3841842999682,495.8848817999242,495.3841842999682,495.8848817999242,495.3841842999682,495.8848817999242,495.3841842999682,495.8848817999242,494.95064909989014,None,495.8848817999242,497.93820509989746,0.4600000000000002,497.95432199991774,None,498.7056205999106,None,,,,,,,[[2.04]],3.720000000000003,0.6973684210526315,11020,001,2024_Jan_05_1012,MFTM_A_new1021,2021.2.3,60.02959459185393,
,,,,,,,,stim/Instruction_adaptive.png,conditions/adaptive.xlsx,test,0.6,0.6,0.6,-0.6,-0.6,right,R,,,,,0,1,1,1,0,76,76,12,,,,,,,,,,,,,,,,,,,,,,,,,,,,,,,,,,,,,,,,,,,,499.2064184999326,None,right,1,1.0665140999481082,499.70778529997915,500.7085933999624,499.70778529997915,500.2080565999495,499.70778529997915,500.2080565999495,499.70778529997915,500.2080565999495,499.70778529997915,500.2080565999495,499.70778529997915,500.2080565999495,500.1918724999996,500.6919275999535,500.1918724999996,500.6919275999535,500.1918724999996,500.6919275999535,500.1918724999996,500.6919275999535,500.1918724999996,500.6919275999535,500.1918724999996,500.6919275999535,500.1918724999996,500.6919275999535,500.1918724999996,500.6919275999535,499.70778529997915,None,500.6919275999535,502.69600749993697,0.5000000000000002,502.7116012999322,None,503.46274919994175,None,,,,,,,[[2.]],3.760000000000003,0.7012987012987013,11020,001,2024_Jan_05_1012,MFTM_A_new1021,2021.2.3,60.02959459185393,
,,,,,,,,stim/Instruction_adaptive.png,conditions/adaptive.xlsx,test,-0.6,-0.6,-0.6,0.6,0.6,left,L,,,,,0,1,1,1,0,77,77,37,,,,,,,,,,,,,,,,,,,,,,,,,,,,,,,,,,,,,,,,,,,,503.96369429992046,None,left,1,1.325922099989839,504.46403279993683,505.46616599999834,504.46403279993683,504.9656933998922,504.46403279993683,504.9656933998922,504.46403279993683,504.9656933998922,504.46403279993683,504.9656933998922,504.46403279993683,504.9656933998922,504.9313414999051,505.4325438999804,504.9313414999051,505.4325438999804,504.9313414999051,505.4325438999804,504.9313414999051,505.4325438999804,504.9313414999051,505.4325438999804,504.9313414999051,505.4325438999804,504.9313414999051,505.4325438999804,504.9313414999051,505.4325438999804,504.46403279993683,None,505.4325438999804,507.4532137999777,0.4900000000000002,507.4687788999872,None,508.22055649990216,None,,,,,,,[[2.01]],3.800000000000003,0.7051282051282052,11020,001,2024_Jan_05_1012,MFTM_A_new1021,2021.2.3,60.02959459185393,
,,,,,,,,stim/Instruction_adaptive.png,conditions/adaptive.xlsx,test,0.6,0.6,0.6,-0.6,-0.6,right,R,,,,,0,1,1,1,0,78,78,66,,,,,,,,,,,,,,,,,,,,,,,,,,,,,,,,,,,,,,,,,,,,508.72146439994685,None,right,1,1.22457249998115,509.2211810000008,510.20708259998355,509.2211810000008,509.7051249999786,509.2211810000008,509.7051249999786,509.2211810000008,509.7051249999786,509.2211810000008,509.7051249999786,509.2211810000008,509.7051249999786,509.67200469993986,510.1727799999062,509.67200469993986,510.1727799999062,509.67200469993986,510.1727799999062,509.67200469993986,510.1727799999062,509.67200469993986,510.1727799999062,509.67200469993986,510.1727799999062,509.67200469993986,510.1727799999062,509.67200469993986,510.1727799999062,509.2211810000008,None,510.1727799999062,512.2099253999768,0.4700000000000002,512.2256876999745,None,512.9769408999709,None,,,,,,,[[2.03]],3.8300000000000027,0.7088607594936709,11020,001,2024_Jan_05_1012,MFTM_A_new1021,2021.2.3,60.02959459185393,
,,,,,,,,stim/Instruction_adaptive.png,conditions/adaptive.xlsx,test,0.6,0.6,0.6,-0.6,-0.6,right,R,,,,,0,1,1,1,0,79,79,78,,,,,,,,,,,,,,,,,,,,,,,,,,,,,,,,,,,,,,,,,,,,513.4775671999669,None,right,1,1.7001607000129297,513.9782967999345,514.9470768999308,513.9782967999345,514.4457254000008,513.9782967999345,514.4457254000008,513.9782967999345,514.4457254000008,513.9782967999345,514.4457254000008,513.9782967999345,514.4457254000008,514.4290242999559,514.9299736999674,514.4290242999559,514.9299736999674,514.4290242999559,514.9299736999674,514.4290242999559,514.9299736999674,514.4290242999559,514.9299736999674,514.4290242999559,514.9299736999674,514.4290242999559,514.9299736999674,514.4290242999559,514.9299736999674,513.9782967999345,None,514.9299736999674,None,0.4600000000000002,516.9827741999179,None,517.734334699926,None,,,,,,,[[2.04]],3.8700000000000028,0.7125,11020,001,2024_Jan_05_1012,MFTM_A_new1021,2021.2.3,60.02959459185393,
,,,,,,,,stim/Instruction_adaptive.png,conditions/adaptive.xlsx,test,-0.6,-0.6,-0.6,0.6,0.6,left,L,,,,,0,1,1,1,0,80,80,11,,,,,,,,,,,,,,,,,,,,,,,,,,,,,,,,,,,,,,,,,,,,518.2346412999323,None,right,0,1.0458433999447152,518.7366280999267,519.6874899999239,518.7366280999267,519.1866057999432,518.7366280999267,519.1866057999432,518.7366280999267,519.1866057999432,518.7366280999267,519.1866057999432,518.7366280999267,519.1866057999432,519.1700987999793,519.6706609999528,519.1700987999793,519.6706609999528,519.1700987999793,519.6706609999528,519.1700987999793,519.6706609999528,519.1700987999793,519.6706609999528,519.1700987999793,519.6706609999528,519.1700987999793,519.6706609999528,519.1700987999793,519.6706609999528,518.7366280999267,None,519.6706609999528,521.7237716999371,0.4500000000000002,521.7399331999477,None,522.4922327999957,None,,,,,,,[[2.05]],3.770000000000003,0.7037037037037037,11020,001,2024_Jan_05_1012,MFTM_A_new1021,2021.2.3,60.02959459185393,
,,,,,,,,stim/Instruction_adaptive.png,conditions/adaptive.xlsx,test,0.6,0.6,0.6,-0.6,-0.6,right,R,,,,,0,1,1,1,0,81,81,34,,,,,,,,,,,,,,,,,,,,,,,,,,,,,,,,,,,,,,,,,,,,522.9916735999286,None,left,0,1.570321600069292,523.492419899907,524.4772470999742,523.492419899907,523.9765369999222,523.492419899907,523.9765369999222,523.492419899907,523.9765369999222,523.492419899907,523.9765369999222,523.492419899907,523.9765369999222,523.9598345999839,524.4608934998978,523.9598345999839,524.4608934998978,523.9598345999839,524.4608934998978,523.9598345999839,524.4608934998978,523.9598345999839,524.4608934998978,523.9598345999839,524.4608934998978,523.9598345999839,524.4608934998978,523.9598345999839,524.4608934998978,523.492419899907,None,524.4608934998978,526.480262799887,0.4800000000000002,526.4974318998866,None,527.2486414999003,None,,,,,,,[[2.02]],3.660000000000003,0.6951219512195121,11020,001,2024_Jan_05_1012,MFTM_A_new1021,2021.2.3,60.02959459185393,
,,,,,,,,stim/Instruction_adaptive.png,conditions/adaptive.xlsx,test,0.6,0.6,0.6,-0.6,-0.6,right,R,,,,,0,1,1,1,0,82,82,64,,,,,,,,,,,,,,,,,,,,,,,,,,,,,,,,,,,,,,,,,,,,527.7496376999188,None,left,0,1.8756089999806136,528.2505982998991,529.284402799909,528.2505982998991,528.7843556998996,528.2505982998991,528.7843556998996,528.2505982998991,528.7843556998996,528.2505982998991,528.7843556998996,528.2505982998991,528.7843556998996,528.7511179998983,529.251712199999,528.7511179998983,529.251712199999,528.7511179998983,529.251712199999,528.7511179998983,529.251712199999,528.7511179998983,529.251712199999,528.7511179998983,529.251712199999,528.7511179998983,529.251712199999,528.7511179998983,529.251712199999,528.2505982998991,None,529.251712199999,531.237155699986,0.5200000000000002,531.2542870999314,None,532.0055753999623,None,,,,,,,[[1.98]],3.5500000000000025,0.6867469879518072,11020,001,2024_Jan_05_1012,MFTM_A_new1021,2021.2.3,60.02959459185393,
,,,,,,,,stim/Instruction_adaptive.png,conditions/adaptive.xlsx,test,0.6,0.6,0.6,-0.6,-0.6,right,R,,,,,0,1,1,1,0,83,83,82,,,,,,,,,,,,,,,,,,,,,,,,,,,,,,,,,,,,,,,,,,,,532.5058542999905,None,right,1,0.8311524000018835,533.0073087998899,534.0764933999162,533.0073087998899,533.5739809999941,533.0073087998899,533.5739809999941,533.0073087998899,533.5739809999941,533.0073087998899,533.5739809999941,533.0073087998899,533.5739809999941,533.5410309999716,534.0415557998931,533.5410309999716,534.0415557998931,533.5410309999716,534.0415557998931,533.5410309999716,534.0415557998931,533.5410309999716,534.0415557998931,533.5410309999716,534.0415557998931,533.5410309999716,534.0415557998931,533.5410309999716,534.0415557998931,533.0073087998899,None,534.0415557998931,535.9950330998981,0.5600000000000003,536.0107200999046,None,536.7624336999143,None,,,,,,,[[1.94]],3.5900000000000025,0.6904761904761905,11020,001,2024_Jan_05_1012,MFTM_A_new1021,2021.2.3,60.02959459185393,
,,,,,,,,stim/Instruction_adaptive.png,conditions/adaptive.xlsx,test,-0.6,-0.6,-0.6,0.6,0.6,left,L,,,,,0,1,1,1,0,84,84,27,,,,,,,,,,,,,,,,,,,,,,,,,,,,,,,,,,,,,,,,,,,,537.263026899891,None,left,1,0.722377400030382,537.7637357999338,538.8151759998873,537.7637357999338,538.3146074999822,537.7637357999338,538.3146074999822,537.7637357999338,538.3146074999822,537.7637357999338,538.3146074999822,537.7637357999338,538.3146074999822,538.2976568999002,538.7989547998877,538.2976568999002,538.7989547998877,538.2976568999002,538.7989547998877,538.2976568999002,538.7989547998877,538.2976568999002,538.7989547998877,538.2976568999002,538.7989547998877,538.2976568999002,538.7989547998877,538.2976568999002,538.7989547998877,537.7637357999338,None,538.7989547998877,540.7519913999131,0.5500000000000003,540.7686382998945,None,541.5191680999706,None,,,,,,,[[1.95]],3.6300000000000026,0.6941176470588235,11020,001,2024_Jan_05_1012,MFTM_A_new1021,2021.2.3,60.02959459185393,
,,,,,,,,stim/Instruction_adaptive.png,conditions/adaptive.xlsx,test,-0.6,-0.6,-0.6,0.6,0.6,left,L,,,,,0,1,1,1,0,85,85,91,,,,,,,,,,,,,,,,,,,,,,,,,,,,,,,,,,,,,,,,,,,,542.0203201998957,None,right,0,2.054089599987492,542.5204274998978,543.5563665999798,542.5204274998978,543.0548697999911,542.5204274998978,543.0548697999911,542.5204274998978,543.0548697999911,542.5204274998978,543.0548697999911,542.5204274998978,543.0548697999911,543.0380659999792,543.5403089999454,543.0380659999792,543.5403089999454,543.0380659999792,543.5403089999454,543.0380659999792,543.5403089999454,543.0380659999792,543.5403089999454,543.0380659999792,543.5403089999454,543.0380659999792,543.5403089999454,543.0380659999792,543.5403089999454,542.5204274998978,None,543.5403089999454,None,0.5300000000000002,545.5251577999443,None,546.2762507000007,None,,,,,,,[[1.97]],3.5100000000000025,0.686046511627907,11020,001,2024_Jan_05_1012,MFTM_A_new1021,2021.2.3,60.02959459185393,
,,,,,,,,stim/Instruction_adaptive.png,conditions/adaptive.xlsx,test,0.6,0.6,0.6,-0.6,-0.6,right,R,,,,,0,1,1,1,0,86,86,10,,,,,,,,,,,,,,,,,,,,,,,,,,,,,,,,,,,,,,,,,,,,546.7771848998964,None,right,1,2.120555800036527,547.2775949999923,548.3637279999675,547.2775949999923,547.862232399988,547.2775949999923,547.862232399988,547.2775949999923,547.862232399988,547.2775949999923,547.862232399988,547.2775949999923,547.862232399988,547.8450605999678,548.3467813999159,547.8450605999678,548.3467813999159,547.8450605999678,548.3467813999159,547.8450605999678,548.3467813999159,547.8450605999678,548.3467813999159,547.8450605999678,548.3467813999159,547.8450605999678,548.3467813999159,547.8450605999678,548.3467813999159,547.2775949999923,None,548.3467813999159,550.266762199928,0.5800000000000003,550.2815031999489,None,551.0337345999433,None,,,,,,,[[1.92]],3.5500000000000025,0.6896551724137931,11020,001,2024_Jan_05_1012,MFTM_A_new1021,2021.2.3,60.02959459185393,
,,,,,,,,stim/Instruction_adaptive.png,conditions/adaptive.xlsx,test,-0.6,-0.6,-0.6,0.6,0.6,left,L,,,,,0,1,1,1,0,87,87,43,,,,,,,,,,,,,,,,,,,,,,,,,,,,,,,,,,,,,,,,,,,,551.5353024998913,None,left,1,1.795001200051047,552.0350653999485,553.1034651999362,552.0350653999485,552.602245899965,552.0350653999485,552.602245899965,552.0350653999485,552.602245899965,552.0350653999485,552.602245899965,552.0350653999485,552.602245899965,552.5694592999062,553.069991700002,552.5694592999062,553.069991700002,552.5694592999062,553.069991700002,552.5694592999062,553.069991700002,552.5694592999062,553.069991700002,552.5694592999062,553.069991700002,552.5694592999062,553.069991700002,552.5694592999062,553.069991700002,552.0350653999485,None,553.069991700002,555.0223440999398,0.5600000000000003,555.039249299909,None,555.7905427999794,None,,,,,,,[[1.94]],3.5900000000000025,0.6931818181818182,11020,001,2024_Jan_05_1012,MFTM_A_new1021,2021.2.3,60.02959459185393,
,,,,,,,,stim/Instruction_adaptive.png,conditions/adaptive.xlsx,test,-0.6,-0.6,-0.6,0.6,0.6,left,L,,,,,0,1,1,1,0,88,88,47,,,,,,,,,,,,,,,,,,,,,,,,,,,,,,,,,,,,,,,,,,,,556.2919555999106,None,left,1,0.8614775999449193,556.792455399991,557.8439005999826,556.792455399991,557.3426881999476,556.792455399991,557.3426881999476,556.792455399991,557.3426881999476,556.792455399991,557.3426881999476,556.792455399991,557.3426881999476,557.3260944999056,557.8266630999278,557.3260944999056,557.8266630999278,557.3260944999056,557.8266630999278,557.3260944999056,557.8266630999278,557.3260944999056,557.8266630999278,557.3260944999056,557.8266630999278,557.3260944999056,557.8266630999278,557.3260944999056,557.8266630999278,556.792455399991,None,557.8266630999278,559.7800858999835,0.5500000000000003,559.7964406999527,None,560.5484105999349,None,,,,,,,[[1.95]],3.6300000000000026,0.6966292134831461,11020,001,2024_Jan_05_1012,MFTM_A_new1021,2021.2.3,60.02959459185393,
,,,,,,,,stim/Instruction_adaptive.png,conditions/adaptive.xlsx,test,-0.6,-0.6,-0.6,0.6,0.6,left,L,,,,,0,1,1,1,0,89,89,55,,,,,,,,,,,,,,,,,,,,,,,,,,,,,,,,,,,,,,,,,,,,561.0483660999453,None,left,1,1.5376616000430658,561.5489631999517,562.5837845999049,561.5489631999517,562.0826889999444,561.5489631999517,562.0826889999444,561.5489631999517,562.0826889999444,561.5489631999517,562.0826889999444,561.5489631999517,562.0826889999444,562.0666812999407,562.5683321999386,562.0666812999407,562.5683321999386,562.0666812999407,562.5683321999386,562.0666812999407,562.5683321999386,562.0666812999407,562.5683321999386,562.0666812999407,562.5683321999386,562.0666812999407,562.5683321999386,562.0666812999407,562.5683321999386,561.5489631999517,None,562.5683321999386,None,0.5300000000000002,564.5531601998955,None,565.30429739994,None,,,,,,,[[1.97]],3.660000000000003,0.7,11020,001,2024_Jan_05_1012,MFTM_A_new1021,2021.2.3,60.02959459185393,
,,,,,,,,stim/Instruction_adaptive.png,conditions/adaptive.xlsx,test,0.6,0.6,0.6,-0.6,-0.6,right,R,,,,,0,1,1,1,0,90,90,80,,,,,,,,,,,,,,,,,,,,,,,,,,,,,,,,,,,,,,,,,,,,565.8052025999641,None,right,1,0.732319499948062,566.3062335998984,567.3407932999544,566.3062335998984,566.8401239999803,566.3062335998984,566.8401239999803,566.3062335998984,566.8401239999803,566.3062335998984,566.8401239999803,566.3062335998984,566.8401239999803,566.8066951999208,567.3071987999137,566.8066951999208,567.3071987999137,566.8066951999208,567.3071987999137,566.8066951999208,567.3071987999137,566.8066951999208,567.3071987999137,566.8066951999208,567.3071987999137,566.8066951999208,567.3071987999137,566.8066951999208,567.3071987999137,566.3062335998984,None,567.3071987999137,569.2939935999457,0.5200000000000002,569.3101138999918,None,570.0614560999675,None,,,,,,,[[1.98]],3.690000000000003,0.7032967032967034,11020,001,2024_Jan_05_1012,MFTM_A_new1021,2021.2.3,60.02959459185393,
,,,,,,,,stim/Instruction_adaptive.png,conditions/adaptive.xlsx,test,0.6,0.6,0.6,-0.6,-0.6,right,R,,,,,0,1,1,1,0,91,91,48,,,,,,,,,,,,,,,,,,,,,,,,,,,,,,,,,,,,,,,,,,,,570.5623202999122,None,right,1,0.5747253999579698,571.0632323999889,572.080982799991,571.0632323999889,571.580378399929,571.0632323999889,571.580378399929,571.0632323999889,571.580378399929,571.0632323999889,571.580378399929,571.0632323999889,571.580378399929,571.5637829999905,572.0657028999412,571.5637829999905,572.0657028999412,571.5637829999905,572.0657028999412,571.5637829999905,572.0657028999412,571.5637829999905,572.0657028999412,571.5637829999905,572.0657028999412,571.5637829999905,572.0657028999412,571.5637829999905,572.0657028999412,571.0632323999889,None,572.0657028999412,None,0.5100000000000002,574.0680640999926,None,574.8183706999989,None,,,,,,,[[1.99]],3.720000000000003,0.7065217391304348,11020,001,2024_Jan_05_1012,MFTM_A_new1021,2021.2.3,60.02959459185393,
,,,,,,,,stim/Instruction_adaptive.png,conditions/adaptive.xlsx,test,0.6,0.6,0.6,-0.6,-0.6,right,R,,,,,0,1,1,1,0,92,92,74,,,,,,,,,,,,,,,,,,,,,,,,,,,,,,,,,,,,,,,,,,,,575.3192473999225,None,right,1,0.7143009999999776,575.8198650999693,576.8214051999385,575.8198650999693,576.3212973999325,575.8198650999693,576.3212973999325,575.8198650999693,576.3212973999325,575.8198650999693,576.3212973999325,575.8198650999693,576.3212973999325,576.3038953999057,576.8049901999766,576.3038953999057,576.8049901999766,576.3038953999057,576.8049901999766,576.3038953999057,576.8049901999766,576.3038953999057,576.8049901999766,576.3038953999057,576.8049901999766,576.3038953999057,576.8049901999766,576.3038953999057,576.8049901999766,575.8198650999693,None,576.8049901999766,578.8080313999671,0.5000000000000002,578.8244605999207,None,579.5758612999925,None,,,,,,,[[2.]],3.7500000000000027,0.7096774193548387,11020,001,2024_Jan_05_1012,MFTM_A_new1021,2021.2.3,60.02959459185393,
,,,,,,,,stim/Instruction_adaptive.png,conditions/adaptive.xlsx,test,-0.6,-0.6,-0.6,0.6,0.6,left,L,,,,,0,1,1,1,0,93,93,49,,,,,,,,,,,,,,,,,,,,,,,,,,,,,,,,,,,,,,,,,,,,580.0780468999874,None,right,0,0.7571670999750495,580.5769293999765,581.5785588999279,580.5769293999765,581.0776906999527,580.5769293999765,581.0776906999527,580.5769293999765,581.0776906999527,580.5769293999765,581.0776906999527,580.5769293999765,581.0776906999527,581.0441930999514,581.5451873999555,581.0441930999514,581.5451873999555,581.0441930999514,581.5451873999555,581.0441930999514,581.5451873999555,581.0441930999514,581.5451873999555,581.0441930999514,581.5451873999555,581.0441930999514,581.5451873999555,581.0441930999514,581.5451873999555,580.5769293999765,None,581.5451873999555,583.5658583999611,0.4900000000000002,583.5810350999236,None,584.332427599933,None,,,,,,,[[2.01]],3.6700000000000026,0.7021276595744681,11020,001,2024_Jan_05_1012,MFTM_A_new1021,2021.2.3,60.02959459185393,
