arrwidth1,arrwidth2,arrwidth3,arrwidth4,arrwidth5,keyb,type,orientation,instruction_image,block_filename,block_type,arrow11,arrow22,arrow33,arrow44,arrow55,keyb_3,orientation3,trials.thisRepN,trials.thisTrialN,trials.thisN,trials.thisIndex,trials_3.thisRepN,trials_3.thisTrialN,trials_3.thisN,trials_3.thisIndex,trials_2.thisRepN,trials_2.thisTrialN,trials_2.thisN,trials_2.thisIndex,welcome.started,welcome.stopped,key_resp.keys,key_resp.rt,key_resp.started,key_resp.stopped,instruction_example.started,instruction_example.stopped,key_resp_3.keys,key_resp_3.rt,key_resp_3.started,key_resp_3.stopped,instruction_task.started,instruction_task.stopped,key_resp_2.keys,key_resp_2.rt,key_resp_2.started,key_resp_2.stopped,text_2.started,text_2.stopped,A1.started,A1.stopped,A2.started,A2.stopped,A3.started,A3.stopped,A4.started,A4.stopped,A5.started,A5.stopped,key_resp_4.keys,key_resp_4.corr,key_resp_4.rt,key_resp_4.started,key_resp_4.stopped,fb.started,fb.stopped,instruction_block.started,instruction_block.stopped,key_resp_8.keys,key_resp_8.rt,key_resp_8.started,key_resp_8.stopped,text_8.started,text_8.stopped,key_resp_9.keys,key_resp_9.corr,key_resp_9.rt,text_5.started,text_5.stopped,A11_3.started,A11_3.stopped,A22_2.started,A22_2.stopped,A33_2.started,A33_2.stopped,A44_2.started,A44_2.stopped,A55_2.started,A55_2.stopped,M1_3.started,M1_3.stopped,M2_2.started,M2_2.stopped,M3_2.started,M3_2.stopped,M4_2.started,M4_2.stopped,M5_2.started,M5_2.stopped,M6_2.started,M6_2.stopped,M7_2.started,M7_2.stopped,M8_2.started,M8_2.stopped,key_resp_9.started,key_resp_9.stopped,fixation.started,fixation.stopped,ET,fb_3.started,fb_3.stopped,text_9.started,text_9.stopped,fb_4.started,fb_4.stopped,text_7.started,text_7.stopped,endtext.started,endtext.stopped,fixation_ITI,CCC,Acc,participant,session,date,expName,psychopyVersion,frameRate,
,,,,,,,,,,,,,,,,,,,,,,,,,,,,,,10.795153500046581,None,left,9.361615699948743,10.795153500046581,None,,,,,,,,,,,,,,,,,,,,,,,,,,,,,,,,,,,,,,,,,,,,,,,,,,,,,,,,,,,,,,,,,,,,,,,,,,,,,,,,,,,,,,,,,11021,001,2024_Jan_05_1108,MFTM_A_new1021,2021.2.3,60.46918038114131,
,,,,,,,,,,,,,,,,,,,,,,,,,,,,,,,,,,,,20.17508519999683,None,right,29.733586799935438,20.17508519999683,None,,,,,,,,,,,,,,,,,,,,,,,,,,,,,,,,,,,,,,,,,,,,,,,,,,,,,,,,,,,,,,,,,,,,,,,,,,,,,,,,,,,11021,001,2024_Jan_05_1108,MFTM_A_new1021,2021.2.3,60.46918038114131,
,,,,,,,,,,,,,,,,,,,,,,,,,,,,,,,,,,,,,,,,,,49.93720749998465,None,right,9.139348999946378,49.93720749998465,None,,,,,,,,,,,,,,,,,,,,,,,,,,,,,,,,,,,,,,,,,,,,,,,,,,,,,,,,,,,,,,,,,,,,,,,,,,,,,11021,001,2024_Jan_05_1108,MFTM_A_new1021,2021.2.3,60.46918038114131,
0.6,0.6,0.6,-0.6,-0.6,right,3:2,R,,,,,,,,,,,0,0,0,0,,,,,,,,,,,,,,,,,,,,,,,,,,,59.116949400049634,None,59.116949400049634,None,59.116949400049634,None,59.116949400049634,None,59.116949400049634,None,59.116949400049634,None,right,1,2.127415499999188,59.116949400049634,None,61.287280400050804,None,,,,,,,,,,,,,,,,,,,,,,,,,,,,,,,,,,,,,,,,,,,,,,,,,,,,,,,,,,11021,001,2024_Jan_05_1108,MFTM_A_new1021,2021.2.3,60.46918038114131,
-0.6,-0.6,-0.6,0.6,0.6,left,3:2,L,,,,,,,,,,,0,1,1,1,,,,,,,,,,,,,,,,,,,,,,,,,,,62.03712470002938,None,62.03712470002938,None,62.03712470002938,None,62.03712470002938,None,62.03712470002938,None,62.03712470002938,None,left,1,1.3040513000451028,62.03712470002938,None,63.35556759999599,None,,,,,,,,,,,,,,,,,,,,,,,,,,,,,,,,,,,,,,,,,,,,,,,,,,,,,,,,,,11021,001,2024_Jan_05_1108,MFTM_A_new1021,2021.2.3,60.46918038114131,
0.6,0.6,0.6,-0.6,-0.6,right,3:2,R,,,,,,,,,,,1,0,2,0,,,,,,,,,,,,,,,,,,,,,,,,,,,64.10783120000269,None,64.10783120000269,None,64.10783120000269,None,64.10783120000269,None,64.10783120000269,None,64.10783120000269,None,right,1,1.3525039000669494,64.10783120000269,None,65.47600500006229,None,,,,,,,,,,,,,,,,,,,,,,,,,,,,,,,,,,,,,,,,,,,,,,,,,,,,,,,,,,11021,001,2024_Jan_05_1108,MFTM_A_new1021,2021.2.3,60.46918038114131,
-0.6,-0.6,-0.6,0.6,0.6,left,3:2,L,,,,,,,,,,,1,1,3,1,,,,,,,,,,,,,,,,,,,,,,,,,,,66.22724370006472,None,66.22724370006472,None,66.22724370006472,None,66.22724370006472,None,66.22724370006472,None,66.22724370006472,None,left,1,1.1611685000825673,66.22724370006472,None,67.41169039998204,None,,,,,,,,,,,,,,,,,,,,,,,,,,,,,,,,,,,,,,,,,,,,,,,,,,,,,,,,,,11021,001,2024_Jan_05_1108,MFTM_A_new1021,2021.2.3,60.46918038114131,
,,,,,,,,stim/Instruction_mask.png,conditions/adaptive.xlsx,practice,0.6,0.6,0.6,-0.6,-0.6,right,R,,,,,0,0,0,0,0,0,0,14,,,,,,,,,,,,,,,,,,,,,,,,,,,,,,,,,,,,,,68.37978580000345,None,right,35.9608709999593,68.37978580000345,None,104.45040800003335,None,right,1,1.1927835999522358,104.8838504999876,None,104.8838504999876,107.88918529998045,104.8838504999876,107.88918529998045,104.8838504999876,107.88918529998045,104.8838504999876,107.88918529998045,104.8838504999876,107.88918529998045,107.87166489998344,108.37236270005815,107.87166489998344,108.37236270005815,107.87166489998344,108.37236270005815,107.87166489998344,108.37236270005815,107.87166489998344,108.37236270005815,107.87166489998344,108.37236270005815,107.87166489998344,108.37236270005815,107.87166489998344,108.37236270005815,104.8838504999876,None,108.37236270005815,108.37236270005815,3,108.3894248000579,None,109.14084550004918,None,,,,,,,,,,11021,001,2024_Jan_05_1108,MFTM_A_new1021,2021.2.3,60.46918038114131,
,,,,,,,,stim/Instruction_mask.png,conditions/adaptive.xlsx,practice,-0.6,-0.6,-0.6,0.6,0.6,left,L,,,,,0,0,0,0,0,1,1,11,,,,,,,,,,,,,,,,,,,,,,,,,,,,,,,,,,,,,,,,,,,,109.64128880004864,None,left,1,0.7747117999242619,110.14169389999006,112.14553400001023,110.14169389999006,111.64453110005707,110.14169389999006,111.64453110005707,110.14169389999006,111.64453110005707,110.14169389999006,111.64453110005707,110.14169389999006,111.64453110005707,111.62736990000121,112.12802649999503,111.62736990000121,112.12802649999503,111.62736990000121,112.12802649999503,111.62736990000121,112.12802649999503,111.62736990000121,112.12802649999503,111.62736990000121,112.12802649999503,111.62736990000121,112.12802649999503,111.62736990000121,112.12802649999503,110.14169389999006,None,112.12802649999503,113.63043999997899,1.5,113.64688870008104,None,114.39832590008155,None,,,,,,,,,,11021,001,2024_Jan_05_1108,MFTM_A_new1021,2021.2.3,60.46918038114131,
,,,,,,,,stim/Instruction_mask.png,conditions/adaptive.xlsx,practice,0.6,0.6,0.6,-0.6,-0.6,right,R,,,,,0,0,0,0,0,2,2,30,,,,,,,,,,,,,,,,,,,,,,,,,,,,,,,,,,,,,,,,,,,,114.89862059999723,None,right,1,0.6929030999308452,115.3994846000569,116.70200340007432,115.3994846000569,116.20091270003468,115.3994846000569,116.20091270003468,115.3994846000569,116.20091270003468,115.3994846000569,116.20091270003468,115.3994846000569,116.20091270003468,116.18439100007527,116.68520850001369,116.18439100007527,116.68520850001369,116.18439100007527,116.68520850001369,116.18439100007527,116.68520850001369,116.18439100007527,116.68520850001369,116.18439100007527,116.68520850001369,116.18439100007527,116.68520850001369,116.18439100007527,116.68520850001369,115.3994846000569,None,116.68520850001369,118.88837020006031,0.8,118.90503240004182,None,119.65625110000838,None,,,,,,,,,,11021,001,2024_Jan_05_1108,MFTM_A_new1021,2021.2.3,60.46918038114131,
,,,,,,,,stim/Instruction_mask.png,conditions/adaptive.xlsx,practice,0.6,0.6,0.6,-0.6,-0.6,right,R,,,,,0,0,0,0,0,3,3,10,,,,,,,,,,,,,,,,,,,,,,,,,,,,,,,,,,,,,,,,,,,,120.15695820003748,None,right,1,0.6593580000335351,120.65720500005409,121.40882290003356,120.65720500005409,120.90820110007189,120.65720500005409,120.90820110007189,120.65720500005409,120.90820110007189,120.65720500005409,120.90820110007189,120.65720500005409,120.90820110007189,120.8918021999998,121.39230840001255,120.8918021999998,121.39230840001255,120.8918021999998,121.39230840001255,120.8918021999998,121.39230840001255,120.8918021999998,121.39230840001255,120.8918021999998,121.39230840001255,120.8918021999998,121.39230840001255,120.8918021999998,121.39230840001255,120.65720500005409,None,121.39230840001255,124.14647839998361,3,124.1634439000627,None,124.91376310004853,None,,,,,,,,,,11021,001,2024_Jan_05_1108,MFTM_A_new1021,2021.2.3,60.46918038114131,
,,,,,,,,stim/Instruction_mask.png,conditions/adaptive.xlsx,practice,,,,,,,,,,,,0,0,0,0,,,,,,,,,,,,,,,,,,,,,,,,,,,,,,,,,,,,,,,,,,,,,,,,,,,,,,,,,,,,,,,,,,,,,,,,,,,,,,,,,,,,,,,,,,125.43095339997672,126.43459000007715,126.39993640000466,126.39993640000466,126.39993640000466,None,,,,11021,001,2024_Jan_05_1108,MFTM_A_new1021,2021.2.3,60.46918038114131,
,,,,,,,,stim/Instruction_adaptive.png,conditions/adaptive.xlsx,test,0.6,0.6,0.6,-0.6,-0.6,right,R,,,,,0,1,1,1,0,0,0,88,,,,,,,,,,,,,,,,,,,,,,,,,,,,,,,,,,,,,,129.5205667000264,None,right,12.084111800068058,129.5205667000264,None,141.63816199998837,None,right,1,1.192885100026615,142.13988899998367,None,142.13988899998367,145.14350660005584,142.13988899998367,145.14350660005584,142.13988899998367,145.14350660005584,142.13988899998367,145.14350660005584,142.13988899998367,145.14350660005584,145.12690330005717,145.62845060008112,145.12690330005717,145.62845060008112,145.12690330005717,145.62845060008112,145.12690330005717,145.62845060008112,145.12690330005717,145.62845060008112,145.12690330005717,145.62845060008112,145.12690330005717,145.62845060008112,145.12690330005717,145.62845060008112,142.13988899998367,None,145.62845060008112,145.62845060008112,3,145.6453302000882,None,146.3956690999912,None,,,,,,,0,6.000000000000005,1.0,11021,001,2024_Jan_05_1108,MFTM_A_new1021,2021.2.3,60.46918038114131,
,,,,,,,,stim/Instruction_adaptive.png,conditions/adaptive.xlsx,test,-0.6,-0.6,-0.6,0.6,0.6,left,L,,,,,0,1,1,1,0,1,1,23,,,,,,,,,,,,,,,,,,,,,,,,,,,,,,,,,,,,,,,,,,,,146.89624010003172,None,right,0,0.9521601999877021,147.39702530007344,148.1501821000129,147.39702530007344,147.64782469999045,147.39702530007344,147.64782469999045,147.39702530007344,147.64782469999045,147.39702530007344,147.64782469999045,147.39702530007344,147.64782469999045,147.6312017000746,148.1314371000044,147.6312017000746,148.1314371000044,147.6312017000746,148.1314371000044,147.6312017000746,148.1314371000044,147.6312017000746,148.1314371000044,147.6312017000746,148.1314371000044,147.6312017000746,148.1314371000044,147.6312017000746,148.1314371000044,147.39702530007344,None,148.1314371000044,149.01670759997796,0.25,149.03237190004438,None,149.78370410006028,None,,,,,,,[0.875],2.570000000000002,0.5,11021,001,2024_Jan_05_1108,MFTM_A_new1021,2021.2.3,60.46918038114131,
,,,,,,,,stim/Instruction_adaptive.png,conditions/adaptive.xlsx,test,0.6,0.6,0.6,-0.6,-0.6,right,R,,,,,0,1,1,1,0,2,2,38,,,,,,,,,,,,,,,,,,,,,,,,,,,,,,,,,,,,,,,,,,,,150.2842897999799,None,right,1,1.755189900053665,150.78527290001512,152.40475680003874,150.78527290001512,151.90366630000062,150.78527290001512,151.90366630000062,150.78527290001512,151.90366630000062,150.78527290001512,151.90366630000062,150.78527290001512,151.90366630000062,151.87021359999198,152.37084350001533,151.87021359999198,152.37084350001533,151.87021359999198,152.37084350001533,151.87021359999198,152.37084350001533,151.87021359999198,152.37084350001533,151.87021359999198,152.37084350001533,151.87021359999198,152.37084350001533,151.87021359999198,152.37084350001533,150.78527290001512,None,152.37084350001533,153.42321460007224,1.1100000000000008,153.45593380008359,None,154.20716460002586,None,,,,,,,[1.04666667],3.3800000000000026,0.6666666666666666,11021,001,2024_Jan_05_1108,MFTM_A_new1021,2021.2.3,60.46918038114131,
,,,,,,,,stim/Instruction_adaptive.png,conditions/adaptive.xlsx,test,-0.6,-0.6,-0.6,0.6,0.6,left,L,,,,,0,1,1,1,0,3,3,39,,,,,,,,,,,,,,,,,,,,,,,,,,,,,,,,,,,,,,,,,,,,154.70776600006502,None,left,1,1.803919699974358,155.20859789999668,156.34412300004624,155.20859789999668,155.8434367000591,155.20859789999668,155.8434367000591,155.20859789999668,155.8434367000591,155.20859789999668,155.8434367000591,155.20859789999668,155.8434367000591,155.82615280000027,156.32741570007056,155.82615280000027,156.32741570007056,155.82615280000027,156.32741570007056,155.82615280000027,156.32741570007056,155.82615280000027,156.32741570007056,155.82615280000027,156.32741570007056,155.82615280000027,156.32741570007056,155.82615280000027,156.32741570007056,155.20859789999668,None,156.32741570007056,157.57965990004595,0.6300000000000003,157.59536480007228,None,158.3471052000532,None,,,,,,,[1.2525],3.940000000000003,0.75,11021,001,2024_Jan_05_1108,MFTM_A_new1021,2021.2.3,60.46918038114131,
,,,,,,,,stim/Instruction_adaptive.png,conditions/adaptive.xlsx,test,-0.6,-0.6,-0.6,0.6,0.6,left,L,,,,,0,1,1,1,0,4,4,75,,,,,,,,,,,,,,,,,,,,,,,,,,,,,,,,,,,,,,,,,,,,158.8478115000762,None,left,1,1.3843297000275925,159.34875780006405,160.2829695000546,159.34875780006405,159.78220970008988,159.34875780006405,159.78220970008988,159.34875780006405,159.78220970008988,159.34875780006405,159.78220970008988,159.34875780006405,159.78220970008988,159.7656881000148,160.26601740007754,159.7656881000148,160.26601740007754,159.7656881000148,160.26601740007754,159.7656881000148,160.26601740007754,159.7656881000148,160.26601740007754,159.7656881000148,160.26601740007754,159.7656881000148,160.26601740007754,159.7656881000148,160.26601740007754,159.34875780006405,None,160.26601740007754,161.68521070003044,0.43000000000000016,161.70174380007666,None,162.45410309999716,None,,,,,,,[1.416],4.370000000000004,0.8,11021,001,2024_Jan_05_1108,MFTM_A_new1021,2021.2.3,60.46918038114131,
,,,,,,,,stim/Instruction_adaptive.png,conditions/adaptive.xlsx,test,-0.6,-0.6,-0.6,0.6,0.6,left,L,,,,,0,1,1,1,0,5,5,3,,,,,,,,,,,,,,,,,,,,,,,,,,,,,,,,,,,,,,,,,,,,162.95408910000697,None,right,0,1.2065057000145316,163.45424150000326,164.28859130002093,163.45424150000326,163.78786909999326,163.45424150000326,163.78786909999326,163.45424150000326,163.78786909999326,163.45424150000326,163.78786909999326,163.45424150000326,163.78786909999326,163.75508250005078,164.25558660004754,163.75508250005078,164.25558660004754,163.75508250005078,164.25558660004754,163.75508250005078,164.25558660004754,163.75508250005078,164.25558660004754,163.75508250005078,164.25558660004754,163.75508250005078,164.25558660004754,163.75508250005078,164.25558660004754,163.45424150000326,None,164.25558660004754,165.80765620002057,0.32000000000000006,165.82425340008922,None,166.57649420003872,None,,,,,,,[1.54333333],3.5400000000000027,0.6666666666666666,11021,001,2024_Jan_05_1108,MFTM_A_new1021,2021.2.3,60.46918038114131,
,,,,,,,,stim/Instruction_adaptive.png,conditions/adaptive.xlsx,test,-0.6,-0.6,-0.6,0.6,0.6,left,L,,,,,0,1,1,1,0,6,6,25,,,,,,,,,,,,,,,,,,,,,,,,,,,,,,,,,,,,,,,,,,,,167.0761398000177,None,left,1,1.3636489999480546,167.57692930009216,168.66184790001716,167.57692930009216,168.16144900000654,167.57692930009216,168.16144900000654,167.57692930009216,168.16144900000654,167.57692930009216,168.16144900000654,167.57692930009216,168.16144900000654,168.12770660000388,168.6281715000514,168.12770660000388,168.6281715000514,168.12770660000388,168.6281715000514,168.12770660000388,168.6281715000514,168.12770660000388,168.6281715000514,168.12770660000388,168.6281715000514,168.12770660000388,168.6281715000514,168.12770660000388,168.6281715000514,167.57692930009216,None,168.6281715000514,170.2316418000264,0.5700000000000003,170.24739809997845,None,170.99843080004212,None,,,,,,,[1.59857143],3.8700000000000028,0.7142857142857143,11021,001,2024_Jan_05_1108,MFTM_A_new1021,2021.2.3,60.46918038114131,
,,,,,,,,stim/Instruction_adaptive.png,conditions/adaptive.xlsx,test,0.6,0.6,0.6,-0.6,-0.6,right,R,,,,,0,1,1,1,0,7,7,70,,,,,,,,,,,,,,,,,,,,,,,,,,,,,,,,,,,,,,,,,,,,171.50009540002793,None,right,1,1.1086774000432342,172.00003450002987,172.95213830005378,172.00003450002987,172.4507823000895,172.00003450002987,172.4507823000895,172.00003450002987,172.4507823000895,172.00003450002987,172.4507823000895,172.00003450002987,172.4507823000895,172.43462000007275,172.93546130007599,172.43462000007275,172.93546130007599,172.43462000007275,172.93546130007599,172.43462000007275,172.93546130007599,172.43462000007275,172.93546130007599,172.43462000007275,172.93546130007599,172.43462000007275,172.93546130007599,172.43462000007275,172.93546130007599,172.00003450002987,None,172.93546130007599,None,0.4500000000000002,174.6046187999891,None,175.35500009998213,None,,,,,,,[1.655],4.1300000000000034,0.75,11021,001,2024_Jan_05_1108,MFTM_A_new1021,2021.2.3,60.46918038114131,
,,,,,,,,stim/Instruction_adaptive.png,conditions/adaptive.xlsx,test,-0.6,-0.6,-0.6,0.6,0.6,left,L,,,,,0,1,1,1,0,8,8,17,,,,,,,,,,,,,,,,,,,,,,,,,,,,,,,,,,,,,,,,,,,,175.85670370003209,None,right,0,1.416778999962844,176.35638590005692,177.2410442000255,176.35638590005692,176.7402701000683,176.35638590005692,176.7402701000683,176.35638590005692,176.7402701000683,176.35638590005692,176.7402701000683,176.35638590005692,176.7402701000683,176.72377540008165,177.2245512000518,176.72377540008165,177.2245512000518,176.72377540008165,177.2245512000518,176.72377540008165,177.2245512000518,176.72377540008165,177.2245512000518,176.72377540008165,177.2245512000518,176.72377540008165,177.2245512000518,176.72377540008165,177.2245512000518,176.35638590005692,None,177.20882300008088,178.92695990006905,0.3800000000000001,178.94369970005937,None,179.69501530006528,None,,,,,,,[1.70666667],3.530000000000003,0.6666666666666666,11021,001,2024_Jan_05_1108,MFTM_A_new1021,2021.2.3,60.46918038114131,
,,,,,,,,stim/Instruction_adaptive.png,conditions/adaptive.xlsx,test,-0.6,-0.6,-0.6,0.6,0.6,left,L,,,,,0,1,1,1,0,9,9,29,,,,,,,,,,,,,,,,,,,,,,,,,,,,,,,,,,,,,,,,,,,,180.19537840003613,None,left,1,1.4516575000016019,180.69700929999817,181.78380059998017,180.69700929999817,181.2804425000213,180.69700929999817,181.2804425000213,180.69700929999817,181.2804425000213,180.69700929999817,181.2804425000213,180.69700929999817,181.2804425000213,181.24707889999263,181.7478003000142,181.24707889999263,181.7478003000142,181.24707889999263,181.7478003000142,181.24707889999263,181.7478003000142,181.24707889999263,181.7478003000142,181.24707889999263,181.7478003000142,181.24707889999263,181.7478003000142,181.24707889999263,181.7478003000142,180.69700929999817,None,181.7478003000142,183.4844736000523,0.5700000000000003,183.50055450003128,None,184.25178010005038,None,,,,,,,[1.729],3.760000000000003,0.7,11021,001,2024_Jan_05_1108,MFTM_A_new1021,2021.2.3,60.46918038114131,
,,,,,,,,stim/Instruction_adaptive.png,conditions/adaptive.xlsx,test,-0.6,-0.6,-0.6,0.6,0.6,left,L,,,,,0,1,1,1,0,10,10,41,,,,,,,,,,,,,,,,,,,,,,,,,,,,,,,,,,,,,,,,,,,,184.75291570008267,None,left,1,1.063840699964203,185.25302210007794,186.25463420001324,185.25302210007794,185.75367100001313,185.25302210007794,185.75367100001313,185.25302210007794,185.75367100001313,185.25302210007794,185.75367100001313,185.25302210007794,185.75367100001313,185.72030809998978,186.22202690003905,185.72030809998978,186.22202690003905,185.72030809998978,186.22202690003905,185.72030809998978,186.22202690003905,185.72030809998978,186.22202690003905,185.72030809998978,186.22202690003905,185.72030809998978,186.22202690003905,185.72030809998978,186.22202690003905,185.25302210007794,None,186.22202690003905,187.9904899999965,0.4900000000000002,188.00711880007293,None,188.75897020008415,None,,,,,,,[1.75454545],3.960000000000003,0.7272727272727273,11021,001,2024_Jan_05_1108,MFTM_A_new1021,2021.2.3,60.46918038114131,
,,,,,,,,stim/Instruction_adaptive.png,conditions/adaptive.xlsx,test,0.6,0.6,0.6,-0.6,-0.6,right,R,,,,,0,1,1,1,0,11,11,74,,,,,,,,,,,,,,,,,,,,,,,,,,,,,,,,,,,,,,,,,,,,189.25906309997663,None,right,1,0.9969799000537023,189.75970520009287,190.69428300007712,189.75970520009287,190.19431749999058,189.75970520009287,190.19431749999058,189.75970520009287,190.19431749999058,189.75970520009287,190.19431749999058,189.75970520009287,190.19431749999058,190.16040569997858,190.6612892000703,190.16040569997858,190.6612892000703,190.16040569997858,190.6612892000703,190.16040569997858,190.6612892000703,190.16040569997858,190.6612892000703,190.16040569997858,190.6612892000703,190.16040569997858,190.6612892000703,190.16040569997858,190.6612892000703,189.75970520009287,None,190.6612892000703,192.44708309997804,0.42000000000000015,192.4635887000477,None,193.2150088000344,None,,,,,,,[1.78166667],4.120000000000003,0.75,11021,001,2024_Jan_05_1108,MFTM_A_new1021,2021.2.3,60.46918038114131,
,,,,,,,,stim/Instruction_adaptive.png,conditions/adaptive.xlsx,test,0.6,0.6,0.6,-0.6,-0.6,right,R,,,,,0,1,1,1,0,12,12,46,,,,,,,,,,,,,,,,,,,,,,,,,,,,,,,,,,,,,,,,,,,,193.71572219999507,None,right,1,1.1959371999837458,194.21693130000494,195.10132870008238,194.21693130000494,194.6003499000799,194.21693130000494,194.6003499000799,194.21693130000494,194.6003499000799,194.21693130000494,194.6003499000799,194.21693130000494,194.6003499000799,194.58377080003265,195.0842312000459,194.58377080003265,195.0842312000459,194.58377080003265,195.0842312000459,194.58377080003265,195.0842312000459,194.58377080003265,195.0842312000459,194.58377080003265,195.0842312000459,194.58377080003265,195.0842312000459,194.58377080003265,195.0842312000459,194.21693130000494,None,195.0842312000459,None,0.3800000000000001,196.90377950004768,None,197.65460510004777,None,,,,,,,[1.80769231],4.260000000000003,0.7692307692307693,11021,001,2024_Jan_05_1108,MFTM_A_new1021,2021.2.3,60.46918038114131,
,,,,,,,,stim/Instruction_adaptive.png,conditions/adaptive.xlsx,test,-0.6,-0.6,-0.6,0.6,0.6,left,L,,,,,0,1,1,1,0,13,13,91,,,,,,,,,,,,,,,,,,,,,,,,,,,,,,,,,,,,,,,,,,,,198.15647130005527,None,left,1,0.9722937999758869,198.65629590000026,199.50753870001063,198.65629590000026,199.00672810000833,198.65629590000026,199.00672810000833,198.65629590000026,199.00672810000833,198.65629590000026,199.00672810000833,198.65629590000026,199.00672810000833,198.97329900006298,199.47522350004874,198.97329900006298,199.47522350004874,198.97329900006298,199.47522350004874,198.97329900006298,199.47522350004874,198.97329900006298,199.47522350004874,198.97329900006298,199.47522350004874,198.97329900006298,199.47522350004874,198.97329900006298,199.47522350004874,198.65629590000026,None,199.47522350004874,201.31035610008985,0.3400000000000001,201.34410250000656,None,202.09523760003503,None,,,,,,,[1.83285714],4.390000000000003,0.7857142857142857,11021,001,2024_Jan_05_1108,MFTM_A_new1021,2021.2.3,60.46918038114131,
,,,,,,,,stim/Instruction_adaptive.png,conditions/adaptive.xlsx,test,0.6,0.6,0.6,-0.6,-0.6,right,R,,,,,0,1,1,1,0,14,14,84,,,,,,,,,,,,,,,,,,,,,,,,,,,,,,,,,,,,,,,,,,,,202.59546550002415,None,right,1,0.7648080999497324,203.0960791000398,203.91449350002222,203.0960791000398,203.41367280005943,203.0960791000398,203.41367280005943,203.0960791000398,203.41367280005943,203.0960791000398,203.41367280005943,203.0960791000398,203.41367280005943,203.3797980999807,203.88084660004824,203.3797980999807,203.88084660004824,203.3797980999807,203.88084660004824,203.3797980999807,203.88084660004824,203.3797980999807,203.88084660004824,203.3797980999807,203.88084660004824,203.3797980999807,203.88084660004824,203.3797980999807,203.88084660004824,203.0960791000398,None,203.88084660004824,205.750437800074,0.31000000000000005,205.76726320001762,None,206.51849940000102,None,,,,,,,[1.85666667],4.5000000000000036,0.8,11021,001,2024_Jan_05_1108,MFTM_A_new1021,2021.2.3,60.46918038114131,
,,,,,,,,stim/Instruction_adaptive.png,conditions/adaptive.xlsx,test,0.6,0.6,0.6,-0.6,-0.6,right,R,,,,,0,1,1,1,0,15,15,52,,,,,,,,,,,,,,,,,,,,,,,,,,,,,,,,,,,,,,,,,,,,207.0186120000435,None,left,0,1.0453786000143737,207.51918270008173,208.32069020008203,207.51918270008173,207.8203397000907,207.51918270008173,207.8203397000907,207.51918270008173,207.8203397000907,207.51918270008173,207.8203397000907,207.51918270008173,207.8203397000907,207.78693830000702,208.2882007000735,207.78693830000702,208.2882007000735,207.78693830000702,208.2882007000735,207.78693830000702,208.2882007000735,207.78693830000702,208.2882007000735,207.78693830000702,208.2882007000735,207.78693830000702,208.2882007000735,207.78693830000702,208.2882007000735,207.51918270008173,None,208.2882007000735,210.17400480003562,0.29000000000000004,210.18996640003752,None,210.94170309999026,None,,,,,,,[1.87875],4.200000000000003,0.75,11021,001,2024_Jan_05_1108,MFTM_A_new1021,2021.2.3,60.46918038114131,
,,,,,,,,stim/Instruction_adaptive.png,conditions/adaptive.xlsx,test,0.6,0.6,0.6,-0.6,-0.6,right,R,,,,,0,1,1,1,0,16,16,42,,,,,,,,,,,,,,,,,,,,,,,,,,,,,,,,,,,,,,,,,,,,211.44182920001913,None,right,1,0.8062892000889406,211.9424709000159,212.81132370000705,211.9424709000159,212.30966760008596,211.9424709000159,212.30966760008596,211.9424709000159,212.30966760008596,211.9424709000159,212.30966760008596,211.9424709000159,212.30966760008596,212.29291920003016,212.7939553000033,212.29291920003016,212.7939553000033,212.29291920003016,212.7939553000033,212.29291920003016,212.7939553000033,212.29291920003016,212.7939553000033,212.29291920003016,212.7939553000033,212.29291920003016,212.7939553000033,212.29291920003016,212.7939553000033,211.9424709000159,None,212.7939553000033,None,0.3600000000000001,214.69660200004,None,215.4481324000517,None,,,,,,,[1.89411765],4.310000000000003,0.7647058823529411,11021,001,2024_Jan_05_1108,MFTM_A_new1021,2021.2.3,60.46918038114131,
,,,,,,,,stim/Instruction_adaptive.png,conditions/adaptive.xlsx,test,-0.6,-0.6,-0.6,0.6,0.6,left,L,,,,,0,1,1,1,0,17,17,51,,,,,,,,,,,,,,,,,,,,,,,,,,,,,,,,,,,,,,,,,,,,215.94870140007697,None,left,1,1.3149887999752536,216.44993400003295,217.28443770005833,216.44993400003295,216.78330590005498,216.44993400003295,216.78330590005498,216.44993400003295,216.78330590005498,216.44993400003295,216.78330590005498,216.44993400003295,216.78330590005498,216.76638659997843,217.26819690002594,216.76638659997843,217.26819690002594,216.76638659997843,217.26819690002594,216.76638659997843,217.26819690002594,216.76638659997843,217.26819690002594,216.76638659997843,217.26819690002594,216.76638659997843,217.26819690002594,216.76638659997843,217.26819690002594,216.44993400003295,None,217.26819690002594,219.1870307000354,0.33000000000000007,219.20336799998768,None,219.95541100006085,None,,,,,,,[1.90944444],4.410000000000004,0.7777777777777778,11021,001,2024_Jan_05_1108,MFTM_A_new1021,2021.2.3,60.46918038114131,
,,,,,,,,stim/Instruction_adaptive.png,conditions/adaptive.xlsx,test,0.6,0.6,0.6,-0.6,-0.6,right,R,,,,,0,1,1,1,0,18,18,58,,,,,,,,,,,,,,,,,,,,,,,,,,,,,,,,,,,,,,,,,,,,220.4557394000003,None,right,1,0.8569652000442147,220.95593990001362,221.77454660006333,220.95593990001362,221.27293340000324,220.95593990001362,221.27293340000324,220.95593990001362,221.27293340000324,220.95593990001362,221.27293340000324,220.95593990001362,221.27293340000324,221.23963590001222,221.74039779999293,221.23963590001222,221.74039779999293,221.23963590001222,221.74039779999293,221.23963590001222,221.74039779999293,221.23963590001222,221.74039779999293,221.23963590001222,221.74039779999293,221.23963590001222,221.74039779999293,221.23963590001222,221.74039779999293,220.95593990001362,None,221.74039779999293,223.6767903000582,0.31000000000000005,223.6935928000603,None,224.4452155000763,None,,,,,,,[1.92421053],4.5000000000000036,0.7894736842105263,11021,001,2024_Jan_05_1108,MFTM_A_new1021,2021.2.3,60.46918038114131,
,,,,,,,,stim/Instruction_adaptive.png,conditions/adaptive.xlsx,test,0.6,0.6,0.6,-0.6,-0.6,right,R,,,,,0,1,1,1,0,19,19,36,,,,,,,,,,,,,,,,,,,,,,,,,,,,,,,,,,,,,,,,,,,,224.9452822000021,None,right,1,0.6228417999809608,225.4460596999852,226.2480373000726,225.4460596999852,225.74670600006357,225.4460596999852,225.74670600006357,225.4460596999852,225.74670600006357,225.4460596999852,225.74670600006357,225.4460596999852,225.74670600006357,225.71304130007047,226.21441390004475,225.71304130007047,226.21441390004475,225.71304130007047,226.21441390004475,225.71304130007047,226.21441390004475,225.71304130007047,226.21441390004475,225.71304130007047,226.21441390004475,225.71304130007047,226.21441390004475,225.71304130007047,226.21441390004475,225.4460596999852,None,226.21441390004475,228.16672930005006,0.29000000000000004,228.18327799998224,None,228.93469770008232,None,,,,,,,[1.9385],4.590000000000003,0.8,11021,001,2024_Jan_05_1108,MFTM_A_new1021,2021.2.3,60.46918038114131,
,,,,,,,,stim/Instruction_adaptive.png,conditions/adaptive.xlsx,test,-0.6,-0.6,-0.6,0.6,0.6,left,L,,,,,0,1,1,1,0,20,20,1,,,,,,,,,,,,,,,,,,,,,,,,,,,,,,,,,,,,,,,,,,,,229.43517579999752,None,left,1,1.0833047999767587,229.93726130004507,230.7208982000593,229.93726130004507,230.22023209999315,229.93726130004507,230.22023209999315,229.93726130004507,230.22023209999315,229.93726130004507,230.22023209999315,229.93726130004507,230.22023209999315,230.1870568000013,230.68801640009042,230.1870568000013,230.68801640009042,230.1870568000013,230.68801640009042,230.1870568000013,230.68801640009042,230.1870568000013,230.68801640009042,230.1870568000013,230.68801640009042,230.1870568000013,230.68801640009042,230.1870568000013,230.68801640009042,229.93726130004507,None,230.68801640009042,232.6397554000141,0.27,232.67389780003577,None,233.4249399000546,None,,,,,,,[1.95238095],4.660000000000004,0.8095238095238095,11021,001,2024_Jan_05_1108,MFTM_A_new1021,2021.2.3,60.46918038114131,
,,,,,,,,stim/Instruction_adaptive.png,conditions/adaptive.xlsx,test,0.6,0.6,0.6,-0.6,-0.6,right,R,,,,,0,1,1,1,0,21,21,48,,,,,,,,,,,,,,,,,,,,,,,,,,,,,,,,,,,,,,,,,,,,233.92516480002087,None,left,0,0.954621099983342,234.42611250001937,235.19428090006113,234.42611250001937,234.69302030000836,234.42611250001937,234.69302030000836,234.42611250001937,234.69302030000836,234.42611250001937,234.69302030000836,234.42611250001937,234.69302030000836,234.67611130001023,235.17773900006432,234.67611130001023,235.17773900006432,234.67611130001023,235.17773900006432,234.67611130001023,235.17773900006432,234.67611130001023,235.17773900006432,234.67611130001023,235.17773900006432,234.67611130001023,235.17773900006432,234.67611130001023,235.17773900006432,234.42611250001937,None,235.17773900006432,237.14655469998252,0.26,237.1640863000648,None,237.91439270006958,None,,,,,,,[1.96545455],4.450000000000004,0.7727272727272727,11021,001,2024_Jan_05_1108,MFTM_A_new1021,2021.2.3,60.46918038114131,
,,,,,,,,stim/Instruction_adaptive.png,conditions/adaptive.xlsx,test,-0.6,-0.6,-0.6,0.6,0.6,left,L,,,,,0,1,1,1,0,22,22,33,,,,,,,,,,,,,,,,,,,,,,,,,,,,,,,,,,,,,,,,,,,,238.41521290002856,None,right,0,1.0639458999503404,238.91690860001836,239.71700419997796,238.91690860001836,239.21633950003888,238.91690860001836,239.21633950003888,238.91690860001836,239.21633950003888,238.91690860001836,239.21633950003888,238.91690860001836,239.21633950003888,239.1997304999968,239.7002839000197,239.1997304999968,239.7002839000197,239.1997304999968,239.7002839000197,239.1997304999968,239.7002839000197,239.1997304999968,239.7002839000197,239.1997304999968,239.7002839000197,239.1997304999968,239.7002839000197,239.1997304999968,239.7002839000197,238.91690860001836,None,239.7002839000197,241.68836150004063,0.30000000000000004,241.70395230001304,None,242.45452310005203,None,,,,,,,[1.97565217],4.220000000000003,0.7391304347826086,11021,001,2024_Jan_05_1108,MFTM_A_new1021,2021.2.3,60.46918038114131,
,,,,,,,,stim/Instruction_adaptive.png,conditions/adaptive.xlsx,test,0.6,0.6,0.6,-0.6,-0.6,right,R,,,,,0,1,1,1,0,23,23,68,,,,,,,,,,,,,,,,,,,,,,,,,,,,,,,,,,,,,,,,,,,,242.95508089999203,None,left,0,1.787941100075841,243.4566710999934,244.3073022000026,243.4566710999934,243.80639560008422,243.4566710999934,243.80639560008422,243.4566710999934,243.80639560008422,243.4566710999934,243.80639560008422,243.4566710999934,243.80639560008422,243.78980020002928,244.29081570007838,243.78980020002928,244.29081570007838,243.78980020002928,244.29081570007838,243.78980020002928,244.29081570007838,243.78980020002928,244.29081570007838,243.78980020002928,244.29081570007838,243.78980020002928,244.29081570007838,243.78980020002928,244.29081570007838,243.4566710999934,None,244.29081570007838,246.2786039999919,0.3500000000000001,246.29340399999637,None,247.04463830008171,None,,,,,,,[1.98291667],3.9700000000000033,0.7083333333333334,11021,001,2024_Jan_05_1108,MFTM_A_new1021,2021.2.3,60.46918038114131,
,,,,,,,,stim/Instruction_adaptive.png,conditions/adaptive.xlsx,test,-0.6,-0.6,-0.6,0.6,0.6,left,L,,,,,0,1,1,1,0,24,24,87,,,,,,,,,,,,,,,,,,,,,,,,,,,,,,,,,,,,,,,,,,,,247.54539450001903,None,left,1,2.9110111000481993,248.04594950005412,248.9643464999972,248.04594950005412,248.48030659998767,248.04594950005412,248.48030659998767,248.04594950005412,248.48030659998767,248.04594950005412,248.48030659998767,248.04594950005412,248.48030659998767,248.44650640001055,248.94821820000652,248.44650640001055,248.94821820000652,248.44650640001055,248.94821820000652,248.44650640001055,248.94821820000652,248.44650640001055,248.94821820000652,248.44650640001055,248.94821820000652,248.44650640001055,248.94821820000652,248.44650640001055,248.94821820000652,248.04594950005412,None,248.94821820000652,250.9841771000065,0.42000000000000015,251.00034939998295,None,251.75167850009166,None,,,,,,,[1.9868],4.060000000000003,0.72,11021,001,2024_Jan_05_1108,MFTM_A_new1021,2021.2.3,60.46918038114131,
,,,,,,,,stim/Instruction_adaptive.png,conditions/adaptive.xlsx,test,-0.6,-0.6,-0.6,0.6,0.6,left,L,,,,,0,1,1,1,0,25,25,49,,,,,,,,,,,,,,,,,,,,,,,,,,,,,,,,,,,,,,,,,,,,252.25287790002767,None,left,1,1.035463499953039,252.75315250002313,253.65432129998226,252.75315250002313,253.1537726999959,252.75315250002313,253.1537726999959,252.75315250002313,253.1537726999959,252.75315250002313,253.1537726999959,252.75315250002313,253.1537726999959,253.12034670007415,253.62100739998277,253.12034670007415,253.62100739998277,253.12034670007415,253.62100739998277,253.12034670007415,253.62100739998277,253.12034670007415,253.62100739998277,253.12034670007415,253.62100739998277,253.12034670007415,253.62100739998277,253.12034670007415,253.62100739998277,252.75315250002313,None,253.62100739998277,255.62385870004073,0.3900000000000001,255.64088479999918,None,256.39249130000826,None,,,,,,,[1.99153846],4.140000000000003,0.7307692307692307,11021,001,2024_Jan_05_1108,MFTM_A_new1021,2021.2.3,60.46918038114131,
,,,,,,,,stim/Instruction_adaptive.png,conditions/adaptive.xlsx,test,-0.6,-0.6,-0.6,0.6,0.6,left,L,,,,,0,1,1,1,0,26,26,59,,,,,,,,,,,,,,,,,,,,,,,,,,,,,,,,,,,,,,,,,,,,256.89253130008,None,right,0,1.091826600022614,257.3933222000487,258.27910859999247,257.3933222000487,257.7770553000737,257.3933222000487,257.7770553000737,257.3933222000487,257.7770553000737,257.3933222000487,257.7770553000737,257.3933222000487,257.7770553000737,257.74447470007,258.24445380002726,257.74447470007,258.24445380002726,257.74447470007,258.24445380002726,257.74447470007,258.24445380002726,257.74447470007,258.24445380002726,257.74447470007,258.24445380002726,257.74447470007,258.24445380002726,257.74447470007,258.24445380002726,257.3933222000487,None,258.24445380002726,260.24825320008676,0.3700000000000001,260.2641948000528,None,261.01605640002526,None,,,,,,,[1.99666667],3.910000000000003,0.7037037037037037,11021,001,2024_Jan_05_1108,MFTM_A_new1021,2021.2.3,60.46918038114131,
,,,,,,,,stim/Instruction_adaptive.png,conditions/adaptive.xlsx,test,0.6,0.6,0.6,-0.6,-0.6,right,R,,,,,0,1,1,1,0,27,27,22,,,,,,,,,,,,,,,,,,,,,,,,,,,,,,,,,,,,,,,,,,,,261.5168961000163,None,right,1,1.4039948000572622,262.0167717000004,262.96829970006365,262.0167717000004,262.4675030000508,262.0167717000004,262.4675030000508,262.0167717000004,262.4675030000508,262.0167717000004,262.4675030000508,262.0167717000004,262.4675030000508,262.43403140001465,262.93567410006654,262.43403140001465,262.93567410006654,262.43403140001465,262.93567410006654,262.43403140001465,262.93567410006654,262.43403140001465,262.93567410006654,262.43403140001465,262.93567410006654,262.43403140001465,262.93567410006654,262.43403140001465,262.93567410006654,262.0167717000004,None,262.93567410006654,264.9380179999862,0.44000000000000017,264.9545922999969,None,265.7057337000733,None,,,,,,,[1.99892857],4.0000000000000036,0.7142857142857143,11021,001,2024_Jan_05_1108,MFTM_A_new1021,2021.2.3,60.46918038114131,
,,,,,,,,stim/Instruction_adaptive.png,conditions/adaptive.xlsx,test,0.6,0.6,0.6,-0.6,-0.6,right,R,,,,,0,1,1,1,0,28,28,72,,,,,,,,,,,,,,,,,,,,,,,,,,,,,,,,,,,,,,,,,,,,266.2072348999791,None,right,1,0.9456969000166282,266.70703990000766,267.62518039997667,266.70703990000766,267.1251736000413,266.70703990000766,267.1251736000413,266.70703990000766,267.1251736000413,266.70703990000766,267.1251736000413,266.70703990000766,267.1251736000413,267.1076250000624,267.6092381000053,267.1076250000624,267.6092381000053,267.1076250000624,267.6092381000053,267.1076250000624,267.6092381000053,267.1076250000624,267.6092381000053,267.1076250000624,267.6092381000053,267.1076250000624,267.6092381000053,267.1076250000624,267.6092381000053,266.70703990000766,None,267.6092381000053,269.6113561000675,0.41000000000000014,269.6287156000035,None,270.3796512000263,None,,,,,,,[2.00206897],4.070000000000003,0.7241379310344828,11021,001,2024_Jan_05_1108,MFTM_A_new1021,2021.2.3,60.46918038114131,
,,,,,,,,stim/Instruction_adaptive.png,conditions/adaptive.xlsx,test,0.6,0.6,0.6,-0.6,-0.6,right,R,,,,,0,1,1,1,0,29,29,14,,,,,,,,,,,,,,,,,,,,,,,,,,,,,,,,,,,,,,,,,,,,270.8807041000109,None,left,0,0.9034351999871433,271.3812035000883,272.28191070002504,271.3812035000883,271.78202839998994,271.3812035000883,271.78202839998994,271.3812035000883,271.78202839998994,271.3812035000883,271.78202839998994,271.3812035000883,271.78202839998994,271.7479881000472,272.2485806000186,271.7479881000472,272.2485806000186,271.7479881000472,272.2485806000186,271.7479881000472,272.2485806000186,271.7479881000472,272.2485806000186,271.7479881000472,272.2485806000186,271.7479881000472,272.2485806000186,271.7479881000472,272.2485806000186,271.3812035000883,None,272.2485806000186,274.2682483000681,0.3900000000000001,274.28488260007,None,275.03622130001895,None,,,,,,,[2.00566667],3.860000000000003,0.7,11021,001,2024_Jan_05_1108,MFTM_A_new1021,2021.2.3,60.46918038114131,
,,,,,,,,stim/Instruction_adaptive.png,conditions/adaptive.xlsx,test,-0.6,-0.6,-0.6,0.6,0.6,left,L,,,,,0,1,1,1,0,30,30,73,,,,,,,,,,,,,,,,,,,,,,,,,,,,,,,,,,,,,,,,,,,,275.53668440005276,None,right,0,1.0319567000260577,276.03764820005745,276.99033950001467,276.03764820005745,276.48858130001463,276.03764820005745,276.48858130001463,276.03764820005745,276.48858130001463,276.03764820005745,276.48858130001463,276.03764820005745,276.48858130001463,276.4725520000793,276.97309600003064,276.4725520000793,276.97309600003064,276.4725520000793,276.97309600003064,276.4725520000793,276.97309600003064,276.4725520000793,276.97309600003064,276.4725520000793,276.97309600003064,276.4725520000793,276.97309600003064,276.4725520000793,276.97309600003064,276.03764820005745,None,276.97309600003064,278.99196950008627,0.4500000000000002,279.00878230005037,None,279.7599591000471,None,,,,,,,[2.00709677],3.6200000000000028,0.6774193548387096,11021,001,2024_Jan_05_1108,MFTM_A_new1021,2021.2.3,60.46918038114131,
,,,,,,,,stim/Instruction_adaptive.png,conditions/adaptive.xlsx,test,0.6,0.6,0.6,-0.6,-0.6,right,R,,,,,0,1,1,1,0,31,31,6,,,,,,,,,,,,,,,,,,,,,,,,,,,,,,,,,,,,,,,,,,,,280.26124620006885,None,right,1,1.7310633999295533,280.7618225000333,281.8133126000175,280.7618225000333,281.31272400007583,280.7618225000333,281.31272400007583,280.7618225000333,281.31272400007583,280.7618225000333,281.31272400007583,280.7618225000333,281.31272400007583,281.27948640007526,281.77941600000486,281.27948640007526,281.77941600000486,281.27948640007526,281.77941600000486,281.27948640007526,281.77941600000486,281.27948640007526,281.77941600000486,281.27948640007526,281.77941600000486,281.27948640007526,281.77941600000486,281.27948640007526,281.77941600000486,280.7618225000333,None,281.77941600000486,283.7494488999946,0.5400000000000003,283.7661363000516,None,284.51741920004133,None,,,,,,,[[1.96]],3.7100000000000026,0.6875,11021,001,2024_Jan_05_1108,MFTM_A_new1021,2021.2.3,60.46918038114131,
,,,,,,,,stim/Instruction_adaptive.png,conditions/adaptive.xlsx,test,0.6,0.6,0.6,-0.6,-0.6,right,R,,,,,0,1,1,1,0,32,32,30,,,,,,,,,,,,,,,,,,,,,,,,,,,,,,,,,,,,,,,,,,,,285.0179983000271,None,right,1,0.903341899975203,285.5182167000603,286.5207097000675,285.5182167000603,286.0196094000712,285.5182167000603,286.0196094000712,285.5182167000603,286.0196094000712,285.5182167000603,286.0196094000712,285.5182167000603,286.0196094000712,286.0030905000167,286.5045815000776,286.0030905000167,286.5045815000776,286.0030905000167,286.5045815000776,286.0030905000167,286.5045815000776,286.0030905000167,286.5045815000776,286.0030905000167,286.5045815000776,286.0030905000167,286.5045815000776,286.0030905000167,286.5045815000776,285.5182167000603,None,286.5045815000776,288.5064263000386,0.5000000000000002,288.5227292000782,None,289.2741377999773,None,,,,,,,[[2.]],3.7900000000000027,0.696969696969697,11021,001,2024_Jan_05_1108,MFTM_A_new1021,2021.2.3,60.46918038114131,
,,,,,,,,stim/Instruction_adaptive.png,conditions/adaptive.xlsx,test,-0.6,-0.6,-0.6,0.6,0.6,left,L,,,,,0,1,1,1,0,33,33,89,,,,,,,,,,,,,,,,,,,,,,,,,,,,,,,,,,,,,,,,,,,,289.77465630008373,None,right,0,1.8733156999805942,290.2753195000114,291.2602432999993,290.2753195000114,290.7594754000893,290.2753195000114,290.7594754000893,290.2753195000114,290.7594754000893,290.2753195000114,290.7594754000893,290.2753195000114,290.7594754000893,290.7436811000807,291.24376900005154,290.7436811000807,291.24376900005154,290.7436811000807,291.24376900005154,290.7436811000807,291.24376900005154,290.7436811000807,291.24376900005154,290.7436811000807,291.24376900005154,290.7436811000807,291.24376900005154,290.7436811000807,291.24376900005154,290.2753195000114,None,291.24376900005154,None,0.4800000000000002,293.2624950000318,None,294.0142959000077,None,,,,,,,[2.00588235],3.5600000000000027,0.6764705882352942,11021,001,2024_Jan_05_1108,MFTM_A_new1021,2021.2.3,60.46918038114131,
,,,,,,,,stim/Instruction_adaptive.png,conditions/adaptive.xlsx,test,-0.6,-0.6,-0.6,0.6,0.6,left,L,,,,,0,1,1,1,0,34,34,9,,,,,,,,,,,,,,,,,,,,,,,,,,,,,,,,,,,,,,,,,,,,294.51507660001516,None,left,1,0.9493418999481946,295.0154822000768,296.0839888000628,295.0154822000768,295.58306520001497,295.0154822000768,295.58306520001497,295.0154822000768,295.58306520001497,295.0154822000768,295.58306520001497,295.0154822000768,295.58306520001497,295.56633190007415,296.0677053000545,295.56633190007415,296.0677053000545,295.56633190007415,296.0677053000545,295.56633190007415,296.0677053000545,295.56633190007415,296.0677053000545,295.56633190007415,296.0677053000545,295.56633190007415,296.0677053000545,295.56633190007415,296.0677053000545,295.0154822000768,None,296.0677053000545,None,0.5600000000000003,298.020065800054,None,298.77135410008486,None,,,,,,,[[1.94]],3.640000000000003,0.6857142857142857,11021,001,2024_Jan_05_1108,MFTM_A_new1021,2021.2.3,60.46918038114131,
,,,,,,,,stim/Instruction_adaptive.png,conditions/adaptive.xlsx,test,0.6,0.6,0.6,-0.6,-0.6,right,R,,,,,0,1,1,1,0,35,35,78,,,,,,,,,,,,,,,,,,,,,,,,,,,,,,,,,,,,,,,,,,,,299.27321850007866,None,left,0,1.4006371001014486,299.7726887000026,300.80840660003014,299.7726887000026,300.3072292000288,299.7726887000026,300.3072292000288,299.7726887000026,300.3072292000288,299.7726887000026,300.3072292000288,299.7726887000026,300.3072292000288,300.2901457999833,300.7916737999767,300.2901457999833,300.7916737999767,300.2901457999833,300.7916737999767,300.2901457999833,300.7916737999767,300.2901457999833,300.7916737999767,300.2901457999833,300.7916737999767,300.2901457999833,300.7916737999767,300.2901457999833,300.7916737999767,299.7726887000026,None,300.7916737999767,None,0.5300000000000002,302.77691730007064,None,303.5282314000651,None,,,,,,,[[1.97]],3.410000000000003,0.6666666666666666,11021,001,2024_Jan_05_1108,MFTM_A_new1021,2021.2.3,60.46918038114131,
,,,,,,,,stim/Instruction_adaptive.png,conditions/adaptive.xlsx,test,-0.6,-0.6,-0.6,0.6,0.6,left,L,,,,,0,1,1,1,0,36,36,93,,,,,,,,,,,,,,,,,,,,,,,,,,,,,,,,,,,,,,,,,,,,304.0288705000421,None,left,1,1.0523979000281543,304.52961389999837,305.6492116000736,304.52961389999837,305.1641195000848,304.52961389999837,305.1641195000848,304.52961389999837,305.1641195000848,304.52961389999837,305.1641195000848,304.52961389999837,305.1641195000848,305.1316925000865,305.63228220003657,305.1316925000865,305.63228220003657,305.1316925000865,305.63228220003657,305.1316925000865,305.63228220003657,305.1316925000865,305.63228220003657,305.1316925000865,305.63228220003657,305.1316925000865,305.63228220003657,305.1316925000865,305.63228220003657,304.52961389999837,None,305.63228220003657,307.51789160002954,0.6200000000000003,307.53424439998344,None,308.2854947000742,None,,,,,,,[[1.88]],3.5000000000000027,0.6756756756756757,11021,001,2024_Jan_05_1108,MFTM_A_new1021,2021.2.3,60.46918038114131,
,,,,,,,,stim/Instruction_adaptive.png,conditions/adaptive.xlsx,test,-0.6,-0.6,-0.6,0.6,0.6,left,L,,,,,0,1,1,1,0,37,37,85,,,,,,,,,,,,,,,,,,,,,,,,,,,,,,,,,,,,,,,,,,,,308.7861783000408,None,left,1,0.8615404999582097,309.2875252000522,310.37179710005876,309.2875252000522,309.8711909999838,309.2875252000522,309.8711909999838,309.2875252000522,309.8711909999838,309.2875252000522,309.8711909999838,309.2875252000522,309.8711909999838,309.85423990001436,310.3552769999951,309.85423990001436,310.3552769999951,309.85423990001436,310.3552769999951,309.85423990001436,310.3552769999951,309.85423990001436,310.3552769999951,309.85423990001436,310.3552769999951,309.85423990001436,310.3552769999951,309.85423990001436,310.3552769999951,309.2875252000522,None,310.3552769999951,312.2749759000726,0.5800000000000003,312.2912283000769,None,313.0424769000383,None,,,,,,,[[1.92]],3.570000000000003,0.6842105263157895,11021,001,2024_Jan_05_1108,MFTM_A_new1021,2021.2.3,60.46918038114131,
,,,,,,,,stim/Instruction_adaptive.png,conditions/adaptive.xlsx,test,-0.6,-0.6,-0.6,0.6,0.6,left,L,,,,,0,1,1,1,0,38,38,65,,,,,,,,,,,,,,,,,,,,,,,,,,,,,,,,,,,,,,,,,,,,313.5440803000238,None,left,1,0.9928689000662416,314.0437405999983,315.0960120999953,314.0437405999983,314.59474830003455,314.0437405999983,314.59474830003455,314.0437405999983,314.59474830003455,314.0437405999983,314.59474830003455,314.0437405999983,314.59474830003455,314.57851400005165,315.0788561999798,314.57851400005165,315.0788561999798,314.57851400005165,315.0788561999798,314.57851400005165,315.0788561999798,314.57851400005165,315.0788561999798,314.57851400005165,315.0788561999798,314.57851400005165,315.0788561999798,314.57851400005165,315.0788561999798,314.0437405999983,None,315.0788561999798,317.0319150000578,0.5500000000000003,317.048543300014,None,317.7999947000062,None,,,,,,,[[1.95]],3.640000000000003,0.6923076923076923,11021,001,2024_Jan_05_1108,MFTM_A_new1021,2021.2.3,60.46918038114131,
,,,,,,,,stim/Instruction_adaptive.png,conditions/adaptive.xlsx,test,-0.6,-0.6,-0.6,0.6,0.6,left,L,,,,,0,1,1,1,0,39,39,57,,,,,,,,,,,,,,,,,,,,,,,,,,,,,,,,,,,,,,,,,,,,318.3000649000751,None,left,1,0.8829027999890968,318.8018839000724,319.83648689999245,318.8018839000724,319.3355389999924,318.8018839000724,319.3355389999924,318.8018839000724,319.3355389999924,318.8018839000724,319.3355389999924,318.8018839000724,319.3355389999924,319.3183356000809,319.8193255000515,319.3183356000809,319.8193255000515,319.3183356000809,319.8193255000515,319.3183356000809,319.8193255000515,319.3183356000809,319.8193255000515,319.3183356000809,319.8193255000515,319.3183356000809,319.8193255000515,319.3183356000809,319.8193255000515,318.8018839000724,None,319.8193255000515,321.78913659998216,0.5300000000000002,321.8052800000878,None,322.55670439999085,None,,,,,,,[[1.97]],3.7100000000000026,0.7,11021,001,2024_Jan_05_1108,MFTM_A_new1021,2021.2.3,60.46918038114131,
,,,,,,,,stim/Instruction_adaptive.png,conditions/adaptive.xlsx,test,0.6,0.6,0.6,-0.6,-0.6,right,R,,,,,0,1,1,1,0,40,40,32,,,,,,,,,,,,,,,,,,,,,,,,,,,,,,,,,,,,,,,,,,,,323.0584767999826,None,right,1,0.9987233999418095,323.5582401000429,324.5593567000469,323.5582401000429,324.0587380999932,323.5582401000429,324.0587380999932,323.5582401000429,324.0587380999932,323.5582401000429,324.0587380999932,323.5582401000429,324.0587380999932,324.0420845000772,324.54366590001155,324.0420845000772,324.54366590001155,324.0420845000772,324.54366590001155,324.0420845000772,324.54366590001155,324.0420845000772,324.54366590001155,324.0420845000772,324.54366590001155,324.0420845000772,324.54366590001155,324.0420845000772,324.54366590001155,323.5582401000429,None,324.54366590001155,326.5464646000182,0.5000000000000002,326.5626260000281,None,327.31452260003425,None,,,,,,,[1.99585366],3.770000000000003,0.7073170731707317,11021,001,2024_Jan_05_1108,MFTM_A_new1021,2021.2.3,60.46918038114131,
,,,,,,,,stim/Instruction_adaptive.png,conditions/adaptive.xlsx,test,-0.6,-0.6,-0.6,0.6,0.6,left,L,,,,,0,1,1,1,0,41,41,19,,,,,,,,,,,,,,,,,,,,,,,,,,,,,,,,,,,,,,,,,,,,327.81434200005606,None,left,1,0.7216959999641404,328.3150467000669,329.2995441000676,328.3150467000669,328.7991934000747,328.3150467000669,328.7991934000747,328.3150467000669,328.7991934000747,328.3150467000669,328.7991934000747,328.3150467000669,328.7991934000747,328.7825514000142,329.28336370002944,328.7825514000142,329.28336370002944,328.7825514000142,329.28336370002944,328.7825514000142,329.28336370002944,328.7825514000142,329.28336370002944,328.7825514000142,329.28336370002944,328.7825514000142,329.28336370002944,328.7825514000142,329.28336370002944,328.3150467000669,None,329.28336370002944,331.2863888000138,0.4800000000000002,331.30309240007773,None,332.05373970000073,None,,,,,,,[1.99642857],3.820000000000003,0.7142857142857143,11021,001,2024_Jan_05_1108,MFTM_A_new1021,2021.2.3,60.46918038114131,
,,,,,,,,stim/Instruction_adaptive.png,conditions/adaptive.xlsx,test,0.6,0.6,0.6,-0.6,-0.6,right,R,,,,,0,1,1,1,0,42,42,18,,,,,,,,,,,,,,,,,,,,,,,,,,,,,,,,,,,,,,,,,,,,332.55477020004764,None,right,1,0.7734866999089718,333.05532540008426,334.04025150008965,333.05532540008426,333.5394002000103,333.05532540008426,333.5394002000103,333.05532540008426,333.5394002000103,333.05532540008426,333.5394002000103,333.05532540008426,333.5394002000103,333.5059973000316,334.00682120001875,333.5059973000316,334.00682120001875,333.5059973000316,334.00682120001875,333.5059973000316,334.00682120001875,333.5059973000316,334.00682120001875,333.5059973000316,334.00682120001875,333.5059973000316,334.00682120001875,333.5059973000316,334.00682120001875,333.05532540008426,None,334.00682120001875,336.0113380000694,0.4700000000000002,336.0264157000929,None,336.7777187000029,None,,,,,,,[1.9972093],3.880000000000003,0.7209302325581395,11021,001,2024_Jan_05_1108,MFTM_A_new1021,2021.2.3,60.46918038114131,
,,,,,,,,stim/Instruction_adaptive.png,conditions/adaptive.xlsx,test,-0.6,-0.6,-0.6,0.6,0.6,left,L,,,,,0,1,1,1,0,43,43,83,,,,,,,,,,,,,,,,,,,,,,,,,,,,,,,,,,,,,,,,,,,,337.2788918000879,None,left,1,1.305657200049609,337.7790816000197,338.73040240001865,337.7790816000197,338.23027300008107,337.7790816000197,338.23027300008107,337.7790816000197,338.23027300008107,337.7790816000197,338.23027300008107,337.7790816000197,338.23027300008107,338.2134094000794,338.7137876000488,338.2134094000794,338.7137876000488,338.2134094000794,338.7137876000488,338.2134094000794,338.7137876000488,338.2134094000794,338.7137876000488,338.2134094000794,338.7137876000488,338.2134094000794,338.7137876000488,338.2134094000794,338.7137876000488,337.7790816000197,None,338.7137876000488,340.7178132000845,0.4500000000000002,340.7336961000692,None,341.4846007000888,None,,,,,,,[1.99840909],3.9300000000000033,0.7272727272727273,11021,001,2024_Jan_05_1108,MFTM_A_new1021,2021.2.3,60.46918038114131,
,,,,,,,,stim/Instruction_adaptive.png,conditions/adaptive.xlsx,test,0.6,0.6,0.6,-0.6,-0.6,right,R,,,,,0,1,1,1,0,44,44,80,,,,,,,,,,,,,,,,,,,,,,,,,,,,,,,,,,,,,,,,,,,,341.9858433000045,None,left,0,0.7909798000473529,342.48593730002176,343.42170160007663,342.48593730002176,342.92061869997997,342.48593730002176,342.92061869997997,342.48593730002176,342.92061869997997,342.48593730002176,342.92061869997997,342.48593730002176,342.92061869997997,342.9045950000873,343.4042024000082,342.9045950000873,343.4042024000082,342.9045950000873,343.4042024000082,342.9045950000873,343.4042024000082,342.9045950000873,343.4042024000082,342.9045950000873,343.4042024000082,342.9045950000873,343.4042024000082,342.9045950000873,343.4042024000082,342.48593730002176,None,343.4042024000082,345.407727300073,0.43000000000000016,345.42364739999175,None,346.1756514000008,None,,,,,,,[2.],3.780000000000003,0.7111111111111111,11021,001,2024_Jan_05_1108,MFTM_A_new1021,2021.2.3,60.46918038114131,
,,,,,,,,stim/Instruction_adaptive.png,conditions/adaptive.xlsx,test,-0.6,-0.6,-0.6,0.6,0.6,left,L,,,,,0,1,1,1,0,45,45,35,,,,,,,,,,,,,,,,,,,,,,,,,,,,,,,,,,,,,,,,,,,,346.67615140008274,None,left,1,1.2206370999338105,347.176159500028,348.16166139999405,347.176159500028,347.6603441000916,347.176159500028,347.6603441000916,347.176159500028,347.6603441000916,347.176159500028,347.6603441000916,347.176159500028,347.6603441000916,347.64442040002905,348.14420310000423,347.64442040002905,348.14420310000423,347.64442040002905,348.14420310000423,347.64442040002905,348.14420310000423,347.64442040002905,348.14420310000423,347.64442040002905,348.14420310000423,347.64442040002905,348.14420310000423,347.64442040002905,348.14420310000423,347.176159500028,None,348.14420310000423,350.14816550002433,0.4800000000000002,350.1644860000815,None,350.9160499999998,None,,,,,,,[2.00043478],3.8300000000000027,0.717391304347826,11021,001,2024_Jan_05_1108,MFTM_A_new1021,2021.2.3,60.46918038114131,
,,,,,,,,stim/Instruction_adaptive.png,conditions/adaptive.xlsx,test,-0.6,-0.6,-0.6,0.6,0.6,left,L,,,,,0,1,1,1,0,46,46,47,,,,,,,,,,,,,,,,,,,,,,,,,,,,,,,,,,,,,,,,,,,,351.4162185000023,None,left,1,0.9133576001040637,351.91655730002094,352.88542890001554,351.91655730002094,352.3840593000641,351.91655730002094,352.3840593000641,351.91655730002094,352.3840593000641,351.91655730002094,352.3840593000641,351.91655730002094,352.3840593000641,352.36738870001864,352.8686190000735,352.36738870001864,352.8686190000735,352.36738870001864,352.8686190000735,352.36738870001864,352.8686190000735,352.36738870001864,352.8686190000735,352.36738870001864,352.8686190000735,352.36738870001864,352.8686190000735,352.36738870001864,352.8686190000735,351.91655730002094,None,352.8686190000735,354.87125040008686,0.4600000000000002,354.8882439000299,None,355.6389215000672,None,,,,,,,[2.0012766],3.880000000000003,0.723404255319149,11021,001,2024_Jan_05_1108,MFTM_A_new1021,2021.2.3,60.46918038114131,
,,,,,,,,stim/Instruction_adaptive.png,conditions/adaptive.xlsx,test,0.6,0.6,0.6,-0.6,-0.6,right,R,,,,,0,1,1,1,0,47,47,8,,,,,,,,,,,,,,,,,,,,,,,,,,,,,,,,,,,,,,,,,,,,356.13966159999836,None,left,0,1.3801864000270143,356.6404876000015,357.59164640004747,356.6404876000015,357.0917048000265,356.6404876000015,357.0917048000265,356.6404876000015,357.0917048000265,356.6404876000015,357.0917048000265,356.6404876000015,357.0917048000265,357.07431639998686,357.5761589000467,357.07431639998686,357.5761589000467,357.07431639998686,357.5761589000467,357.07431639998686,357.5761589000467,357.07431639998686,357.5761589000467,357.07431639998686,357.5761589000467,357.07431639998686,357.5761589000467,357.07431639998686,357.5761589000467,356.6404876000015,None,357.5761589000467,359.57804110005964,0.4500000000000002,359.59470170002896,None,360.34610319999047,None,,,,,,,[2.00229167],3.740000000000003,0.7083333333333334,11021,001,2024_Jan_05_1108,MFTM_A_new1021,2021.2.3,60.46918038114131,
,,,,,,,,stim/Instruction_adaptive.png,conditions/adaptive.xlsx,test,-0.6,-0.6,-0.6,0.6,0.6,left,L,,,,,0,1,1,1,0,48,48,55,,,,,,,,,,,,,,,,,,,,,,,,,,,,,,,,,,,,,,,,,,,,360.84717329998966,None,left,1,0.8332691000541672,361.3478531000437,362.34872700006235,361.3478531000437,361.84796610008925,361.3478531000437,361.84796610008925,361.3478531000437,361.84796610008925,361.3478531000437,361.84796610008925,361.3478531000437,361.84796610008925,361.8151983000571,362.31519009999465,361.8151983000571,362.31519009999465,361.8151983000571,362.31519009999465,361.8151983000571,362.31519009999465,361.8151983000571,362.31519009999465,361.8151983000571,362.31519009999465,361.8151983000571,362.31519009999465,361.8151983000571,362.31519009999465,361.3478531000437,None,362.31519009999465,364.31841280008666,0.4900000000000002,364.3515690000495,None,365.1036102999933,None,,,,,,,[2.00244898],3.7900000000000027,0.7142857142857143,11021,001,2024_Jan_05_1108,MFTM_A_new1021,2021.2.3,60.46918038114131,
,,,,,,,,stim/Instruction_adaptive.png,conditions/adaptive.xlsx,test,0.6,0.6,0.6,-0.6,-0.6,right,R,,,,,0,1,1,1,0,49,49,92,,,,,,,,,,,,,,,,,,,,,,,,,,,,,,,,,,,,,,,,,,,,365.60367119999137,None,right,1,0.9317125000525266,366.1048667000141,367.08995100005995,366.1048667000141,366.5884221000597,366.1048667000141,366.5884221000597,366.1048667000141,366.5884221000597,366.1048667000141,366.5884221000597,366.1048667000141,366.5884221000597,366.5716017000377,367.07290150003973,366.5716017000377,367.07290150003973,366.5716017000377,367.07290150003973,366.5716017000377,367.07290150003973,366.5716017000377,367.07290150003973,366.5716017000377,367.07290150003973,366.5716017000377,367.07290150003973,366.5716017000377,367.07290150003973,366.1048667000141,None,367.07290150003973,369.07550710008945,0.4800000000000002,369.09197479998693,None,369.843163200072,None,,,,,,,[2.0028],3.840000000000003,0.72,11021,001,2024_Jan_05_1108,MFTM_A_new1021,2021.2.3,60.46918038114131,
,,,,,,,,stim/Instruction_adaptive.png,conditions/adaptive.xlsx,test,0.6,0.6,0.6,-0.6,-0.6,right,R,,,,,0,1,1,1,0,50,50,24,,,,,,,,,,,,,,,,,,,,,,,,,,,,,,,,,,,,,,,,,,,,370.3450542000355,None,right,1,1.1516639998881146,370.84533480007667,371.8132506000111,370.84533480007667,371.3127455000067,370.84533480007667,371.3127455000067,370.84533480007667,371.3127455000067,370.84533480007667,371.3127455000067,370.84533480007667,371.3127455000067,371.2786344999913,371.77941710001323,371.2786344999913,371.77941710001323,371.2786344999913,371.77941710001323,371.2786344999913,371.77941710001323,371.2786344999913,371.77941710001323,371.2786344999913,371.77941710001323,371.2786344999913,371.77941710001323,371.2786344999913,371.77941710001323,370.84533480007667,None,371.77941710001323,373.78239270008635,0.4600000000000002,373.81588610005565,None,374.5670700999908,None,,,,,,,[2.00352941],3.880000000000003,0.7254901960784313,11021,001,2024_Jan_05_1108,MFTM_A_new1021,2021.2.3,60.46918038114131,
,,,,,,,,stim/Instruction_adaptive.png,conditions/adaptive.xlsx,test,-0.6,-0.6,-0.6,0.6,0.6,left,L,,,,,0,1,1,1,0,51,51,69,,,,,,,,,,,,,,,,,,,,,,,,,,,,,,,,,,,,,,,,,,,,375.0676979999989,None,left,1,0.8763487000251189,375.56849690002855,376.520480300067,375.56849690002855,376.0197184000863,375.56849690002855,376.0197184000863,375.56849690002855,376.0197184000863,375.56849690002855,376.0197184000863,375.56849690002855,376.0197184000863,376.00380060006864,376.5038868000265,376.00380060006864,376.5038868000265,376.00380060006864,376.5038868000265,376.00380060006864,376.5038868000265,376.00380060006864,376.5038868000265,376.00380060006864,376.5038868000265,376.00380060006864,376.5038868000265,376.00380060006864,376.5038868000265,375.56849690002855,None,376.5038868000265,None,0.4500000000000002,378.52305239997804,None,379.2752260999987,None,,,,,,,[2.00442308],3.920000000000003,0.7307692307692307,11021,001,2024_Jan_05_1108,MFTM_A_new1021,2021.2.3,60.46918038114131,
,,,,,,,,stim/Instruction_adaptive.png,conditions/adaptive.xlsx,test,-0.6,-0.6,-0.6,0.6,0.6,left,L,,,,,0,1,1,1,0,52,52,81,,,,,,,,,,,,,,,,,,,,,,,,,,,,,,,,,,,,,,,,,,,,379.7745170000708,None,right,0,0.7613363000564277,380.2754150000401,381.21111100004055,380.2754150000401,380.70923060004134,380.2754150000401,380.70923060004134,380.2754150000401,380.70923060004134,380.2754150000401,380.70923060004134,380.2754150000401,380.70923060004134,380.69286050007213,381.1934939000057,380.69286050007213,381.1934939000057,380.69286050007213,381.1934939000057,380.69286050007213,381.1934939000057,380.69286050007213,381.1934939000057,380.69286050007213,381.1934939000057,380.69286050007213,381.1934939000057,380.69286050007213,381.1934939000057,380.2754150000401,None,381.1934939000057,None,0.43000000000000016,383.21302500006277,None,383.96417540009134,None,,,,,,,[2.00566038],3.800000000000003,0.7169811320754716,11021,001,2024_Jan_05_1108,MFTM_A_new1021,2021.2.3,60.46918038114131,
,,,,,,,,stim/Instruction_adaptive.png,conditions/adaptive.xlsx,test,-0.6,-0.6,-0.6,0.6,0.6,left,L,,,,,0,1,1,1,0,53,53,11,,,,,,,,,,,,,,,,,,,,,,,,,,,,,,,,,,,,,,,,,,,,384.4657149000559,None,left,1,0.8785251000663266,384.96627309999894,385.95056740008295,384.96627309999894,385.45064010005444,384.96627309999894,385.45064010005444,384.96627309999894,385.45064010005444,384.96627309999894,385.45064010005444,384.96627309999894,385.45064010005444,385.416403500014,385.9171180999838,385.416403500014,385.9171180999838,385.416403500014,385.9171180999838,385.416403500014,385.9171180999838,385.416403500014,385.9171180999838,385.416403500014,385.9171180999838,385.416403500014,385.9171180999838,385.416403500014,385.9171180999838,384.96627309999894,None,385.9171180999838,387.9367751000682,0.4700000000000002,387.9535496000899,None,388.7050228000153,None,,,,,,,[2.00611111],3.850000000000003,0.7222222222222222,11021,001,2024_Jan_05_1108,MFTM_A_new1021,2021.2.3,60.46918038114131,
,,,,,,,,stim/Instruction_adaptive.png,conditions/adaptive.xlsx,test,0.6,0.6,0.6,-0.6,-0.6,right,R,,,,,0,1,1,1,0,54,54,66,,,,,,,,,,,,,,,,,,,,,,,,,,,,,,,,,,,,,,,,,,,,389.205531100044,None,right,1,1.3949020999716595,389.70608730008826,390.6741067999974,389.70608730008826,390.1734088000376,389.70608730008826,390.1734088000376,389.70608730008826,390.1734088000376,389.70608730008826,390.1734088000376,389.70608730008826,390.1734088000376,390.14062249998096,390.6412362999981,390.14062249998096,390.6412362999981,390.14062249998096,390.6412362999981,390.14062249998096,390.6412362999981,390.14062249998096,390.6412362999981,390.14062249998096,390.6412362999981,390.14062249998096,390.6412362999981,390.14062249998096,390.6412362999981,389.70608730008826,None,390.6412362999981,392.6606658999808,0.4600000000000002,392.6776889000321,None,393.43013520003296,None,,,,,,,[2.00672727],3.8900000000000032,0.7272727272727273,11021,001,2024_Jan_05_1108,MFTM_A_new1021,2021.2.3,60.46918038114131,
,,,,,,,,stim/Instruction_adaptive.png,conditions/adaptive.xlsx,test,0.6,0.6,0.6,-0.6,-0.6,right,R,,,,,0,1,1,1,0,55,55,12,,,,,,,,,,,,,,,,,,,,,,,,,,,,,,,,,,,,,,,,,,,,393.9292735999916,None,right,1,1.9834443000145257,394.4296003000345,395.38175160007086,394.4296003000345,394.88038420001976,394.4296003000345,394.88038420001976,394.4296003000345,394.88038420001976,394.4296003000345,394.88038420001976,394.4296003000345,394.88038420001976,394.8469002000056,395.3483811999904,394.8469002000056,395.3483811999904,394.8469002000056,395.3483811999904,394.8469002000056,395.3483811999904,394.8469002000056,395.3483811999904,394.8469002000056,395.3483811999904,394.8469002000056,395.3483811999904,394.8469002000056,395.3483811999904,394.4296003000345,None,395.3483811999904,397.3673661000794,0.44000000000000017,397.3840820000041,None,398.13577689998783,None,,,,,,,[2.00767857],3.920000000000003,0.7321428571428571,11021,001,2024_Jan_05_1108,MFTM_A_new1021,2021.2.3,60.46918038114131,
,,,,,,,,stim/Instruction_adaptive.png,conditions/adaptive.xlsx,test,-0.6,-0.6,-0.6,0.6,0.6,left,L,,,,,0,1,1,1,0,56,56,67,,,,,,,,,,,,,,,,,,,,,,,,,,,,,,,,,,,,,,,,,,,,398.63586380006745,None,left,1,1.172348799998872,399.136674300069,400.071500100079,399.136674300069,399.5712506000418,399.136674300069,399.5712506000418,399.136674300069,399.5712506000418,399.136674300069,399.5712506000418,399.136674300069,399.5712506000418,399.5537847999949,400.05487650004216,399.5537847999949,400.05487650004216,399.5537847999949,400.05487650004216,399.5537847999949,400.05487650004216,399.5537847999949,400.05487650004216,399.5537847999949,400.05487650004216,399.5537847999949,400.05487650004216,399.5537847999949,400.05487650004216,399.136674300069,None,400.05487650004216,None,0.43000000000000016,402.07421270001214,None,402.8263370000059,None,,,,,,,[2.00877193],3.960000000000003,0.7368421052631579,11021,001,2024_Jan_05_1108,MFTM_A_new1021,2021.2.3,60.46918038114131,
,,,,,,,,stim/Instruction_adaptive.png,conditions/adaptive.xlsx,test,0.6,0.6,0.6,-0.6,-0.6,right,R,,,,,0,1,1,1,0,57,57,20,,,,,,,,,,,,,,,,,,,,,,,,,,,,,,,,,,,,,,,,,,,,403.32701260002796,None,right,1,1.161264199996367,403.8278060000157,404.76165910006966,403.8278060000157,404.2615709999809,403.8278060000157,404.2615709999809,403.8278060000157,404.2615709999809,403.8278060000157,404.2615709999809,403.8278060000157,404.2615709999809,404.22831420006696,404.7291439999826,404.22831420006696,404.7291439999826,404.22831420006696,404.7291439999826,404.22831420006696,404.7291439999826,404.22831420006696,404.7291439999826,404.22831420006696,404.7291439999826,404.22831420006696,404.7291439999826,404.22831420006696,404.7291439999826,403.8278060000157,None,404.7291439999826,406.7490743000526,0.42000000000000015,406.7648876000894,None,407.51586679997854,None,,,,,,,[2.01],4.0000000000000036,0.7413793103448276,11021,001,2024_Jan_05_1108,MFTM_A_new1021,2021.2.3,60.46918038114131,
,,,,,,,,stim/Instruction_adaptive.png,conditions/adaptive.xlsx,test,-0.6,-0.6,-0.6,0.6,0.6,left,L,,,,,0,1,1,1,0,58,58,97,,,,,,,,,,,,,,,,,,,,,,,,,,,,,,,,,,,,,,,,,,,,408.0164050000021,None,right,0,0.9031043000286445,408.5178870999953,409.4353589999955,408.5178870999953,408.9346942000557,408.5178870999953,408.9346942000557,408.5178870999953,408.9346942000557,408.5178870999953,408.9346942000557,408.5178870999953,408.9346942000557,408.9176259000087,409.4198978000786,408.9176259000087,409.4198978000786,408.9176259000087,409.4198978000786,408.9176259000087,409.4198978000786,408.9176259000087,409.4198978000786,408.9176259000087,409.4198978000786,408.9176259000087,409.4198978000786,408.9176259000087,409.4198978000786,408.5178870999953,None,409.4198978000786,None,0.41000000000000014,411.4388824000489,None,412.1901207000483,None,,,,,,,[2.01135593],3.8900000000000032,0.7288135593220338,11021,001,2024_Jan_05_1108,MFTM_A_new1021,2021.2.3,60.46918038114131,
,,,,,,,,stim/Instruction_adaptive.png,conditions/adaptive.xlsx,test,-0.6,-0.6,-0.6,0.6,0.6,left,L,,,,,0,1,1,1,0,59,59,7,,,,,,,,,,,,,,,,,,,,,,,,,,,,,,,,,,,,,,,,,,,,412.69059710006695,None,left,1,1.2062245999695733,413.19106620003004,414.14254210004583,413.19106620003004,413.64249880006537,413.19106620003004,413.64249880006537,413.19106620003004,413.64249880006537,413.19106620003004,413.64249880006537,413.19106620003004,413.64249880006537,413.6081627000822,414.10887220001314,413.6081627000822,414.10887220001314,413.6081627000822,414.10887220001314,413.6081627000822,414.10887220001314,413.6081627000822,414.10887220001314,413.6081627000822,414.10887220001314,413.6081627000822,414.10887220001314,413.6081627000822,414.10887220001314,413.19106620003004,None,414.10887220001314,416.12996050005313,0.44000000000000017,416.1450271999929,None,416.8963204000611,None,,,,,,,[2.01216667],3.9300000000000033,0.7333333333333333,11021,001,2024_Jan_05_1108,MFTM_A_new1021,2021.2.3,60.46918038114131,
,,,,,,,,stim/Instruction_adaptive.png,conditions/adaptive.xlsx,test,0.6,0.6,0.6,-0.6,-0.6,right,R,,,,,0,1,1,1,0,60,60,54,,,,,,,,,,,,,,,,,,,,,,,,,,,,,,,,,,,,,,,,,,,,417.3971202999819,None,right,1,1.378781299921684,417.8983993000584,418.83288570004515,417.8983993000584,418.33168730000034,417.8983993000584,418.33168730000034,417.8983993000584,418.33168730000034,417.8983993000584,418.33168730000034,417.8983993000584,418.33168730000034,418.31510630005505,418.81666930008214,418.31510630005505,418.81666930008214,418.31510630005505,418.81666930008214,418.31510630005505,418.81666930008214,418.31510630005505,418.81666930008214,418.31510630005505,418.81666930008214,418.31510630005505,418.81666930008214,418.31510630005505,418.81666930008214,417.8983993000584,None,418.81666930008214,420.8352705000434,0.43000000000000016,420.85192929999903,None,421.6037840000354,None,,,,,,,[2.01311475],3.960000000000003,0.7377049180327869,11021,001,2024_Jan_05_1108,MFTM_A_new1021,2021.2.3,60.46918038114131,
,,,,,,,,stim/Instruction_adaptive.png,conditions/adaptive.xlsx,test,0.6,0.6,0.6,-0.6,-0.6,right,R,,,,,0,1,1,1,0,61,61,82,,,,,,,,,,,,,,,,,,,,,,,,,,,,,,,,,,,,,,,,,,,,422.1040737000294,None,right,1,0.7601326999720186,422.6047275000019,423.5400452000322,422.6047275000019,423.0385901000118,422.6047275000019,423.0385901000118,422.6047275000019,423.0385901000118,422.6047275000019,423.0385901000118,422.6047275000019,423.0385901000118,423.0052835000679,423.5060726000229,423.0052835000679,423.5060726000229,423.0052835000679,423.5060726000229,423.0052835000679,423.5060726000229,423.0052835000679,423.5060726000229,423.0052835000679,423.5060726000229,423.0052835000679,423.5060726000229,423.0052835000679,423.5060726000229,422.6047275000019,None,423.5060726000229,425.5283166000154,0.42000000000000015,425.54251589998603,None,426.29417400003877,None,,,,,,,[2.01419355],4.0000000000000036,0.7419354838709677,11021,001,2024_Jan_05_1108,MFTM_A_new1021,2021.2.3,60.46918038114131,
,,,,,,,,stim/Instruction_adaptive.png,conditions/adaptive.xlsx,test,0.6,0.6,0.6,-0.6,-0.6,right,R,,,,,0,1,1,1,0,62,62,34,,,,,,,,,,,,,,,,,,,,,,,,,,,,,,,,,,,,,,,,,,,,426.7945066000102,None,right,1,1.1338789999717847,427.2951966000255,428.2131302000489,427.2951966000255,427.71293630008586,427.2951966000255,427.71293630008586,427.2951966000255,427.71293630008586,427.2951966000255,427.71293630008586,427.2951966000255,427.71293630008586,427.6956289000809,428.1966002000263,427.6956289000809,428.1966002000263,427.6956289000809,428.1966002000263,427.6956289000809,428.1966002000263,427.6956289000809,428.1966002000263,427.6956289000809,428.1966002000263,427.6956289000809,428.1966002000263,427.6956289000809,428.1966002000263,427.2951966000255,None,428.1805959000485,430.2017685000319,0.41000000000000014,430.233462800039,None,430.9843993000686,None,,,,,,,[2.01539683],4.030000000000003,0.746031746031746,11021,001,2024_Jan_05_1108,MFTM_A_new1021,2021.2.3,60.46918038114131,
,,,,,,,,stim/Instruction_adaptive.png,conditions/adaptive.xlsx,test,0.6,0.6,0.6,-0.6,-0.6,right,R,,,,,0,1,1,1,0,63,63,40,,,,,,,,,,,,,,,,,,,,,,,,,,,,,,,,,,,,,,,,,,,,431.4855582000455,None,right,1,0.8520715999184176,431.9853613000596,432.8874752999982,431.9853613000596,432.38572490005754,431.9853613000596,432.38572490005754,431.9853613000596,432.38572490005754,431.9853613000596,432.38572490005754,431.9853613000596,432.38572490005754,432.36925770004746,432.87065639998764,432.36925770004746,432.87065639998764,432.36925770004746,432.87065639998764,432.36925770004746,432.87065639998764,432.36925770004746,432.87065639998764,432.36925770004746,432.87065639998764,432.36925770004746,432.87065639998764,432.36925770004746,432.87065639998764,431.9853613000596,None,432.87065639998764,434.88983400003053,0.40000000000000013,434.90677670005243,None,435.65814559999853,None,,,,,,,[2.01671875],4.060000000000003,0.75,11021,001,2024_Jan_05_1108,MFTM_A_new1021,2021.2.3,60.46918038114131,
,,,,,,,,stim/Instruction_adaptive.png,conditions/adaptive.xlsx,test,-0.6,-0.6,-0.6,0.6,0.6,left,L,,,,,0,1,1,1,0,64,64,79,,,,,,,,,,,,,,,,,,,,,,,,,,,,,,,,,,,,,,,,,,,,436.15813240001444,None,right,0,1.7766552000539377,436.6603270000778,437.5614080000669,436.6603270000778,437.05951679998543,436.6603270000778,437.05951679998543,436.6603270000778,437.05951679998543,436.6603270000778,437.05951679998543,436.6603270000778,437.05951679998543,437.0261197000509,437.52768880000804,437.0261197000509,437.52768880000804,437.0261197000509,437.52768880000804,437.0261197000509,437.52768880000804,437.0261197000509,437.52768880000804,437.0261197000509,437.52768880000804,437.0261197000509,437.52768880000804,437.0261197000509,437.52768880000804,436.6603270000778,None,437.52768880000804,439.5465011000633,0.3900000000000001,439.59751930006314,None,440.34779889998026,None,,,,,,,[2.01815385],3.9700000000000033,0.7384615384615385,11021,001,2024_Jan_05_1108,MFTM_A_new1021,2021.2.3,60.46918038114131,
,,,,,,,,stim/Instruction_adaptive.png,conditions/adaptive.xlsx,test,-0.6,-0.6,-0.6,0.6,0.6,left,L,,,,,0,1,1,1,0,65,65,53,,,,,,,,,,,,,,,,,,,,,,,,,,,,,,,,,,,,,,,,,,,,440.84964879998006,None,left,1,0.6956130999606103,441.34922870004084,442.28456310008187,441.34922870004084,441.7836880000541,441.34922870004084,441.7836880000541,441.34922870004084,441.7836880000541,441.34922870004084,441.7836880000541,441.34922870004084,441.7836880000541,441.7502749999985,442.2508354000747,441.7502749999985,442.2508354000747,441.7502749999985,442.2508354000747,441.7502749999985,442.2508354000747,441.7502749999985,442.2508354000747,441.7502749999985,442.2508354000747,441.7502749999985,442.2508354000747,441.7502749999985,442.2508354000747,441.34922870004084,None,442.2508354000747,444.2708524999907,0.42000000000000015,444.2868543000659,None,445.0388758000918,None,,,,,,,[2.01909091],4.0000000000000036,0.7424242424242424,11021,001,2024_Jan_05_1108,MFTM_A_new1021,2021.2.3,60.46918038114131,
,,,,,,,,stim/Instruction_adaptive.png,conditions/adaptive.xlsx,test,0.6,0.6,0.6,-0.6,-0.6,right,R,,,,,0,1,1,1,0,66,66,64,,,,,,,,,,,,,,,,,,,,,,,,,,,,,,,,,,,,,,,,,,,,445.5388341000071,None,left,0,0.8774567999644205,446.0394493000349,446.9582330000121,446.0394493000349,446.4578444000799,446.0394493000349,446.4578444000799,446.0394493000349,446.4578444000799,446.0394493000349,446.4578444000799,446.0394493000349,446.4578444000799,446.4237011000514,446.92400910006836,446.4237011000514,446.92400910006836,446.4237011000514,446.92400910006836,446.4237011000514,446.92400910006836,446.4237011000514,446.92400910006836,446.4237011000514,446.92400910006836,446.4237011000514,446.92400910006836,446.4237011000514,446.92400910006836,446.0394493000349,None,446.92400910006836,448.9436934000114,0.41000000000000014,448.97710180003196,None,449.72837010002695,None,,,,,,,[2.02014925],3.910000000000003,0.7313432835820896,11021,001,2024_Jan_05_1108,MFTM_A_new1021,2021.2.3,60.46918038114131,
,,,,,,,,stim/Instruction_adaptive.png,conditions/adaptive.xlsx,test,0.6,0.6,0.6,-0.6,-0.6,right,R,,,,,0,1,1,1,0,67,67,60,,,,,,,,,,,,,,,,,,,,,,,,,,,,,,,,,,,,,,,,,,,,450.2288705999963,None,right,1,1.4912238999968395,450.72968129999936,451.68185629998334,450.72968129999936,451.180716700037,450.72968129999936,451.180716700037,450.72968129999936,451.180716700037,450.72968129999936,451.180716700037,450.72968129999936,451.180716700037,451.1482862000121,451.6478057000786,451.1482862000121,451.6478057000786,451.1482862000121,451.6478057000786,451.1482862000121,451.6478057000786,451.1482862000121,451.6478057000786,451.1482862000121,451.6478057000786,451.1482862000121,451.6478057000786,451.1482862000121,451.6478057000786,450.72968129999936,None,451.6478057000786,453.684986700071,0.44000000000000017,453.70071220002137,None,454.4518556999974,None,,,,,,,[2.02073529],3.940000000000003,0.7352941176470589,11021,001,2024_Jan_05_1108,MFTM_A_new1021,2021.2.3,60.46918038114131,
,,,,,,,,stim/Instruction_adaptive.png,conditions/adaptive.xlsx,test,0.6,0.6,0.6,-0.6,-0.6,right,R,,,,,0,1,1,1,0,68,68,98,,,,,,,,,,,,,,,,,,,,,,,,,,,,,,,,,,,,,,,,,,,,454.95254820003174,None,left,0,1.0633195999544114,455.45354610006325,456.38972500001546,455.45354610006325,455.88722630008124,455.45354610006325,455.88722630008124,455.45354610006325,455.88722630008124,455.45354610006325,455.88722630008124,455.45354610006325,455.88722630008124,455.8705382000189,456.3715504000429,455.8705382000189,456.3715504000429,455.8705382000189,456.3715504000429,455.8705382000189,456.3715504000429,455.8705382000189,456.3715504000429,455.8705382000189,456.3715504000429,455.8705382000189,456.3715504000429,455.8705382000189,456.3715504000429,455.45354610006325,None,456.3715504000429,None,0.43000000000000016,458.40786410006694,None,459.1605140999891,None,,,,,,,[2.02144928],3.850000000000003,0.7246376811594203,11021,001,2024_Jan_05_1108,MFTM_A_new1021,2021.2.3,60.46918038114131,
,,,,,,,,stim/Instruction_adaptive.png,conditions/adaptive.xlsx,test,0.6,0.6,0.6,-0.6,-0.6,right,R,,,,,0,1,1,1,0,69,69,28,,,,,,,,,,,,,,,,,,,,,,,,,,,,,,,,,,,,,,,,,,,,459.6595194999827,None,left,0,1.6212215999839827,460.1602983000921,461.1287024000194,460.1602983000921,460.62758840003517,460.1602983000921,460.62758840003517,460.1602983000921,460.62758840003517,460.1602983000921,460.62758840003517,460.1602983000921,460.62758840003517,460.5944450000534,461.0949098999845,460.5944450000534,461.0949098999845,460.5944450000534,461.0949098999845,460.5944450000534,461.0949098999845,460.5944450000534,461.0949098999845,460.5944450000534,461.0949098999845,460.5944450000534,461.0949098999845,460.5944450000534,461.0949098999845,460.1602983000921,None,461.11244180006906,None,0.4600000000000002,463.148337700055,None,463.89927210006863,None,,,,,,,[2.02171429],3.760000000000003,0.7142857142857143,11021,001,2024_Jan_05_1108,MFTM_A_new1021,2021.2.3,60.46918038114131,
,,,,,,,,stim/Instruction_adaptive.png,conditions/adaptive.xlsx,test,0.6,0.6,0.6,-0.6,-0.6,right,R,,,,,0,1,1,1,0,70,70,96,,,,,,,,,,,,,,,,,,,,,,,,,,,,,,,,,,,,,,,,,,,,464.4002121000085,None,right,1,1.0167682999745011,464.9007292999886,465.90227100008633,464.9007292999886,465.4016895000823,464.9007292999886,465.4016895000823,464.9007292999886,465.4016895000823,464.9007292999886,465.4016895000823,464.9007292999886,465.4016895000823,465.3683973000152,465.8689697000664,465.3683973000152,465.8689697000664,465.3683973000152,465.8689697000664,465.3683973000152,465.8689697000664,465.3683973000152,465.8689697000664,465.3683973000152,465.8689697000664,465.3683973000152,465.8689697000664,465.3683973000152,465.8689697000664,464.9007292999886,None,465.8689697000664,467.89036200009286,0.4900000000000002,467.9052503000712,None,468.6567713000113,None,,,,,,,[[2.01]],3.7900000000000027,0.7183098591549296,11021,001,2024_Jan_05_1108,MFTM_A_new1021,2021.2.3,60.46918038114131,
,,,,,,,,stim/Instruction_adaptive.png,conditions/adaptive.xlsx,test,-0.6,-0.6,-0.6,0.6,0.6,left,L,,,,,0,1,1,1,0,71,71,31,,,,,,,,,,,,,,,,,,,,,,,,,,,,,,,,,,,,,,,,,,,,469.1570182000287,None,left,1,0.8911714000860229,469.657884699991,470.6428824000759,469.657884699991,470.1429261000594,469.657884699991,470.1429261000594,469.657884699991,470.1429261000594,469.657884699991,470.1429261000594,469.657884699991,470.1429261000594,470.1262848000042,470.626195800025,470.1262848000042,470.626195800025,470.1262848000042,470.626195800025,470.1262848000042,470.626195800025,470.1262848000042,470.626195800025,470.1262848000042,470.626195800025,470.1262848000042,470.626195800025,470.1262848000042,470.626195800025,469.657884699991,None,470.626195800025,472.646113099996,0.4800000000000002,472.6623081000289,None,473.413429700071,None,,,,,,,[[2.02]],3.820000000000003,0.7222222222222222,11021,001,2024_Jan_05_1108,MFTM_A_new1021,2021.2.3,60.46918038114131,
,,,,,,,,stim/Instruction_adaptive.png,conditions/adaptive.xlsx,test,0.6,0.6,0.6,-0.6,-0.6,right,R,,,,,0,1,1,1,0,72,72,10,,,,,,,,,,,,,,,,,,,,,,,,,,,,,,,,,,,,,,,,,,,,473.9140573000768,None,right,1,1.3347252999665216,474.4148917000275,475.399748200085,474.4148917000275,474.89955590001773,474.4148917000275,474.89955590001773,474.4148917000275,474.89955590001773,474.4148917000275,474.89955590001773,474.4148917000275,474.89955590001773,474.8655428000493,475.3663774000015,474.8655428000493,475.3663774000015,474.8655428000493,475.3663774000015,474.8655428000493,475.3663774000015,474.8655428000493,475.3663774000015,474.8655428000493,475.3663774000015,474.8655428000493,475.3663774000015,474.8655428000493,475.3663774000015,474.4148917000275,None,475.3663774000015,477.4034291000571,0.4700000000000002,477.419361700071,None,478.1712910999777,None,,,,,,,[2.02164384],3.850000000000003,0.726027397260274,11021,001,2024_Jan_05_1108,MFTM_A_new1021,2021.2.3,60.46918038114131,
,,,,,,,,stim/Instruction_adaptive.png,conditions/adaptive.xlsx,test,-0.6,-0.6,-0.6,0.6,0.6,left,L,,,,,0,1,1,1,0,73,73,43,,,,,,,,,,,,,,,,,,,,,,,,,,,,,,,,,,,,,,,,,,,,478.6718867000891,None,left,1,1.3684360999614,479.17269320006017,480.1400038000429,479.17269320006017,479.63921970000956,479.17269320006017,479.63921970000956,479.17269320006017,479.63921970000956,479.17269320006017,479.63921970000956,479.17269320006017,479.63921970000956,479.62325350008905,480.12331170006655,479.62325350008905,480.12331170006655,479.62325350008905,480.12331170006655,479.62325350008905,480.12331170006655,479.62325350008905,480.12331170006655,479.62325350008905,480.12331170006655,479.62325350008905,480.12331170006655,479.62325350008905,480.12331170006655,479.17269320006017,None,480.12331170006655,None,0.4600000000000002,482.15966270002536,None,482.9108153000707,None,,,,,,,[2.02189189],3.880000000000003,0.7297297297297297,11021,001,2024_Jan_05_1108,MFTM_A_new1021,2021.2.3,60.46918038114131,
,,,,,,,,stim/Instruction_adaptive.png,conditions/adaptive.xlsx,test,-0.6,-0.6,-0.6,0.6,0.6,left,L,,,,,0,1,1,1,0,74,74,99,,,,,,,,,,,,,,,,,,,,,,,,,,,,,,,,,,,,,,,,,,,,483.4116783000063,None,left,1,0.7487989000510424,483.9123441000702,484.8634836000856,483.9123441000702,484.3629721000325,483.9123441000702,484.3629721000325,483.9123441000702,484.3629721000325,483.9123441000702,484.3629721000325,483.9123441000702,484.3629721000325,484.3464949000627,484.84690040000714,484.3464949000627,484.84690040000714,484.3464949000627,484.84690040000714,484.3464949000627,484.84690040000714,484.3464949000627,484.84690040000714,484.3464949000627,484.84690040000714,484.3464949000627,484.84690040000714,484.3464949000627,484.84690040000714,483.9123441000702,None,484.84690040000714,486.884152200073,0.4500000000000002,486.89976649999153,None,487.651636900031,None,,,,,,,[2.02226667],3.910000000000003,0.7333333333333333,11021,001,2024_Jan_05_1108,MFTM_A_new1021,2021.2.3,60.46918038114131,
,,,,,,,,stim/Instruction_adaptive.png,conditions/adaptive.xlsx,test,0.6,0.6,0.6,-0.6,-0.6,right,R,,,,,0,1,1,1,0,75,75,90,,,,,,,,,,,,,,,,,,,,,,,,,,,,,,,,,,,,,,,,,,,,488.1518577000825,None,right,1,1.4243755000643432,488.6527168999892,489.60509890003596,488.6527168999892,489.10346120002214,488.6527168999892,489.10346120002214,488.6527168999892,489.10346120002214,488.6527168999892,489.10346120002214,488.6527168999892,489.10346120002214,489.0698432000354,489.5713065000018,489.0698432000354,489.5713065000018,489.0698432000354,489.5713065000018,489.0698432000354,489.5713065000018,489.0698432000354,489.5713065000018,489.0698432000354,489.5713065000018,489.0698432000354,489.5713065000018,489.0698432000354,489.5713065000018,488.6527168999892,None,489.5713065000018,491.60790970001835,0.44000000000000017,491.6237195000285,None,492.37561049999204,None,,,,,,,[2.02276316],3.940000000000003,0.7368421052631579,11021,001,2024_Jan_05_1108,MFTM_A_new1021,2021.2.3,60.46918038114131,
,,,,,,,,stim/Instruction_adaptive.png,conditions/adaptive.xlsx,test,0.6,0.6,0.6,-0.6,-0.6,right,R,,,,,0,1,1,1,0,76,76,44,,,,,,,,,,,,,,,,,,,,,,,,,,,,,,,,,,,,,,,,,,,,492.8761514000362,None,left,0,1.98846419993788,493.37649250007235,494.31115970003884,493.37649250007235,493.810346400016,493.37649250007235,493.810346400016,493.37649250007235,493.810346400016,493.37649250007235,493.810346400016,493.37649250007235,493.810346400016,493.79357870004606,494.2948779000435,493.79357870004606,494.2948779000435,493.79357870004606,494.2948779000435,493.79357870004606,494.2948779000435,493.79357870004606,494.2948779000435,493.79357870004606,494.2948779000435,493.79357870004606,494.2948779000435,493.79357870004606,494.2948779000435,493.37649250007235,None,494.2948779000435,None,0.43000000000000016,496.3307332000695,None,497.0818394999951,None,,,,,,,[2.02337662],3.860000000000003,0.7272727272727273,11021,001,2024_Jan_05_1108,MFTM_A_new1021,2021.2.3,60.46918038114131,
,,,,,,,,stim/Instruction_adaptive.png,conditions/adaptive.xlsx,test,-0.6,-0.6,-0.6,0.6,0.6,left,L,,,,,0,1,1,1,0,77,77,61,,,,,,,,,,,,,,,,,,,,,,,,,,,,,,,,,,,,,,,,,,,,497.5847354000434,None,right,0,0.9210648000007495,498.09984600008465,499.05123860004824,498.09984600008465,498.55089110007975,498.09984600008465,498.55089110007975,498.09984600008465,498.55089110007975,498.09984600008465,498.55089110007975,498.09984600008465,498.55089110007975,498.53392070007976,499.03457920008805,498.53392070007976,499.03457920008805,498.53392070007976,499.03457920008805,498.53392070007976,499.03457920008805,498.53392070007976,499.03457920008805,498.53392070007976,499.03457920008805,498.53392070007976,499.03457920008805,498.53392070007976,499.03457920008805,498.09984600008465,None,499.03457920008805,501.07105899997987,0.4500000000000002,501.0877509000711,None,501.83951299998444,None,,,,,,,[2.02371795],3.770000000000003,0.717948717948718,11021,001,2024_Jan_05_1108,MFTM_A_new1021,2021.2.3,60.46918038114131,
,,,,,,,,stim/Instruction_adaptive.png,conditions/adaptive.xlsx,test,-0.6,-0.6,-0.6,0.6,0.6,left,L,,,,,0,1,1,1,0,78,78,5,,,,,,,,,,,,,,,,,,,,,,,,,,,,,,,,,,,,,,,,,,,,502.34013780008536,None,left,1,1.0613505999790505,502.84019010001794,503.82521030004136,502.84019010001794,503.32501270005014,502.84019010001794,503.32501270005014,502.84019010001794,503.32501270005014,502.84019010001794,503.32501270005014,502.84019010001794,503.32501270005014,503.3077689000638,503.808904799982,503.3077689000638,503.808904799982,503.3077689000638,503.808904799982,503.3077689000638,503.808904799982,503.3077689000638,503.808904799982,503.3077689000638,503.808904799982,503.3077689000638,503.808904799982,503.3077689000638,503.808904799982,502.84019010001794,None,503.808904799982,505.8284149999963,0.4800000000000002,505.84474420000333,None,506.5961780999787,None,,,,,,,[[2.02]],3.800000000000003,0.7215189873417721,11021,001,2024_Jan_05_1108,MFTM_A_new1021,2021.2.3,60.46918038114131,
,,,,,,,,stim/Instruction_adaptive.png,conditions/adaptive.xlsx,test,0.6,0.6,0.6,-0.6,-0.6,right,R,,,,,0,1,1,1,0,79,79,56,,,,,,,,,,,,,,,,,,,,,,,,,,,,,,,,,,,,,,,,,,,,507.09661300003063,None,right,1,0.7038369999499992,507.5971830000635,508.5660447999835,507.5971830000635,508.0814854000928,507.5971830000635,508.0814854000928,507.5971830000635,508.0814854000928,507.5971830000635,508.0814854000928,507.5971830000635,508.0814854000928,508.04806140006986,508.55048980005085,508.04806140006986,508.55048980005085,508.04806140006986,508.55048980005085,508.04806140006986,508.55048980005085,508.04806140006986,508.55048980005085,508.04806140006986,508.55048980005085,508.04806140006986,508.55048980005085,508.04806140006986,508.55048980005085,507.5971830000635,None,508.55048980005085,510.5853660000721,0.4700000000000002,510.60208079998847,None,511.3530983000528,None,,,,,,,[2.02375],3.8300000000000027,0.725,11021,001,2024_Jan_05_1108,MFTM_A_new1021,2021.2.3,60.46918038114131,
,,,,,,,,stim/Instruction_adaptive.png,conditions/adaptive.xlsx,test,0.6,0.6,0.6,-0.6,-0.6,right,R,,,,,0,1,1,1,0,80,80,0,,,,,,,,,,,,,,,,,,,,,,,,,,,,,,,,,,,,,,,,,,,,511.85415540006943,None,left,0,0.8106033999938518,512.3543571000919,513.3226405000314,512.3543571000919,512.82170030009,512.3543571000919,512.82170030009,512.3543571000919,512.82170030009,512.3543571000919,512.82170030009,512.3543571000919,512.82170030009,512.7883616000181,513.2889670000877,512.7883616000181,513.2889670000877,512.7883616000181,513.2889670000877,512.7883616000181,513.2889670000877,512.7883616000181,513.2889670000877,512.7883616000181,513.2889670000877,512.7883616000181,513.2889670000877,512.7883616000181,513.2889670000877,512.3543571000919,None,513.2889670000877,515.3267911000876,0.4600000000000002,515.3420026000822,None,516.0935393000254,None,,,,,,,[2.02395062],3.7500000000000027,0.7160493827160493,11021,001,2024_Jan_05_1108,MFTM_A_new1021,2021.2.3,60.46918038114131,
,,,,,,,,stim/Instruction_adaptive.png,conditions/adaptive.xlsx,test,-0.6,-0.6,-0.6,0.6,0.6,left,L,,,,,0,1,1,1,0,81,81,77,,,,,,,,,,,,,,,,,,,,,,,,,,,,,,,,,,,,,,,,,,,,516.5946513999952,None,right,0,0.566248600021936,517.0947984000668,518.096199200023,517.0947984000668,517.595634700032,517.0947984000668,517.595634700032,517.0947984000668,517.595634700032,517.0947984000668,517.595634700032,517.0947984000668,517.595634700032,517.5621918999823,518.0627574999817,517.5621918999823,518.0627574999817,517.5621918999823,518.0627574999817,517.5621918999823,518.0627574999817,517.5621918999823,518.0627574999817,517.5621918999823,518.0627574999817,517.5621918999823,518.0627574999817,517.5621918999823,518.0627574999817,517.0947984000668,None,518.0627574999817,520.0823962000431,0.4900000000000002,520.0999305000296,None,520.8511581000639,None,,,,,,,[[2.01]],3.660000000000003,0.7073170731707317,11021,001,2024_Jan_05_1108,MFTM_A_new1021,2021.2.3,60.46918038114131,
,,,,,,,,stim/Instruction_adaptive.png,conditions/adaptive.xlsx,test,0.6,0.6,0.6,-0.6,-0.6,right,R,,,,,0,1,1,1,0,82,82,50,,,,,,,,,,,,,,,,,,,,,,,,,,,,,,,,,,,,,,,,,,,,521.3516414000187,None,left,0,1.0976021001115441,521.8518948000856,522.8867637000512,521.8518948000856,522.38606420008,521.8518948000856,522.38606420008,521.8518948000856,522.38606420008,521.8518948000856,522.38606420008,521.8518948000856,522.38606420008,522.3527058000909,522.8532232000725,522.3527058000909,522.8532232000725,522.3527058000909,522.8532232000725,522.3527058000909,522.8532232000725,522.3527058000909,522.8532232000725,522.3527058000909,522.8532232000725,522.3527058000909,522.8532232000725,522.3527058000909,522.8532232000725,521.8518948000856,None,522.8532232000725,524.8396168000763,0.5200000000000002,524.8562009000452,None,525.6073783000465,None,,,,,,,[[1.98]],3.570000000000003,0.6987951807228916,11021,001,2024_Jan_05_1108,MFTM_A_new1021,2021.2.3,60.46918038114131,
,,,,,,,,stim/Instruction_adaptive.png,conditions/adaptive.xlsx,test,-0.6,-0.6,-0.6,0.6,0.6,left,L,,,,,0,1,1,1,0,83,83,27,,,,,,,,,,,,,,,,,,,,,,,,,,,,,,,,,,,,,,,,,,,,526.1080983000575,None,left,1,0.9958353000693023,526.6093656000448,527.6606981999939,526.6093656000448,527.1597451000707,526.6093656000448,527.1597451000707,526.6093656000448,527.1597451000707,526.6093656000448,527.1597451000707,526.6093656000448,527.1597451000707,527.1433901999844,527.643686800031,527.1433901999844,527.643686800031,527.1433901999844,527.643686800031,527.1433901999844,527.643686800031,527.1433901999844,527.643686800031,527.1433901999844,527.643686800031,527.1433901999844,527.643686800031,527.1433901999844,527.643686800031,526.6093656000448,None,527.643686800031,529.5965257000644,0.5500000000000003,529.6139170000097,None,530.3648685000371,None,,,,,,,[[1.95]],3.6000000000000028,0.7023809523809523,11021,001,2024_Jan_05_1108,MFTM_A_new1021,2021.2.3,60.46918038114131,
,,,,,,,,stim/Instruction_adaptive.png,conditions/adaptive.xlsx,test,0.6,0.6,0.6,-0.6,-0.6,right,R,,,,,0,1,1,1,0,84,84,62,,,,,,,,,,,,,,,,,,,,,,,,,,,,,,,,,,,,,,,,,,,,530.8657284000656,None,right,1,1.1431023000041023,531.3659248000477,532.417719900026,531.3659248000477,531.9169153000694,531.3659248000477,531.9169153000694,531.3659248000477,531.9169153000694,531.3659248000477,531.9169153000694,531.3659248000477,531.9169153000694,531.8839737999951,532.3850442999974,531.8839737999951,532.3850442999974,531.8839737999951,532.3850442999974,531.8839737999951,532.3850442999974,531.8839737999951,532.3850442999974,531.8839737999951,532.3850442999974,531.8839737999951,532.3850442999974,531.8839737999951,532.3850442999974,531.3659248000477,None,532.3850442999974,534.3536467000376,0.5400000000000003,534.3703980999999,None,535.1222875000676,None,,,,,,,[[1.96]],3.6300000000000026,0.7058823529411765,11021,001,2024_Jan_05_1108,MFTM_A_new1021,2021.2.3,60.46918038114131,
,,,,,,,,stim/Instruction_adaptive.png,conditions/adaptive.xlsx,test,-0.6,-0.6,-0.6,0.6,0.6,left,L,,,,,0,1,1,1,0,85,85,13,,,,,,,,,,,,,,,,,,,,,,,,,,,,,,,,,,,,,,,,,,,,535.6224423000822,None,right,0,1.3462558999890462,536.1229913000716,537.1580419000238,536.1229913000716,536.6571592000546,536.1229913000716,536.6571592000546,536.1229913000716,536.6571592000546,536.1229913000716,536.6571592000546,536.1229913000716,536.6571592000546,536.640589900082,537.1416109000565,536.640589900082,537.1416109000565,536.640589900082,537.1416109000565,536.640589900082,537.1416109000565,536.640589900082,537.1416109000565,536.640589900082,537.1416109000565,536.640589900082,537.1416109000565,536.640589900082,537.1416109000565,536.1229913000716,None,537.1416109000565,539.1114634000696,0.5300000000000002,539.1274488000199,None,539.8788098000223,None,,,,,,,[[1.97]],3.5400000000000027,0.6976744186046512,11021,001,2024_Jan_05_1108,MFTM_A_new1021,2021.2.3,60.46918038114131,
,,,,,,,,stim/Instruction_adaptive.png,conditions/adaptive.xlsx,test,0.6,0.6,0.6,-0.6,-0.6,right,R,,,,,0,1,1,1,0,86,86,26,,,,,,,,,,,,,,,,,,,,,,,,,,,,,,,,,,,,,,,,,,,,540.3793738000095,None,right,1,0.7882462000707164,540.88078830007,541.9650445000734,540.88078830007,541.4648195999907,540.88078830007,541.4648195999907,540.88078830007,541.4648195999907,540.88078830007,541.4648195999907,540.88078830007,541.4648195999907,541.4313531999942,541.9318624000298,541.4313531999942,541.9318624000298,541.4313531999942,541.9318624000298,541.4313531999942,541.9318624000298,541.4313531999942,541.9318624000298,541.4313531999942,541.9318624000298,541.4313531999942,541.9318624000298,541.4313531999942,541.9318624000298,540.88078830007,None,541.9318624000298,543.8682359000668,0.5700000000000003,543.8845470000524,None,544.6361775000114,None,,,,,,,[[1.93]],3.570000000000003,0.7011494252873564,11021,001,2024_Jan_05_1108,MFTM_A_new1021,2021.2.3,60.46918038114131,
,,,,,,,,stim/Instruction_adaptive.png,conditions/adaptive.xlsx,test,-0.6,-0.6,-0.6,0.6,0.6,left,L,,,,,0,1,1,1,0,87,87,95,,,,,,,,,,,,,,,,,,,,,,,,,,,,,,,,,,,,,,,,,,,,545.1372983000474,None,right,0,1.0320601999992505,545.6370391000528,546.6885269000195,545.6370391000528,546.1878137000604,545.6370391000528,546.1878137000604,545.6370391000528,546.1878137000604,545.6370391000528,546.1878137000604,545.6370391000528,546.1878137000604,546.1711435000179,546.6717212999938,546.1711435000179,546.6717212999938,546.1711435000179,546.6717212999938,546.1711435000179,546.6717212999938,546.1711435000179,546.6717212999938,546.1711435000179,546.6717212999938,546.1711435000179,546.6717212999938,546.1711435000179,546.6717212999938,545.6370391000528,None,546.6717212999938,548.6255804999964,0.5500000000000003,548.6414648999926,None,549.3933147999924,None,,,,,,,[[1.95]],3.4800000000000026,0.6931818181818182,11021,001,2024_Jan_05_1108,MFTM_A_new1021,2021.2.3,60.46918038114131,
,,,,,,,,stim/Instruction_adaptive.png,conditions/adaptive.xlsx,test,-0.6,-0.6,-0.6,0.6,0.6,left,L,,,,,0,1,1,1,0,88,88,45,,,,,,,,,,,,,,,,,,,,,,,,,,,,,,,,,,,,,,,,,,,,549.8939430000028,None,left,1,1.0831047999672592,550.3941354000708,551.4957125000656,550.3941354000708,550.9960201000795,550.3941354000708,550.9960201000795,550.3941354000708,550.9960201000795,550.3941354000708,550.9960201000795,550.3941354000708,550.9960201000795,550.962462500087,551.4623689000728,550.962462500087,551.4623689000728,550.962462500087,551.4623689000728,550.962462500087,551.4623689000728,550.962462500087,551.4623689000728,550.962462500087,551.4623689000728,550.962462500087,551.4623689000728,550.962462500087,551.4623689000728,550.3941354000708,None,551.4623689000728,553.3827095000306,0.5900000000000003,553.3986597000621,None,554.1510591000551,None,,,,,,,[[1.91]],3.5100000000000025,0.6966292134831461,11021,001,2024_Jan_05_1108,MFTM_A_new1021,2021.2.3,60.46918038114131,
,,,,,,,,stim/Instruction_adaptive.png,conditions/adaptive.xlsx,test,0.6,0.6,0.6,-0.6,-0.6,right,R,,,,,0,1,1,1,0,89,89,86,,,,,,,,,,,,,,,,,,,,,,,,,,,,,,,,,,,,,,,,,,,,554.6512199999997,None,right,1,0.7258825999451801,555.1511639000382,556.2367120999843,555.1511639000382,555.735949199996,555.1511639000382,555.735949199996,555.1511639000382,555.735949199996,555.1511639000382,555.735949199996,555.1511639000382,555.735949199996,555.7187462000875,556.2200376000255,555.7187462000875,556.2200376000255,555.7187462000875,556.2200376000255,555.7187462000875,556.2200376000255,555.7187462000875,556.2200376000255,555.7187462000875,556.2200376000255,555.7187462000875,556.2200376000255,555.7187462000875,556.2200376000255,555.1511639000382,None,556.2200376000255,558.1393113000086,0.5800000000000003,558.1556467000628,None,558.906923100003,None,,,,,,,[[1.92]],3.5400000000000027,0.7,11021,001,2024_Jan_05_1108,MFTM_A_new1021,2021.2.3,60.46918038114131,
,,,,,,,,stim/Instruction_adaptive.png,conditions/adaptive.xlsx,test,-0.6,-0.6,-0.6,0.6,0.6,left,L,,,,,0,1,1,1,0,90,90,15,,,,,,,,,,,,,,,,,,,,,,,,,,,,,,,,,,,,,,,,,,,,559.4075372000225,None,left,1,0.9128416000166908,559.9082661999855,560.993247400038,559.9082661999855,560.492314400035,559.9082661999855,560.492314400035,559.9082661999855,560.492314400035,559.9082661999855,560.492314400035,559.9082661999855,560.492314400035,560.459569000057,560.9596186000854,560.459569000057,560.9596186000854,560.459569000057,560.9596186000854,560.459569000057,560.9596186000854,560.459569000057,560.9596186000854,560.459569000057,560.9596186000854,560.459569000057,560.9596186000854,560.459569000057,560.9596186000854,559.9082661999855,None,560.9596186000854,562.8962565000402,0.5700000000000003,562.9125264000613,None,563.6642981000477,None,,,,,,,[[1.93]],3.570000000000003,0.7032967032967034,11021,001,2024_Jan_05_1108,MFTM_A_new1021,2021.2.3,60.46918038114131,
,,,,,,,,stim/Instruction_adaptive.png,conditions/adaptive.xlsx,test,-0.6,-0.6,-0.6,0.6,0.6,left,L,,,,,0,1,1,1,0,91,91,71,,,,,,,,,,,,,,,,,,,,,,,,,,,,,,,,,,,,,,,,,,,,564.1649910000851,None,left,1,1.25267580000218,564.665224700002,565.7175833000802,564.665224700002,565.2172238000203,564.665224700002,565.2172238000203,564.665224700002,565.2172238000203,564.665224700002,565.2172238000203,564.665224700002,565.2172238000203,565.1993386000395,565.7001888999948,565.1993386000395,565.7001888999948,565.1993386000395,565.7001888999948,565.1993386000395,565.7001888999948,565.1993386000395,565.7001888999948,565.1993386000395,565.7001888999948,565.1993386000395,565.7001888999948,565.1993386000395,565.7001888999948,564.665224700002,None,565.7001888999948,567.6531611999962,0.5500000000000003,567.6700108000077,None,568.4206141000614,None,,,,,,,[[1.95]],3.6000000000000028,0.7065217391304348,11021,001,2024_Jan_05_1108,MFTM_A_new1021,2021.2.3,60.46918038114131,
,,,,,,,,stim/Instruction_adaptive.png,conditions/adaptive.xlsx,test,-0.6,-0.6,-0.6,0.6,0.6,left,L,,,,,0,1,1,1,0,92,92,21,,,,,,,,,,,,,,,,,,,,,,,,,,,,,,,,,,,,,,,,,,,,568.9218342000386,None,left,1,0.8944101000670344,569.4225609999849,570.4741154999938,569.4225609999849,569.9740579000209,569.4225609999849,569.9740579000209,569.4225609999849,569.9740579000209,569.4225609999849,569.9740579000209,569.4225609999849,569.9740579000209,569.9398335000733,570.4407512000762,569.9398335000733,570.4407512000762,569.9398335000733,570.4407512000762,569.9398335000733,570.4407512000762,569.9398335000733,570.4407512000762,569.9398335000733,570.4407512000762,569.9398335000733,570.4407512000762,569.9398335000733,570.4407512000762,569.4225609999849,None,570.4407512000762,572.4106317000696,0.5400000000000003,572.4267791000893,None,573.1784299000865,None,,,,,,,[[1.96]],3.6300000000000026,0.7096774193548387,11021,001,2024_Jan_05_1108,MFTM_A_new1021,2021.2.3,60.46918038114131,
,,,,,,,,stim/Instruction_adaptive.png,conditions/adaptive.xlsx,test,0.6,0.6,0.6,-0.6,-0.6,right,R,,,,,0,1,1,1,0,93,93,16,,,,,,,,,,,,,,,,,,,,,,,,,,,,,,,,,,,,,,,,,,,,573.6799148999853,None,right,1,0.6013878000667319,574.1796057000756,575.214411700028,574.1796057000756,574.7134333000286,574.1796057000756,574.7134333000286,574.1796057000756,574.7134333000286,574.1796057000756,574.7134333000286,574.1796057000756,574.7134333000286,574.6974828999955,575.198588600033,574.6974828999955,575.198588600033,574.6974828999955,575.198588600033,574.6974828999955,575.198588600033,574.6974828999955,575.198588600033,574.6974828999955,575.198588600033,574.6974828999955,575.198588600033,574.6974828999955,575.198588600033,574.1796057000756,None,575.198588600033,577.1678871000186,0.5300000000000002,577.1838565000799,None,577.9348780000582,None,,,,,,,[[1.97]],3.660000000000003,0.7127659574468085,11021,001,2024_Jan_05_1108,MFTM_A_new1021,2021.2.3,60.46918038114131,
