arrwidth1,arrwidth2,arrwidth3,arrwidth4,arrwidth5,keyb,type,orientation,instruction_image,block_filename,block_type,arrow11,arrow22,arrow33,arrow44,arrow55,keyb_3,orientation3,trials.thisRepN,trials.thisTrialN,trials.thisN,trials.thisIndex,trials_3.thisRepN,trials_3.thisTrialN,trials_3.thisN,trials_3.thisIndex,trials_2.thisRepN,trials_2.thisTrialN,trials_2.thisN,trials_2.thisIndex,welcome.started,welcome.stopped,key_resp.keys,key_resp.rt,key_resp.started,key_resp.stopped,instruction_example.started,instruction_example.stopped,key_resp_3.keys,key_resp_3.rt,key_resp_3.started,key_resp_3.stopped,instruction_task.started,instruction_task.stopped,key_resp_2.keys,key_resp_2.rt,key_resp_2.started,key_resp_2.stopped,text_2.started,text_2.stopped,A1.started,A1.stopped,A2.started,A2.stopped,A3.started,A3.stopped,A4.started,A4.stopped,A5.started,A5.stopped,key_resp_4.keys,key_resp_4.corr,key_resp_4.rt,key_resp_4.started,key_resp_4.stopped,fb.started,fb.stopped,instruction_block.started,instruction_block.stopped,key_resp_8.keys,key_resp_8.rt,key_resp_8.started,key_resp_8.stopped,text_8.started,text_8.stopped,key_resp_9.keys,key_resp_9.corr,key_resp_9.rt,text_5.started,text_5.stopped,A11_3.started,A11_3.stopped,A22_2.started,A22_2.stopped,A33_2.started,A33_2.stopped,A44_2.started,A44_2.stopped,A55_2.started,A55_2.stopped,M1_3.started,M1_3.stopped,M2_2.started,M2_2.stopped,M3_2.started,M3_2.stopped,M4_2.started,M4_2.stopped,M5_2.started,M5_2.stopped,M6_2.started,M6_2.stopped,M7_2.started,M7_2.stopped,M8_2.started,M8_2.stopped,key_resp_9.started,key_resp_9.stopped,fixation.started,fixation.stopped,ET,fb_3.started,fb_3.stopped,text_9.started,text_9.stopped,fb_4.started,fb_4.stopped,text_7.started,text_7.stopped,endtext.started,endtext.stopped,fixation_ITI,CCC,Acc,participant,session,date,expName,psychopyVersion,frameRate,
,,,,,,,,,,,,,,,,,,,,,,,,,,,,,,13.867213599849492,None,space,4.261883499799296,13.867213599849492,None,,,,,,,,,,,,,,,,,,,,,,,,,,,,,,,,,,,,,,,,,,,,,,,,,,,,,,,,,,,,,,,,,,,,,,,,,,,,,,,,,,,,,,,,,11026,002,2024_Jan_10_1304,MFTM_A_new1021,2021.2.3,59.88174549297552,
,,,,,,,,,,,,,,,,,,,,,,,,,,,,,,,,,,,,18.15672879992053,None,space,2.380432500038296,18.15672879992053,None,,,,,,,,,,,,,,,,,,,,,,,,,,,,,,,,,,,,,,,,,,,,,,,,,,,,,,,,,,,,,,,,,,,,,,,,,,,,,,,,,,,11026,002,2024_Jan_10_1304,MFTM_A_new1021,2021.2.3,59.88174549297552,
,,,,,,,,,,,,,,,,,,,,,,,,,,,,,,,,,,,,,,,,,,20.56040699989535,None,space,7.784927899949253,20.56040699989535,None,,,,,,,,,,,,,,,,,,,,,,,,,,,,,,,,,,,,,,,,,,,,,,,,,,,,,,,,,,,,,,,,,,,,,,,,,,,,,11026,002,2024_Jan_10_1304,MFTM_A_new1021,2021.2.3,59.88174549297552,
-0.6,-0.6,-0.6,0.6,0.6,left,3:2,L,,,,,,,,,,,0,0,0,1,,,,,,,,,,,,,,,,,,,,,,,,,,,28.389592899940908,None,28.389592899940908,None,28.389592899940908,None,28.389592899940908,None,28.389592899940908,None,28.389592899940908,None,left,1,5.251650199992582,28.389592899940908,None,33.67998269991949,None,,,,,,,,,,,,,,,,,,,,,,,,,,,,,,,,,,,,,,,,,,,,,,,,,,,,,,,,,,11026,002,2024_Jan_10_1304,MFTM_A_new1021,2021.2.3,59.88174549297552,
0.6,0.6,0.6,-0.6,-0.6,right,3:2,R,,,,,,,,,,,0,1,1,0,,,,,,,,,,,,,,,,,,,,,,,,,,,34.43113139993511,None,34.43113139993511,None,34.43113139993511,None,34.43113139993511,None,34.43113139993511,None,34.43113139993511,None,right,1,1.8900758000090718,34.43113139993511,None,36.35044639999978,None,,,,,,,,,,,,,,,,,,,,,,,,,,,,,,,,,,,,,,,,,,,,,,,,,,,,,,,,,,11026,002,2024_Jan_10_1304,MFTM_A_new1021,2021.2.3,59.88174549297552,
0.6,0.6,0.6,-0.6,-0.6,right,3:2,R,,,,,,,,,,,1,0,2,0,,,,,,,,,,,,,,,,,,,,,,,,,,,37.101558999856934,None,37.101558999856934,None,37.101558999856934,None,37.101558999856934,None,37.101558999856934,None,37.101558999856934,None,right,1,3.0040372000075877,37.101558999856934,None,40.122900899965316,None,,,,,,,,,,,,,,,,,,,,,,,,,,,,,,,,,,,,,,,,,,,,,,,,,,,,,,,,,,11026,002,2024_Jan_10_1304,MFTM_A_new1021,2021.2.3,59.88174549297552,
-0.6,-0.6,-0.6,0.6,0.6,left,3:2,L,,,,,,,,,,,1,1,3,1,,,,,,,,,,,,,,,,,,,,,,,,,,,40.874333899933845,None,40.874333899933845,None,40.874333899933845,None,40.874333899933845,None,40.874333899933845,None,40.874333899933845,None,left,1,2.686968700028956,40.874333899933845,None,43.57794720004313,None,,,,,,,,,,,,,,,,,,,,,,,,,,,,,,,,,,,,,,,,,,,,,,,,,,,,,,,,,,11026,002,2024_Jan_10_1304,MFTM_A_new1021,2021.2.3,59.88174549297552,
,,,,,,,,stim/Instruction_mask.png,conditions/adaptive.xlsx,practice,0.6,0.6,0.6,-0.6,-0.6,right,R,,,,,0,0,0,0,0,0,0,80,,,,,,,,,,,,,,,,,,,,,,,,,,,,,,,,,,,,,,44.56320669990964,None,space,4.757980299880728,44.56320669990964,None,49.40274879988283,None,right,1,2.9953342000953853,49.854012300027534,None,49.854012300027534,52.85831609996967,49.854012300027534,52.85831609996967,49.854012300027534,52.85831609996967,49.854012300027534,52.85831609996967,49.854012300027534,52.85831609996967,52.841566500021145,53.342849399894476,52.841566500021145,53.342849399894476,52.841566500021145,53.342849399894476,52.841566500021145,53.342849399894476,52.841566500021145,53.342849399894476,52.841566500021145,53.342849399894476,52.841566500021145,53.342849399894476,52.841566500021145,53.342849399894476,49.854012300027534,None,53.342849399894476,53.342849399894476,3,53.35914399987087,None,54.11007699999027,None,,,,,,,,,,11026,002,2024_Jan_10_1304,MFTM_A_new1021,2021.2.3,59.88174549297552,
,,,,,,,,stim/Instruction_mask.png,conditions/adaptive.xlsx,practice,0.6,0.6,0.6,-0.6,-0.6,right,R,,,,,0,0,0,0,0,1,1,56,,,,,,,,,,,,,,,,,,,,,,,,,,,,,,,,,,,,,,,,,,,,54.61112999985926,None,right,1,1.8338318997994065,55.11171999992803,57.11468019988388,55.11171999992803,56.614033999852836,55.11171999992803,56.614033999852836,55.11171999992803,56.614033999852836,55.11171999992803,56.614033999852836,55.11171999992803,56.614033999852836,56.597618100000545,57.09808689984493,56.597618100000545,57.09808689984493,56.597618100000545,57.09808689984493,56.597618100000545,57.09808689984493,56.597618100000545,57.09808689984493,56.597618100000545,57.09808689984493,56.597618100000545,57.09808689984493,56.597618100000545,57.09808689984493,55.11171999992803,None,57.09808689984493,58.60191159998067,1.5,58.617275699973106,None,59.36846109991893,None,,,,,,,,,,11026,002,2024_Jan_10_1304,MFTM_A_new1021,2021.2.3,59.88174549297552,
,,,,,,,,stim/Instruction_mask.png,conditions/adaptive.xlsx,practice,0.6,0.6,0.6,-0.6,-0.6,right,R,,,,,0,0,0,0,0,2,2,20,,,,,,,,,,,,,,,,,,,,,,,,,,,,,,,,,,,,,,,,,,,,59.86877619987354,None,right,1,1.4238955001346767,60.36942579993047,61.67162269982509,60.36942579993047,61.171013299841434,60.36942579993047,61.171013299841434,60.36942579993047,61.171013299841434,60.36942579993047,61.171013299841434,60.36942579993047,61.171013299841434,61.1539745000191,61.65458570001647,61.1539745000191,61.65458570001647,61.1539745000191,61.65458570001647,61.1539745000191,61.65458570001647,61.1539745000191,61.65458570001647,61.1539745000191,61.65458570001647,61.1539745000191,61.65458570001647,61.1539745000191,61.65458570001647,60.36942579993047,None,61.65458570001647,63.85950280004181,0.8,63.87489719991572,None,64.62579079996794,None,,,,,,,,,,11026,002,2024_Jan_10_1304,MFTM_A_new1021,2021.2.3,59.88174549297552,
,,,,,,,,stim/Instruction_mask.png,conditions/adaptive.xlsx,practice,0.6,0.6,0.6,-0.6,-0.6,right,R,,,,,0,0,0,0,0,3,3,96,,,,,,,,,,,,,,,,,,,,,,,,,,,,,,,,,,,,,,,,,,,,65.12636310001835,None,left,0,0.8537498998921365,65.62750299996696,66.37850239989348,65.62750299996696,65.87795110000297,65.62750299996696,65.87795110000297,65.62750299996696,65.87795110000297,65.62750299996696,65.87795110000297,65.62750299996696,65.87795110000297,65.8615333000198,66.36184619995765,65.8615333000198,66.36184619995765,65.8615333000198,66.36184619995765,65.8615333000198,66.36184619995765,65.8615333000198,66.36184619995765,65.8615333000198,66.36184619995765,65.8615333000198,66.36184619995765,65.8615333000198,66.36184619995765,65.62750299996696,None,66.36184619995765,69.11619449988939,3,69.13262239983305,None,69.88414009986445,None,,,,,,,,,,11026,002,2024_Jan_10_1304,MFTM_A_new1021,2021.2.3,59.88174549297552,
,,,,,,,,stim/Instruction_mask.png,conditions/adaptive.xlsx,practice,,,,,,,,,,,,0,0,0,0,,,,,,,,,,,,,,,,,,,,,,,,,,,,,,,,,,,,,,,,,,,,,,,,,,,,,,,,,,,,,,,,,,,,,,,,,,,,,,,,,,,,,,,,,,70.4013646999374,71.4025951998774,71.38573159999214,71.38573159999214,71.38573159999214,None,,,,11026,002,2024_Jan_10_1304,MFTM_A_new1021,2021.2.3,59.88174549297552,
,,,,,,,,stim/Instruction_adaptive.png,conditions/adaptive.xlsx,test,0.6,0.6,0.6,-0.6,-0.6,right,R,,,,,0,1,1,1,0,0,0,30,,,,,,,,,,,,,,,,,,,,,,,,,,,,,,,,,,,,,,74.54064569994807,None,space,1.9087175000458956,74.54064569994807,None,76.49311689985916,None,right,1,2.0869626000057906,76.99428309989162,None,76.99428309989162,79.99958469998091,76.99428309989162,79.99958469998091,76.99428309989162,79.99958469998091,76.99428309989162,79.99958469998091,76.99428309989162,79.99958469998091,79.98184389993548,80.48285080003552,79.98184389993548,80.48285080003552,79.98184389993548,80.48285080003552,79.98184389993548,80.48285080003552,79.98184389993548,80.48285080003552,79.98184389993548,80.48285080003552,79.98184389993548,80.48285080003552,79.98184389993548,80.48285080003552,76.99428309989162,None,80.48285080003552,80.48285080003552,3,80.49947789986618,None,81.25125840003602,None,,,,,,,0,6.000000000000005,1.0,11026,002,2024_Jan_10_1304,MFTM_A_new1021,2021.2.3,59.88174549297552,
,,,,,,,,stim/Instruction_adaptive.png,conditions/adaptive.xlsx,test,0.6,0.6,0.6,-0.6,-0.6,right,R,,,,,0,1,1,1,0,1,1,80,,,,,,,,,,,,,,,,,,,,,,,,,,,,,,,,,,,,,,,,,,,,81.7513145999983,None,left,0,2.190145199885592,82.25203159986995,83.00321689993143,82.25203159986995,82.50421729986556,82.25203159986995,82.50421729986556,82.25203159986995,82.50421729986556,82.25203159986995,82.50421729986556,82.25203159986995,82.50421729986556,82.48572209989652,82.98649379983544,82.48572209989652,82.98649379983544,82.48572209989652,82.98649379983544,82.48572209989652,82.98649379983544,82.48572209989652,82.98649379983544,82.48572209989652,82.98649379983544,82.48572209989652,82.98649379983544,82.48572209989652,82.98649379983544,82.25203159986995,None,82.98649379983544,84.47189389984123,0.25,84.48837829986587,None,85.24027800001204,None,,,,,,,[0.875],2.570000000000002,0.5,11026,002,2024_Jan_10_1304,MFTM_A_new1021,2021.2.3,59.88174549297552,
,,,,,,,,stim/Instruction_adaptive.png,conditions/adaptive.xlsx,test,0.6,0.6,0.6,-0.6,-0.6,right,R,,,,,0,1,1,1,0,2,2,96,,,,,,,,,,,,,,,,,,,,,,,,,,,,,,,,,,,,,,,,,,,,85.74053379986435,None,left,0,1.9278134000487626,86.24153300002217,87.86010989989154,86.24153300002217,87.36002060002647,86.24153300002217,87.36002060002647,86.24153300002217,87.36002060002647,86.24153300002217,87.36002060002647,86.24153300002217,87.36002060002647,87.32642239984125,87.8269572998397,87.32642239984125,87.8269572998397,87.32642239984125,87.8269572998397,87.32642239984125,87.8269572998397,87.32642239984125,87.8269572998397,87.32642239984125,87.8269572998397,87.32642239984125,87.8269572998397,87.32642239984125,87.8269572998397,86.24153300002217,None,87.8269572998397,88.88100139982998,1.1100000000000008,88.89500839984976,None,89.64657719992101,None,,,,,,,[1.04666667],0.5800000000000001,0.3333333333333333,11026,002,2024_Jan_10_1304,MFTM_A_new1021,2021.2.3,59.88174549297552,
,,,,,,,,stim/Instruction_adaptive.png,conditions/adaptive.xlsx,test,0.6,0.6,0.6,-0.6,-0.6,right,R,,,,,0,1,1,1,0,3,3,36,,,,,,,,,,,,,,,,,,,,,,,,,,,,,,,,,,,,,,,,,,,,90.14699869998731,None,right,1,3.4576652999967337,90.64768389984965,None,90.64768389984965,93.65277479984798,90.64768389984965,93.65277479984798,90.64768389984965,93.65277479984798,90.64768389984965,93.65277479984798,90.64768389984965,93.65277479984798,93.63595799985342,94.1370405999478,93.63595799985342,94.1370405999478,93.63595799985342,94.1370405999478,93.63595799985342,94.1370405999478,93.63595799985342,94.1370405999478,93.63595799985342,94.1370405999478,93.63595799985342,94.1370405999478,93.63595799985342,94.1370405999478,90.64768389984965,None,94.1370405999478,94.1370405999478,3.0000000000000027,94.15310340002179,None,94.90411160001531,None,,,,,,,0,1.660000000000001,0.5,11026,002,2024_Jan_10_1304,MFTM_A_new1021,2021.2.3,59.88174549297552,
,,,,,,,,stim/Instruction_adaptive.png,conditions/adaptive.xlsx,test,0.6,0.6,0.6,-0.6,-0.6,right,R,,,,,0,1,1,1,0,4,4,86,,,,,,,,,,,,,,,,,,,,,,,,,,,,,,,,,,,,,,,,,,,,95.40504470001906,None,right,1,1.6316635999828577,95.90559519990347,98.492825999856,95.90559519990347,97.99228479992598,95.90559519990347,97.99228479992598,95.90559519990347,97.99228479992598,95.90559519990347,97.99228479992598,95.90559519990347,97.99228479992598,97.97517240000889,98.47636669990607,97.97517240000889,98.47636669990607,97.97517240000889,98.47636669990607,97.97517240000889,98.47636669990607,97.97517240000889,98.47636669990607,97.97517240000889,98.47636669990607,97.97517240000889,98.47636669990607,97.97517240000889,98.47636669990607,95.90559519990347,None,98.47636669990607,None,2.080000000000002,98.91112579987384,None,99.66221349989064,None,,,,,,,[[0.42]],2.1200000000000014,0.6,11026,002,2024_Jan_10_1304,MFTM_A_new1021,2021.2.3,59.88174549297552,
,,,,,,,,stim/Instruction_adaptive.png,conditions/adaptive.xlsx,test,0.6,0.6,0.6,-0.6,-0.6,right,R,,,,,0,1,1,1,0,5,5,0,,,,,,,,,,,,,,,,,,,,,,,,,,,,,,,,,,,,,,,,,,,,100.16183539992198,None,right,1,1.2907563999760896,100.66274569998495,102.68313739984296,100.66274569998495,102.18177839997225,100.66274569998495,102.18177839997225,100.66274569998495,102.18177839997225,100.66274569998495,102.18177839997225,100.66274569998495,102.18177839997225,102.16495889984071,102.66620610002428,102.16495889984071,102.66620610002428,102.16495889984071,102.66620610002428,102.16495889984071,102.66620610002428,102.16495889984071,102.66620610002428,102.16495889984071,102.66620610002428,102.16495889984071,102.66620610002428,102.16495889984071,102.66620610002428,100.66274569998495,None,102.64954019989818,103.33334539993666,1.5100000000000011,103.35029309988022,None,104.10136909992434,None,,,,,,,[0.675],2.450000000000002,0.6666666666666666,11026,002,2024_Jan_10_1304,MFTM_A_new1021,2021.2.3,59.88174549297552,
,,,,,,,,stim/Instruction_adaptive.png,conditions/adaptive.xlsx,test,0.6,0.6,0.6,-0.6,-0.6,right,R,,,,,0,1,1,1,0,6,6,16,,,,,,,,,,,,,,,,,,,,,,,,,,,,,,,,,,,,,,,,,,,,104.60198080004193,None,right,1,1.7548576998524368,105.10236799996346,106.80498420004733,105.10236799996346,106.30482169985771,105.10236799996346,106.30482169985771,105.10236799996346,106.30482169985771,105.10236799996346,106.30482169985771,105.10236799996346,106.30482169985771,106.28755959984846,106.78857490001246,106.28755959984846,106.78857490001246,106.28755959984846,106.78857490001246,106.28755959984846,106.78857490001246,106.28755959984846,106.78857490001246,106.28755959984846,106.78857490001246,106.28755959984846,106.78857490001246,106.28755959984846,106.78857490001246,105.10236799996346,None,106.78857490001246,107.55847619986162,1.2000000000000008,107.57281999988481,None,108.32465770002455,None,,,,,,,[0.76428571],2.700000000000002,0.7142857142857143,11026,002,2024_Jan_10_1304,MFTM_A_new1021,2021.2.3,59.88174549297552,
,,,,,,,,stim/Instruction_adaptive.png,conditions/adaptive.xlsx,test,-0.6,-0.6,-0.6,0.6,0.6,left,L,,,,,0,1,1,1,0,7,7,81,,,,,,,,,,,,,,,,,,,,,,,,,,,,,,,,,,,,,,,,,,,,108.82588819996454,None,left,1,1.9076894000172615,109.3256864999421,110.84483259986155,109.3256864999421,110.3436799000483,109.3256864999421,110.3436799000483,109.3256864999421,110.3436799000483,109.3256864999421,110.3436799000483,109.3256864999421,110.3436799000483,110.32717479998246,110.82759619993158,110.32717479998246,110.82759619993158,110.32717479998246,110.82759619993158,110.32717479998246,110.82759619993158,110.32717479998246,110.82759619993158,110.32717479998246,110.82759619993158,110.32717479998246,110.82759619993158,110.32717479998246,110.82759619993158,109.3256864999421,None,110.82759619993158,None,1.0100000000000007,111.69543299986981,None,112.4466597000137,None,,,,,,,[0.855],2.910000000000002,0.75,11026,002,2024_Jan_10_1304,MFTM_A_new1021,2021.2.3,59.88174549297552,
,,,,,,,,stim/Instruction_adaptive.png,conditions/adaptive.xlsx,test,-0.6,-0.6,-0.6,0.6,0.6,left,L,,,,,0,1,1,1,0,8,8,59,,,,,,,,,,,,,,,,,,,,,,,,,,,,,,,,,,,,,,,,,,,,112.9475356999319,None,right,0,1.360482000047341,113.44872420001775,114.83349270001054,113.44872420001775,114.33278970001265,113.44872420001775,114.33278970001265,113.44872420001775,114.33278970001265,113.44872420001775,114.33278970001265,113.44872420001775,114.33278970001265,114.3161452000495,114.81681909994222,114.3161452000495,114.81681909994222,114.3161452000495,114.81681909994222,114.3161452000495,114.81681909994222,114.3161452000495,114.81681909994222,114.3161452000495,114.81681909994222,114.3161452000495,114.81681909994222,114.3161452000495,114.81681909994222,113.44872420001775,None,114.81681909994222,None,0.8800000000000006,115.76826219982468,None,116.51962289982475,None,,,,,,,[0.94],2.4000000000000017,0.6666666666666666,11026,002,2024_Jan_10_1304,MFTM_A_new1021,2021.2.3,59.88174549297552,
,,,,,,,,stim/Instruction_adaptive.png,conditions/adaptive.xlsx,test,0.6,0.6,0.6,-0.6,-0.6,right,R,,,,,0,1,1,1,0,9,9,44,,,,,,,,,,,,,,,,,,,,,,,,,,,,,,,,,,,,,,,,,,,,117.02009169990197,None,right,1,1.2249976999592036,117.52088860003278,119.27351880003698,117.52088860003278,118.77276259986684,117.52088860003278,118.77276259986684,117.52088860003278,118.77276259986684,117.52088860003278,118.77276259986684,117.52088860003278,118.77276259986684,118.75606359983794,119.2571058999747,118.75606359983794,119.2571058999747,118.75606359983794,119.2571058999747,118.75606359983794,119.2571058999747,118.75606359983794,119.2571058999747,118.75606359983794,119.2571058999747,118.75606359983794,119.2571058999747,118.75606359983794,119.2571058999747,117.52088860003278,None,119.2571058999747,None,1.2500000000000009,120.24156180000864,None,120.99271190003492,None,,,,,,,[0.971],2.600000000000002,0.7,11026,002,2024_Jan_10_1304,MFTM_A_new1021,2021.2.3,59.88174549297552,
,,,,,,,,stim/Instruction_adaptive.png,conditions/adaptive.xlsx,test,-0.6,-0.6,-0.6,0.6,0.6,left,L,,,,,0,1,1,1,0,10,10,95,,,,,,,,,,,,,,,,,,,,,,,,,,,,,,,,,,,,,,,,,,,,121.49392669997178,None,left,1,1.0630459999665618,121.9943480999209,123.59688559989445,121.9943480999209,123.09568939986639,121.9943480999209,123.09568939986639,121.9943480999209,123.09568939986639,121.9943480999209,123.09568939986639,121.9943480999209,123.09568939986639,123.06283149984665,123.56319319992326,123.06283149984665,123.56319319992326,123.06283149984665,123.56319319992326,123.06283149984665,123.56319319992326,123.06283149984665,123.56319319992326,123.06283149984665,123.56319319992326,123.06283149984665,123.56319319992326,123.06283149984665,123.56319319992326,121.9943480999209,None,123.56319319992326,124.58168830000795,1.0900000000000007,124.59809900005348,None,125.34924869984388,None,,,,,,,[1.01090909],2.760000000000002,0.7272727272727273,11026,002,2024_Jan_10_1304,MFTM_A_new1021,2021.2.3,59.88174549297552,
,,,,,,,,stim/Instruction_adaptive.png,conditions/adaptive.xlsx,test,-0.6,-0.6,-0.6,0.6,0.6,left,L,,,,,0,1,1,1,0,11,11,47,,,,,,,,,,,,,,,,,,,,,,,,,,,,,,,,,,,,,,,,,,,,125.85060749994591,None,left,1,0.89088169997558,126.35070629999973,127.81988650001585,126.35070629999973,127.33655170002021,126.35070629999973,127.33655170002021,126.35070629999973,127.33655170002021,126.35070629999973,127.33655170002021,126.35070629999973,127.33655170002021,127.30196459987201,127.80335549986921,127.30196459987201,127.80335549986921,127.30196459987201,127.80335549986921,127.30196459987201,127.80335549986921,127.30196459987201,127.80335549986921,127.30196459987201,127.80335549986921,127.30196459987201,127.80335549986921,127.30196459987201,127.80335549986921,126.35070629999973,None,127.80335549986921,128.8712090998888,0.9700000000000006,128.88807199988514,None,129.63933689985424,None,,,,,,,[1.05416667],2.910000000000002,0.75,11026,002,2024_Jan_10_1304,MFTM_A_new1021,2021.2.3,59.88174549297552,
,,,,,,,,stim/Instruction_adaptive.png,conditions/adaptive.xlsx,test,-0.6,-0.6,-0.6,0.6,0.6,left,L,,,,,0,1,1,1,0,12,12,89,,,,,,,,,,,,,,,,,,,,,,,,,,,,,,,,,,,,,,,,,,,,130.13967880001292,None,left,1,2.159864400047809,130.64142249990255,132.025840499904,130.64142249990255,131.52487129997462,130.64142249990255,131.52487129997462,130.64142249990255,131.52487129997462,130.64142249990255,131.52487129997462,130.64142249990255,131.52487129997462,131.50839710002765,132.00900069996715,131.50839710002765,132.00900069996715,131.50839710002765,132.00900069996715,131.50839710002765,132.00900069996715,131.50839710002765,132.00900069996715,131.50839710002765,132.00900069996715,131.50839710002765,132.00900069996715,131.50839710002765,132.00900069996715,130.64142249990255,None,132.00900069996715,133.11084729991853,0.8800000000000006,133.12746679992415,None,133.87925309990533,None,,,,,,,[1.09769231],3.0400000000000023,0.7692307692307693,11026,002,2024_Jan_10_1304,MFTM_A_new1021,2021.2.3,59.88174549297552,
,,,,,,,,stim/Instruction_adaptive.png,conditions/adaptive.xlsx,test,0.6,0.6,0.6,-0.6,-0.6,right,R,,,,,0,1,1,1,0,13,13,8,,,,,,,,,,,,,,,,,,,,,,,,,,,,,,,,,,,,,,,,,,,,134.37975269998424,None,left,0,1.2334165000356734,134.87995049986057,136.181873699883,134.87995049986057,135.68266039993614,134.87995049986057,135.68266039993614,134.87995049986057,135.68266039993614,134.87995049986057,135.68266039993614,134.87995049986057,135.68266039993614,135.66521600005217,136.1654657998588,135.66521600005217,136.1654657998588,135.66521600005217,136.1654657998588,135.66521600005217,136.1654657998588,135.66521600005217,136.1654657998588,135.66521600005217,136.1654657998588,135.66521600005217,136.1654657998588,135.66521600005217,136.1654657998588,134.87995049986057,None,136.1654657998588,137.3173114999663,0.8000000000000005,137.33366749994457,None,138.08516839984804,None,,,,,,,[1.14071429],2.700000000000002,0.7142857142857143,11026,002,2024_Jan_10_1304,MFTM_A_new1021,2021.2.3,59.88174549297552,
,,,,,,,,stim/Instruction_adaptive.png,conditions/adaptive.xlsx,test,-0.6,-0.6,-0.6,0.6,0.6,left,L,,,,,0,1,1,1,0,14,14,93,,,,,,,,,,,,,,,,,,,,,,,,,,,,,,,,,,,,,,,,,,,,138.58555369987153,None,left,1,1.5481986000668257,139.08617080003023,140.60515479999594,139.08617080003023,140.10449009994045,139.08617080003023,140.10449009994045,139.08617080003023,140.10449009994045,139.08617080003023,140.10449009994045,139.08617080003023,140.10449009994045,140.08808199991472,140.58843300002627,140.08808199991472,140.58843300002627,140.08808199991472,140.58843300002627,140.08808199991472,140.58843300002627,140.08808199991472,140.58843300002627,140.08808199991472,140.58843300002627,140.08808199991472,140.58843300002627,140.08808199991472,140.58843300002627,139.08617080003023,None,140.58843300002627,141.75716339983046,1.0100000000000007,141.7735750998836,None,142.52537279995158,None,,,,,,,[1.164],2.820000000000002,0.7333333333333333,11026,002,2024_Jan_10_1304,MFTM_A_new1021,2021.2.3,59.88174549297552,
,,,,,,,,stim/Instruction_adaptive.png,conditions/adaptive.xlsx,test,0.6,0.6,0.6,-0.6,-0.6,right,R,,,,,0,1,1,1,0,15,15,68,,,,,,,,,,,,,,,,,,,,,,,,,,,,,,,,,,,,,,,,,,,,143.0253395999316,None,right,1,1.4272898000199348,143.52610589982942,144.96160749997944,143.52610589982942,144.46127859991975,143.52610589982942,144.46127859991975,143.52610589982942,144.46127859991975,143.52610589982942,144.46127859991975,143.52610589982942,144.46127859991975,144.44420220004395,144.94537730002776,144.44420220004395,144.94537730002776,144.44420220004395,144.94537730002776,144.44420220004395,144.94537730002776,144.44420220004395,144.94537730002776,144.44420220004395,144.94537730002776,144.44420220004395,144.94537730002776,144.44420220004395,144.94537730002776,143.52610589982942,None,144.94537730002776,None,0.9300000000000006,146.14746330003254,None,146.8978422000073,None,,,,,,,[1.189375],2.940000000000002,0.75,11026,002,2024_Jan_10_1304,MFTM_A_new1021,2021.2.3,59.88174549297552,
,,,,,,,,stim/Instruction_adaptive.png,conditions/adaptive.xlsx,test,-0.6,-0.6,-0.6,0.6,0.6,left,L,,,,,0,1,1,1,0,16,16,33,,,,,,,,,,,,,,,,,,,,,,,,,,,,,,,,,,,,,,,,,,,,147.39857560000382,None,left,1,1.3023971999064088,147.8993434999138,149.26802449999377,147.8993434999138,148.76710769999772,147.8993434999138,148.76710769999772,147.8993434999138,148.76710769999772,147.8993434999138,148.76710769999772,147.8993434999138,148.76710769999772,148.7505085999146,149.25133769982494,148.7505085999146,149.25133769982494,148.7505085999146,149.25133769982494,148.7505085999146,149.25133769982494,148.7505085999146,149.25133769982494,148.7505085999146,149.25133769982494,148.7505085999146,149.25133769982494,148.7505085999146,149.25133769982494,147.8993434999138,None,149.25133769982494,150.46980650001206,0.8600000000000005,150.4868501999881,None,151.2379771999549,None,,,,,,,[1.21588235],3.0400000000000023,0.7647058823529411,11026,002,2024_Jan_10_1304,MFTM_A_new1021,2021.2.3,59.88174549297552,
,,,,,,,,stim/Instruction_adaptive.png,conditions/adaptive.xlsx,test,-0.6,-0.6,-0.6,0.6,0.6,left,L,,,,,0,1,1,1,0,17,17,99,,,,,,,,,,,,,,,,,,,,,,,,,,,,,,,,,,,,,,,,,,,,151.73852499993518,None,right,0,1.1783690000884235,152.2391206000466,153.54114539991133,152.2391206000466,153.0404586000368,152.2391206000466,153.0404586000368,152.2391206000466,153.0404586000368,152.2391206000466,153.0404586000368,152.2391206000466,153.0404586000368,153.0234383000061,153.52495689992793,153.0234383000061,153.52495689992793,153.0234383000061,153.52495689992793,153.0234383000061,153.52495689992793,153.0234383000061,153.52495689992793,153.0234383000061,153.52495689992793,153.0234383000061,153.52495689992793,153.0234383000061,153.52495689992793,152.2391206000466,None,153.52495689992793,154.77625670004636,0.8000000000000005,154.79283189983107,None,155.54447299987078,None,,,,,,,[1.24277778],2.760000000000002,0.7222222222222222,11026,002,2024_Jan_10_1304,MFTM_A_new1021,2021.2.3,59.88174549297552,
,,,,,,,,stim/Instruction_adaptive.png,conditions/adaptive.xlsx,test,0.6,0.6,0.6,-0.6,-0.6,right,R,,,,,0,1,1,1,0,18,18,82,,,,,,,,,,,,,,,,,,,,,,,,,,,,,,,,,,,,,,,,,,,,156.04481479991227,None,right,1,1.2158253998495638,156.54572679987177,158.03183820005506,156.54572679987177,157.53042269987054,156.54572679987177,157.53042269987054,156.54572679987177,157.53042269987054,156.54572679987177,157.53042269987054,156.54572679987177,157.53042269987054,157.49736549984664,157.9978034000378,157.49736549984664,157.9978034000378,157.49736549984664,157.9978034000378,157.49736549984664,157.9978034000378,157.49736549984664,157.9978034000378,157.49736549984664,157.9978034000378,157.49736549984664,157.9978034000378,157.49736549984664,157.9978034000378,156.54572679987177,None,157.9978034000378,159.26606819988228,0.9700000000000006,159.28309100004844,None,160.03463079989888,None,,,,,,,[1.25789474],2.860000000000002,0.7368421052631579,11026,002,2024_Jan_10_1304,MFTM_A_new1021,2021.2.3,59.88174549297552,
,,,,,,,,stim/Instruction_adaptive.png,conditions/adaptive.xlsx,test,-0.6,-0.6,-0.6,0.6,0.6,left,L,,,,,0,1,1,1,0,19,19,61,,,,,,,,,,,,,,,,,,,,,,,,,,,,,,,,,,,,,,,,,,,,160.5353753999807,None,left,1,1.2783986998256296,161.03518219990656,162.454423799878,161.03518219990656,161.95337989996187,161.03518219990656,161.95337989996187,161.03518219990656,161.95337989996187,161.03518219990656,161.95337989996187,161.03518219990656,161.95337989996187,161.92033909983002,162.42087769997306,161.92033909983002,162.42087769997306,161.92033909983002,162.42087769997306,161.92033909983002,162.42087769997306,161.92033909983002,162.42087769997306,161.92033909983002,162.42087769997306,161.92033909983002,162.42087769997306,161.92033909983002,162.42087769997306,161.03518219990656,None,162.42087769997306,163.70731829991564,0.9100000000000006,163.72275399998762,None,164.474277399946,None,,,,,,,[1.2745],2.950000000000002,0.75,11026,002,2024_Jan_10_1304,MFTM_A_new1021,2021.2.3,59.88174549297552,
,,,,,,,,stim/Instruction_adaptive.png,conditions/adaptive.xlsx,test,-0.6,-0.6,-0.6,0.6,0.6,left,L,,,,,0,1,1,1,0,20,20,57,,,,,,,,,,,,,,,,,,,,,,,,,,,,,,,,,,,,,,,,,,,,164.97455309983343,None,left,1,1.2777125998400152,165.47552149998955,166.8272923999466,165.47552149998955,166.32667339988984,165.47552149998955,166.32667339988984,165.47552149998955,166.32667339988984,165.47552149998955,166.32667339988984,165.47552149998955,166.32667339988984,166.3100852998905,166.81066929991357,166.3100852998905,166.81066929991357,166.3100852998905,166.81066929991357,166.3100852998905,166.81066929991357,166.3100852998905,166.81066929991357,166.3100852998905,166.81066929991357,166.3100852998905,166.81066929991357,166.3100852998905,166.81066929991357,165.47552149998955,None,166.81066929991357,168.11334939999506,0.8500000000000005,168.12942570005544,None,168.88042449997738,None,,,,,,,[1.29238095],3.0400000000000023,0.7619047619047619,11026,002,2024_Jan_10_1304,MFTM_A_new1021,2021.2.3,59.88174549297552,
,,,,,,,,stim/Instruction_adaptive.png,conditions/adaptive.xlsx,test,0.6,0.6,0.6,-0.6,-0.6,right,R,,,,,0,1,1,1,0,21,21,92,,,,,,,,,,,,,,,,,,,,,,,,,,,,,,,,,,,,,,,,,,,,169.38108660001308,None,right,1,1.8632118999958038,169.8821397998836,171.18398849992082,169.8821397998836,170.68305470002815,169.8821397998836,170.68305470002815,169.8821397998836,170.68305470002815,169.8821397998836,170.68305470002815,169.8821397998836,170.68305470002815,170.66632019984536,171.16701279999688,170.66632019984536,171.16701279999688,170.66632019984536,171.16701279999688,170.66632019984536,171.16701279999688,170.66632019984536,171.16701279999688,170.66632019984536,171.16701279999688,170.66632019984536,171.16701279999688,170.66632019984536,171.16701279999688,169.8821397998836,None,171.16701279999688,172.48576979991049,0.8000000000000005,172.50268130004406,None,173.25360589986667,None,,,,,,,[1.31090909],3.1200000000000023,0.7727272727272727,11026,002,2024_Jan_10_1304,MFTM_A_new1021,2021.2.3,59.88174549297552,
,,,,,,,,stim/Instruction_adaptive.png,conditions/adaptive.xlsx,test,-0.6,-0.6,-0.6,0.6,0.6,left,L,,,,,0,1,1,1,0,22,22,85,,,,,,,,,,,,,,,,,,,,,,,,,,,,,,,,,,,,,,,,,,,,173.75423499988392,None,left,1,1.8106839000247419,174.25488279992715,175.52356999996118,174.25488279992715,175.02272069989704,174.25488279992715,175.02272069989704,174.25488279992715,175.02272069989704,174.25488279992715,175.02272069989704,174.25488279992715,175.02272069989704,175.00645660003647,175.5069705999922,175.00645660003647,175.5069705999922,175.00645660003647,175.5069705999922,175.00645660003647,175.5069705999922,175.00645660003647,175.5069705999922,175.00645660003647,175.5069705999922,175.00645660003647,175.5069705999922,175.00645660003647,175.5069705999922,174.25488279992715,None,175.49021099996753,176.825954800006,0.7600000000000005,176.85866799997166,None,177.60996869998053,None,,,,,,,[1.32956522],3.190000000000002,0.782608695652174,11026,002,2024_Jan_10_1304,MFTM_A_new1021,2021.2.3,59.88174549297552,
,,,,,,,,stim/Instruction_adaptive.png,conditions/adaptive.xlsx,test,-0.6,-0.6,-0.6,0.6,0.6,left,L,,,,,0,1,1,1,0,23,23,5,,,,,,,,,,,,,,,,,,,,,,,,,,,,,,,,,,,,,,,,,,,,178.1106350000482,None,left,1,1.1338055999949574,178.6115533998236,179.84671589988284,178.6115533998236,179.34592449991032,178.6115533998236,179.34592449991032,178.6115533998236,179.34592449991032,178.6115533998236,179.34592449991032,178.6115533998236,179.34592449991032,179.3124773998279,179.81324859987944,179.3124773998279,179.81324859987944,179.3124773998279,179.81324859987944,179.3124773998279,179.81324859987944,179.3124773998279,179.81324859987944,179.3124773998279,179.81324859987944,179.3124773998279,179.81324859987944,179.3124773998279,179.81324859987944,178.6115533998236,None,179.81324859987944,181.16588920005597,0.7200000000000004,181.1820129000116,None,181.93363879993558,None,,,,,,,[1.34833333],3.2600000000000025,0.7916666666666666,11026,002,2024_Jan_10_1304,MFTM_A_new1021,2021.2.3,59.88174549297552,
,,,,,,,,stim/Instruction_adaptive.png,conditions/adaptive.xlsx,test,-0.6,-0.6,-0.6,0.6,0.6,left,L,,,,,0,1,1,1,0,24,24,39,,,,,,,,,,,,,,,,,,,,,,,,,,,,,,,,,,,,,,,,,,,,182.43385649984702,None,left,1,2.1469451000448316,182.93445830000564,184.1362167999614,182.93445830000564,183.63649459998123,182.93445830000564,183.63649459998123,182.93445830000564,183.63649459998123,182.93445830000564,183.63649459998123,182.93445830000564,183.63649459998123,183.60211870004423,184.1037171999924,183.60211870004423,184.1037171999924,183.60211870004423,184.1037171999924,183.60211870004423,184.1037171999924,183.60211870004423,184.1037171999924,183.60211870004423,184.1037171999924,183.60211870004423,184.1037171999924,183.60211870004423,184.1037171999924,182.93445830000564,None,184.1037171999924,185.4716713000089,0.6900000000000004,185.50496839988045,None,186.25613170000724,None,,,,,,,[1.3668],3.3200000000000025,0.8,11026,002,2024_Jan_10_1304,MFTM_A_new1021,2021.2.3,59.88174549297552,
,,,,,,,,stim/Instruction_adaptive.png,conditions/adaptive.xlsx,test,-0.6,-0.6,-0.6,0.6,0.6,left,L,,,,,0,1,1,1,0,25,25,1,,,,,,,,,,,,,,,,,,,,,,,,,,,,,,,,,,,,,,,,,,,,186.75749800004996,None,left,1,1.391863599885255,187.25770700001158,188.42641650000587,187.25770700001158,187.92526599997655,187.25770700001158,187.92526599997655,187.25770700001158,187.92526599997655,187.25770700001158,187.92526599997655,187.25770700001158,187.92526599997655,187.89188080001622,188.39282660000026,187.89188080001622,188.39282660000026,187.89188080001622,188.39282660000026,187.89188080001622,188.39282660000026,187.89188080001622,188.39282660000026,187.89188080001622,188.39282660000026,187.89188080001622,188.39282660000026,187.89188080001622,188.39282660000026,187.25770700001158,None,188.39282660000026,189.77808129996993,0.6600000000000004,189.81177289993502,None,190.56308969995007,None,,,,,,,[1.385],3.3800000000000026,0.8076923076923077,11026,002,2024_Jan_10_1304,MFTM_A_new1021,2021.2.3,59.88174549297552,
,,,,,,,,stim/Instruction_adaptive.png,conditions/adaptive.xlsx,test,0.6,0.6,0.6,-0.6,-0.6,right,R,,,,,0,1,1,1,0,26,26,94,,,,,,,,,,,,,,,,,,,,,,,,,,,,,,,,,,,,,,,,,,,,191.06382200005464,None,right,1,0.8856891999021173,191.56404610001482,192.69967759982683,191.56404610001482,192.19859039993025,191.56404610001482,192.19859039993025,191.56404610001482,192.19859039993025,191.56404610001482,192.19859039993025,191.56404610001482,192.19859039993025,192.18264639982954,192.68274650000967,192.18264639982954,192.68274650000967,192.18264639982954,192.68274650000967,192.18264639982954,192.68274650000967,192.18264639982954,192.68274650000967,192.18264639982954,192.68274650000967,192.18264639982954,192.68274650000967,192.18264639982954,192.68274650000967,191.56404610001482,None,192.68274650000967,None,0.6300000000000003,194.10127869993448,None,194.85216520004906,None,,,,,,,[1.40296296],3.4400000000000026,0.8148148148148148,11026,002,2024_Jan_10_1304,MFTM_A_new1021,2021.2.3,59.88174549297552,
,,,,,,,,stim/Instruction_adaptive.png,conditions/adaptive.xlsx,test,0.6,0.6,0.6,-0.6,-0.6,right,R,,,,,0,1,1,1,0,27,27,14,,,,,,,,,,,,,,,,,,,,,,,,,,,,,,,,,,,,,,,,,,,,195.35286660003476,None,right,1,1.2828123001381755,195.85465819993988,196.97279709996656,195.85465819993988,196.47131339996122,195.85465819993988,196.47131339996122,195.85465819993988,196.47131339996122,195.85465819993988,196.47131339996122,195.85465819993988,196.47131339996122,196.43769899988547,196.9386398999486,196.43769899988547,196.9386398999486,196.43769899988547,196.9386398999486,196.43769899988547,196.9386398999486,196.43769899988547,196.9386398999486,196.43769899988547,196.9386398999486,196.43769899988547,196.9386398999486,196.43769899988547,196.9386398999486,195.85465819993988,None,196.9386398999486,198.35759279993363,0.6100000000000003,198.39130269992165,None,199.14192099985667,None,,,,,,,[1.42035714],3.490000000000003,0.8214285714285714,11026,002,2024_Jan_10_1304,MFTM_A_new1021,2021.2.3,59.88174549297552,
,,,,,,,,stim/Instruction_adaptive.png,conditions/adaptive.xlsx,test,0.6,0.6,0.6,-0.6,-0.6,right,R,,,,,0,1,1,1,0,28,28,76,,,,,,,,,,,,,,,,,,,,,,,,,,,,,,,,,,,,,,,,,,,,199.64258179999888,None,left,0,0.9860820001922548,200.14356580004096,201.24631899991073,200.14356580004096,200.74417229997925,200.14356580004096,200.74417229997925,200.14356580004096,200.74417229997925,200.14356580004096,200.74417229997925,200.14356580004096,200.74417229997925,200.71083249989897,201.21159509988502,200.71083249989897,201.21159509988502,200.71083249989897,201.21159509988502,200.71083249989897,201.21159509988502,200.71083249989897,201.21159509988502,200.71083249989897,201.21159509988502,200.71083249989897,201.21159509988502,200.71083249989897,201.21159509988502,200.14356580004096,None,201.21159509988502,202.6637547998689,0.5900000000000003,202.6804100999143,None,203.4322097999975,None,,,,,,,[1.43724138],3.3400000000000025,0.7931034482758621,11026,002,2024_Jan_10_1304,MFTM_A_new1021,2021.2.3,59.88174549297552,
,,,,,,,,stim/Instruction_adaptive.png,conditions/adaptive.xlsx,test,-0.6,-0.6,-0.6,0.6,0.6,left,L,,,,,0,1,1,1,0,29,29,13,,,,,,,,,,,,,,,,,,,,,,,,,,,,,,,,,,,,,,,,,,,,203.9344468000345,None,right,0,1.295989900128916,204.4336609998718,205.58531509991735,204.4336609998718,205.08394749998115,204.4336609998718,205.08394749998115,204.4336609998718,205.08394749998115,204.4336609998718,205.08394749998115,204.4336609998718,205.08394749998115,205.06779209990054,205.56878149998374,205.06779209990054,205.56878149998374,205.06779209990054,205.56878149998374,205.06779209990054,205.56878149998374,205.06779209990054,205.56878149998374,205.06779209990054,205.56878149998374,205.06779209990054,205.56878149998374,205.06779209990054,205.56878149998374,204.4336609998718,None,205.56878149998374,207.0201503999997,0.6500000000000004,207.03760719997808,None,207.7884764999617,None,,,,,,,[1.451],3.1800000000000024,0.7666666666666667,11026,002,2024_Jan_10_1304,MFTM_A_new1021,2021.2.3,59.88174549297552,
,,,,,,,,stim/Instruction_adaptive.png,conditions/adaptive.xlsx,test,0.6,0.6,0.6,-0.6,-0.6,right,R,,,,,0,1,1,1,0,30,30,38,,,,,,,,,,,,,,,,,,,,,,,,,,,,,,,,,,,,,,,,,,,,208.28917489992455,None,left,0,1.0838617999106646,208.78953660000116,210.02462429995649,208.78953660000116,209.5239245998673,208.78953660000116,209.5239245998673,208.78953660000116,209.5239245998673,208.78953660000116,209.5239245998673,208.78953660000116,209.5239245998673,209.5072882999666,210.00790059985593,209.5072882999666,210.00790059985593,209.5072882999666,210.00790059985593,209.5072882999666,210.00790059985593,209.5072882999666,210.00790059985593,209.5072882999666,210.00790059985593,209.5072882999666,210.00790059985593,209.5072882999666,210.00790059985593,208.78953660000116,None,210.00790059985593,211.47692689998075,0.7300000000000004,211.49348489986733,None,212.24490029993467,None,,,,,,,[1.46129032],3.0100000000000025,0.7419354838709677,11026,002,2024_Jan_10_1304,MFTM_A_new1021,2021.2.3,59.88174549297552,
,,,,,,,,stim/Instruction_adaptive.png,conditions/adaptive.xlsx,test,0.6,0.6,0.6,-0.6,-0.6,right,R,,,,,0,1,1,1,0,31,31,60,,,,,,,,,,,,,,,,,,,,,,,,,,,,,,,,,,,,,,,,,,,,212.74547989992425,None,right,1,1.3954592999070883,213.24616730003618,214.58151459996589,213.24616730003618,214.08054729993455,213.24616730003618,214.08054729993455,213.24616730003618,214.08054729993455,213.24616730003618,214.08054729993455,213.24616730003618,214.08054729993455,214.04724329989403,214.5480579000432,214.04724329989403,214.5480579000432,214.04724329989403,214.5480579000432,214.04724329989403,214.5480579000432,214.04724329989403,214.5480579000432,214.04724329989403,214.5480579000432,214.04724329989403,214.5480579000432,214.04724329989403,214.5480579000432,213.24616730003618,None,214.5480579000432,216.01755889994092,0.8200000000000005,216.03361219982617,None,216.78467749990523,None,,,,,,,[1.468125],3.070000000000002,0.75,11026,002,2024_Jan_10_1304,MFTM_A_new1021,2021.2.3,59.88174549297552,
,,,,,,,,stim/Instruction_adaptive.png,conditions/adaptive.xlsx,test,-0.6,-0.6,-0.6,0.6,0.6,left,L,,,,,0,1,1,1,0,32,32,31,,,,,,,,,,,,,,,,,,,,,,,,,,,,,,,,,,,,,,,,,,,,217.28548879991286,None,left,1,0.9271547999233007,217.7862688000314,219.0723102998454,217.7862688000314,218.57069469988346,217.7862688000314,218.57069469988346,217.7862688000314,218.57069469988346,217.7862688000314,218.57069469988346,217.7862688000314,218.57069469988346,218.55389029998332,219.05539319990203,218.55389029998332,219.05539319990203,218.55389029998332,219.05539319990203,218.55389029998332,219.05539319990203,218.55389029998332,219.05539319990203,218.55389029998332,219.05539319990203,218.55389029998332,219.05539319990203,218.55389029998332,219.05539319990203,217.7862688000314,None,219.05539319990203,220.54142839997075,0.7800000000000005,220.55687259999104,None,221.30871389992535,None,,,,,,,[1.47575758],3.1200000000000023,0.7575757575757576,11026,002,2024_Jan_10_1304,MFTM_A_new1021,2021.2.3,59.88174549297552,
,,,,,,,,stim/Instruction_adaptive.png,conditions/adaptive.xlsx,test,-0.6,-0.6,-0.6,0.6,0.6,left,L,,,,,0,1,1,1,0,33,33,7,,,,,,,,,,,,,,,,,,,,,,,,,,,,,,,,,,,,,,,,,,,,221.8094623000361,None,left,1,1.1235925999935716,222.31001050001942,223.5780489000026,222.31001050001942,223.07731610001065,222.31001050001942,223.07731610001065,222.31001050001942,223.07731610001065,222.31001050001942,223.07731610001065,222.31001050001942,223.07731610001065,223.0605716998689,223.56135759991594,223.0605716998689,223.56135759991594,223.0605716998689,223.56135759991594,223.0605716998689,223.56135759991594,223.0605716998689,223.56135759991594,223.0605716998689,223.56135759991594,223.0605716998689,223.56135759991594,223.0605716998689,223.56135759991594,222.31001050001942,None,223.56135759991594,225.0470036000479,0.7600000000000005,225.06349209998734,None,225.81464480003342,None,,,,,,,[1.48352941],3.1800000000000024,0.7647058823529411,11026,002,2024_Jan_10_1304,MFTM_A_new1021,2021.2.3,59.88174549297552,
,,,,,,,,stim/Instruction_adaptive.png,conditions/adaptive.xlsx,test,-0.6,-0.6,-0.6,0.6,0.6,left,L,,,,,0,1,1,1,0,34,34,51,,,,,,,,,,,,,,,,,,,,,,,,,,,,,,,,,,,,,,,,,,,,226.31540479999967,None,right,0,1.71380229992792,226.8162521000486,228.05134979984723,226.8162521000486,227.55058120004833,226.8162521000486,227.55058120004833,226.8162521000486,227.55058120004833,226.8162521000486,227.55058120004833,226.8162521000486,227.55058120004833,227.53385049989447,228.03487199987285,227.53385049989447,228.03487199987285,227.53385049989447,228.03487199987285,227.53385049989447,228.03487199987285,227.53385049989447,228.03487199987285,227.53385049989447,228.03487199987285,227.53385049989447,228.03487199987285,227.53385049989447,228.03487199987285,226.8162521000486,None,228.03487199987285,None,0.7300000000000004,229.53693699999712,None,230.288301799912,None,,,,,,,[1.49171429],3.0200000000000022,0.7428571428571429,11026,002,2024_Jan_10_1304,MFTM_A_new1021,2021.2.3,59.88174549297552,
,,,,,,,,stim/Instruction_adaptive.png,conditions/adaptive.xlsx,test,-0.6,-0.6,-0.6,0.6,0.6,left,L,,,,,0,1,1,1,0,35,35,63,,,,,,,,,,,,,,,,,,,,,,,,,,,,,,,,,,,,,,,,,,,,230.788806400029,None,left,1,0.9761781999841332,231.28937879996374,232.60818179999478,231.28937879996374,232.10785020003095,231.28937879996374,232.10785020003095,231.28937879996374,232.10785020003095,231.28937879996374,232.10785020003095,231.28937879996374,232.10785020003095,232.07428479986265,232.57518139993772,232.07428479986265,232.57518139993772,232.07428479986265,232.57518139993772,232.07428479986265,232.57518139993772,232.07428479986265,232.57518139993772,232.07428479986265,232.57518139993772,232.07428479986265,232.57518139993772,232.07428479986265,232.57518139993772,231.28937879996374,None,232.57518139993772,234.077141799964,0.8100000000000005,234.11036529997364,None,234.86150929983705,None,,,,,,,[1.49722222],3.0800000000000023,0.75,11026,002,2024_Jan_10_1304,MFTM_A_new1021,2021.2.3,59.88174549297552,
,,,,,,,,stim/Instruction_adaptive.png,conditions/adaptive.xlsx,test,0.6,0.6,0.6,-0.6,-0.6,right,R,,,,,0,1,1,1,0,36,36,98,,,,,,,,,,,,,,,,,,,,,,,,,,,,,,,,,,,,,,,,,,,,235.3624612998683,None,left,0,1.274918100098148,235.86312130000442,237.1485732998699,235.86312130000442,236.6479525999166,235.86312130000442,236.6479525999166,235.86312130000442,236.6479525999166,235.86312130000442,236.6479525999166,235.86312130000442,236.6479525999166,236.6306854998693,237.13265109993517,236.6306854998693,237.13265109993517,236.6306854998693,237.13265109993517,236.6306854998693,237.13265109993517,236.6306854998693,237.13265109993517,236.6306854998693,237.13265109993517,236.6306854998693,237.13265109993517,236.6306854998693,237.13265109993517,235.86312130000442,None,237.13265109993517,238.63397890003398,0.7800000000000005,238.65023140003905,None,239.4014081999194,None,,,,,,,[1.50324324],2.920000000000002,0.7297297297297297,11026,002,2024_Jan_10_1304,MFTM_A_new1021,2021.2.3,59.88174549297552,
,,,,,,,,stim/Instruction_adaptive.png,conditions/adaptive.xlsx,test,-0.6,-0.6,-0.6,0.6,0.6,left,L,,,,,0,1,1,1,0,37,37,75,,,,,,,,,,,,,,,,,,,,,,,,,,,,,,,,,,,,,,,,,,,,239.90221349988133,None,left,1,0.701837700093165,240.4035987998359,241.7715839999728,240.4035987998359,241.28811439988203,240.4035987998359,241.28811439988203,240.4035987998359,241.28811439988203,240.4035987998359,241.28811439988203,240.4035987998359,241.28811439988203,241.25440520001575,241.7560868000146,241.25440520001575,241.7560868000146,241.25440520001575,241.7560868000146,241.25440520001575,241.7560868000146,241.25440520001575,241.7560868000146,241.25440520001575,241.7560868000146,241.25440520001575,241.7560868000146,241.25440520001575,241.7560868000146,240.4035987998359,None,241.7560868000146,243.27390719996765,0.8700000000000006,243.2906828999985,None,244.04233690002002,None,,,,,,,[1.50657895],2.980000000000002,0.7368421052631579,11026,002,2024_Jan_10_1304,MFTM_A_new1021,2021.2.3,59.88174549297552,
,,,,,,,,stim/Instruction_adaptive.png,conditions/adaptive.xlsx,test,-0.6,-0.6,-0.6,0.6,0.6,left,L,,,,,0,1,1,1,0,38,38,11,,,,,,,,,,,,,,,,,,,,,,,,,,,,,,,,,,,,,,,,,,,,244.54236399987713,None,left,1,1.3502058000303805,245.0437471999321,246.3787813000381,245.0437471999321,245.87829759996384,245.0437471999321,245.87829759996384,245.0437471999321,245.87829759996384,245.0437471999321,245.87829759996384,245.0437471999321,245.87829759996384,245.86142400000244,246.36209720000625,245.86142400000244,246.36209720000625,245.86142400000244,246.36209720000625,245.86142400000244,246.36209720000625,245.86142400000244,246.36209720000625,245.86142400000244,246.36209720000625,245.86142400000244,246.36209720000625,245.86142400000244,246.36209720000625,245.0437471999321,None,246.36209720000625,247.8812002998311,0.8300000000000005,247.89769269991666,None,248.64888360002078,None,,,,,,,[1.51076923],3.030000000000002,0.7435897435897436,11026,002,2024_Jan_10_1304,MFTM_A_new1021,2021.2.3,59.88174549297552,
,,,,,,,,stim/Instruction_adaptive.png,conditions/adaptive.xlsx,test,0.6,0.6,0.6,-0.6,-0.6,right,R,,,,,0,1,1,1,0,39,39,70,,,,,,,,,,,,,,,,,,,,,,,,,,,,,,,,,,,,,,,,,,,,249.1493102000095,None,right,1,2.0797300999984145,249.64991549984552,250.96857859985903,249.64991549984552,250.46847279998474,249.64991549984552,250.46847279998474,249.64991549984552,250.46847279998474,249.64991549984552,250.46847279998474,249.64991549984552,250.46847279998474,250.4347196999006,250.93518529995345,250.4347196999006,250.93518529995345,250.4347196999006,250.93518529995345,250.4347196999006,250.93518529995345,250.4347196999006,250.93518529995345,250.4347196999006,250.93518529995345,250.4347196999006,250.93518529995345,250.4347196999006,250.93518529995345,249.64991549984552,None,250.93518529995345,252.45457259984687,0.8100000000000005,252.48765419982374,None,253.23966109985486,None,,,,,,,[1.51525],3.0800000000000023,0.75,11026,002,2024_Jan_10_1304,MFTM_A_new1021,2021.2.3,59.88174549297552,
,,,,,,,,stim/Instruction_adaptive.png,conditions/adaptive.xlsx,test,-0.6,-0.6,-0.6,0.6,0.6,left,L,,,,,0,1,1,1,0,40,40,9,,,,,,,,,,,,,,,,,,,,,,,,,,,,,,,,,,,,,,,,,,,,253.73961119982414,None,left,1,1.1696317999158055,254.24001019983552,255.5261273998767,254.24001019983552,255.0246746998746,254.24001019983552,255.0246746998746,254.24001019983552,255.0246746998746,254.24001019983552,255.0246746998746,254.24001019983552,255.0246746998746,255.007981200004,255.5085298998747,255.007981200004,255.5085298998747,255.007981200004,255.5085298998747,255.007981200004,255.5085298998747,255.007981200004,255.5085298998747,255.007981200004,255.5085298998747,255.007981200004,255.5085298998747,255.007981200004,255.5085298998747,254.24001019983552,None,255.5085298998747,None,0.7800000000000005,257.044315099949,None,257.79555099993013,None,,,,,,,[1.5202439],3.1200000000000023,0.7560975609756098,11026,002,2024_Jan_10_1304,MFTM_A_new1021,2021.2.3,59.88174549297552,
,,,,,,,,stim/Instruction_adaptive.png,conditions/adaptive.xlsx,test,-0.6,-0.6,-0.6,0.6,0.6,left,L,,,,,0,1,1,1,0,41,41,53,,,,,,,,,,,,,,,,,,,,,,,,,,,,,,,,,,,,,,,,,,,,258.2961414998863,None,left,1,1.1329101999290287,258.7968492999207,260.06557149998844,258.7968492999207,259.5649623000063,258.7968492999207,259.5649623000063,258.7968492999207,259.5649623000063,258.7968492999207,259.5649623000063,258.7968492999207,259.5649623000063,259.5313017000444,260.0320826000534,259.5313017000444,260.0320826000534,259.5313017000444,260.0320826000534,259.5313017000444,260.0320826000534,259.5313017000444,260.0320826000534,259.5313017000444,260.0320826000534,259.5313017000444,260.0320826000534,259.5313017000444,260.0320826000534,258.7968492999207,None,260.0320826000534,261.56899209995754,0.7600000000000005,261.58528869994916,None,262.3355705998838,None,,,,,,,[1.52547619],3.1700000000000026,0.7619047619047619,11026,002,2024_Jan_10_1304,MFTM_A_new1021,2021.2.3,59.88174549297552,
,,,,,,,,stim/Instruction_adaptive.png,conditions/adaptive.xlsx,test,-0.6,-0.6,-0.6,0.6,0.6,left,L,,,,,0,1,1,1,0,42,42,27,,,,,,,,,,,,,,,,,,,,,,,,,,,,,,,,,,,,,,,,,,,,262.83636189997196,None,left,1,1.2479579001665115,263.33750419993885,264.5737834998872,263.33750419993885,264.07221350003965,263.33750419993885,264.07221350003965,263.33750419993885,264.07221350003965,263.33750419993885,264.07221350003965,263.33750419993885,264.07221350003965,264.055272199912,264.5554651999846,264.055272199912,264.5554651999846,264.055272199912,264.5554651999846,264.055272199912,264.5554651999846,264.055272199912,264.5554651999846,264.055272199912,264.5554651999846,264.055272199912,264.5554651999846,264.055272199912,264.5554651999846,263.33750419993885,None,264.5554651999846,266.09112280001864,0.7300000000000004,266.107963899849,None,266.85908039985225,None,,,,,,,[1.53116279],3.2100000000000026,0.7674418604651163,11026,002,2024_Jan_10_1304,MFTM_A_new1021,2021.2.3,59.88174549297552,
,,,,,,,,stim/Instruction_adaptive.png,conditions/adaptive.xlsx,test,0.6,0.6,0.6,-0.6,-0.6,right,R,,,,,0,1,1,1,0,43,43,10,,,,,,,,,,,,,,,,,,,,,,,,,,,,,,,,,,,,,,,,,,,,267.359689099947,None,right,1,2.2611750999931246,267.8602960999124,269.0786462998949,267.8602960999124,268.5779762000311,267.8602960999124,268.5779762000311,267.8602960999124,268.5779762000311,267.8602960999124,268.5779762000311,267.8602960999124,268.5779762000311,268.5616623000242,269.06246669986285,268.5616623000242,269.06246669986285,268.5616623000242,269.06246669986285,268.5616623000242,269.06246669986285,268.5616623000242,269.06246669986285,268.5616623000242,269.06246669986285,268.5616623000242,269.06246669986285,268.5616623000242,269.06246669986285,267.8602960999124,None,269.0455719998572,270.59826789982617,0.7100000000000004,270.61446419986896,None,271.3655395999085,None,,,,,,,[1.53704545],3.2500000000000027,0.7727272727272727,11026,002,2024_Jan_10_1304,MFTM_A_new1021,2021.2.3,59.88174549297552,
,,,,,,,,stim/Instruction_adaptive.png,conditions/adaptive.xlsx,test,-0.6,-0.6,-0.6,0.6,0.6,left,L,,,,,0,1,1,1,0,44,44,73,,,,,,,,,,,,,,,,,,,,,,,,,,,,,,,,,,,,,,,,,,,,271.86747529986314,None,left,1,1.5144479000009596,272.36715579987504,273.568939599907,272.36715579987504,273.0681596000213,272.36715579987504,273.0681596000213,272.36715579987504,273.0681596000213,272.36715579987504,273.0681596000213,272.36715579987504,273.0681596000213,273.03467620001175,273.53567769983783,273.03467620001175,273.53567769983783,273.03467620001175,273.53567769983783,273.03467620001175,273.53567769983783,273.03467620001175,273.53567769983783,273.03467620001175,273.53567769983783,273.03467620001175,273.53567769983783,273.03467620001175,273.53567769983783,272.36715579987504,None,273.53567769983783,275.08784519997425,0.6900000000000004,275.10538399987854,None,275.8561289999634,None,,,,,,,[1.54311111],3.2900000000000027,0.7777777777777778,11026,002,2024_Jan_10_1304,MFTM_A_new1021,2021.2.3,59.88174549297552,
,,,,,,,,stim/Instruction_adaptive.png,conditions/adaptive.xlsx,test,-0.6,-0.6,-0.6,0.6,0.6,left,L,,,,,0,1,1,1,0,45,45,25,,,,,,,,,,,,,,,,,,,,,,,,,,,,,,,,,,,,,,,,,,,,276.3567045999225,None,left,1,1.0722071998752654,276.85724579985254,278.04248870001175,276.85724579985254,277.5412246999331,276.85724579985254,277.5412246999331,276.85724579985254,277.5412246999331,276.85724579985254,277.5412246999331,276.85724579985254,277.5412246999331,277.5083657000214,278.00917460001074,277.5083657000214,278.00917460001074,277.5083657000214,278.00917460001074,277.5083657000214,278.00917460001074,277.5083657000214,278.00917460001074,277.5083657000214,278.00917460001074,277.5083657000214,278.00917460001074,277.5083657000214,278.00917460001074,276.85724579985254,None,278.00917460001074,279.5619377999101,0.6700000000000004,279.57796759996563,None,280.3295313999988,None,,,,,,,[1.54934783],3.3200000000000025,0.782608695652174,11026,002,2024_Jan_10_1304,MFTM_A_new1021,2021.2.3,59.88174549297552,
,,,,,,,,stim/Instruction_adaptive.png,conditions/adaptive.xlsx,test,-0.6,-0.6,-0.6,0.6,0.6,left,L,,,,,0,1,1,1,0,46,46,19,,,,,,,,,,,,,,,,,,,,,,,,,,,,,,,,,,,,,,,,,,,,280.82947720005177,None,left,1,0.9911581000778824,281.33057760004885,282.4986888000276,281.33057760004885,281.9982695998624,281.33057760004885,281.9982695998624,281.33057760004885,281.9982695998624,281.33057760004885,281.9982695998624,281.33057760004885,281.9982695998624,281.96518329996616,282.4652913999744,281.96518329996616,282.4652913999744,281.96518329996616,282.4652913999744,281.96518329996616,282.4652913999744,281.96518329996616,282.4652913999744,281.96518329996616,282.4652913999744,281.96518329996616,282.4652913999744,281.96518329996616,282.4652913999744,281.33057760004885,None,282.4652913999744,284.034791899845,0.6600000000000004,284.0513092998881,None,284.8021720999386,None,,,,,,,[1.55553191],3.3600000000000025,0.7872340425531915,11026,002,2024_Jan_10_1304,MFTM_A_new1021,2021.2.3,59.88174549297552,
,,,,,,,,stim/Instruction_adaptive.png,conditions/adaptive.xlsx,test,-0.6,-0.6,-0.6,0.6,0.6,left,L,,,,,0,1,1,1,0,47,47,97,,,,,,,,,,,,,,,,,,,,,,,,,,,,,,,,,,,,,,,,,,,,285.30285059986636,None,left,1,1.5982981999404728,285.80356159992516,286.9559507998638,285.80356159992516,286.45465129986405,285.80356159992516,286.45465129986405,285.80356159992516,286.45465129986405,285.80356159992516,286.45465129986405,285.80356159992516,286.45465129986405,286.4211844999809,286.92286209994927,286.4211844999809,286.92286209994927,286.4211844999809,286.92286209994927,286.4211844999809,286.92286209994927,286.4211844999809,286.92286209994927,286.4211844999809,286.92286209994927,286.4211844999809,286.92286209994927,286.4211844999809,286.92286209994927,285.80356159992516,None,286.92286209994927,288.4910329999402,0.6400000000000003,288.50873519992456,None,289.25866139982827,None,,,,,,,[1.561875],3.4000000000000026,0.7916666666666666,11026,002,2024_Jan_10_1304,MFTM_A_new1021,2021.2.3,59.88174549297552,
,,,,,,,,stim/Instruction_adaptive.png,conditions/adaptive.xlsx,test,0.6,0.6,0.6,-0.6,-0.6,right,R,,,,,0,1,1,1,0,48,48,26,,,,,,,,,,,,,,,,,,,,,,,,,,,,,,,,,,,,,,,,,,,,289.76006949995644,None,left,0,1.0133144999854267,290.260523899924,291.37859510001726,290.260523899924,290.89459419995546,290.260523899924,290.89459419995546,290.260523899924,290.89459419995546,290.260523899924,290.89459419995546,290.260523899924,290.89459419995546,290.8616851998959,291.363406999968,290.8616851998959,291.363406999968,290.8616851998959,291.363406999968,290.8616851998959,291.363406999968,290.8616851998959,291.363406999968,290.8616851998959,291.363406999968,290.8616851998959,291.363406999968,290.8616851998959,291.363406999968,290.260523899924,None,291.363406999968,292.93159159994684,0.6200000000000003,292.94701009988785,None,293.6986069998238,None,,,,,,,[1.56836735],3.3000000000000025,0.7755102040816326,11026,002,2024_Jan_10_1304,MFTM_A_new1021,2021.2.3,59.88174549297552,
,,,,,,,,stim/Instruction_adaptive.png,conditions/adaptive.xlsx,test,-0.6,-0.6,-0.6,0.6,0.6,left,L,,,,,0,1,1,1,0,49,49,69,,,,,,,,,,,,,,,,,,,,,,,,,,,,,,,,,,,,,,,,,,,,294.1994695998728,None,right,0,1.3570512000005692,294.7006135999691,295.885518199997,294.7006135999691,295.38466620002873,294.7006135999691,295.38466620002873,294.7006135999691,295.38466620002873,294.7006135999691,295.38466620002873,294.7006135999691,295.38466620002873,295.35099579999223,295.8523680998478,295.35099579999223,295.8523680998478,295.35099579999223,295.8523680998478,295.35099579999223,295.8523680998478,295.35099579999223,295.8523680998478,295.35099579999223,295.8523680998478,295.35099579999223,295.8523680998478,295.35099579999223,295.8523680998478,294.7006135999691,None,295.8523680998478,297.4376387000084,0.6700000000000004,297.4543248999398,None,298.2054516999051,None,,,,,,,[1.5736],3.190000000000002,0.76,11026,002,2024_Jan_10_1304,MFTM_A_new1021,2021.2.3,59.88174549297552,
,,,,,,,,stim/Instruction_adaptive.png,conditions/adaptive.xlsx,test,0.6,0.6,0.6,-0.6,-0.6,right,R,,,,,0,1,1,1,0,50,50,62,,,,,,,,,,,,,,,,,,,,,,,,,,,,,,,,,,,,,,,,,,,,298.7065570000559,None,right,1,1.9869949000421911,299.20680879987776,300.42598189995624,299.20680879987776,299.9416284998879,299.20680879987776,299.9416284998879,299.20680879987776,299.9416284998879,299.20680879987776,299.9416284998879,299.20680879987776,299.9416284998879,299.9077908999752,300.4093607000541,299.9077908999752,300.4093607000541,299.9077908999752,300.4093607000541,299.9077908999752,300.4093607000541,299.9077908999752,300.4093607000541,299.9077908999752,300.4093607000541,299.9077908999752,300.4093607000541,299.9077908999752,300.4093607000541,299.20680879987776,None,300.4093607000541,301.99439090001397,0.7200000000000004,302.01094189984724,None,302.76256780000404,None,,,,,,,[1.57764706],3.230000000000002,0.7647058823529411,11026,002,2024_Jan_10_1304,MFTM_A_new1021,2021.2.3,59.88174549297552,
,,,,,,,,stim/Instruction_adaptive.png,conditions/adaptive.xlsx,test,0.6,0.6,0.6,-0.6,-0.6,right,R,,,,,0,1,1,1,0,51,51,90,,,,,,,,,,,,,,,,,,,,,,,,,,,,,,,,,,,,,,,,,,,,303.26292070001364,None,left,0,1.0862345998175442,303.7633847000543,304.9659247000236,303.7633847000543,304.464718000032,303.7633847000543,304.464718000032,303.7633847000543,304.464718000032,303.7633847000543,304.464718000032,303.7633847000543,304.464718000032,304.44803129998036,304.94873629999347,304.44803129998036,304.94873629999347,304.44803129998036,304.94873629999347,304.44803129998036,304.94873629999347,304.44803129998036,304.94873629999347,304.44803129998036,304.94873629999347,304.44803129998036,304.94873629999347,304.44803129998036,304.94873629999347,303.7633847000543,None,304.94873629999347,306.53424789989367,0.7000000000000004,306.5510384000372,None,307.3029596998822,None,,,,,,,[1.58192308],3.1200000000000023,0.75,11026,002,2024_Jan_10_1304,MFTM_A_new1021,2021.2.3,59.88174549297552,
,,,,,,,,stim/Instruction_adaptive.png,conditions/adaptive.xlsx,test,-0.6,-0.6,-0.6,0.6,0.6,left,L,,,,,0,1,1,1,0,52,52,37,,,,,,,,,,,,,,,,,,,,,,,,,,,,,,,,,,,,,,,,,,,,307.8029030999169,None,left,1,2.8816295999567956,308.30391280003823,309.57228589989245,308.30391280003823,309.0713160999585,308.30391280003823,309.0713160999585,308.30391280003823,309.0713160999585,308.30391280003823,309.0713160999585,308.30391280003823,309.0713160999585,309.054834399838,309.55551499989815,309.054834399838,309.55551499989815,309.054834399838,309.55551499989815,309.054834399838,309.55551499989815,309.054834399838,309.55551499989815,309.054834399838,309.55551499989815,309.054834399838,309.55551499989815,309.054834399838,309.55551499989815,308.30391280003823,None,309.5388851999305,311.208593999967,0.7600000000000005,311.22473319992423,None,311.9757921998389,None,,,,,,,[1.58490566],3.1600000000000024,0.7547169811320755,11026,002,2024_Jan_10_1304,MFTM_A_new1021,2021.2.3,59.88174549297552,
,,,,,,,,stim/Instruction_adaptive.png,conditions/adaptive.xlsx,test,0.6,0.6,0.6,-0.6,-0.6,right,R,,,,,0,1,1,1,0,53,53,24,,,,,,,,,,,,,,,,,,,,,,,,,,,,,,,,,,,,,,,,,,,,312.4771406999789,None,right,1,1.1282271998934448,312.9775328999385,314.22900879988447,312.9775328999385,313.7285996999126,312.9775328999385,313.7285996999126,312.9775328999385,313.7285996999126,312.9775328999385,313.7285996999126,312.9775328999385,313.7285996999126,313.69493620004505,314.1956259999424,313.69493620004505,314.1956259999424,313.69493620004505,314.1956259999424,313.69493620004505,314.1956259999424,313.69493620004505,314.1956259999424,313.69493620004505,314.1956259999424,313.69493620004505,314.1956259999424,313.69493620004505,314.1956259999424,312.9775328999385,None,314.1956259999424,315.7989298000466,0.7400000000000004,315.81486999988556,None,316.5657034998294,None,,,,,,,[1.58814815],3.190000000000002,0.7592592592592593,11026,002,2024_Jan_10_1304,MFTM_A_new1021,2021.2.3,59.88174549297552,
,,,,,,,,stim/Instruction_adaptive.png,conditions/adaptive.xlsx,test,0.6,0.6,0.6,-0.6,-0.6,right,R,,,,,0,1,1,1,0,54,54,12,,,,,,,,,,,,,,,,,,,,,,,,,,,,,,,,,,,,,,,,,,,,317.06667129998095,None,right,1,2.3062038000207394,317.56731169996783,318.8032960998826,317.56731169996783,318.3022691998631,317.56731169996783,318.3022691998631,317.56731169996783,318.3022691998631,317.56731169996783,318.3022691998631,317.56731169996783,318.3022691998631,318.2686073000077,318.7692533999216,318.2686073000077,318.7692533999216,318.2686073000077,318.7692533999216,318.2686073000077,318.7692533999216,318.2686073000077,318.7692533999216,318.2686073000077,318.7692533999216,318.2686073000077,318.7692533999216,318.2686073000077,318.7692533999216,317.56731169996783,None,318.7692533999216,320.3721018000506,0.7200000000000004,320.3885166000109,None,321.13943780004047,None,,,,,,,[1.59163636],3.230000000000002,0.7636363636363637,11026,002,2024_Jan_10_1304,MFTM_A_new1021,2021.2.3,59.88174549297552,
,,,,,,,,stim/Instruction_adaptive.png,conditions/adaptive.xlsx,test,0.6,0.6,0.6,-0.6,-0.6,right,R,,,,,0,1,1,1,0,55,55,58,,,,,,,,,,,,,,,,,,,,,,,,,,,,,,,,,,,,,,,,,,,,321.6405521999113,None,right,1,1.804833099944517,322.1408702998888,323.3426407999359,322.1408702998888,322.8426041000057,322.1408702998888,322.8426041000057,322.1408702998888,322.8426041000057,322.1408702998888,322.8426041000057,322.1408702998888,322.8426041000057,322.8250046998728,323.3262545999605,322.8250046998728,323.3262545999605,322.8250046998728,323.3262545999605,322.8250046998728,323.3262545999605,322.8250046998728,323.3262545999605,322.8250046998728,323.3262545999605,322.8250046998728,323.3262545999605,322.8250046998728,323.3262545999605,322.1408702998888,None,323.3262545999605,324.9286750999745,0.7000000000000004,324.94495559995994,None,325.69616049993783,None,,,,,,,[1.59535714],3.2600000000000025,0.7678571428571429,11026,002,2024_Jan_10_1304,MFTM_A_new1021,2021.2.3,59.88174549297552,
,,,,,,,,stim/Instruction_adaptive.png,conditions/adaptive.xlsx,test,-0.6,-0.6,-0.6,0.6,0.6,left,L,,,,,0,1,1,1,0,56,56,29,,,,,,,,,,,,,,,,,,,,,,,,,,,,,,,,,,,,,,,,,,,,326.1967982999049,None,left,1,0.8956780999433249,326.69779410003684,327.8994690000545,326.69779410003684,327.3986772999633,326.69779410003684,327.3986772999633,326.69779410003684,327.3986772999633,326.69779410003684,327.3986772999633,326.69779410003684,327.3986772999633,327.36530349985696,327.8659139999654,327.36530349985696,327.8659139999654,327.36530349985696,327.8659139999654,327.36530349985696,327.8659139999654,327.36530349985696,327.8659139999654,327.36530349985696,327.8659139999654,327.36530349985696,327.8659139999654,327.36530349985696,327.8659139999654,326.69779410003684,None,327.8659139999654,329.468957999954,0.6900000000000004,329.50200189999305,None,330.2528210999444,None,,,,,,,[1.59912281],3.2900000000000027,0.7719298245614035,11026,002,2024_Jan_10_1304,MFTM_A_new1021,2021.2.3,59.88174549297552,
,,,,,,,,stim/Instruction_adaptive.png,conditions/adaptive.xlsx,test,-0.6,-0.6,-0.6,0.6,0.6,left,L,,,,,0,1,1,1,0,57,57,71,,,,,,,,,,,,,,,,,,,,,,,,,,,,,,,,,,,,,,,,,,,,330.75356379989535,None,left,1,1.2353418001439422,331.25438529998064,332.44038049993105,331.25438529998064,331.93916519987397,331.25438529998064,331.93916519987397,331.25438529998064,331.93916519987397,331.25438529998064,331.93916519987397,331.25438529998064,331.93916519987397,331.90529689984396,332.4063144000247,331.90529689984396,332.4063144000247,331.90529689984396,332.4063144000247,331.90529689984396,332.4063144000247,331.90529689984396,332.4063144000247,331.90529689984396,332.4063144000247,331.90529689984396,332.4063144000247,331.90529689984396,332.4063144000247,331.25438529998064,None,332.4063144000247,334.0083816999104,0.6700000000000004,334.04271709988825,None,334.7927407999523,None,,,,,,,[1.60310345],3.3200000000000025,0.7758620689655172,11026,002,2024_Jan_10_1304,MFTM_A_new1021,2021.2.3,59.88174549297552,
,,,,,,,,stim/Instruction_adaptive.png,conditions/adaptive.xlsx,test,-0.6,-0.6,-0.6,0.6,0.6,left,L,,,,,0,1,1,1,0,58,58,79,,,,,,,,,,,,,,,,,,,,,,,,,,,,,,,,,,,,,,,,,,,,335.2939520999789,None,right,0,2.3276124000549316,335.79440380004235,336.9637166999746,335.79440380004235,336.46218080003746,335.79440380004235,336.46218080003746,335.79440380004235,336.46218080003746,335.79440380004235,336.46218080003746,335.79440380004235,336.46218080003746,336.44677469995804,336.94634459982626,336.44677469995804,336.94634459982626,336.44677469995804,336.94634459982626,336.44677469995804,336.94634459982626,336.44677469995804,336.94634459982626,336.44677469995804,336.94634459982626,336.44677469995804,336.94634459982626,336.44677469995804,336.94634459982626,335.79440380004235,None,336.92950699990615,338.548557800008,0.6600000000000004,338.5652743000537,None,339.3161859998945,None,,,,,,,[1.60711864],3.230000000000002,0.7627118644067796,11026,002,2024_Jan_10_1304,MFTM_A_new1021,2021.2.3,59.88174549297552,
,,,,,,,,stim/Instruction_adaptive.png,conditions/adaptive.xlsx,test,0.6,0.6,0.6,-0.6,-0.6,right,R,,,,,0,1,1,1,0,59,59,20,,,,,,,,,,,,,,,,,,,,,,,,,,,,,,,,,,,,,,,,,,,,339.81706999987364,None,right,1,1.2279195999726653,340.3177588998806,341.5195816999767,340.3177588998806,341.0190210000146,340.3177588998806,341.0190210000146,340.3177588998806,341.0190210000146,340.3177588998806,341.0190210000146,340.3177588998806,341.0190210000146,341.00230119982734,341.5028994998429,341.00230119982734,341.5028994998429,341.00230119982734,341.5028994998429,341.00230119982734,341.5028994998429,341.00230119982734,341.5028994998429,341.00230119982734,341.5028994998429,341.00230119982734,341.5028994998429,341.00230119982734,341.5028994998429,340.3177588998806,None,341.5028994998429,343.1231058000121,0.7000000000000004,343.13837970001623,None,343.8897811998613,None,,,,,,,[1.61033333],3.2600000000000025,0.7666666666666667,11026,002,2024_Jan_10_1304,MFTM_A_new1021,2021.2.3,59.88174549297552,
,,,,,,,,stim/Instruction_adaptive.png,conditions/adaptive.xlsx,test,-0.6,-0.6,-0.6,0.6,0.6,left,L,,,,,0,1,1,1,0,60,60,17,,,,,,,,,,,,,,,,,,,,,,,,,,,,,,,,,,,,,,,,,,,,344.3904833998531,None,left,1,1.9359247998800129,344.8912347999867,346.09306079987437,344.8912347999867,345.59212399995886,344.8912347999867,345.59212399995886,344.8912347999867,345.59212399995886,344.8912347999867,345.59212399995886,344.8912347999867,345.59212399995886,345.5588254998438,346.05966389994137,345.5588254998438,346.05966389994137,345.5588254998438,346.05966389994137,345.5588254998438,346.05966389994137,345.5588254998438,346.05966389994137,345.5588254998438,346.05966389994137,345.5588254998438,346.05966389994137,345.5588254998438,346.05966389994137,344.8912347999867,None,346.05966389994137,347.67919449997135,0.6900000000000004,347.6954516998958,None,348.4465512998868,None,,,,,,,[1.61360656],3.2900000000000027,0.7704918032786885,11026,002,2024_Jan_10_1304,MFTM_A_new1021,2021.2.3,59.88174549297552,
,,,,,,,,stim/Instruction_adaptive.png,conditions/adaptive.xlsx,test,0.6,0.6,0.6,-0.6,-0.6,right,R,,,,,0,1,1,1,0,61,61,48,,,,,,,,,,,,,,,,,,,,,,,,,,,,,,,,,,,,,,,,,,,,348.947255600011,None,left,0,1.0656109999399632,349.44820929993875,350.63337529986165,349.44820929993875,350.13241289998405,349.44820929993875,350.13241289998405,349.44820929993875,350.13241289998405,349.44820929993875,350.13241289998405,349.44820929993875,350.13241289998405,350.09906439995393,350.59961159992963,350.09906439995393,350.59961159992963,350.09906439995393,350.59961159992963,350.09906439995393,350.59961159992963,350.09906439995393,350.59961159992963,350.09906439995393,350.59961159992963,350.09906439995393,350.59961159992963,350.09906439995393,350.59961159992963,349.44820929993875,None,350.59961159992963,352.2193858998362,0.6700000000000004,352.2355210999958,None,352.986738699954,None,,,,,,,[1.61709677],3.2100000000000026,0.7580645161290323,11026,002,2024_Jan_10_1304,MFTM_A_new1021,2021.2.3,59.88174549297552,
,,,,,,,,stim/Instruction_adaptive.png,conditions/adaptive.xlsx,test,0.6,0.6,0.6,-0.6,-0.6,right,R,,,,,0,1,1,1,0,62,62,50,,,,,,,,,,,,,,,,,,,,,,,,,,,,,,,,,,,,,,,,,,,,353.4871934999246,None,right,1,1.8776602998841554,353.9880138000008,355.2066118000075,353.9880138000008,354.70668459986337,353.9880138000008,354.70668459986337,353.9880138000008,354.70668459986337,353.9880138000008,354.70668459986337,353.9880138000008,354.70668459986337,354.67250639991835,355.1733607999049,354.67250639991835,355.1733607999049,354.67250639991835,355.1733607999049,354.67250639991835,355.1733607999049,354.67250639991835,355.1733607999049,354.67250639991835,355.1733607999049,354.67250639991835,355.1733607999049,354.67250639991835,355.1733607999049,353.9880138000008,None,355.1914051999338,None,0.7100000000000004,356.82552159996703,None,357.57673719991,None,,,,,,,[1.61984127],3.2400000000000024,0.7619047619047619,11026,002,2024_Jan_10_1304,MFTM_A_new1021,2021.2.3,59.88174549297552,
,,,,,,,,stim/Instruction_adaptive.png,conditions/adaptive.xlsx,test,0.6,0.6,0.6,-0.6,-0.6,right,R,,,,,0,1,1,1,0,63,63,46,,,,,,,,,,,,,,,,,,,,,,,,,,,,,,,,,,,,,,,,,,,,358.0775233998429,None,left,0,1.0718041001819074,358.57804279983975,359.78011900000274,358.57804279983975,359.2800053998362,358.57804279983975,359.2800053998362,358.57804279983975,359.2800053998362,358.57804279983975,359.2800053998362,358.57804279983975,359.2800053998362,359.262873099884,359.7631308999844,359.262873099884,359.7631308999844,359.262873099884,359.7631308999844,359.262873099884,359.7631308999844,359.262873099884,359.7631308999844,359.262873099884,359.7631308999844,359.262873099884,359.7631308999844,359.262873099884,359.7631308999844,358.57804279983975,None,359.7631308999844,361.40029969997704,0.7000000000000004,361.41553399991244,None,362.1671011999715,None,,,,,,,[1.62265625],3.150000000000002,0.75,11026,002,2024_Jan_10_1304,MFTM_A_new1021,2021.2.3,59.88174549297552,
,,,,,,,,stim/Instruction_adaptive.png,conditions/adaptive.xlsx,test,0.6,0.6,0.6,-0.6,-0.6,right,R,,,,,0,1,1,1,0,64,64,78,,,,,,,,,,,,,,,,,,,,,,,,,,,,,,,,,,,,,,,,,,,,362.6674871998839,None,right,1,2.7863101998809725,363.16832199995406,364.42002859991044,363.16832199995406,363.91935390001163,363.16832199995406,363.91935390001163,363.16832199995406,363.91935390001163,363.16832199995406,363.91935390001163,363.16832199995406,363.91935390001163,363.88631829991937,364.3868535000365,363.88631829991937,364.3868535000365,363.88631829991937,364.3868535000365,363.88631829991937,364.3868535000365,363.88631829991937,364.3868535000365,363.88631829991937,364.3868535000365,363.88631829991937,364.3868535000365,363.88631829991937,364.3868535000365,363.16832199995406,None,364.3868535000365,366.023018799955,0.7400000000000004,366.03922050003894,None,366.7930452998262,None,,,,,,,[1.62476923],3.1800000000000024,0.7538461538461538,11026,002,2024_Jan_10_1304,MFTM_A_new1021,2021.2.3,59.88174549297552,
,,,,,,,,stim/Instruction_adaptive.png,conditions/adaptive.xlsx,test,-0.6,-0.6,-0.6,0.6,0.6,left,L,,,,,0,1,1,1,0,65,65,45,,,,,,,,,,,,,,,,,,,,,,,,,,,,,,,,,,,,,,,,,,,,367.3083182000555,None,left,1,1.219016500050202,367.7917436999269,369.0275482998695,367.7917436999269,368.52608569990844,367.7917436999269,368.52608569990844,367.7917436999269,368.52608569990844,367.7917436999269,368.52608569990844,367.7917436999269,368.52608569990844,368.50929459999315,369.0110067999922,368.50929459999315,369.0110067999922,368.50929459999315,369.0110067999922,368.50929459999315,369.0110067999922,368.50929459999315,369.0110067999922,368.50929459999315,369.0110067999922,368.50929459999315,369.0110067999922,368.50929459999315,369.0110067999922,367.7917436999269,None,369.0110067999922,370.6461807000451,0.7300000000000004,370.6625705999322,None,371.41397650004365,None,,,,,,,[1.6269697],3.2100000000000026,0.7575757575757576,11026,002,2024_Jan_10_1304,MFTM_A_new1021,2021.2.3,59.88174549297552,
,,,,,,,,stim/Instruction_adaptive.png,conditions/adaptive.xlsx,test,-0.6,-0.6,-0.6,0.6,0.6,left,L,,,,,0,1,1,1,0,66,66,41,,,,,,,,,,,,,,,,,,,,,,,,,,,,,,,,,,,,,,,,,,,,371.91464269999415,None,right,0,1.3059975001960993,372.41588800004683,373.6336602999363,372.41588800004683,373.13390539982356,372.41588800004683,373.13390539982356,372.41588800004683,373.13390539982356,372.41588800004683,373.13390539982356,372.41588800004683,373.13390539982356,373.099609100027,373.6006679998245,373.099609100027,373.6006679998245,373.099609100027,373.6006679998245,373.099609100027,373.6006679998245,373.099609100027,373.6006679998245,373.099609100027,373.6006679998245,373.099609100027,373.6006679998245,373.099609100027,373.6006679998245,372.41588800004683,None,373.6006679998245,375.2363501000218,0.7100000000000004,375.2695384998806,None,376.0204814998433,None,,,,,,,[1.62940299],3.1300000000000026,0.746268656716418,11026,002,2024_Jan_10_1304,MFTM_A_new1021,2021.2.3,59.88174549297552,
,,,,,,,,stim/Instruction_adaptive.png,conditions/adaptive.xlsx,test,0.6,0.6,0.6,-0.6,-0.6,right,R,,,,,0,1,1,1,0,67,67,32,,,,,,,,,,,,,,,,,,,,,,,,,,,,,,,,,,,,,,,,,,,,376.52204869990237,None,right,1,1.0274736999999732,377.02222989988513,378.274659199873,377.02222989988513,377.7732767998241,377.02222989988513,377.7732767998241,377.02222989988513,377.7732767998241,377.02222989988513,377.7732767998241,377.02222989988513,377.7732767998241,377.75658959988505,378.25738389999606,377.75658959988505,378.25738389999606,377.75658959988505,378.25738389999606,377.75658959988505,378.25738389999606,377.75658959988505,378.25738389999606,377.75658959988505,378.25738389999606,377.75658959988505,378.25738389999606,377.75658959988505,378.25738389999606,377.02222989988513,None,378.25738389999606,379.8945150000509,0.7500000000000004,379.9104798999615,None,380.6617794998456,None,,,,,,,[1.63117647],3.150000000000002,0.75,11026,002,2024_Jan_10_1304,MFTM_A_new1021,2021.2.3,59.88174549297552,
,,,,,,,,stim/Instruction_adaptive.png,conditions/adaptive.xlsx,test,0.6,0.6,0.6,-0.6,-0.6,right,R,,,,,0,1,1,1,0,68,68,2,,,,,,,,,,,,,,,,,,,,,,,,,,,,,,,,,,,,,,,,,,,,381.1615488999523,None,right,1,2.267119200201705,381.66296999994665,382.9148635000456,381.66296999994665,382.4135219999589,381.66296999994665,382.4135219999589,381.66296999994665,382.4135219999589,381.66296999994665,382.4135219999589,381.66296999994665,382.4135219999589,382.3801734999288,382.88081220001914,382.3801734999288,382.88081220001914,382.3801734999288,382.88081220001914,382.3801734999288,382.88081220001914,382.3801734999288,382.88081220001914,382.3801734999288,382.88081220001914,382.3801734999288,382.88081220001914,382.3801734999288,382.88081220001914,381.66296999994665,None,382.88081220001914,384.5184907000512,0.7400000000000004,384.53325599990785,None,385.2843998998869,None,,,,,,,[1.63304348],3.1800000000000024,0.7536231884057971,11026,002,2024_Jan_10_1304,MFTM_A_new1021,2021.2.3,59.88174549297552,
,,,,,,,,stim/Instruction_adaptive.png,conditions/adaptive.xlsx,test,0.6,0.6,0.6,-0.6,-0.6,right,R,,,,,0,1,1,1,0,69,69,66,,,,,,,,,,,,,,,,,,,,,,,,,,,,,,,,,,,,,,,,,,,,385.78511629998684,None,right,1,1.6522592999972403,386.2860884000547,387.52142749982886,386.2860884000547,387.02051499998197,386.2860884000547,387.02051499998197,386.2860884000547,387.02051499998197,386.2860884000547,387.02051499998197,386.2860884000547,387.02051499998197,387.0035331000108,387.504388500005,387.0035331000108,387.504388500005,387.0035331000108,387.504388500005,387.0035331000108,387.504388500005,387.0035331000108,387.504388500005,387.0035331000108,387.504388500005,387.0035331000108,387.504388500005,387.0035331000108,387.504388500005,386.2860884000547,None,387.504388500005,389.1402417998761,0.7300000000000004,389.1568662999198,None,389.9080971998628,None,,,,,,,[1.635],3.2100000000000026,0.7571428571428571,11026,002,2024_Jan_10_1304,MFTM_A_new1021,2021.2.3,59.88174549297552,
,,,,,,,,stim/Instruction_adaptive.png,conditions/adaptive.xlsx,test,0.6,0.6,0.6,-0.6,-0.6,right,R,,,,,0,1,1,1,0,70,70,52,,,,,,,,,,,,,,,,,,,,,,,,,,,,,,,,,,,,,,,,,,,,390.4086297999602,None,left,0,1.1550845000892878,390.91056600003503,392.12849419983104,390.91056600003503,391.6273618999403,390.91056600003503,391.6273618999403,390.91056600003503,391.6273618999403,390.91056600003503,391.6273618999403,390.91056600003503,391.6273618999403,391.61086359992623,392.11179289990105,391.61086359992623,392.11179289990105,391.61086359992623,392.11179289990105,391.61086359992623,392.11179289990105,391.61086359992623,392.11179289990105,391.61086359992623,392.11179289990105,391.61086359992623,392.11179289990105,391.61086359992623,392.11179289990105,390.91056600003503,None,392.11179289990105,None,0.7100000000000004,393.7642973999027,None,394.51504289987497,None,,,,,,,[1.6371831],3.1300000000000026,0.7464788732394366,11026,002,2024_Jan_10_1304,MFTM_A_new1021,2021.2.3,59.88174549297552,
,,,,,,,,stim/Instruction_adaptive.png,conditions/adaptive.xlsx,test,-0.6,-0.6,-0.6,0.6,0.6,left,L,,,,,0,1,1,1,0,71,71,55,,,,,,,,,,,,,,,,,,,,,,,,,,,,,,,,,,,,,,,,,,,,395.0160695000086,None,left,1,0.8456806000322104,395.51618109992705,396.76943069999106,395.51618109992705,396.2674171999097,395.51618109992705,396.2674171999097,395.51618109992705,396.2674171999097,395.51618109992705,396.2674171999097,395.51618109992705,396.2674171999097,396.251061799936,396.75175759987906,396.251061799936,396.75175759987906,396.251061799936,396.75175759987906,396.251061799936,396.75175759987906,396.251061799936,396.75175759987906,396.251061799936,396.75175759987906,396.251061799936,396.75175759987906,396.251061799936,396.75175759987906,395.51618109992705,None,396.75175759987906,None,0.7500000000000004,398.40358859999105,None,399.15550579992123,None,,,,,,,[1.63875],3.1600000000000024,0.75,11026,002,2024_Jan_10_1304,MFTM_A_new1021,2021.2.3,59.88174549297552,
,,,,,,,,stim/Instruction_adaptive.png,conditions/adaptive.xlsx,test,0.6,0.6,0.6,-0.6,-0.6,right,R,,,,,0,1,1,1,0,72,72,18,,,,,,,,,,,,,,,,,,,,,,,,,,,,,,,,,,,,,,,,,,,,399.65581419994123,None,right,1,1.6605979998130351,400.1570490000304,401.4082203998696,400.1570490000304,400.9076369998511,400.1570490000304,400.9076369998511,400.1570490000304,400.9076369998511,400.1570490000304,400.9076369998511,400.1570490000304,400.9076369998511,400.87458249996416,401.374787400011,400.87458249996416,401.374787400011,400.87458249996416,401.374787400011,400.87458249996416,401.374787400011,400.87458249996416,401.374787400011,400.87458249996416,401.374787400011,400.87458249996416,401.374787400011,400.87458249996416,401.374787400011,400.1570490000304,None,401.374787400011,403.02897819993086,0.7400000000000004,403.0440392999444,None,403.7950358998496,None,,,,,,,[1.64041096],3.1800000000000024,0.7534246575342466,11026,002,2024_Jan_10_1304,MFTM_A_new1021,2021.2.3,59.88174549297552,
,,,,,,,,stim/Instruction_adaptive.png,conditions/adaptive.xlsx,test,0.6,0.6,0.6,-0.6,-0.6,right,R,,,,,0,1,1,1,0,73,73,6,,,,,,,,,,,,,,,,,,,,,,,,,,,,,,,,,,,,,,,,,,,,404.29690620000474,None,left,0,1.0683230001013726,404.797795600025,406.0318016000092,404.797795600025,405.5310439998284,404.797795600025,405.5310439998284,404.797795600025,405.5310439998284,404.797795600025,405.5310439998284,404.797795600025,405.5310439998284,405.514526899904,406.0155604998581,405.514526899904,406.0155604998581,405.514526899904,406.0155604998581,405.514526899904,406.0155604998581,405.514526899904,406.0155604998581,405.514526899904,406.0155604998581,405.514526899904,406.0155604998581,405.514526899904,406.0155604998581,404.797795600025,None,406.0155604998581,407.66773779992945,0.7300000000000004,407.684275199892,None,408.4354169999715,None,,,,,,,[1.64216216],3.110000000000002,0.7432432432432432,11026,002,2024_Jan_10_1304,MFTM_A_new1021,2021.2.3,59.88174549297552,
,,,,,,,,stim/Instruction_adaptive.png,conditions/adaptive.xlsx,test,-0.6,-0.6,-0.6,0.6,0.6,left,L,,,,,0,1,1,1,0,74,74,15,,,,,,,,,,,,,,,,,,,,,,,,,,,,,,,,,,,,,,,,,,,,408.9366086998489,None,left,1,1.3410072000697255,409.4366975999437,410.70519030001014,409.4366975999437,410.2046888000332,409.4366975999437,410.2046888000332,409.4366975999437,410.2046888000332,409.4366975999437,410.2046888000332,409.4366975999437,410.2046888000332,410.18794570001774,410.68868379993364,410.18794570001774,410.68868379993364,410.18794570001774,410.68868379993364,410.18794570001774,410.68868379993364,410.18794570001774,410.68868379993364,410.18794570001774,410.68868379993364,410.18794570001774,410.68868379993364,410.18794570001774,410.68868379993364,409.4366975999437,None,410.67208909988403,412.32437950000167,0.7600000000000005,412.3410046999343,None,413.0924330998678,None,,,,,,,[1.64346667],3.1300000000000026,0.7466666666666667,11026,002,2024_Jan_10_1304,MFTM_A_new1021,2021.2.3,59.88174549297552,
,,,,,,,,stim/Instruction_adaptive.png,conditions/adaptive.xlsx,test,0.6,0.6,0.6,-0.6,-0.6,right,R,,,,,0,1,1,1,0,75,75,4,,,,,,,,,,,,,,,,,,,,,,,,,,,,,,,,,,,,,,,,,,,,413.593291600002,None,right,1,1.2362369999755174,414.0939094000496,415.34563439991325,414.0939094000496,414.84518889989704,414.0939094000496,414.84518889989704,414.0939094000496,414.84518889989704,414.0939094000496,414.84518889989704,414.0939094000496,414.84518889989704,414.82817790005356,415.3295072999317,414.82817790005356,415.3295072999317,414.82817790005356,415.3295072999317,414.82817790005356,415.3295072999317,414.82817790005356,415.3295072999317,414.82817790005356,415.3295072999317,414.82817790005356,415.3295072999317,414.82817790005356,415.3295072999317,414.0939094000496,None,415.3295072999317,416.9829795998521,0.7500000000000004,416.9986693998799,None,417.7496769998688,None,,,,,,,[1.64486842],3.1600000000000024,0.75,11026,002,2024_Jan_10_1304,MFTM_A_new1021,2021.2.3,59.88174549297552,
,,,,,,,,stim/Instruction_adaptive.png,conditions/adaptive.xlsx,test,0.6,0.6,0.6,-0.6,-0.6,right,R,,,,,0,1,1,1,0,76,76,64,,,,,,,,,,,,,,,,,,,,,,,,,,,,,,,,,,,,,,,,,,,,418.24990699999034,None,right,1,1.8360083000734448,418.75037009990774,420.0033237999305,418.75037009990774,419.50189549988136,418.75037009990774,419.50189549988136,418.75037009990774,419.50189549988136,418.75037009990774,419.50189549988136,418.75037009990774,419.50189549988136,419.46877939999104,419.9695679999422,419.46877939999104,419.9695679999422,419.46877939999104,419.9695679999422,419.46877939999104,419.9695679999422,419.46877939999104,419.9695679999422,419.46877939999104,419.9695679999422,419.46877939999104,419.9695679999422,419.46877939999104,419.9695679999422,418.75037009990774,None,419.9695679999422,421.6222035000101,0.7400000000000004,421.63831599988043,None,422.3893830999732,None,,,,,,,[1.64636364],3.1800000000000024,0.7532467532467533,11026,002,2024_Jan_10_1304,MFTM_A_new1021,2021.2.3,59.88174549297552,
,,,,,,,,stim/Instruction_adaptive.png,conditions/adaptive.xlsx,test,0.6,0.6,0.6,-0.6,-0.6,right,R,,,,,0,1,1,1,0,77,77,22,,,,,,,,,,,,,,,,,,,,,,,,,,,,,,,,,,,,,,,,,,,,422.89043389982544,None,right,1,1.3867756000254303,423.3908019999508,424.62606010003947,423.3908019999508,424.12528009992093,423.3908019999508,424.12528009992093,423.3908019999508,424.12528009992093,423.3908019999508,424.12528009992093,423.3908019999508,424.12528009992093,424.10888800001703,424.610537200002,424.10888800001703,424.610537200002,424.10888800001703,424.610537200002,424.10888800001703,424.610537200002,424.10888800001703,424.610537200002,424.10888800001703,424.610537200002,424.10888800001703,424.610537200002,424.10888800001703,424.610537200002,423.3908019999508,None,424.610537200002,426.2617388998624,0.7300000000000004,426.2787371999584,None,427.03021209989674,None,,,,,,,[1.64794872],3.2100000000000026,0.7564102564102564,11026,002,2024_Jan_10_1304,MFTM_A_new1021,2021.2.3,59.88174549297552,
,,,,,,,,stim/Instruction_adaptive.png,conditions/adaptive.xlsx,test,-0.6,-0.6,-0.6,0.6,0.6,left,L,,,,,0,1,1,1,0,78,78,23,,,,,,,,,,,,,,,,,,,,,,,,,,,,,,,,,,,,,,,,,,,,427.530377099989,None,left,1,0.9873052998445928,428.0311526998412,429.24965419992805,428.0311526998412,428.7490036999807,428.0311526998412,428.7490036999807,428.0311526998412,428.7490036999807,428.0311526998412,428.7490036999807,428.0311526998412,428.7490036999807,428.71545420004986,429.2161053000018,428.71545420004986,429.2161053000018,428.71545420004986,429.2161053000018,428.71545420004986,429.2161053000018,428.71545420004986,429.2161053000018,428.71545420004986,429.2161053000018,428.71545420004986,429.2161053000018,428.71545420004986,429.2161053000018,428.0311526998412,None,429.2161053000018,430.8688115000259,0.7100000000000004,430.9019332998432,None,431.6533635999076,None,,,,,,,[1.64974684],3.230000000000002,0.759493670886076,11026,002,2024_Jan_10_1304,MFTM_A_new1021,2021.2.3,59.88174549297552,
,,,,,,,,stim/Instruction_adaptive.png,conditions/adaptive.xlsx,test,0.6,0.6,0.6,-0.6,-0.6,right,R,,,,,0,1,1,1,0,79,79,28,,,,,,,,,,,,,,,,,,,,,,,,,,,,,,,,,,,,,,,,,,,,432.15458879992366,None,right,1,1.2741117000114173,432.6556028998457,433.85648619988933,432.6556028998457,433.3556639999151,432.6556028998457,433.3556639999151,432.6556028998457,433.3556639999151,432.6556028998457,433.3556639999151,432.6556028998457,433.3556639999151,433.3394372998737,433.8398533000145,433.3394372998737,433.8398533000145,433.3394372998737,433.8398533000145,433.3394372998737,433.8398533000145,433.3394372998737,433.8398533000145,433.3394372998737,433.8398533000145,433.3394372998737,433.8398533000145,433.3394372998737,433.8398533000145,432.6556028998457,None,433.8398533000145,435.4920685000252,0.7000000000000004,435.508807499893,None,436.2607582998462,None,,,,,,,[1.651625],3.2600000000000025,0.7625,11026,002,2024_Jan_10_1304,MFTM_A_new1021,2021.2.3,59.88174549297552,
,,,,,,,,stim/Instruction_adaptive.png,conditions/adaptive.xlsx,test,0.6,0.6,0.6,-0.6,-0.6,right,R,,,,,0,1,1,1,0,80,80,56,,,,,,,,,,,,,,,,,,,,,,,,,,,,,,,,,,,,,,,,,,,,436.7614001999609,None,right,1,1.4042672000359744,437.2614943999797,438.4636993999593,437.2614943999797,437.9630134999752,437.2614943999797,437.9630134999752,437.2614943999797,437.9630134999752,437.2614943999797,437.9630134999752,437.2614943999797,437.9630134999752,437.9291037998628,438.4302574999165,437.9291037998628,438.4302574999165,437.9291037998628,438.4302574999165,437.9291037998628,438.4302574999165,437.9291037998628,438.4302574999165,437.9291037998628,438.4302574999165,437.9291037998628,438.4302574999165,437.9291037998628,438.4302574999165,437.2614943999797,None,438.4302574999165,440.09904669993557,0.6900000000000004,440.1156086998526,None,440.8668408000376,None,,,,,,,[1.65358025],3.2800000000000025,0.7654320987654321,11026,002,2024_Jan_10_1304,MFTM_A_new1021,2021.2.3,59.88174549297552,
,,,,,,,,stim/Instruction_adaptive.png,conditions/adaptive.xlsx,test,-0.6,-0.6,-0.6,0.6,0.6,left,L,,,,,0,1,1,1,0,81,81,21,,,,,,,,,,,,,,,,,,,,,,,,,,,,,,,,,,,,,,,,,,,,441.36763309990056,None,left,1,1.3334991000592709,441.8681540999096,443.05376009992324,441.8681540999096,442.5536592998542,441.8681540999096,442.5536592998542,441.8681540999096,442.5536592998542,441.8681540999096,442.5536592998542,441.8681540999096,442.5536592998542,442.53667950001545,443.0375949998852,442.53667950001545,443.0375949998852,442.53667950001545,443.0375949998852,442.53667950001545,443.0375949998852,442.53667950001545,443.0375949998852,442.53667950001545,443.0375949998852,442.53667950001545,443.0375949998852,442.53667950001545,443.0375949998852,441.8681540999096,None,443.0375949998852,None,0.6800000000000004,444.7057856998872,None,445.4569643998984,None,,,,,,,[1.65560976],3.3000000000000025,0.7682926829268293,11026,002,2024_Jan_10_1304,MFTM_A_new1021,2021.2.3,59.88174549297552,
,,,,,,,,stim/Instruction_adaptive.png,conditions/adaptive.xlsx,test,-0.6,-0.6,-0.6,0.6,0.6,left,L,,,,,0,1,1,1,0,82,82,65,,,,,,,,,,,,,,,,,,,,,,,,,,,,,,,,,,,,,,,,,,,,445.9583615998272,None,left,1,1.1756968998815864,446.4583671998698,447.64395679999143,446.4583671998698,447.1433141999878,446.4583671998698,447.1433141999878,446.4583671998698,447.1433141999878,446.4583671998698,447.1433141999878,446.4583671998698,447.1433141999878,447.1096160998568,447.6100315998774,447.1096160998568,447.6100315998774,447.1096160998568,447.6100315998774,447.1096160998568,447.6100315998774,447.1096160998568,447.6100315998774,447.1096160998568,447.6100315998774,447.1096160998568,447.6100315998774,447.1096160998568,447.6100315998774,446.4583671998698,None,447.6100315998774,449.2792324000038,0.6700000000000004,449.2959691998549,None,450.04764560004696,None,,,,,,,[1.65771084],3.3200000000000025,0.7710843373493976,11026,002,2024_Jan_10_1304,MFTM_A_new1021,2021.2.3,59.88174549297552,
,,,,,,,,stim/Instruction_adaptive.png,conditions/adaptive.xlsx,test,0.6,0.6,0.6,-0.6,-0.6,right,R,,,,,0,1,1,1,0,83,83,54,,,,,,,,,,,,,,,,,,,,,,,,,,,,,,,,,,,,,,,,,,,,450.5476740000304,None,right,1,1.7933889001142234,451.04840420000255,452.2169945000205,451.04840420000255,451.7169592999853,451.04840420000255,451.7169592999853,451.04840420000255,451.7169592999853,451.04840420000255,451.7169592999853,451.04840420000255,451.7169592999853,451.6833700998686,452.18386209988967,451.6833700998686,452.18386209988967,451.6833700998686,452.18386209988967,451.6833700998686,452.18386209988967,451.6833700998686,452.18386209988967,451.6833700998686,452.18386209988967,451.6833700998686,452.18386209988967,451.6833700998686,452.18386209988967,451.04840420000255,None,452.18386209988967,453.8529059998691,0.6600000000000004,453.86937980004586,None,454.6225642999634,None,,,,,,,[1.65988095],3.3400000000000025,0.7738095238095238,11026,002,2024_Jan_10_1304,MFTM_A_new1021,2021.2.3,59.88174549297552,
,,,,,,,,stim/Instruction_adaptive.png,conditions/adaptive.xlsx,test,0.6,0.6,0.6,-0.6,-0.6,right,R,,,,,0,1,1,1,0,84,84,72,,,,,,,,,,,,,,,,,,,,,,,,,,,,,,,,,,,,,,,,,,,,455.1217966999393,None,left,0,0.9227650000248104,455.6228962999303,456.77357729990035,455.6228962999303,456.2729301999789,455.6228962999303,456.2729301999789,455.6228962999303,456.2729301999789,455.6228962999303,456.2729301999789,455.6228962999303,456.2729301999789,456.2562219998799,456.7571759999264,456.2562219998799,456.7571759999264,456.2562219998799,456.7571759999264,456.2562219998799,456.7571759999264,456.2562219998799,456.7571759999264,456.2562219998799,456.7571759999264,456.2562219998799,456.7571759999264,456.2562219998799,456.7571759999264,455.6228962999303,None,456.7571759999264,458.42635779990815,0.6500000000000004,458.4422050998546,None,459.1939230998978,None,,,,,,,[1.66211765],3.2800000000000025,0.7647058823529411,11026,002,2024_Jan_10_1304,MFTM_A_new1021,2021.2.3,59.88174549297552,
,,,,,,,,stim/Instruction_adaptive.png,conditions/adaptive.xlsx,test,-0.6,-0.6,-0.6,0.6,0.6,left,L,,,,,0,1,1,1,0,85,85,91,,,,,,,,,,,,,,,,,,,,,,,,,,,,,,,,,,,,,,,,,,,,459.69460159982555,None,right,0,1.5028668998274952,460.1955325000454,461.38070679991506,460.1955325000454,460.879741899902,460.1955325000454,460.879741899902,460.1955325000454,460.879741899902,460.1955325000454,460.879741899902,460.1955325000454,460.879741899902,460.86306230002083,461.3638479998335,460.86306230002083,461.3638479998335,460.86306230002083,461.3638479998335,460.86306230002083,461.3638479998335,460.86306230002083,461.3638479998335,460.86306230002083,461.3638479998335,460.86306230002083,461.3638479998335,460.86306230002083,461.3638479998335,460.1955325000454,None,461.3638479998335,463.0336614998523,0.6800000000000004,463.0500101998914,None,463.8008385999128,None,,,,,,,[1.66395349],3.2200000000000024,0.7558139534883721,11026,002,2024_Jan_10_1304,MFTM_A_new1021,2021.2.3,59.88174549297552,
,,,,,,,,stim/Instruction_adaptive.png,conditions/adaptive.xlsx,test,0.6,0.6,0.6,-0.6,-0.6,right,R,,,,,0,1,1,1,0,86,86,88,,,,,,,,,,,,,,,,,,,,,,,,,,,,,,,,,,,,,,,,,,,,464.30150089995004,None,right,1,1.383303500013426,464.8025378000457,466.02109880000353,464.8025378000457,465.51982399984263,464.8025378000457,465.51982399984263,464.8025378000457,465.51982399984263,464.8025378000457,465.51982399984263,464.8025378000457,465.51982399984263,465.50415010005236,466.0042349998839,465.50415010005236,466.0042349998839,465.50415010005236,466.0042349998839,465.50415010005236,466.0042349998839,465.50415010005236,466.0042349998839,465.50415010005236,466.0042349998839,465.50415010005236,466.0042349998839,465.50415010005236,466.0042349998839,464.8025378000457,None,466.0042349998839,467.6735906000249,0.7100000000000004,467.6898131999187,None,468.4413347998634,None,,,,,,,[1.6654023],3.2400000000000024,0.7586206896551724,11026,002,2024_Jan_10_1304,MFTM_A_new1021,2021.2.3,59.88174549297552,
,,,,,,,,stim/Instruction_adaptive.png,conditions/adaptive.xlsx,test,-0.6,-0.6,-0.6,0.6,0.6,left,L,,,,,0,1,1,1,0,87,87,87,,,,,,,,,,,,,,,,,,,,,,,,,,,,,,,,,,,,,,,,,,,,468.941769399913,None,right,0,1.6556652002036572,469.44263109983876,470.6448456000071,469.44263109983876,470.1435234998353,469.44263109983876,470.1435234998353,469.44263109983876,470.1435234998353,469.44263109983876,470.1435234998353,469.44263109983876,470.1435234998353,470.1267871998716,470.6276386999525,470.1267871998716,470.6276386999525,470.1267871998716,470.6276386999525,470.1267871998716,470.6276386999525,470.1267871998716,470.6276386999525,470.1267871998716,470.6276386999525,470.1267871998716,470.6276386999525,470.1267871998716,470.6276386999525,469.44263109983876,None,470.6276386999525,472.29783059982583,0.7000000000000004,472.3133555999957,None,473.06439499999397,None,,,,,,,[1.66693182],3.1700000000000026,0.75,11026,002,2024_Jan_10_1304,MFTM_A_new1021,2021.2.3,59.88174549297552,
,,,,,,,,stim/Instruction_adaptive.png,conditions/adaptive.xlsx,test,0.6,0.6,0.6,-0.6,-0.6,right,R,,,,,0,1,1,1,0,88,88,84,,,,,,,,,,,,,,,,,,,,,,,,,,,,,,,,,,,,,,,,,,,,473.56530470005237,None,right,1,1.2714807998854667,474.06640090001747,475.3012993000448,474.06640090001747,474.80053610005416,474.06640090001747,474.80053610005416,474.06640090001747,474.80053610005416,474.06640090001747,474.80053610005416,474.06640090001747,474.80053610005416,474.78433949989267,475.28501620003954,474.78433949989267,475.28501620003954,474.78433949989267,475.28501620003954,474.78433949989267,475.28501620003954,474.78433949989267,475.28501620003954,474.78433949989267,475.28501620003954,474.78433949989267,475.28501620003954,474.78433949989267,475.28501620003954,474.06640090001747,None,475.28501620003954,476.95420969999395,0.7300000000000004,476.9701667998452,None,477.7213788998779,None,,,,,,,[1.66808989],3.2000000000000024,0.7528089887640449,11026,002,2024_Jan_10_1304,MFTM_A_new1021,2021.2.3,59.88174549297552,
,,,,,,,,stim/Instruction_adaptive.png,conditions/adaptive.xlsx,test,-0.6,-0.6,-0.6,0.6,0.6,left,L,,,,,0,1,1,1,0,89,89,83,,,,,,,,,,,,,,,,,,,,,,,,,,,,,,,,,,,,,,,,,,,,478.22217149985954,None,left,1,1.1913813001010567,478.7227699998766,479.95882589998655,478.7227699998766,479.45740519999526,478.7227699998766,479.45740519999526,478.7227699998766,479.45740519999526,478.7227699998766,479.45740519999526,478.7227699998766,479.45740519999526,479.4246547999792,479.92467819992453,479.4246547999792,479.92467819992453,479.4246547999792,479.92467819992453,479.4246547999792,479.92467819992453,479.4246547999792,479.92467819992453,479.4246547999792,479.92467819992453,479.4246547999792,479.92467819992453,479.4246547999792,479.92467819992453,478.7227699998766,None,479.92467819992453,481.5957043999806,0.7200000000000004,481.6104874999728,None,482.36167160002515,None,,,,,,,[1.66933333],3.2200000000000024,0.7555555555555555,11026,002,2024_Jan_10_1304,MFTM_A_new1021,2021.2.3,59.88174549297552,
,,,,,,,,stim/Instruction_adaptive.png,conditions/adaptive.xlsx,test,0.6,0.6,0.6,-0.6,-0.6,right,R,,,,,0,1,1,1,0,90,90,34,,,,,,,,,,,,,,,,,,,,,,,,,,,,,,,,,,,,,,,,,,,,482.8623585999012,None,right,1,1.0384755998384207,483.3633081000298,484.5815550000407,483.3633081000298,484.0818331998307,483.3633081000298,484.0818331998307,483.3633081000298,484.0818331998307,483.3633081000298,484.0818331998307,483.3633081000298,484.0818331998307,484.0640379998367,484.56491139996797,484.0640379998367,484.56491139996797,484.0640379998367,484.56491139996797,484.0640379998367,484.56491139996797,484.0640379998367,484.56491139996797,484.0640379998367,484.56491139996797,484.0640379998367,484.56491139996797,484.0640379998367,484.56491139996797,483.3633081000298,None,484.56491139996797,486.2344223000109,0.7100000000000004,486.2508990999777,None,487.002167499857,None,,,,,,,[1.67065934],3.2400000000000024,0.7582417582417582,11026,002,2024_Jan_10_1304,MFTM_A_new1021,2021.2.3,59.88174549297552,
,,,,,,,,stim/Instruction_adaptive.png,conditions/adaptive.xlsx,test,0.6,0.6,0.6,-0.6,-0.6,right,R,,,,,0,1,1,1,0,91,91,42,,,,,,,,,,,,,,,,,,,,,,,,,,,,,,,,,,,,,,,,,,,,487.5026291999966,None,right,1,1.374131300020963,488.0039222999476,489.20494059985504,488.0039222999476,488.7045865999535,488.0039222999476,488.7045865999535,488.0039222999476,488.7045865999535,488.0039222999476,488.7045865999535,488.0039222999476,488.7045865999535,488.6881315000355,489.1884856999386,488.6881315000355,489.1884856999386,488.6881315000355,489.1884856999386,488.6881315000355,489.1884856999386,488.6881315000355,489.1884856999386,488.6881315000355,489.1884856999386,488.6881315000355,489.1884856999386,488.6881315000355,489.1884856999386,488.0039222999476,None,489.1884856999386,490.8746099998243,0.7000000000000004,490.8909589999821,None,491.6421169999521,None,,,,,,,[1.67206522],3.2600000000000025,0.7608695652173914,11026,002,2024_Jan_10_1304,MFTM_A_new1021,2021.2.3,59.88174549297552,
,,,,,,,,stim/Instruction_adaptive.png,conditions/adaptive.xlsx,test,-0.6,-0.6,-0.6,0.6,0.6,left,L,,,,,0,1,1,1,0,92,92,35,,,,,,,,,,,,,,,,,,,,,,,,,,,,,,,,,,,,,,,,,,,,492.1426351000555,None,left,1,1.0052392999641597,492.644527599914,493.8457420000341,492.644527599914,493.34500500001013,492.644527599914,493.34500500001013,492.644527599914,493.34500500001013,492.644527599914,493.34500500001013,492.644527599914,493.34500500001013,493.31115149986,493.81265279999934,493.31115149986,493.81265279999934,493.31115149986,493.81265279999934,493.31115149986,493.81265279999934,493.31115149986,493.81265279999934,493.31115149986,493.81265279999934,493.31115149986,493.81265279999934,493.31115149986,493.81265279999934,492.644527599914,None,493.81265279999934,495.4993465000298,0.6900000000000004,495.51422739983536,None,496.2654662998393,None,,,,,,,[1.67354839],3.2800000000000025,0.7634408602150538,11026,002,2024_Jan_10_1304,MFTM_A_new1021,2021.2.3,59.88174549297552,
