arrwidth1,arrwidth2,arrwidth3,arrwidth4,arrwidth5,keyb,type,orientation,instruction_image,block_filename,block_type,arrow11,arrow22,arrow33,arrow44,arrow55,keyb_3,orientation3,trials.thisRepN,trials.thisTrialN,trials.thisN,trials.thisIndex,trials_3.thisRepN,trials_3.thisTrialN,trials_3.thisN,trials_3.thisIndex,trials_2.thisRepN,trials_2.thisTrialN,trials_2.thisN,trials_2.thisIndex,welcome.started,welcome.stopped,key_resp.keys,key_resp.rt,key_resp.started,key_resp.stopped,instruction_example.started,instruction_example.stopped,key_resp_3.keys,key_resp_3.rt,key_resp_3.started,key_resp_3.stopped,instruction_task.started,instruction_task.stopped,key_resp_2.keys,key_resp_2.rt,key_resp_2.started,key_resp_2.stopped,text_2.started,text_2.stopped,A1.started,A1.stopped,A2.started,A2.stopped,A3.started,A3.stopped,A4.started,A4.stopped,A5.started,A5.stopped,key_resp_4.keys,key_resp_4.corr,key_resp_4.rt,key_resp_4.started,key_resp_4.stopped,fb.started,fb.stopped,instruction_block.started,instruction_block.stopped,key_resp_8.keys,key_resp_8.rt,key_resp_8.started,key_resp_8.stopped,text_8.started,text_8.stopped,key_resp_9.keys,key_resp_9.corr,key_resp_9.rt,text_5.started,text_5.stopped,A11_3.started,A11_3.stopped,A22_2.started,A22_2.stopped,A33_2.started,A33_2.stopped,A44_2.started,A44_2.stopped,A55_2.started,A55_2.stopped,M1_3.started,M1_3.stopped,M2_2.started,M2_2.stopped,M3_2.started,M3_2.stopped,M4_2.started,M4_2.stopped,M5_2.started,M5_2.stopped,M6_2.started,M6_2.stopped,M7_2.started,M7_2.stopped,M8_2.started,M8_2.stopped,key_resp_9.started,key_resp_9.stopped,fixation.started,fixation.stopped,ET,fb_3.started,fb_3.stopped,text_9.started,text_9.stopped,fb_4.started,fb_4.stopped,text_7.started,text_7.stopped,endtext.started,endtext.stopped,fixation_ITI,CCC,Acc,participant,session,date,expName,psychopyVersion,frameRate,
,,,,,,,,,,,,,,,,,,,,,,,,,,,,,,15.48666149994824,None,space,12.44008730002679,15.48666149994824,None,,,,,,,,,,,,,,,,,,,,,,,,,,,,,,,,,,,,,,,,,,,,,,,,,,,,,,,,,,,,,,,,,,,,,,,,,,,,,,,,,,,,,,,,,11020,002,2024_Jan_05_1334,MFTM_A_new1021,2021.2.3,59.98854217103576,
,,,,,,,,,,,,,,,,,,,,,,,,,,,,,,,,,,,,27.954843900050037,None,space,5.859557599993423,27.954843900050037,None,,,,,,,,,,,,,,,,,,,,,,,,,,,,,,,,,,,,,,,,,,,,,,,,,,,,,,,,,,,,,,,,,,,,,,,,,,,,,,,,,,,11020,002,2024_Jan_05_1334,MFTM_A_new1021,2021.2.3,59.98854217103576,
,,,,,,,,,,,,,,,,,,,,,,,,,,,,,,,,,,,,,,,,,,33.83026650000829,None,space,1.032688400009647,33.83026650000829,None,,,,,,,,,,,,,,,,,,,,,,,,,,,,,,,,,,,,,,,,,,,,,,,,,,,,,,,,,,,,,,,,,,,,,,,,,,,,,11020,002,2024_Jan_05_1334,MFTM_A_new1021,2021.2.3,59.98854217103576,
-0.6,-0.6,-0.6,0.6,0.6,left,3:2,L,,,,,,,,,,,0,0,0,1,,,,,,,,,,,,,,,,,,,,,,,,,,,34.89869950001594,None,34.89869950001594,None,34.89869950001594,None,34.89869950001594,None,34.89869950001594,None,34.89869950001594,None,left,1,4.995565699995495,34.89869950001594,None,39.940824200049974,None,,,,,,,,,,,,,,,,,,,,,,,,,,,,,,,,,,,,,,,,,,,,,,,,,,,,,,,,,,11020,002,2024_Jan_05_1334,MFTM_A_new1021,2021.2.3,59.98854217103576,
0.6,0.6,0.6,-0.6,-0.6,right,3:2,R,,,,,,,,,,,0,1,1,0,,,,,,,,,,,,,,,,,,,,,,,,,,,40.691185700008646,None,40.691185700008646,None,40.691185700008646,None,40.691185700008646,None,40.691185700008646,None,40.691185700008646,None,right,1,2.6511208000592887,40.691185700008646,None,43.3611909999745,None,,,,,,,,,,,,,,,,,,,,,,,,,,,,,,,,,,,,,,,,,,,,,,,,,,,,,,,,,,11020,002,2024_Jan_05_1334,MFTM_A_new1021,2021.2.3,59.98854217103576,
0.6,0.6,0.6,-0.6,-0.6,right,3:2,R,,,,,,,,,,,1,0,2,0,,,,,,,,,,,,,,,,,,,,,,,,,,,44.11253729998134,None,44.11253729998134,None,44.11253729998134,None,44.11253729998134,None,44.11253729998134,None,44.11253729998134,None,right,1,1.2536941000726074,44.11253729998134,None,45.39736359997187,None,,,,,,,,,,,,,,,,,,,,,,,,,,,,,,,,,,,,,,,,,,,,,,,,,,,,,,,,,,11020,002,2024_Jan_05_1334,MFTM_A_new1021,2021.2.3,59.98854217103576,
-0.6,-0.6,-0.6,0.6,0.6,left,3:2,L,,,,,,,,,,,1,1,3,1,,,,,,,,,,,,,,,,,,,,,,,,,,,46.148431599955074,None,46.148431599955074,None,46.148431599955074,None,46.148431599955074,None,46.148431599955074,None,46.148431599955074,None,left,1,0.9471968000289053,46.148431599955074,None,47.1165834000567,None,,,,,,,,,,,,,,,,,,,,,,,,,,,,,,,,,,,,,,,,,,,,,,,,,,,,,,,,,,11020,002,2024_Jan_05_1334,MFTM_A_new1021,2021.2.3,59.98854217103576,
,,,,,,,,stim/Instruction_mask.png,conditions/adaptive.xlsx,practice,0.6,0.6,0.6,-0.6,-0.6,right,R,,,,,0,0,0,0,0,0,0,56,,,,,,,,,,,,,,,,,,,,,,,,,,,,,,,,,,,,,,48.11880000005476,None,space,0.9595765999983996,48.11880000005476,None,49.169317699968815,None,right,1,3.1943077000323683,49.62017060001381,None,49.62017060001381,52.6249097000109,49.62017060001381,52.6249097000109,49.62017060001381,52.6249097000109,49.62017060001381,52.6249097000109,49.62017060001381,52.6249097000109,52.608509800047614,53.10886240005493,52.608509800047614,53.10886240005493,52.608509800047614,53.10886240005493,52.608509800047614,53.10886240005493,52.608509800047614,53.10886240005493,52.608509800047614,53.10886240005493,52.608509800047614,53.10886240005493,52.608509800047614,53.10886240005493,49.62017060001381,None,53.10886240005493,53.10886240005493,3,53.12615000002552,None,53.87707299995236,None,,,,,,,,,,11020,002,2024_Jan_05_1334,MFTM_A_new1021,2021.2.3,59.98854217103576,
,,,,,,,,stim/Instruction_mask.png,conditions/adaptive.xlsx,practice,-0.6,-0.6,-0.6,0.6,0.6,left,L,,,,,0,0,0,0,0,1,1,83,,,,,,,,,,,,,,,,,,,,,,,,,,,,,,,,,,,,,,,,,,,,54.37733869999647,None,left,1,1.016577799920924,54.878156700055115,56.880831100046635,54.878156700055115,56.38036840001587,54.878156700055115,56.38036840001587,54.878156700055115,56.38036840001587,54.878156700055115,56.38036840001587,54.878156700055115,56.38036840001587,56.36363819998223,56.86532760004047,56.36363819998223,56.86532760004047,56.36363819998223,56.86532760004047,56.36363819998223,56.86532760004047,56.36363819998223,56.86532760004047,56.36363819998223,56.86532760004047,56.36363819998223,56.86532760004047,56.36363819998223,56.86532760004047,54.878156700055115,None,56.86532760004047,58.36640659999102,1.5,58.38443950004876,None,59.135008799959905,None,,,,,,,,,,11020,002,2024_Jan_05_1334,MFTM_A_new1021,2021.2.3,59.98854217103576,
,,,,,,,,stim/Instruction_mask.png,conditions/adaptive.xlsx,practice,-0.6,-0.6,-0.6,0.6,0.6,left,L,,,,,0,0,0,0,0,2,2,19,,,,,,,,,,,,,,,,,,,,,,,,,,,,,,,,,,,,,,,,,,,,59.636753499973565,None,left,1,0.6613937999354675,60.13702000002377,61.43775319994893,60.13702000002377,60.936859900015406,60.13702000002377,60.936859900015406,60.13702000002377,60.936859900015406,60.13702000002377,60.936859900015406,60.13702000002377,60.936859900015406,60.92033330001868,61.420712499995716,60.92033330001868,61.420712499995716,60.92033330001868,61.420712499995716,60.92033330001868,61.420712499995716,60.92033330001868,61.420712499995716,60.92033330001868,61.420712499995716,60.92033330001868,61.420712499995716,60.92033330001868,61.420712499995716,60.13702000002377,None,61.420712499995716,63.624439700040966,0.8,63.64107540005352,None,64.39291040005628,None,,,,,,,,,,11020,002,2024_Jan_05_1334,MFTM_A_new1021,2021.2.3,59.98854217103576,
,,,,,,,,stim/Instruction_mask.png,conditions/adaptive.xlsx,practice,0.6,0.6,0.6,-0.6,-0.6,right,R,,,,,0,0,0,0,0,3,3,6,,,,,,,,,,,,,,,,,,,,,,,,,,,,,,,,,,,,,,,,,,,,64.89298310002778,None,right,1,0.6364089000271633,65.39443280000705,66.1449156999588,65.39443280000705,65.64477580005769,65.39443280000705,65.64477580005769,65.39443280000705,65.64477580005769,65.39443280000705,65.64477580005769,65.39443280000705,65.64477580005769,65.62732430000324,66.12819980003405,65.62732430000324,66.12819980003405,65.62732430000324,66.12819980003405,65.62732430000324,66.12819980003405,65.62732430000324,66.12819980003405,65.62732430000324,66.12819980003405,65.62732430000324,66.12819980003405,65.62732430000324,66.12819980003405,65.39443280000705,None,66.12819980003405,68.88227359997109,3,68.89944019995164,None,69.65025639999658,None,,,,,,,,,,11020,002,2024_Jan_05_1334,MFTM_A_new1021,2021.2.3,59.98854217103576,
,,,,,,,,stim/Instruction_mask.png,conditions/adaptive.xlsx,practice,,,,,,,,,,,,0,0,0,0,,,,,,,,,,,,,,,,,,,,,,,,,,,,,,,,,,,,,,,,,,,,,,,,,,,,,,,,,,,,,,,,,,,,,,,,,,,,,,,,,,,,,,,,,,70.16739780001808,71.1695448999526,71.13629359996412,71.13629359996412,71.13629359996412,None,,,,11020,002,2024_Jan_05_1334,MFTM_A_new1021,2021.2.3,59.98854217103576,
,,,,,,,,stim/Instruction_adaptive.png,conditions/adaptive.xlsx,test,-0.6,-0.6,-0.6,0.6,0.6,left,L,,,,,0,1,1,1,0,0,0,21,,,,,,,,,,,,,,,,,,,,,,,,,,,,,,,,,,,,,,74.2900867999997,None,space,1.8042297000065446,74.2900867999997,None,76.12601330003235,None,left,1,1.3874183000298217,76.62697119999211,None,76.62697119999211,79.63157420000061,76.62697119999211,79.63157420000061,76.62697119999211,79.63157420000061,76.62697119999211,79.63157420000061,76.62697119999211,79.63157420000061,79.61473010003101,80.11641070002224,79.61473010003101,80.11641070002224,79.61473010003101,80.11641070002224,79.61473010003101,80.11641070002224,79.61473010003101,80.11641070002224,79.61473010003101,80.11641070002224,79.61473010003101,80.11641070002224,79.61473010003101,80.11641070002224,76.62697119999211,None,80.09915130003355,80.09915130003355,3,80.13236499996856,None,80.88458740001079,None,,,,,,,0,6.000000000000005,1.0,11020,002,2024_Jan_05_1334,MFTM_A_new1021,2021.2.3,59.98854217103576,
,,,,,,,,stim/Instruction_adaptive.png,conditions/adaptive.xlsx,test,-0.6,-0.6,-0.6,0.6,0.6,left,L,,,,,0,1,1,1,0,1,1,51,,,,,,,,,,,,,,,,,,,,,,,,,,,,,,,,,,,,,,,,,,,,81.38405090000015,None,right,0,0.6018818999873474,81.88471080001909,82.63584130001254,81.88471080001909,82.13580170006026,81.88471080001909,82.13580170006026,81.88471080001909,82.13580170006026,81.88471080001909,82.13580170006026,81.88471080001909,82.13580170006026,82.118412300013,82.61927360005211,82.118412300013,82.61927360005211,82.118412300013,82.61927360005211,82.118412300013,82.61927360005211,82.118412300013,82.61927360005211,82.118412300013,82.61927360005211,82.118412300013,82.61927360005211,82.118412300013,82.61927360005211,81.88471080001909,None,82.61927360005211,83.50400359998457,0.25,83.52036990004126,None,84.27171330002602,None,,,,,,,[0.875],2.570000000000002,0.5,11020,002,2024_Jan_05_1334,MFTM_A_new1021,2021.2.3,59.98854217103576,
,,,,,,,,stim/Instruction_adaptive.png,conditions/adaptive.xlsx,test,0.6,0.6,0.6,-0.6,-0.6,right,R,,,,,0,1,1,1,0,2,2,90,,,,,,,,,,,,,,,,,,,,,,,,,,,,,,,,,,,,,,,,,,,,84.7732519999845,None,right,1,0.8211937999585643,85.27327380003408,86.89225070003886,85.27327380003408,86.39200850005727,85.27327380003408,86.39200850005727,85.27327380003408,86.39200850005727,85.27327380003408,86.39200850005727,85.27327380003408,86.39200850005727,86.35883060004562,86.85943680000491,86.35883060004562,86.85943680000491,86.35883060004562,86.85943680000491,86.35883060004562,86.85943680000491,86.35883060004562,86.85943680000491,86.35883060004562,86.85943680000491,86.35883060004562,86.85943680000491,86.35883060004562,86.85943680000491,85.27327380003408,None,86.85943680000491,87.91025780001655,1.1100000000000008,87.94380020000972,None,88.69485890003853,None,,,,,,,[1.04666667],3.3800000000000026,0.6666666666666666,11020,002,2024_Jan_05_1334,MFTM_A_new1021,2021.2.3,59.98854217103576,
,,,,,,,,stim/Instruction_adaptive.png,conditions/adaptive.xlsx,test,0.6,0.6,0.6,-0.6,-0.6,right,R,,,,,0,1,1,1,0,3,3,40,,,,,,,,,,,,,,,,,,,,,,,,,,,,,,,,,,,,,,,,,,,,89.19663919997402,None,right,1,0.6939686000114307,89.6964315000223,90.83139449998271,89.6964315000223,90.33110660000239,89.6964315000223,90.33110660000239,89.6964315000223,90.33110660000239,89.6964315000223,90.33110660000239,89.6964315000223,90.33110660000239,90.31511219998356,90.81516480003484,90.31511219998356,90.81516480003484,90.31511219998356,90.81516480003484,90.31511219998356,90.81516480003484,90.31511219998356,90.81516480003484,90.31511219998356,90.81516480003484,90.31511219998356,90.81516480003484,90.31511219998356,90.81516480003484,89.6964315000223,None,90.81516480003484,None,0.6300000000000003,92.0830690000439,None,92.83421410003211,None,,,,,,,[1.2525],3.940000000000003,0.75,11020,002,2024_Jan_05_1334,MFTM_A_new1021,2021.2.3,59.98854217103576,
,,,,,,,,stim/Instruction_adaptive.png,conditions/adaptive.xlsx,test,0.6,0.6,0.6,-0.6,-0.6,right,R,,,,,0,1,1,1,0,4,4,8,,,,,,,,,,,,,,,,,,,,,,,,,,,,,,,,,,,,,,,,,,,,93.33601670002099,None,right,1,0.5460018999874592,93.83643669995945,94.77135000005364,93.83643669995945,94.27010680001695,93.83643669995945,94.27010680001695,93.83643669995945,94.27010680001695,93.83643669995945,94.27010680001695,93.83643669995945,94.27010680001695,94.25375479995273,94.75401240005158,94.25375479995273,94.75401240005158,94.25375479995273,94.75401240005158,94.25375479995273,94.75401240005158,94.25375479995273,94.75401240005158,94.25375479995273,94.75401240005158,94.25375479995273,94.75401240005158,94.25375479995273,94.75401240005158,93.83643669995945,None,94.75401240005158,96.17262169998139,0.43000000000000016,96.18939760001376,None,96.9404125000583,None,,,,,,,[1.416],4.370000000000004,0.8,11020,002,2024_Jan_05_1334,MFTM_A_new1021,2021.2.3,59.98854217103576,
,,,,,,,,stim/Instruction_adaptive.png,conditions/adaptive.xlsx,test,0.6,0.6,0.6,-0.6,-0.6,right,R,,,,,0,1,1,1,0,5,5,56,,,,,,,,,,,,,,,,,,,,,,,,,,,,,,,,,,,,,,,,,,,,97.44117400003597,None,right,1,1.3204002999700606,97.94246569997631,98.77677640004549,97.94246569997631,98.27577790000942,97.94246569997631,98.27577790000942,97.94246569997631,98.27577790000942,97.94246569997631,98.27577790000942,97.94246569997631,98.27577790000942,98.24248050001916,98.74302910000551,98.24248050001916,98.74302910000551,98.24248050001916,98.74302910000551,98.24248050001916,98.74302910000551,98.24248050001916,98.74302910000551,98.24248050001916,98.74302910000551,98.24248050001916,98.74302910000551,98.24248050001916,98.74302910000551,97.94246569997631,None,98.74302910000551,100.29531269997824,0.32000000000000006,100.31198660004884,None,101.06390690000262,None,,,,,,,[1.54333333],4.7100000000000035,0.8333333333333334,11020,002,2024_Jan_05_1334,MFTM_A_new1021,2021.2.3,59.98854217103576,
,,,,,,,,stim/Instruction_adaptive.png,conditions/adaptive.xlsx,test,0.6,0.6,0.6,-0.6,-0.6,right,R,,,,,0,1,1,1,0,6,6,4,,,,,,,,,,,,,,,,,,,,,,,,,,,,,,,,,,,,,,,,,,,,101.56448229996022,None,left,0,0.8617358999326825,102.06472769996617,102.816345200059,102.06472769996617,102.31509729998652,102.06472769996617,102.31509729998652,102.06472769996617,102.31509729998652,102.06472769996617,102.31509729998652,102.06472769996617,102.31509729998652,102.29830549994949,102.79921039997134,102.29830549994949,102.79921039997134,102.29830549994949,102.79921039997134,102.29830549994949,102.79921039997134,102.29830549994949,102.79921039997134,102.29830549994949,102.79921039997134,102.29830549994949,102.79921039997134,102.29830549994949,102.79921039997134,102.06472769996617,None,102.79921039997134,104.45155200001318,0.25,104.46813279995695,None,105.2193795000203,None,,,,,,,[1.64428571],4.010000000000003,0.7142857142857143,11020,002,2024_Jan_05_1334,MFTM_A_new1021,2021.2.3,59.98854217103576,
,,,,,,,,stim/Instruction_adaptive.png,conditions/adaptive.xlsx,test,0.6,0.6,0.6,-0.6,-0.6,right,R,,,,,0,1,1,1,0,7,7,6,,,,,,,,,,,,,,,,,,,,,,,,,,,,,,,,,,,,,,,,,,,,105.72022460005246,None,left,0,0.8019015000900254,106.2206043000333,107.13954720005859,106.2206043000333,106.63909419998527,106.2206043000333,106.63909419998527,106.2206043000333,106.63909419998527,106.2206043000333,106.63909419998527,106.2206043000333,106.63909419998527,106.60473579994868,107.1060646000551,106.60473579994868,107.1060646000551,106.60473579994868,107.1060646000551,106.60473579994868,107.1060646000551,106.60473579994868,107.1060646000551,106.60473579994868,107.1060646000551,106.60473579994868,107.1060646000551,106.60473579994868,107.1060646000551,106.2206043000333,None,107.1060646000551,108.81089750002138,0.41000000000000014,108.84171249996871,None,109.59243760001846,None,,,,,,,[1.7],3.2500000000000027,0.625,11020,002,2024_Jan_05_1334,MFTM_A_new1021,2021.2.3,59.98854217103576,
,,,,,,,,stim/Instruction_adaptive.png,conditions/adaptive.xlsx,test,-0.6,-0.6,-0.6,0.6,0.6,left,L,,,,,0,1,1,1,0,8,8,89,,,,,,,,,,,,,,,,,,,,,,,,,,,,,,,,,,,,,,,,,,,,110.09324670000933,None,left,1,0.7403431000420824,110.59397960000206,111.79572980001103,110.59397960000206,111.29569539998192,110.59397960000206,111.29569539998192,110.59397960000206,111.29569539998192,110.59397960000206,111.29569539998192,110.59397960000206,111.29569539998192,111.26231599994935,111.76334980002139,111.26231599994935,111.76334980002139,111.26231599994935,111.76334980002139,111.26231599994935,111.76334980002139,111.26231599994935,111.76334980002139,111.26231599994935,111.76334980002139,111.26231599994935,111.76334980002139,111.26231599994935,111.76334980002139,110.59397960000206,None,111.76334980002139,113.48397930001374,0.6900000000000004,113.49801049998496,None,114.2502916000085,None,,,,,,,[1.71222222],3.5600000000000027,0.6666666666666666,11020,002,2024_Jan_05_1334,MFTM_A_new1021,2021.2.3,59.98854217103576,
,,,,,,,,stim/Instruction_adaptive.png,conditions/adaptive.xlsx,test,-0.6,-0.6,-0.6,0.6,0.6,left,L,,,,,0,1,1,1,0,9,9,73,,,,,,,,,,,,,,,,,,,,,,,,,,,,,,,,,,,,,,,,,,,,114.75140139996074,None,left,1,1.675644199945964,115.25092839996796,116.31890850001946,115.25092839996796,115.81832009996288,115.25092839996796,115.81832009996288,115.25092839996796,115.81832009996288,115.25092839996796,115.81832009996288,115.25092839996796,115.81832009996288,115.80192879994866,116.30308610002976,115.80192879994866,116.30308610002976,115.80192879994866,116.30308610002976,115.80192879994866,116.30308610002976,115.80192879994866,116.30308610002976,115.80192879994866,116.30308610002976,115.80192879994866,116.30308610002976,115.80192879994866,116.30308610002976,115.25092839996796,None,116.28585370001383,118.02217050001491,0.5600000000000003,118.05498370004352,None,118.80645649996586,None,,,,,,,[1.735],3.800000000000003,0.7,11020,002,2024_Jan_05_1334,MFTM_A_new1021,2021.2.3,59.98854217103576,
,,,,,,,,stim/Instruction_adaptive.png,conditions/adaptive.xlsx,test,-0.6,-0.6,-0.6,0.6,0.6,left,L,,,,,0,1,1,1,0,10,10,67,,,,,,,,,,,,,,,,,,,,,,,,,,,,,,,,,,,,,,,,,,,,119.30691020004451,None,left,1,0.6695794999832287,119.80879849998746,120.79248489998281,119.80879849998746,120.29168010002468,119.80879849998746,120.29168010002468,119.80879849998746,120.29168010002468,119.80879849998746,120.29168010002468,119.80879849998746,120.29168010002468,120.25828369997907,120.7597597000422,120.25828369997907,120.7597597000422,120.25828369997907,120.7597597000422,120.25828369997907,120.7597597000422,120.25828369997907,120.7597597000422,120.25828369997907,120.7597597000422,120.25828369997907,120.7597597000422,120.25828369997907,120.7597597000422,119.80879849998746,None,120.7597597000422,122.52831159997731,0.4700000000000002,122.54472799994983,None,123.29666989995167,None,,,,,,,[1.76181818],3.990000000000003,0.7272727272727273,11020,002,2024_Jan_05_1334,MFTM_A_new1021,2021.2.3,59.98854217103576,
,,,,,,,,stim/Instruction_adaptive.png,conditions/adaptive.xlsx,test,-0.6,-0.6,-0.6,0.6,0.6,left,L,,,,,0,1,1,1,0,11,11,19,,,,,,,,,,,,,,,,,,,,,,,,,,,,,,,,,,,,,,,,,,,,123.79772609996144,None,left,1,1.2206927000079304,124.29773640003987,125.21599619998597,124.29773640003987,124.71560620004311,124.29773640003987,124.71560620004311,124.29773640003987,124.71560620004311,124.29773640003987,124.71560620004311,124.29773640003987,124.71560620004311,124.69832690001931,125.19957020005677,124.69832690001931,125.19957020005677,124.69832690001931,125.19957020005677,124.69832690001931,125.19957020005677,124.69832690001931,125.19957020005677,124.69832690001931,125.19957020005677,124.69832690001931,125.19957020005677,124.69832690001931,125.19957020005677,124.29773640003987,None,125.19957020005677,None,0.41000000000000014,127.00167170003988,None,127.75340000004508,None,,,,,,,[1.78916667],4.160000000000004,0.75,11020,002,2024_Jan_05_1334,MFTM_A_new1021,2021.2.3,59.98854217103576,
,,,,,,,,stim/Instruction_adaptive.png,conditions/adaptive.xlsx,test,0.6,0.6,0.6,-0.6,-0.6,right,R,,,,,0,1,1,1,0,12,12,80,,,,,,,,,,,,,,,,,,,,,,,,,,,,,,,,,,,,,,,,,,,,128.25493739999365,None,right,1,1.3164199000457302,128.7540876000421,129.63971110002603,128.7540876000421,129.13886950002052,128.7540876000421,129.13886950002052,128.7540876000421,129.13886950002052,128.7540876000421,129.13886950002052,128.7540876000421,129.13886950002052,129.10558239999227,129.6055073000025,129.10558239999227,129.6055073000025,129.10558239999227,129.6055073000025,129.10558239999227,129.6055073000025,129.10558239999227,129.6055073000025,129.10558239999227,129.6055073000025,129.10558239999227,129.6055073000025,129.10558239999227,129.6055073000025,128.7540876000421,None,129.6055073000025,131.42665709997527,0.3700000000000001,131.44178810005542,None,132.19268370000646,None,,,,,,,[1.81538462],4.300000000000003,0.7692307692307693,11020,002,2024_Jan_05_1334,MFTM_A_new1021,2021.2.3,59.98854217103576,
,,,,,,,,stim/Instruction_adaptive.png,conditions/adaptive.xlsx,test,0.6,0.6,0.6,-0.6,-0.6,right,R,,,,,0,1,1,1,0,13,13,82,,,,,,,,,,,,,,,,,,,,,,,,,,,,,,,,,,,,,,,,,,,,132.69336509995628,None,left,0,1.596175100072287,133.19423889997415,134.02926390001085,133.19423889997415,133.52798859996255,133.19423889997415,133.52798859996255,133.19423889997415,133.52798859996255,133.19423889997415,133.52798859996255,133.19423889997415,133.52798859996255,133.5124781000195,134.01267079997342,133.5124781000195,134.01267079997342,133.5124781000195,134.01267079997342,133.5124781000195,134.01267079997342,133.5124781000195,134.01267079997342,133.5124781000195,134.01267079997342,133.5124781000195,134.01267079997342,133.5124781000195,134.01267079997342,133.19423889997415,None,134.01267079997342,None,0.33000000000000007,135.86471140000504,None,136.6159305999754,None,,,,,,,[1.84071429],3.9300000000000033,0.7142857142857143,11020,002,2024_Jan_05_1334,MFTM_A_new1021,2021.2.3,59.98854217103576,
,,,,,,,,stim/Instruction_adaptive.png,conditions/adaptive.xlsx,test,-0.6,-0.6,-0.6,0.6,0.6,left,L,,,,,0,1,1,1,0,14,14,91,,,,,,,,,,,,,,,,,,,,,,,,,,,,,,,,,,,,,,,,,,,,137.1165892999852,None,left,1,1.5885169000830501,137.61796089995187,138.5520141000161,137.61796089995187,138.05130589997862,137.61796089995187,138.05130589997862,137.61796089995187,138.05130589997862,137.61796089995187,138.05130589997862,137.61796089995187,138.05130589997862,138.03483510005753,138.53580009995494,138.03483510005753,138.53580009995494,138.03483510005753,138.53580009995494,138.03483510005753,138.53580009995494,138.03483510005753,138.53580009995494,138.03483510005753,138.53580009995494,138.03483510005753,138.53580009995494,138.03483510005753,138.53580009995494,137.61796089995187,None,138.53580009995494,None,0.43000000000000016,140.40420420002192,None,141.15640870004427,None,,,,,,,[1.856],4.070000000000003,0.7333333333333333,11020,002,2024_Jan_05_1334,MFTM_A_new1021,2021.2.3,59.98854217103576,
,,,,,,,,stim/Instruction_adaptive.png,conditions/adaptive.xlsx,test,0.6,0.6,0.6,-0.6,-0.6,right,R,,,,,0,1,1,1,0,15,15,94,,,,,,,,,,,,,,,,,,,,,,,,,,,,,,,,,,,,,,,,,,,,141.6580527999904,None,right,1,0.9292183000361547,142.1573487999849,143.05875119997654,142.1573487999849,142.5578680000035,142.1573487999849,142.5578680000035,142.1573487999849,142.5578680000035,142.1573487999849,142.5578680000035,142.1573487999849,142.5578680000035,142.52502459997777,143.02534359996207,142.52502459997777,143.02534359996207,142.52502459997777,143.02534359996207,142.52502459997777,143.02534359996207,142.52502459997777,143.02534359996207,142.52502459997777,143.02534359996207,142.52502459997777,143.02534359996207,142.52502459997777,143.02534359996207,142.1573487999849,None,143.02534359996207,144.912575299968,0.3900000000000001,144.92800610000268,None,145.6799469999969,None,,,,,,,[1.871875],4.200000000000003,0.75,11020,002,2024_Jan_05_1334,MFTM_A_new1021,2021.2.3,59.98854217103576,
,,,,,,,,stim/Instruction_adaptive.png,conditions/adaptive.xlsx,test,-0.6,-0.6,-0.6,0.6,0.6,left,L,,,,,0,1,1,1,0,16,16,3,,,,,,,,,,,,,,,,,,,,,,,,,,,,,,,,,,,,,,,,,,,,146.18081050005276,None,right,0,1.1822619000449777,146.68068560003303,147.54872259998228,146.68068560003303,147.04797289997805,146.68068560003303,147.04797289997805,146.68068560003303,147.04797289997805,146.68068560003303,147.04797289997805,146.68068560003303,147.04797289997805,147.03196349996142,147.53305119997822,147.03196349996142,147.53305119997822,147.03196349996142,147.53305119997822,147.03196349996142,147.53305119997822,147.03196349996142,147.53305119997822,147.03196349996142,147.53305119997822,147.03196349996142,147.53305119997822,147.03196349996142,147.53305119997822,146.68068560003303,None,147.53305119997822,None,0.3600000000000001,149.43487660004757,None,150.18651280004997,None,,,,,,,[1.88764706],3.8700000000000028,0.7058823529411765,11020,002,2024_Jan_05_1334,MFTM_A_new1021,2021.2.3,59.98854217103576,
,,,,,,,,stim/Instruction_adaptive.png,conditions/adaptive.xlsx,test,-0.6,-0.6,-0.6,0.6,0.6,left,L,,,,,0,1,1,1,0,17,17,63,,,,,,,,,,,,,,,,,,,,,,,,,,,,,,,,,,,,,,,,,,,,150.68683400005102,None,right,0,0.9155958000337705,151.18743000004906,152.1388203999959,151.18743000004906,151.63871530001052,151.18743000004906,151.63871530001052,151.18743000004906,151.63871530001052,151.18743000004906,151.63871530001052,151.18743000004906,151.63871530001052,151.62143749999814,152.12216599995736,151.62143749999814,152.12216599995736,151.62143749999814,152.12216599995736,151.62143749999814,152.12216599995736,151.62143749999814,152.12216599995736,151.62143749999814,152.12216599995736,151.62143749999814,152.12216599995736,151.62143749999814,152.12216599995736,151.18743000004906,None,152.12216599995736,154.02498530002777,0.4500000000000002,154.041647200007,None,154.79393359995447,None,,,,,,,[1.89666667],3.5000000000000027,0.6666666666666666,11020,002,2024_Jan_05_1334,MFTM_A_new1021,2021.2.3,59.98854217103576,
,,,,,,,,stim/Instruction_adaptive.png,conditions/adaptive.xlsx,test,-0.6,-0.6,-0.6,0.6,0.6,left,L,,,,,0,1,1,1,0,18,18,55,,,,,,,,,,,,,,,,,,,,,,,,,,,,,,,,,,,,,,,,,,,,155.29428439994808,None,left,1,1.5079435999505222,155.79454370005988,156.87902170000598,155.79454370005988,156.37894450000022,155.79454370005988,156.37894450000022,155.79454370005988,156.37894450000022,155.79454370005988,156.37894450000022,155.79454370005988,156.37894450000022,156.36172609997448,156.86279659997672,156.36172609997448,156.86279659997672,156.36172609997448,156.86279659997672,156.36172609997448,156.86279659997672,156.36172609997448,156.86279659997672,156.36172609997448,156.86279659997672,156.36172609997448,156.86279659997672,156.36172609997448,156.86279659997672,155.79454370005988,None,156.86279659997672,158.76554880000185,0.5800000000000003,158.78276189998724,None,159.53374760004226,None,,,,,,,[1.89789474],3.640000000000003,0.6842105263157895,11020,002,2024_Jan_05_1334,MFTM_A_new1021,2021.2.3,59.98854217103576,
,,,,,,,,stim/Instruction_adaptive.png,conditions/adaptive.xlsx,test,0.6,0.6,0.6,-0.6,-0.6,right,R,,,,,0,1,1,1,0,19,19,44,,,,,,,,,,,,,,,,,,,,,,,,,,,,,,,,,,,,,,,,,,,,160.03535220003687,None,left,0,1.624387999996543,160.53453810000792,161.56981220003217,160.53453810000792,161.06861229997594,160.53453810000792,161.06861229997594,160.53453810000792,161.06861229997594,160.53453810000792,161.06861229997594,160.53453810000792,161.06861229997594,161.05198650003877,161.55314350000117,161.05198650003877,161.55314350000117,161.05198650003877,161.55314350000117,161.05198650003877,161.55314350000117,161.05198650003877,161.55314350000117,161.05198650003877,161.55314350000117,161.05198650003877,161.55314350000117,161.05198650003877,161.55314350000117,160.53453810000792,None,161.55314350000117,163.4576448999578,0.5300000000000002,163.47173590003513,None,164.22409190004691,None,,,,,,,[1.9015],3.2700000000000022,0.65,11020,002,2024_Jan_05_1334,MFTM_A_new1021,2021.2.3,59.98854217103576,
,,,,,,,,stim/Instruction_adaptive.png,conditions/adaptive.xlsx,test,-0.6,-0.6,-0.6,0.6,0.6,left,L,,,,,0,1,1,1,0,20,20,59,,,,,,,,,,,,,,,,,,,,,,,,,,,,,,,,,,,,,,,,,,,,164.72437720000744,None,left,1,2.028924399986863,165.22540310001932,166.41115399997216,165.22540310001932,165.90929530002177,165.22540310001932,165.90929530002177,165.22540310001932,165.90929530002177,165.22540310001932,165.90929530002177,165.22540310001932,165.90929530002177,165.89273029996548,166.39426960004494,165.89273029996548,166.39426960004494,165.89273029996548,166.39426960004494,165.89273029996548,166.39426960004494,165.89273029996548,166.39426960004494,165.89273029996548,166.39426960004494,165.89273029996548,166.39426960004494,165.89273029996548,166.39426960004494,165.22540310001932,None,166.39426960004494,None,0.6800000000000004,168.22914009995293,None,168.98177600000054,None,,,,,,,[[1.82]],3.410000000000003,0.6666666666666666,11020,002,2024_Jan_05_1334,MFTM_A_new1021,2021.2.3,59.98854217103576,
,,,,,,,,stim/Instruction_adaptive.png,conditions/adaptive.xlsx,test,0.6,0.6,0.6,-0.6,-0.6,right,R,,,,,0,1,1,1,0,21,21,2,,,,,,,,,,,,,,,,,,,,,,,,,,,,,,,,,,,,,,,,,,,,169.48113169998396,None,right,1,1.2813022999325767,169.98190660006367,171.1171166000422,169.98190660006367,170.61602980003227,169.98190660006367,170.61602980003227,169.98190660006367,170.61602980003227,169.98190660006367,170.61602980003227,169.98190660006367,170.61602980003227,170.58292109996546,171.08354500005953,170.58292109996546,171.08354500005953,170.58292109996546,171.08354500005953,170.58292109996546,171.08354500005953,170.58292109996546,171.08354500005953,170.58292109996546,171.08354500005953,170.58292109996546,171.08354500005953,170.58292109996546,171.08354500005953,169.98190660006367,None,171.08354500005953,172.97132180002518,0.6200000000000003,172.98615620005876,None,173.737449200009,None,,,,,,,[[1.88]],3.530000000000003,0.6818181818181818,11020,002,2024_Jan_05_1334,MFTM_A_new1021,2021.2.3,59.98854217103576,
,,,,,,,,stim/Instruction_adaptive.png,conditions/adaptive.xlsx,test,-0.6,-0.6,-0.6,0.6,0.6,left,L,,,,,0,1,1,1,0,22,22,57,,,,,,,,,,,,,,,,,,,,,,,,,,,,,,,,,,,,,,,,,,,,174.23853830003645,None,left,1,1.8755061000119895,174.7390119000338,175.8239551000297,174.7390119000338,175.32332129997667,174.7390119000338,175.32332129997667,174.7390119000338,175.32332129997667,174.7390119000338,175.32332129997667,174.7390119000338,175.32332129997667,175.28975550003815,175.79054279997945,175.28975550003815,175.79054279997945,175.28975550003815,175.79054279997945,175.28975550003815,175.79054279997945,175.28975550003815,175.79054279997945,175.28975550003815,175.79054279997945,175.28975550003815,175.79054279997945,175.28975550003815,175.79054279997945,174.7390119000338,None,175.79054279997945,177.69344669999555,0.5700000000000003,177.71019300003536,None,178.46221110003535,None,,,,,,,[1.89826087],3.640000000000003,0.6956521739130435,11020,002,2024_Jan_05_1334,MFTM_A_new1021,2021.2.3,59.98854217103576,
,,,,,,,,stim/Instruction_adaptive.png,conditions/adaptive.xlsx,test,0.6,0.6,0.6,-0.6,-0.6,right,R,,,,,0,1,1,1,0,23,23,14,,,,,,,,,,,,,,,,,,,,,,,,,,,,,,,,,,,,,,,,,,,,178.9627116000047,None,right,1,1.720505699981004,179.46271570003591,180.49746250000317,179.46271570003591,179.9967165000271,179.46271570003591,179.9967165000271,179.46271570003591,179.9967165000271,179.46271570003591,179.9967165000271,179.46271570003591,179.9967165000271,179.98121720005292,180.48079259996302,179.98121720005292,180.48079259996302,179.98121720005292,180.48079259996302,179.98121720005292,180.48079259996302,179.98121720005292,180.48079259996302,179.98121720005292,180.48079259996302,179.98121720005292,180.48079259996302,179.98121720005292,180.48079259996302,179.46271570003591,None,180.48079259996302,182.38408300001174,0.5300000000000002,182.4004168000538,None,183.15145120001398,None,,,,,,,[1.90125],3.740000000000003,0.7083333333333334,11020,002,2024_Jan_05_1334,MFTM_A_new1021,2021.2.3,59.98854217103576,
,,,,,,,,stim/Instruction_adaptive.png,conditions/adaptive.xlsx,test,0.6,0.6,0.6,-0.6,-0.6,right,R,,,,,0,1,1,1,0,24,24,28,,,,,,,,,,,,,,,,,,,,,,,,,,,,,,,,,,,,,,,,,,,,183.65220000001136,None,left,0,1.8051523000467569,184.15336560003925,185.1546956000384,184.15336560003925,184.65453209995758,184.15336560003925,184.65453209995758,184.15336560003925,184.65453209995758,184.15336560003925,184.65453209995758,184.15336560003925,184.65453209995758,184.6203895000508,185.12159740005154,184.6203895000508,185.12159740005154,184.6203895000508,185.12159740005154,184.6203895000508,185.12159740005154,184.6203895000508,185.12159740005154,184.6203895000508,185.12159740005154,184.6203895000508,185.12159740005154,184.6203895000508,185.12159740005154,184.15336560003925,None,185.12159740005154,187.04054329998326,0.4900000000000002,187.05736229999457,None,187.80845779995434,None,,,,,,,[1.9056],3.4700000000000024,0.68,11020,002,2024_Jan_05_1334,MFTM_A_new1021,2021.2.3,59.98854217103576,
,,,,,,,,stim/Instruction_adaptive.png,conditions/adaptive.xlsx,test,0.6,0.6,0.6,-0.6,-0.6,right,R,,,,,0,1,1,1,0,25,25,16,,,,,,,,,,,,,,,,,,,,,,,,,,,,,,,,,,,,,,,,,,,,188.30921320000198,None,right,1,2.044619199936278,188.80988079996314,189.91171540005598,188.80988079996314,189.41108650004026,188.80988079996314,189.41108650004026,188.80988079996314,189.41108650004026,188.80988079996314,189.41108650004026,188.80988079996314,189.41108650004026,189.3780252999859,189.87892809999175,189.3780252999859,189.87892809999175,189.3780252999859,189.87892809999175,189.3780252999859,189.87892809999175,189.3780252999859,189.87892809999175,189.3780252999859,189.87892809999175,189.3780252999859,189.87892809999175,189.3780252999859,189.87892809999175,188.80988079996314,None,189.87892809999175,191.79799430002458,0.5900000000000003,191.81469989998732,None,192.5660305999918,None,,,,,,,[1.90576923],3.570000000000003,0.6923076923076923,11020,002,2024_Jan_05_1334,MFTM_A_new1021,2021.2.3,59.98854217103576,
,,,,,,,,stim/Instruction_adaptive.png,conditions/adaptive.xlsx,test,0.6,0.6,0.6,-0.6,-0.6,right,R,,,,,0,1,1,1,0,26,26,46,,,,,,,,,,,,,,,,,,,,,,,,,,,,,,,,,,,,,,,,,,,,193.06620360002853,None,right,1,1.0398316000355408,193.56699129997287,194.61844950006343,193.56699129997287,194.1176593999844,193.56699129997287,194.1176593999844,193.56699129997287,194.1176593999844,193.56699129997287,194.1176593999844,193.56699129997287,194.1176593999844,194.101239599986,194.60219680005684,194.101239599986,194.60219680005684,194.101239599986,194.60219680005684,194.101239599986,194.60219680005684,194.101239599986,194.60219680005684,194.101239599986,194.60219680005684,194.101239599986,194.60219680005684,194.101239599986,194.60219680005684,193.56699129997287,None,194.60219680005684,196.52163049997762,0.5500000000000003,196.5380537000019,None,197.28913180006202,None,,,,,,,[1.90740741],3.660000000000003,0.7037037037037037,11020,002,2024_Jan_05_1334,MFTM_A_new1021,2021.2.3,59.98854217103576,
,,,,,,,,stim/Instruction_adaptive.png,conditions/adaptive.xlsx,test,-0.6,-0.6,-0.6,0.6,0.6,left,L,,,,,0,1,1,1,0,27,27,97,,,,,,,,,,,,,,,,,,,,,,,,,,,,,,,,,,,,,,,,,,,,197.7898620000342,None,left,1,1.739980100071989,198.29098539997358,199.32545090001076,198.29098539997358,198.82527729996946,198.29098539997358,198.82527729996946,198.29098539997358,198.82527729996946,198.29098539997358,198.82527729996946,198.29098539997358,198.82527729996946,198.79195930005517,199.29203699994832,198.79195930005517,199.29203699994832,198.79195930005517,199.29203699994832,198.79195930005517,199.29203699994832,198.79195930005517,199.29203699994832,198.79195930005517,199.29203699994832,198.79195930005517,199.29203699994832,198.79195930005517,199.29203699994832,198.29098539997358,None,199.29203699994832,201.2116630000528,0.5200000000000002,201.22805040003732,None,201.98048729996663,None,,,,,,,[1.91],3.740000000000003,0.7142857142857143,11020,002,2024_Jan_05_1334,MFTM_A_new1021,2021.2.3,59.98854217103576,
,,,,,,,,stim/Instruction_adaptive.png,conditions/adaptive.xlsx,test,-0.6,-0.6,-0.6,0.6,0.6,left,L,,,,,0,1,1,1,0,28,28,93,,,,,,,,,,,,,,,,,,,,,,,,,,,,,,,,,,,,,,,,,,,,202.4810417999979,None,left,1,0.8738514999859035,202.98082599998452,203.98231260001194,202.98082599998452,203.48297230002936,202.98082599998452,203.48297230002936,202.98082599998452,203.48297230002936,202.98082599998452,203.48297230002936,202.98082599998452,203.48297230002936,203.44852099998388,203.94995849998668,203.44852099998388,203.94995849998668,203.44852099998388,203.94995849998668,203.44852099998388,203.94995849998668,203.44852099998388,203.94995849998668,203.44852099998388,203.94995849998668,203.44852099998388,203.94995849998668,203.44852099998388,203.94995849998668,202.98082599998452,None,203.94995849998668,205.86987140006386,0.4900000000000002,205.88517140003387,None,206.63691170001402,None,,,,,,,[1.91344828],3.810000000000003,0.7241379310344828,11020,002,2024_Jan_05_1334,MFTM_A_new1021,2021.2.3,59.98854217103576,
,,,,,,,,stim/Instruction_adaptive.png,conditions/adaptive.xlsx,test,0.6,0.6,0.6,-0.6,-0.6,right,R,,,,,0,1,1,1,0,29,29,20,,,,,,,,,,,,,,,,,,,,,,,,,,,,,,,,,,,,,,,,,,,,207.1370181000093,None,right,1,0.8967260000063106,207.6378429000033,208.6236927000573,207.6378429000033,208.12180169997737,207.6378429000033,208.12180169997737,207.6378429000033,208.12180169997737,207.6378429000033,208.12180169997737,207.6378429000033,208.12180169997737,208.08831350004766,208.5893638000125,208.08831350004766,208.5893638000125,208.08831350004766,208.5893638000125,208.08831350004766,208.5893638000125,208.08831350004766,208.5893638000125,208.08831350004766,208.5893638000125,208.08831350004766,208.5893638000125,208.08831350004766,208.5893638000125,207.6378429000033,None,208.5893638000125,210.50936679996084,0.4700000000000002,210.52546010003425,None,211.2765730000101,None,,,,,,,[1.91733333],3.880000000000003,0.7333333333333333,11020,002,2024_Jan_05_1334,MFTM_A_new1021,2021.2.3,59.98854217103576,
,,,,,,,,stim/Instruction_adaptive.png,conditions/adaptive.xlsx,test,-0.6,-0.6,-0.6,0.6,0.6,left,L,,,,,0,1,1,1,0,30,30,7,,,,,,,,,,,,,,,,,,,,,,,,,,,,,,,,,,,,,,,,,,,,211.77798450004775,None,right,0,1.9436318000080064,212.27902889996767,213.22930250002537,212.27902889996767,212.7290256000124,212.27902889996767,212.7290256000124,212.27902889996767,212.7290256000124,212.27902889996767,212.7290256000124,212.27902889996767,212.7290256000124,212.71193380001932,213.2126821000129,212.71193380001932,213.2126821000129,212.71193380001932,213.2126821000129,212.71193380001932,213.2126821000129,212.71193380001932,213.2126821000129,212.71193380001932,213.2126821000129,212.71193380001932,213.2126821000129,212.71193380001932,213.2126821000129,212.27902889996767,None,213.2126821000129,215.15026430005673,0.4500000000000002,215.16514960001223,None,215.9167002000613,None,,,,,,,[1.9216129],3.690000000000003,0.7096774193548387,11020,002,2024_Jan_05_1334,MFTM_A_new1021,2021.2.3,59.98854217103576,
,,,,,,,,stim/Instruction_adaptive.png,conditions/adaptive.xlsx,test,0.6,0.6,0.6,-0.6,-0.6,right,R,,,,,0,1,1,1,0,31,31,22,,,,,,,,,,,,,,,,,,,,,,,,,,,,,,,,,,,,,,,,,,,,216.41811800003052,None,left,0,2.1123628000495955,216.91825300001074,217.93644089996815,216.91825300001074,217.4368052999489,216.91825300001074,217.4368052999489,216.91825300001074,217.4368052999489,216.91825300001074,217.4368052999489,216.91825300001074,217.4368052999489,217.4189553000033,217.92019109998364,217.4189553000033,217.92019109998364,217.4189553000033,217.92019109998364,217.4189553000033,217.92019109998364,217.4189553000033,217.92019109998364,217.4189553000033,217.92019109998364,217.4189553000033,217.92019109998364,217.4189553000033,217.92019109998364,216.91825300001074,None,217.92019109998364,None,0.5100000000000002,219.8560139000183,None,220.60714099998586,None,,,,,,,[1.92375],3.4800000000000026,0.6875,11020,002,2024_Jan_05_1334,MFTM_A_new1021,2021.2.3,59.98854217103576,
,,,,,,,,stim/Instruction_adaptive.png,conditions/adaptive.xlsx,test,0.6,0.6,0.6,-0.6,-0.6,right,R,,,,,0,1,1,1,0,32,32,48,,,,,,,,,,,,,,,,,,,,,,,,,,,,,,,,,,,,,,,,,,,,221.10783420002554,None,right,1,0.9416340000461787,221.60872490005568,222.71007829997689,221.60872490005568,222.2094713000115,221.60872490005568,222.2094713000115,221.60872490005568,222.2094713000115,221.60872490005568,222.2094713000115,221.60872490005568,222.2094713000115,222.1767322999658,222.67808300000615,222.1767322999658,222.67808300000615,222.1767322999658,222.67808300000615,222.1767322999658,222.67808300000615,222.1767322999658,222.67808300000615,222.1767322999658,222.67808300000615,222.1767322999658,222.67808300000615,222.1767322999658,222.67808300000615,221.60872490005568,None,222.67808300000615,224.59700810001232,0.5900000000000003,224.6128703999566,None,225.36565769999288,None,,,,,,,[[1.91]],3.5500000000000025,0.696969696969697,11020,002,2024_Jan_05_1334,MFTM_A_new1021,2021.2.3,59.98854217103576,
,,,,,,,,stim/Instruction_adaptive.png,conditions/adaptive.xlsx,test,-0.6,-0.6,-0.6,0.6,0.6,left,L,,,,,0,1,1,1,0,33,33,15,,,,,,,,,,,,,,,,,,,,,,,,,,,,,,,,,,,,,,,,,,,,225.86467339994851,None,left,1,1.3611280999612063,226.3655058000004,227.43478620005772,226.3655058000004,226.93391220003832,226.3655058000004,226.93391220003832,226.3655058000004,226.93391220003832,226.3655058000004,226.93391220003832,226.3655058000004,226.93391220003832,226.90036640001927,227.40048459998798,226.90036640001927,227.40048459998798,226.90036640001927,227.40048459998798,226.90036640001927,227.40048459998798,226.90036640001927,227.40048459998798,226.90036640001927,227.40048459998798,226.90036640001927,227.40048459998798,226.90036640001927,227.40048459998798,226.3655058000004,None,227.40048459998798,229.33654719998594,0.5600000000000003,229.35347039997578,None,230.10465630004182,None,,,,,,,[1.92382353],3.6200000000000028,0.7058823529411765,11020,002,2024_Jan_05_1334,MFTM_A_new1021,2021.2.3,59.98854217103576,
,,,,,,,,stim/Instruction_adaptive.png,conditions/adaptive.xlsx,test,-0.6,-0.6,-0.6,0.6,0.6,left,L,,,,,0,1,1,1,0,34,34,25,,,,,,,,,,,,,,,,,,,,,,,,,,,,,,,,,,,,,,,,,,,,230.60618250002153,None,left,1,1.3408473000163212,231.10588359995745,232.15748199995141,231.10588359995745,231.6579012000002,231.10588359995745,231.6579012000002,231.10588359995745,231.6579012000002,231.10588359995745,231.6579012000002,231.10588359995745,231.6579012000002,231.62372649996541,232.12484349997249,231.62372649996541,232.12484349997249,231.62372649996541,232.12484349997249,231.62372649996541,232.12484349997249,231.62372649996541,232.12484349997249,231.62372649996541,232.12484349997249,231.62372649996541,232.12484349997249,231.62372649996541,232.12484349997249,231.10588359995745,None,232.12484349997249,234.0600887000328,0.5400000000000003,234.0770888000261,None,234.82808759994805,None,,,,,,,[1.92485714],3.690000000000003,0.7142857142857143,11020,002,2024_Jan_05_1334,MFTM_A_new1021,2021.2.3,59.98854217103576,
,,,,,,,,stim/Instruction_adaptive.png,conditions/adaptive.xlsx,test,-0.6,-0.6,-0.6,0.6,0.6,left,L,,,,,0,1,1,1,0,35,35,9,,,,,,,,,,,,,,,,,,,,,,,,,,,,,,,,,,,,,,,,,,,,235.32912220002618,None,left,1,0.9698882000520825,235.8295872999588,236.84833469998557,235.8295872999588,236.34733899997082,235.8295872999588,236.34733899997082,235.8295872999588,236.34733899997082,235.8295872999588,236.34733899997082,235.8295872999588,236.34733899997082,236.31494840001687,236.8153602000093,236.31494840001687,236.8153602000093,236.31494840001687,236.8153602000093,236.31494840001687,236.8153602000093,236.31494840001687,236.8153602000093,236.31494840001687,236.8153602000093,236.31494840001687,236.8153602000093,236.31494840001687,236.8153602000093,235.8295872999588,None,236.8153602000093,238.75053940003272,0.5100000000000002,238.76784039998893,None,239.518441000022,None,,,,,,,[1.92666667],3.7500000000000027,0.7222222222222222,11020,002,2024_Jan_05_1334,MFTM_A_new1021,2021.2.3,59.98854217103576,
,,,,,,,,stim/Instruction_adaptive.png,conditions/adaptive.xlsx,test,0.6,0.6,0.6,-0.6,-0.6,right,R,,,,,0,1,1,1,0,36,36,30,,,,,,,,,,,,,,,,,,,,,,,,,,,,,,,,,,,,,,,,,,,,240.01903650001623,None,right,1,1.3193450000835583,240.51998159999494,241.52195179997943,240.51998159999494,241.0211214000592,240.51998159999494,241.0211214000592,240.51998159999494,241.0211214000592,240.51998159999494,241.0211214000592,240.51998159999494,241.0211214000592,240.9872839000309,241.48861030000262,240.9872839000309,241.48861030000262,240.9872839000309,241.48861030000262,240.9872839000309,241.48861030000262,240.9872839000309,241.48861030000262,240.9872839000309,241.48861030000262,240.9872839000309,241.48861030000262,240.9872839000309,241.48861030000262,240.51998159999494,None,241.48861030000262,243.42409760004375,0.4900000000000002,243.4416253999807,None,244.19239990005735,None,,,,,,,[1.92891892],3.800000000000003,0.7297297297297297,11020,002,2024_Jan_05_1334,MFTM_A_new1021,2021.2.3,59.98854217103576,
,,,,,,,,stim/Instruction_adaptive.png,conditions/adaptive.xlsx,test,-0.6,-0.6,-0.6,0.6,0.6,left,L,,,,,0,1,1,1,0,37,37,1,,,,,,,,,,,,,,,,,,,,,,,,,,,,,,,,,,,,,,,,,,,,244.69363610004075,None,left,1,1.1171776000410318,245.19397530006245,246.17909680004232,245.19397530006245,245.6781618000241,245.19397530006245,245.6781618000241,245.19397530006245,245.6781618000241,245.19397530006245,245.6781618000241,245.19397530006245,245.6781618000241,245.64429880003445,246.14491599996109,245.64429880003445,246.14491599996109,245.64429880003445,246.14491599996109,245.64429880003445,246.14491599996109,245.64429880003445,246.14491599996109,245.64429880003445,246.14491599996109,245.64429880003445,246.14491599996109,245.64429880003445,246.14491599996109,245.19397530006245,None,246.14491599996109,248.0815808000043,0.4700000000000002,248.0978200000245,None,248.8488520999672,None,,,,,,,[1.93157895],3.860000000000003,0.7368421052631579,11020,002,2024_Jan_05_1334,MFTM_A_new1021,2021.2.3,59.98854217103576,
,,,,,,,,stim/Instruction_adaptive.png,conditions/adaptive.xlsx,test,0.6,0.6,0.6,-0.6,-0.6,right,R,,,,,0,1,1,1,0,38,38,98,,,,,,,,,,,,,,,,,,,,,,,,,,,,,,,,,,,,,,,,,,,,249.34952379995957,None,right,1,1.3886120999231935,249.85012099996675,250.80204249999952,249.85012099996675,250.30100199999288,249.85012099996675,250.30100199999288,249.85012099996675,250.30100199999288,249.85012099996675,250.30100199999288,249.85012099996675,250.30100199999288,250.28422549995594,250.7859551999718,250.28422549995594,250.7859551999718,250.28422549995594,250.7859551999718,250.28422549995594,250.7859551999718,250.28422549995594,250.7859551999718,250.28422549995594,250.7859551999718,250.28422549995594,250.7859551999718,250.28422549995594,250.7859551999718,249.85012099996675,None,250.7859551999718,252.7213264000602,0.4500000000000002,252.7379410000285,None,253.48887959995773,None,,,,,,,[1.93461538],3.910000000000003,0.7435897435897436,11020,002,2024_Jan_05_1334,MFTM_A_new1021,2021.2.3,59.98854217103576,
,,,,,,,,stim/Instruction_adaptive.png,conditions/adaptive.xlsx,test,-0.6,-0.6,-0.6,0.6,0.6,left,L,,,,,0,1,1,1,0,39,39,99,,,,,,,,,,,,,,,,,,,,,,,,,,,,,,,,,,,,,,,,,,,,253.98973879998084,None,left,1,0.7959754999028519,254.49052790005226,255.44221879995894,254.49052790005226,254.94188559998292,254.49052790005226,254.94188559998292,254.49052790005226,254.94188559998292,254.49052790005226,254.94188559998292,254.49052790005226,254.94188559998292,254.90843109996058,255.40868810005486,254.90843109996058,255.40868810005486,254.90843109996058,255.40868810005486,254.90843109996058,255.40868810005486,254.90843109996058,255.40868810005486,254.90843109996058,255.40868810005486,254.90843109996058,255.40868810005486,254.90843109996058,255.40868810005486,254.49052790005226,None,255.40868810005486,257.36142860003747,0.44000000000000017,257.379092499963,None,258.1299979999894,None,,,,,,,[1.93775],3.950000000000003,0.75,11020,002,2024_Jan_05_1334,MFTM_A_new1021,2021.2.3,59.98854217103576,
,,,,,,,,stim/Instruction_adaptive.png,conditions/adaptive.xlsx,test,-0.6,-0.6,-0.6,0.6,0.6,left,L,,,,,0,1,1,1,0,40,40,31,,,,,,,,,,,,,,,,,,,,,,,,,,,,,,,,,,,,,,,,,,,,258.63020100002177,None,left,1,1.3395837000571191,259.13145049999,260.06631350005046,259.13145049999,259.5644395999843,259.13145049999,259.5644395999843,259.13145049999,259.5644395999843,259.13145049999,259.5644395999843,259.13145049999,259.5644395999843,259.5479889999842,260.0488346000202,259.5479889999842,260.0488346000202,259.5479889999842,260.0488346000202,259.5479889999842,260.0488346000202,259.5479889999842,260.0488346000202,259.5479889999842,260.0488346000202,259.5479889999842,260.0488346000202,259.5479889999842,260.0488346000202,259.13145049999,None,260.0488346000202,None,0.43000000000000016,262.0022607999854,None,262.75330770004075,None,,,,,,,[1.94097561],4.0000000000000036,0.7560975609756098,11020,002,2024_Jan_05_1334,MFTM_A_new1021,2021.2.3,59.98854217103576,
,,,,,,,,stim/Instruction_adaptive.png,conditions/adaptive.xlsx,test,-0.6,-0.6,-0.6,0.6,0.6,left,L,,,,,0,1,1,1,0,41,41,11,,,,,,,,,,,,,,,,,,,,,,,,,,,,,,,,,,,,,,,,,,,,263.25373100000434,None,left,1,2.172701200004667,263.7541603000136,264.6726431000279,263.7541603000136,264.17157060001045,263.7541603000136,264.17157060001045,263.7541603000136,264.17157060001045,263.7541603000136,264.17157060001045,263.7541603000136,264.17157060001045,264.15484370000195,264.65606329997536,264.15484370000195,264.65606329997536,264.15484370000195,264.65606329997536,264.15484370000195,264.65606329997536,264.15484370000195,264.65606329997536,264.15484370000195,264.65606329997536,264.15484370000195,264.65606329997536,264.15484370000195,264.65606329997536,263.7541603000136,None,264.6390828000149,266.5917681000428,0.41000000000000014,266.60857210005634,None,267.3599766000407,None,,,,,,,[1.94452381],4.040000000000003,0.7619047619047619,11020,002,2024_Jan_05_1334,MFTM_A_new1021,2021.2.3,59.98854217103576,
,,,,,,,,stim/Instruction_adaptive.png,conditions/adaptive.xlsx,test,-0.6,-0.6,-0.6,0.6,0.6,left,L,,,,,0,1,1,1,0,42,42,81,,,,,,,,,,,,,,,,,,,,,,,,,,,,,,,,,,,,,,,,,,,,267.8608319000341,None,right,0,1.6684576000552624,268.36212569999043,269.26253489998635,268.36212569999043,268.7623945999658,268.36212569999043,268.7623945999658,268.36212569999043,268.7623945999658,268.36212569999043,268.7623945999658,268.36212569999043,268.7623945999658,268.74492960004136,269.24697300000116,268.74492960004136,269.24697300000116,268.74492960004136,269.24697300000116,268.74492960004136,269.24697300000116,268.74492960004136,269.24697300000116,268.74492960004136,269.24697300000116,268.74492960004136,269.24697300000116,268.74492960004136,269.24697300000116,268.36212569999043,None,269.24697300000116,271.19874100002926,0.40000000000000013,271.215269700042,None,271.9664748000214,None,,,,,,,[1.94813953],3.920000000000003,0.7441860465116279,11020,002,2024_Jan_05_1334,MFTM_A_new1021,2021.2.3,59.98854217103576,
,,,,,,,,stim/Instruction_adaptive.png,conditions/adaptive.xlsx,test,-0.6,-0.6,-0.6,0.6,0.6,left,L,,,,,0,1,1,1,0,43,43,87,,,,,,,,,,,,,,,,,,,,,,,,,,,,,,,,,,,,,,,,,,,,272.46731290000025,None,right,0,1.5833787999581546,272.96773879998364,273.9025941999862,272.96773879998364,273.40186260000337,272.96773879998364,273.40186260000337,272.96773879998364,273.40186260000337,272.96773879998364,273.40186260000337,272.96773879998364,273.40186260000337,273.3863671000581,273.8859636000125,273.3863671000581,273.8859636000125,273.3863671000581,273.8859636000125,273.3863671000581,273.8859636000125,273.3863671000581,273.8859636000125,273.3863671000581,273.8859636000125,273.3863671000581,273.8859636000125,273.3863671000581,273.8859636000125,272.96773879998364,None,273.8859636000125,275.8389956000028,0.43000000000000016,275.85553219995927,None,276.60650250001345,None,,,,,,,[1.95090909],3.7900000000000027,0.7272727272727273,11020,002,2024_Jan_05_1334,MFTM_A_new1021,2021.2.3,59.98854217103576,
,,,,,,,,stim/Instruction_adaptive.png,conditions/adaptive.xlsx,test,-0.6,-0.6,-0.6,0.6,0.6,left,L,,,,,0,1,1,1,0,44,44,41,,,,,,,,,,,,,,,,,,,,,,,,,,,,,,,,,,,,,,,,,,,,277.1074840000365,None,left,1,0.7101818000664935,277.60843180003576,278.59381510003004,277.60843180003576,278.0921114999801,277.60843180003576,278.0921114999801,277.60843180003576,278.0921114999801,277.60843180003576,278.0921114999801,277.60843180003576,278.0921114999801,278.07557280000765,278.57713760004845,278.07557280000765,278.57713760004845,278.07557280000765,278.57713760004845,278.07557280000765,278.57713760004845,278.07557280000765,278.57713760004845,278.07557280000765,278.57713760004845,278.07557280000765,278.57713760004845,278.07557280000765,278.57713760004845,277.60843180003576,None,278.57713760004845,280.5289219999686,0.4800000000000002,280.5456914999522,None,281.2976779000601,None,,,,,,,[1.95244444],3.8300000000000027,0.7333333333333333,11020,002,2024_Jan_05_1334,MFTM_A_new1021,2021.2.3,59.98854217103576,
,,,,,,,,stim/Instruction_adaptive.png,conditions/adaptive.xlsx,test,-0.6,-0.6,-0.6,0.6,0.6,left,L,,,,,0,1,1,1,0,45,45,95,,,,,,,,,,,,,,,,,,,,,,,,,,,,,,,,,,,,,,,,,,,,281.7978206999833,None,left,1,0.6602586000226438,282.2984685000265,283.26714719994925,282.2984685000265,282.76630939997267,282.2984685000265,282.76630939997267,282.2984685000265,282.76630939997267,282.2984685000265,282.76630939997267,282.2984685000265,282.76630939997267,282.74925029999577,283.24987619998865,282.74925029999577,283.24987619998865,282.74925029999577,283.24987619998865,282.74925029999577,283.24987619998865,282.74925029999577,283.24987619998865,282.74925029999577,283.24987619998865,282.74925029999577,283.24987619998865,282.74925029999577,283.24987619998865,282.2984685000265,None,283.23399300000165,285.2031908000354,0.4600000000000002,285.2197790000355,None,285.9703499999596,None,,,,,,,[1.95434783],3.880000000000003,0.7391304347826086,11020,002,2024_Jan_05_1334,MFTM_A_new1021,2021.2.3,59.98854217103576,
,,,,,,,,stim/Instruction_adaptive.png,conditions/adaptive.xlsx,test,0.6,0.6,0.6,-0.6,-0.6,right,R,,,,,0,1,1,1,0,46,46,12,,,,,,,,,,,,,,,,,,,,,,,,,,,,,,,,,,,,,,,,,,,,286.4713551000459,None,right,1,1.1625976000213996,286.9721929000225,287.92395740002394,286.9721929000225,287.4226503999671,286.9721929000225,287.4226503999671,286.9721929000225,287.4226503999671,286.9721929000225,287.4226503999671,286.9721929000225,287.4226503999671,287.4068348000292,287.9071680000052,287.4068348000292,287.9071680000052,287.4068348000292,287.9071680000052,287.4068348000292,287.9071680000052,287.4068348000292,287.9071680000052,287.4068348000292,287.9071680000052,287.4068348000292,287.9071680000052,287.4068348000292,287.9071680000052,286.9721929000225,None,287.9071680000052,289.8770827000262,0.4500000000000002,289.8935239999555,None,290.64473239996005,None,,,,,,,[1.95638298],3.920000000000003,0.7446808510638298,11020,002,2024_Jan_05_1334,MFTM_A_new1021,2021.2.3,59.98854217103576,
,,,,,,,,stim/Instruction_adaptive.png,conditions/adaptive.xlsx,test,-0.6,-0.6,-0.6,0.6,0.6,left,L,,,,,0,1,1,1,0,47,47,65,,,,,,,,,,,,,,,,,,,,,,,,,,,,,,,,,,,,,,,,,,,,291.14649459999055,None,left,1,0.5689739999361336,291.64558550005313,292.58050639997236,291.64558550005313,292.07979570003226,291.64558550005313,292.07979570003226,291.64558550005313,292.07979570003226,291.64558550005313,292.07979570003226,291.64558550005313,292.07979570003226,292.0629977999488,292.5642543999711,292.0629977999488,292.5642543999711,292.0629977999488,292.5642543999711,292.0629977999488,292.5642543999711,292.0629977999488,292.5642543999711,292.0629977999488,292.5642543999711,292.0629977999488,292.5642543999711,292.0629977999488,292.5642543999711,291.64558550005313,None,292.5642543999711,None,0.43000000000000016,294.5332608000608,None,295.28436190006323,None,,,,,,,[1.95875],3.960000000000003,0.75,11020,002,2024_Jan_05_1334,MFTM_A_new1021,2021.2.3,59.98854217103576,
,,,,,,,,stim/Instruction_adaptive.png,conditions/adaptive.xlsx,test,0.6,0.6,0.6,-0.6,-0.6,right,R,,,,,0,1,1,1,0,48,48,72,,,,,,,,,,,,,,,,,,,,,,,,,,,,,,,,,,,,,,,,,,,,295.78566319996025,None,left,0,1.22431060008239,296.2867919000564,297.2206341000274,296.2867919000564,296.7205138000427,296.2867919000564,296.7205138000427,296.2867919000564,296.7205138000427,296.2867919000564,296.7205138000427,296.2867919000564,296.7205138000427,296.6863778999541,297.18801859999076,296.6863778999541,297.18801859999076,296.6863778999541,297.18801859999076,296.6863778999541,297.18801859999076,296.6863778999541,297.18801859999076,296.6863778999541,297.18801859999076,296.6863778999541,297.18801859999076,296.6863778999541,297.18801859999076,296.2867919000564,None,297.18801859999076,299.1575219000224,0.42000000000000015,299.17342020000797,None,299.92449710005894,None,,,,,,,[1.96122449],3.850000000000003,0.7346938775510204,11020,002,2024_Jan_05_1334,MFTM_A_new1021,2021.2.3,59.98854217103576,
,,,,,,,,stim/Instruction_adaptive.png,conditions/adaptive.xlsx,test,0.6,0.6,0.6,-0.6,-0.6,right,R,,,,,0,1,1,1,0,49,49,38,,,,,,,,,,,,,,,,,,,,,,,,,,,,,,,,,,,,,,,,,,,,300.425677799969,None,right,1,1.2566342999925837,300.92593300004955,301.89410040003713,300.92593300004955,301.39351460000034,300.92593300004955,301.39351460000034,300.92593300004955,301.39351460000034,300.92593300004955,301.39351460000034,300.92593300004955,301.39351460000034,301.37676180002745,301.8775228000013,301.37676180002745,301.8775228000013,301.37676180002745,301.8775228000013,301.37676180002745,301.8775228000013,301.37676180002745,301.8775228000013,301.37676180002745,301.8775228000013,301.37676180002745,301.8775228000013,301.37676180002745,301.8775228000013,300.92593300004955,None,301.8775228000013,303.8474942999892,0.4600000000000002,303.86305679997895,None,304.6148796000052,None,,,,,,,[1.9628],3.8900000000000032,0.74,11020,002,2024_Jan_05_1334,MFTM_A_new1021,2021.2.3,59.98854217103576,
,,,,,,,,stim/Instruction_adaptive.png,conditions/adaptive.xlsx,test,-0.6,-0.6,-0.6,0.6,0.6,left,L,,,,,0,1,1,1,0,50,50,45,,,,,,,,,,,,,,,,,,,,,,,,,,,,,,,,,,,,,,,,,,,,305.11573259998113,None,right,0,1.5425847000442445,305.6160434000194,306.5691037999932,305.6160434000194,306.067740199971,305.6160434000194,306.067740199971,305.6160434000194,306.067740199971,305.6160434000194,306.067740199971,305.6160434000194,306.067740199971,306.03373679996,306.5342610999942,306.03373679996,306.5342610999942,306.03373679996,306.5342610999942,306.03373679996,306.5342610999942,306.03373679996,306.5342610999942,306.03373679996,306.5342610999942,306.03373679996,306.5342610999942,306.03373679996,306.5342610999942,305.6160434000194,None,306.5342610999942,308.5045830999734,0.44000000000000017,308.5205343000125,None,309.2716480999952,None,,,,,,,[1.96470588],3.770000000000003,0.7254901960784313,11020,002,2024_Jan_05_1334,MFTM_A_new1021,2021.2.3,59.98854217103576,
,,,,,,,,stim/Instruction_adaptive.png,conditions/adaptive.xlsx,test,0.6,0.6,0.6,-0.6,-0.6,right,R,,,,,0,1,1,1,0,51,51,34,,,,,,,,,,,,,,,,,,,,,,,,,,,,,,,,,,,,,,,,,,,,309.77318689995445,None,left,0,2.0133334000129253,310.2732661999762,311.2588497999823,310.2732661999762,310.757236000034,310.2732661999762,310.757236000034,310.2732661999762,310.757236000034,310.2732661999762,310.757236000034,310.2732661999762,310.757236000034,310.74037989997305,311.2412844999926,310.74037989997305,311.2412844999926,310.74037989997305,311.2412844999926,310.74037989997305,311.2412844999926,310.74037989997305,311.2412844999926,310.74037989997305,311.2412844999926,310.74037989997305,311.2412844999926,310.74037989997305,311.2412844999926,310.2732661999762,None,311.2412844999926,313.21143180003855,0.4800000000000002,313.22760790004395,None,313.9795111999847,None,,,,,,,[1.96576923],3.650000000000003,0.7115384615384616,11020,002,2024_Jan_05_1334,MFTM_A_new1021,2021.2.3,59.98854217103576,
,,,,,,,,stim/Instruction_adaptive.png,conditions/adaptive.xlsx,test,-0.6,-0.6,-0.6,0.6,0.6,left,L,,,,,0,1,1,1,0,52,52,5,,,,,,,,,,,,,,,,,,,,,,,,,,,,,,,,,,,,,,,,,,,,314.48014979995787,None,left,1,1.1544323000125587,314.98023660003673,316.01597259996925,314.98023660003673,315.514783599996,314.98023660003673,315.514783599996,314.98023660003673,315.514783599996,314.98023660003673,315.514783599996,314.98023660003673,315.514783599996,315.4809715000447,315.98227839998435,315.4809715000447,315.98227839998435,315.4809715000447,315.98227839998435,315.4809715000447,315.98227839998435,315.4809715000447,315.98227839998435,315.4809715000447,315.98227839998435,315.4809715000447,315.98227839998435,315.4809715000447,315.98227839998435,314.98023660003673,None,315.98227839998435,317.9518062999705,0.5200000000000002,317.9679352999665,None,318.7190550999949,None,,,,,,,[1.96603774],3.690000000000003,0.7169811320754716,11020,002,2024_Jan_05_1334,MFTM_A_new1021,2021.2.3,59.98854217103576,
,,,,,,,,stim/Instruction_adaptive.png,conditions/adaptive.xlsx,test,-0.6,-0.6,-0.6,0.6,0.6,left,L,,,,,0,1,1,1,0,53,53,23,,,,,,,,,,,,,,,,,,,,,,,,,,,,,,,,,,,,,,,,,,,,319.2210182000417,None,left,1,1.366608800017275,319.72036170004867,320.7386323000537,319.72036170004867,320.23835070000496,319.72036170004867,320.23835070000496,319.72036170004867,320.23835070000496,319.72036170004867,320.23835070000496,319.72036170004867,320.23835070000496,320.2220123000443,320.72205119999126,320.2220123000443,320.72205119999126,320.2220123000443,320.72205119999126,320.2220123000443,320.72205119999126,320.2220123000443,320.72205119999126,320.2220123000443,320.72205119999126,320.2220123000443,320.72205119999126,320.2220123000443,320.72205119999126,319.72036170004867,None,320.72205119999126,322.6915369000053,0.5100000000000002,322.7083158000605,None,323.46087920002174,None,,,,,,,[1.96648148],3.730000000000003,0.7222222222222222,11020,002,2024_Jan_05_1334,MFTM_A_new1021,2021.2.3,59.98854217103576,
,,,,,,,,stim/Instruction_adaptive.png,conditions/adaptive.xlsx,test,-0.6,-0.6,-0.6,0.6,0.6,left,L,,,,,0,1,1,1,0,54,54,35,,,,,,,,,,,,,,,,,,,,,,,,,,,,,,,,,,,,,,,,,,,,323.96079709997866,None,left,1,1.297995499917306,324.4609228000045,325.46232519997284,324.4609228000045,324.9618259000126,324.4609228000045,324.9618259000126,324.4609228000045,324.9618259000126,324.4609228000045,324.9618259000126,324.4609228000045,324.9618259000126,324.9448576000286,325.44585290004034,324.9448576000286,325.44585290004034,324.9448576000286,325.44585290004034,324.9448576000286,325.44585290004034,324.9448576000286,325.44585290004034,324.9448576000286,325.44585290004034,324.9448576000286,325.44585290004034,324.9448576000286,325.44585290004034,324.4609228000045,None,325.44585290004034,327.4160802999977,0.5000000000000002,327.4318578999955,None,328.1829467000207,None,,,,,,,[1.96709091],3.770000000000003,0.7272727272727273,11020,002,2024_Jan_05_1334,MFTM_A_new1021,2021.2.3,59.98854217103576,
,,,,,,,,stim/Instruction_adaptive.png,conditions/adaptive.xlsx,test,0.6,0.6,0.6,-0.6,-0.6,right,R,,,,,0,1,1,1,0,55,55,68,,,,,,,,,,,,,,,,,,,,,,,,,,,,,,,,,,,,,,,,,,,,328.68486270005815,None,left,0,0.9584289999911562,329.1845478999894,330.16931120003574,329.1845478999894,329.6691728000296,329.1845478999894,329.6691728000296,329.1845478999894,329.6691728000296,329.1845478999894,329.6691728000296,329.1845478999894,329.6691728000296,329.65181139996275,330.1533973000478,329.65181139996275,330.1533973000478,329.65181139996275,330.1533973000478,329.65181139996275,330.1533973000478,329.65181139996275,330.1533973000478,329.65181139996275,330.1533973000478,329.65181139996275,330.1533973000478,329.65181139996275,330.1533973000478,329.1845478999894,None,330.1533973000478,332.12318029999733,0.4800000000000002,332.1384442000417,None,332.89010479999706,None,,,,,,,[1.96803571],3.660000000000003,0.7142857142857143,11020,002,2024_Jan_05_1334,MFTM_A_new1021,2021.2.3,59.98854217103576,
,,,,,,,,stim/Instruction_adaptive.png,conditions/adaptive.xlsx,test,-0.6,-0.6,-0.6,0.6,0.6,left,L,,,,,0,1,1,1,0,56,56,53,,,,,,,,,,,,,,,,,,,,,,,,,,,,,,,,,,,,,,,,,,,,333.39138939999975,None,right,0,2.059727399959229,333.8913942000363,334.9108488999773,333.8913942000363,334.4267292000586,333.8913942000363,334.4267292000586,333.8913942000363,334.4267292000586,333.8913942000363,334.4267292000586,333.8913942000363,334.4267292000586,334.3922051000409,334.89366489998065,334.3922051000409,334.89366489998065,334.3922051000409,334.89366489998065,334.3922051000409,334.89366489998065,334.3922051000409,334.89366489998065,334.3922051000409,334.89366489998065,334.3922051000409,334.89366489998065,334.3922051000409,334.89366489998065,333.8913942000363,None,334.89366489998065,336.8630278999917,0.5200000000000002,336.87996869999915,None,337.63046600006055,None,,,,,,,[1.96824561],3.5400000000000027,0.7017543859649122,11020,002,2024_Jan_05_1334,MFTM_A_new1021,2021.2.3,59.98854217103576,
,,,,,,,,stim/Instruction_adaptive.png,conditions/adaptive.xlsx,test,-0.6,-0.6,-0.6,0.6,0.6,left,L,,,,,0,1,1,1,0,57,57,83,,,,,,,,,,,,,,,,,,,,,,,,,,,,,,,,,,,,,,,,,,,,338.1316329999827,None,right,0,1.8778378000715747,338.6328127000015,339.71661869995296,338.6328127000015,339.2161143999547,338.6328127000015,339.2161143999547,338.6328127000015,339.2161143999547,338.6328127000015,339.2161143999547,338.6328127000015,339.2161143999547,339.18257499998435,339.6837836999912,339.18257499998435,339.6837836999912,339.18257499998435,339.6837836999912,339.18257499998435,339.6837836999912,339.18257499998435,339.6837836999912,339.18257499998435,339.6837836999912,339.18257499998435,339.6837836999912,339.18257499998435,339.6837836999912,338.6328127000015,None,339.6837836999912,341.61961319996044,0.5700000000000003,341.6366648999974,None,342.38809320004657,None,,,,,,,[[1.93]],3.410000000000003,0.6896551724137931,11020,002,2024_Jan_05_1334,MFTM_A_new1021,2021.2.3,59.98854217103576,
,,,,,,,,stim/Instruction_adaptive.png,conditions/adaptive.xlsx,test,0.6,0.6,0.6,-0.6,-0.6,right,R,,,,,0,1,1,1,0,58,58,32,,,,,,,,,,,,,,,,,,,,,,,,,,,,,,,,,,,,,,,,,,,,342.88946790003683,None,right,1,2.37012069998309,343.3889348000521,344.5072779000038,343.3889348000521,344.02329769998323,343.3889348000521,344.02329769998323,343.3889348000521,344.02329769998323,343.3889348000521,344.02329769998323,343.3889348000521,344.02329769998323,343.9898449999746,344.49156949995086,343.9898449999746,344.49156949995086,343.9898449999746,344.49156949995086,343.9898449999746,344.49156949995086,343.9898449999746,344.49156949995086,343.9898449999746,344.49156949995086,343.9898449999746,344.49156949995086,343.9898449999746,344.49156949995086,343.3889348000521,None,344.49156949995086,346.37720470002387,0.6200000000000003,346.393291400047,None,347.14463590004016,None,,,,,,,[[1.88]],3.450000000000003,0.6949152542372882,11020,002,2024_Jan_05_1334,MFTM_A_new1021,2021.2.3,59.98854217103576,
,,,,,,,,stim/Instruction_adaptive.png,conditions/adaptive.xlsx,test,0.6,0.6,0.6,-0.6,-0.6,right,R,,,,,0,1,1,1,0,59,59,96,,,,,,,,,,,,,,,,,,,,,,,,,,,,,,,,,,,,,,,,,,,,347.64516209997237,None,right,1,1.5170753999846056,348.14601649995893,349.2480533999624,348.14601649995893,348.74794579995796,348.14601649995893,348.74794579995796,348.14601649995893,348.74794579995796,348.14601649995893,348.74794579995796,348.14601649995893,348.74794579995796,348.7302410999546,349.2316708000144,348.7302410999546,349.2316708000144,348.7302410999546,349.2316708000144,348.7302410999546,349.2316708000144,348.7302410999546,349.2316708000144,348.7302410999546,349.2316708000144,348.7302410999546,349.2316708000144,348.7302410999546,349.2316708000144,348.14601649995893,None,349.2316708000144,351.1342317999806,0.6000000000000003,351.1504405000014,None,351.9015369999688,None,,,,,,,[[1.9]],3.5000000000000027,0.7,11020,002,2024_Jan_05_1334,MFTM_A_new1021,2021.2.3,59.98854217103576,
,,,,,,,,stim/Instruction_adaptive.png,conditions/adaptive.xlsx,test,0.6,0.6,0.6,-0.6,-0.6,right,R,,,,,0,1,1,1,0,60,60,78,,,,,,,,,,,,,,,,,,,,,,,,,,,,,,,,,,,,,,,,,,,,352.40312859998085,None,right,1,1.25553540000692,352.90310039999895,353.98929890000727,352.90310039999895,353.48871239996515,352.90310039999895,353.48871239996515,352.90310039999895,353.48871239996515,352.90310039999895,353.48871239996515,352.90310039999895,353.48871239996515,353.4704265999608,353.9713264000602,353.4704265999608,353.9713264000602,353.4704265999608,353.9713264000602,353.4704265999608,353.9713264000602,353.4704265999608,353.9713264000602,353.4704265999608,353.9713264000602,353.4704265999608,353.9713264000602,353.4704265999608,353.9713264000602,352.90310039999895,None,353.9713264000602,355.89071339997463,0.5800000000000003,355.90752670005895,None,356.6586128999479,None,,,,,,,[[1.92]],3.5400000000000027,0.7049180327868853,11020,002,2024_Jan_05_1334,MFTM_A_new1021,2021.2.3,59.98854217103576,
,,,,,,,,stim/Instruction_adaptive.png,conditions/adaptive.xlsx,test,0.6,0.6,0.6,-0.6,-0.6,right,R,,,,,0,1,1,1,0,61,61,42,,,,,,,,,,,,,,,,,,,,,,,,,,,,,,,,,,,,,,,,,,,,357.1595115000382,None,left,0,2.6504311999306083,357.660761600011,358.74510289996397,357.660761600011,358.2445418999996,357.660761600011,358.2445418999996,357.660761600011,358.2445418999996,357.660761600011,358.2445418999996,357.660761600011,358.2445418999996,358.21109979995526,358.7116946000606,358.21109979995526,358.7116946000606,358.21109979995526,358.7116946000606,358.21109979995526,358.7116946000606,358.21109979995526,358.7116946000606,358.21109979995526,358.7116946000606,358.21109979995526,358.7116946000606,358.21109979995526,358.7116946000606,357.660761600011,None,358.7116946000606,360.64899360004347,0.5700000000000003,360.66445929999463,None,361.4156173999654,None,,,,,,,[[1.93]],3.4200000000000026,0.6935483870967742,11020,002,2024_Jan_05_1334,MFTM_A_new1021,2021.2.3,59.98854217103576,
,,,,,,,,stim/Instruction_adaptive.png,conditions/adaptive.xlsx,test,0.6,0.6,0.6,-0.6,-0.6,right,R,,,,,0,1,1,1,0,62,62,52,,,,,,,,,,,,,,,,,,,,,,,,,,,,,,,,,,,,,,,,,,,,361.9163063999731,None,right,1,2.333437699940987,362.4178247000091,363.5355624000076,362.4178247000091,363.0358869000338,362.4178247000091,363.0358869000338,362.4178247000091,363.0358869000338,362.4178247000091,363.0358869000338,362.4178247000091,363.0358869000338,363.017865599948,363.51969049999025,363.017865599948,363.51969049999025,363.017865599948,363.51969049999025,363.017865599948,363.51969049999025,363.017865599948,363.51969049999025,363.017865599948,363.51969049999025,363.017865599948,363.51969049999025,363.017865599948,363.51969049999025,362.4178247000091,None,363.51969049999025,None,0.6100000000000003,365.42157350003254,None,366.17280860000756,None,,,,,,,[[1.89]],3.4600000000000026,0.6984126984126984,11020,002,2024_Jan_05_1334,MFTM_A_new1021,2021.2.3,59.98854217103576,
,,,,,,,,stim/Instruction_adaptive.png,conditions/adaptive.xlsx,test,0.6,0.6,0.6,-0.6,-0.6,right,R,,,,,0,1,1,1,0,63,63,84,,,,,,,,,,,,,,,,,,,,,,,,,,,,,,,,,,,,,,,,,,,,366.67506439995486,None,right,1,1.4886364999692887,367.17426240001805,368.27590869995765,367.17426240001805,367.775101599982,367.17426240001805,367.775101599982,367.17426240001805,367.775101599982,367.17426240001805,367.775101599982,367.17426240001805,367.775101599982,367.75848710001446,368.259191500023,367.75848710001446,368.259191500023,367.75848710001446,368.259191500023,367.75848710001446,368.259191500023,367.75848710001446,368.259191500023,367.75848710001446,368.259191500023,367.75848710001446,368.259191500023,367.75848710001446,368.259191500023,367.17426240001805,None,368.259191500023,370.1619488999713,0.6000000000000003,370.1785979999695,None,370.9299422999611,None,,,,,,,[[1.9]],3.5000000000000027,0.703125,11020,002,2024_Jan_05_1334,MFTM_A_new1021,2021.2.3,59.98854217103576,
,,,,,,,,stim/Instruction_adaptive.png,conditions/adaptive.xlsx,test,-0.6,-0.6,-0.6,0.6,0.6,left,L,,,,,0,1,1,1,0,64,64,29,,,,,,,,,,,,,,,,,,,,,,,,,,,,,,,,,,,,,,,,,,,,371.4304009999614,None,left,1,1.5068167999852449,371.93201150000095,373.01698369998485,371.93201150000095,372.51609859999735,371.93201150000095,372.51609859999735,371.93201150000095,372.51609859999735,371.93201150000095,372.51609859999735,371.93201150000095,372.51609859999735,372.49884779995773,373.00030880002305,372.49884779995773,373.00030880002305,372.49884779995773,373.00030880002305,372.49884779995773,373.00030880002305,372.49884779995773,373.00030880002305,372.49884779995773,373.00030880002305,372.49884779995773,373.00030880002305,372.49884779995773,373.00030880002305,371.93201150000095,None,373.00030880002305,374.9198140000226,0.5800000000000003,374.9355390999699,None,375.68683390005026,None,,,,,,,[[1.92]],3.5400000000000027,0.7076923076923077,11020,002,2024_Jan_05_1334,MFTM_A_new1021,2021.2.3,59.98854217103576,
,,,,,,,,stim/Instruction_adaptive.png,conditions/adaptive.xlsx,test,0.6,0.6,0.6,-0.6,-0.6,right,R,,,,,0,1,1,1,0,65,65,26,,,,,,,,,,,,,,,,,,,,,,,,,,,,,,,,,,,,,,,,,,,,376.1875779000111,None,right,1,2.0869464999996126,376.68828170001507,377.7732598000439,376.68828170001507,377.2724781000288,376.68828170001507,377.2724781000288,376.68828170001507,377.2724781000288,376.68828170001507,377.2724781000288,376.68828170001507,377.2724781000288,377.23937580001075,377.7397052999586,377.23937580001075,377.7397052999586,377.23937580001075,377.7397052999586,377.23937580001075,377.7397052999586,377.23937580001075,377.7397052999586,377.23937580001075,377.7397052999586,377.23937580001075,377.7397052999586,377.23937580001075,377.7397052999586,376.68828170001507,None,377.7397052999586,379.6772309000371,0.5700000000000003,379.69273779995274,None,380.4445513000246,None,,,,,,,[[1.93]],3.570000000000003,0.7121212121212122,11020,002,2024_Jan_05_1334,MFTM_A_new1021,2021.2.3,59.98854217103576,
,,,,,,,,stim/Instruction_adaptive.png,conditions/adaptive.xlsx,test,-0.6,-0.6,-0.6,0.6,0.6,left,L,,,,,0,1,1,1,0,66,66,69,,,,,,,,,,,,,,,,,,,,,,,,,,,,,,,,,,,,,,,,,,,,380.94532369996887,None,left,1,2.280668899999,381.4459630000638,382.49684050004,381.4459630000638,381.9961004999932,381.4459630000638,381.9961004999932,381.4459630000638,381.9961004999932,381.4459630000638,381.9961004999932,381.4459630000638,381.9961004999932,381.9794345999835,382.48006109998096,381.9794345999835,382.48006109998096,381.9794345999835,382.48006109998096,381.9794345999835,382.48006109998096,381.9794345999835,382.48006109998096,381.9794345999835,382.48006109998096,381.9794345999835,382.48006109998096,381.9794345999835,382.48006109998096,381.4459630000638,None,382.48006109998096,384.4353828000603,0.5500000000000003,384.4497523000464,None,385.20078780001495,None,,,,,,,[[1.95]],3.610000000000003,0.7164179104477612,11020,002,2024_Jan_05_1334,MFTM_A_new1021,2021.2.3,59.98854217103576,
,,,,,,,,stim/Instruction_adaptive.png,conditions/adaptive.xlsx,test,0.6,0.6,0.6,-0.6,-0.6,right,R,,,,,0,1,1,1,0,67,67,66,,,,,,,,,,,,,,,,,,,,,,,,,,,,,,,,,,,,,,,,,,,,385.70170029997826,None,right,1,1.0123341999715194,386.2023717999691,387.25489960005507,386.2023717999691,386.7532442000229,386.2023717999691,386.7532442000229,386.2023717999691,386.7532442000229,386.2023717999691,386.7532442000229,386.2023717999691,386.7532442000229,386.7198224000167,387.22038710000925,386.7198224000167,387.22038710000925,386.7198224000167,387.22038710000925,386.7198224000167,387.22038710000925,386.7198224000167,387.22038710000925,386.7198224000167,387.22038710000925,386.7198224000167,387.22038710000925,386.7198224000167,387.22038710000925,386.2023717999691,None,387.22038710000925,389.1906699000392,0.5400000000000003,389.2070019999519,None,389.95844560000114,None,,,,,,,[[1.96]],3.640000000000003,0.7205882352941176,11020,002,2024_Jan_05_1334,MFTM_A_new1021,2021.2.3,59.98854217103576,
,,,,,,,,stim/Instruction_adaptive.png,conditions/adaptive.xlsx,test,0.6,0.6,0.6,-0.6,-0.6,right,R,,,,,0,1,1,1,0,68,68,88,,,,,,,,,,,,,,,,,,,,,,,,,,,,,,,,,,,,,,,,,,,,390.45870529999956,None,right,1,0.6956840999191627,390.95928980002645,391.9941968000494,390.95928980002645,391.4941918000113,390.95928980002645,391.4941918000113,390.95928980002645,391.4941918000113,390.95928980002645,391.4941918000113,390.95928980002645,391.4941918000113,391.4778324000072,391.9782123999903,391.4778324000072,391.9782123999903,391.4778324000072,391.9782123999903,391.4778324000072,391.9782123999903,391.4778324000072,391.9782123999903,391.4778324000072,391.9782123999903,391.4778324000072,391.9782123999903,391.4778324000072,391.9782123999903,390.95928980002645,None,391.9782123999903,393.9478458999656,0.5300000000000002,393.96388070005924,None,394.71595930005424,None,,,,,,,[1.96043478],3.6700000000000026,0.7246376811594203,11020,002,2024_Jan_05_1334,MFTM_A_new1021,2021.2.3,59.98854217103576,
,,,,,,,,stim/Instruction_adaptive.png,conditions/adaptive.xlsx,test,0.6,0.6,0.6,-0.6,-0.6,right,R,,,,,0,1,1,1,0,69,69,74,,,,,,,,,,,,,,,,,,,,,,,,,,,,,,,,,,,,,,,,,,,,395.21624460001476,None,right,1,0.9304455000674352,395.71636419999413,396.75210459996015,395.71636419999413,396.25133260001894,395.71636419999413,396.25133260001894,395.71636419999413,396.25133260001894,395.71636419999413,396.25133260001894,395.71636419999413,396.25133260001894,396.21788989997003,396.7181030999636,396.21788989997003,396.7181030999636,396.21788989997003,396.7181030999636,396.21788989997003,396.7181030999636,396.21788989997003,396.7181030999636,396.21788989997003,396.7181030999636,396.21788989997003,396.7181030999636,396.21788989997003,396.7181030999636,395.71636419999413,None,396.7181030999636,398.6876604000572,0.5200000000000002,398.7050909999525,None,399.4559695000062,None,,,,,,,[1.96071429],3.700000000000003,0.7285714285714285,11020,002,2024_Jan_05_1334,MFTM_A_new1021,2021.2.3,59.98854217103576,
,,,,,,,,stim/Instruction_adaptive.png,conditions/adaptive.xlsx,test,0.6,0.6,0.6,-0.6,-0.6,right,R,,,,,0,1,1,1,0,70,70,86,,,,,,,,,,,,,,,,,,,,,,,,,,,,,,,,,,,,,,,,,,,,399.9561942999717,None,right,1,0.7259927000850439,400.45677910000086,401.47588809998706,400.45677910000086,400.9741096999496,400.45677910000086,400.9741096999496,400.45677910000086,400.9741096999496,400.45677910000086,400.9741096999496,400.45677910000086,400.9741096999496,400.95761609997135,401.4583938999567,400.95761609997135,401.4583938999567,400.95761609997135,401.4583938999567,400.95761609997135,401.4583938999567,400.95761609997135,401.4583938999567,400.95761609997135,401.4583938999567,400.95761609997135,401.4583938999567,400.95761609997135,401.4583938999567,400.45677910000086,None,401.4583938999567,None,0.5100000000000002,403.427760999999,None,404.1793047999963,None,,,,,,,[1.96112676],3.730000000000003,0.7323943661971831,11020,002,2024_Jan_05_1334,MFTM_A_new1021,2021.2.3,59.98854217103576,
,,,,,,,,stim/Instruction_adaptive.png,conditions/adaptive.xlsx,test,0.6,0.6,0.6,-0.6,-0.6,right,R,,,,,0,1,1,1,0,71,71,76,,,,,,,,,,,,,,,,,,,,,,,,,,,,,,,,,,,,,,,,,,,,404.6808615999762,None,right,1,0.5382129999343306,405.180445099948,406.1827104999684,405.180445099948,405.6816779000219,405.180445099948,405.6816779000219,405.180445099948,405.6816779000219,405.180445099948,405.6816779000219,405.180445099948,405.6816779000219,405.66459559998475,406.16602839995176,405.66459559998475,406.16602839995176,405.66459559998475,406.16602839995176,405.66459559998475,406.16602839995176,405.66459559998475,406.16602839995176,405.66459559998475,406.16602839995176,405.66459559998475,406.16602839995176,405.66459559998475,406.16602839995176,405.180445099948,None,406.16602839995176,408.1359532000497,0.5000000000000002,408.15178039995953,None,408.9027031000005,None,,,,,,,[1.96166667],3.760000000000003,0.7361111111111112,11020,002,2024_Jan_05_1334,MFTM_A_new1021,2021.2.3,59.98854217103576,
,,,,,,,,stim/Instruction_adaptive.png,conditions/adaptive.xlsx,test,0.6,0.6,0.6,-0.6,-0.6,right,R,,,,,0,1,1,1,0,72,72,54,,,,,,,,,,,,,,,,,,,,,,,,,,,,,,,,,,,,,,,,,,,,409.40335290005896,None,right,1,0.47834979998879135,409.904535699985,410.9056557000149,409.904535699985,410.40523230005056,409.904535699985,410.40523230005056,409.904535699985,410.40523230005056,409.904535699985,410.40523230005056,409.904535699985,410.40523230005056,410.3714321999578,410.8730230999645,410.3714321999578,410.8730230999645,410.3714321999578,410.8730230999645,410.3714321999578,410.8730230999645,410.3714321999578,410.8730230999645,410.3714321999578,410.8730230999645,410.3714321999578,410.8730230999645,410.3714321999578,410.8730230999645,409.904535699985,None,410.8730230999645,412.8424100000411,0.4900000000000002,412.8586946000578,None,413.6097373999655,None,,,,,,,[1.96232877],3.7900000000000027,0.7397260273972602,11020,002,2024_Jan_05_1334,MFTM_A_new1021,2021.2.3,59.98854217103576,
,,,,,,,,stim/Instruction_adaptive.png,conditions/adaptive.xlsx,test,0.6,0.6,0.6,-0.6,-0.6,right,R,,,,,0,1,1,1,0,73,73,50,,,,,,,,,,,,,,,,,,,,,,,,,,,,,,,,,,,,,,,,,,,,414.11098780005705,None,right,1,1.0196721999673173,414.6112106000073,415.59636720002163,414.6112106000073,415.0957880000351,414.6112106000073,415.0957880000351,414.6112106000073,415.0957880000351,414.6112106000073,415.0957880000351,414.6112106000073,415.0957880000351,415.0788118999917,415.5792776000453,415.0788118999917,415.5792776000453,415.0788118999917,415.5792776000453,415.0788118999917,415.5792776000453,415.0788118999917,415.5792776000453,415.0788118999917,415.5792776000453,415.0788118999917,415.5792776000453,415.0788118999917,415.5792776000453,414.6112106000073,None,415.5792776000453,417.5495602999581,0.4800000000000002,417.56601880001836,None,418.31668140005786,None,,,,,,,[1.96310811],3.820000000000003,0.7432432432432432,11020,002,2024_Jan_05_1334,MFTM_A_new1021,2021.2.3,59.98854217103576,
,,,,,,,,stim/Instruction_adaptive.png,conditions/adaptive.xlsx,test,0.6,0.6,0.6,-0.6,-0.6,right,R,,,,,0,1,1,1,0,74,74,92,,,,,,,,,,,,,,,,,,,,,,,,,,,,,,,,,,,,,,,,,,,,418.8184520000359,None,right,1,0.7438740000361577,419.31888519995846,420.3035087999888,419.31888519995846,419.80210630001966,419.31888519995846,419.80210630001966,419.31888519995846,419.80210630001966,419.31888519995846,419.80210630001966,419.31888519995846,419.80210630001966,419.7688624999719,420.2694416999584,419.7688624999719,420.2694416999584,419.7688624999719,420.2694416999584,419.7688624999719,420.2694416999584,419.7688624999719,420.2694416999584,419.7688624999719,420.2694416999584,419.7688624999719,420.2694416999584,419.7688624999719,420.2694416999584,419.31888519995846,None,420.2694416999584,422.2393337000394,0.4700000000000002,422.2556643000571,None,423.0080717999954,None,,,,,,,[1.964],3.840000000000003,0.7466666666666667,11020,002,2024_Jan_05_1334,MFTM_A_new1021,2021.2.3,59.98854217103576,
,,,,,,,,stim/Instruction_adaptive.png,conditions/adaptive.xlsx,test,-0.6,-0.6,-0.6,0.6,0.6,left,L,,,,,0,1,1,1,0,75,75,39,,,,,,,,,,,,,,,,,,,,,,,,,,,,,,,,,,,,,,,,,,,,423.5077291999478,None,left,1,0.5830967999063432,424.00844700005837,424.9765390000539,424.00844700005837,424.4771546999691,424.00844700005837,424.4771546999691,424.00844700005837,424.4771546999691,424.00844700005837,424.4771546999691,424.00844700005837,424.4771546999691,424.4425138999941,424.9433102000039,424.4425138999941,424.9433102000039,424.4425138999941,424.9433102000039,424.4425138999941,424.9433102000039,424.4425138999941,424.9433102000039,424.4425138999941,424.9433102000039,424.4425138999941,424.9433102000039,424.4425138999941,424.9433102000039,424.00844700005837,None,424.9433102000039,426.91270740004256,0.4600000000000002,426.94618740002625,None,427.6977701999713,None,,,,,,,[1.965],3.8700000000000028,0.75,11020,002,2024_Jan_05_1334,MFTM_A_new1021,2021.2.3,59.98854217103576,
,,,,,,,,stim/Instruction_adaptive.png,conditions/adaptive.xlsx,test,-0.6,-0.6,-0.6,0.6,0.6,left,L,,,,,0,1,1,1,0,76,76,77,,,,,,,,,,,,,,,,,,,,,,,,,,,,,,,,,,,,,,,,,,,,428.1979021000443,None,right,0,1.2850606000283733,428.69866620004177,429.6501444999594,428.69866620004177,429.1493775000563,428.69866620004177,429.1493775000563,428.69866620004177,429.1493775000563,428.69866620004177,429.1493775000563,428.69866620004177,429.1493775000563,429.1329409000464,429.6341758000199,429.1329409000464,429.6341758000199,429.1329409000464,429.6341758000199,429.1329409000464,429.6341758000199,429.1329409000464,429.6341758000199,429.1329409000464,429.6341758000199,429.1329409000464,429.6341758000199,429.1329409000464,429.6341758000199,428.69866620004177,None,429.6341758000199,431.6029009000631,0.4500000000000002,431.62057669996284,None,432.3715555999661,None,,,,,,,[1.9661039],3.7900000000000027,0.7402597402597403,11020,002,2024_Jan_05_1334,MFTM_A_new1021,2021.2.3,59.98854217103576,
,,,,,,,,stim/Instruction_adaptive.png,conditions/adaptive.xlsx,test,0.6,0.6,0.6,-0.6,-0.6,right,R,,,,,0,1,1,1,0,77,77,58,,,,,,,,,,,,,,,,,,,,,,,,,,,,,,,,,,,,,,,,,,,,432.8724348000251,None,right,1,2.2027647000504658,433.3724286999786,434.3570945999818,433.3724286999786,433.8574530000333,433.3724286999786,433.8574530000333,433.3724286999786,433.8574530000333,433.3724286999786,433.8574530000333,433.3724286999786,433.8574530000333,433.83950060000643,434.3410547999665,433.83950060000643,434.3410547999665,433.83950060000643,434.3410547999665,433.83950060000643,434.3410547999665,433.83950060000643,434.3410547999665,433.83950060000643,434.3410547999665,433.83950060000643,434.3410547999665,433.83950060000643,434.3410547999665,433.3724286999786,None,434.3410547999665,436.3099793000147,0.4800000000000002,436.3272370999912,None,437.07851140003186,None,,,,,,,[1.96679487],3.820000000000003,0.7435897435897436,11020,002,2024_Jan_05_1334,MFTM_A_new1021,2021.2.3,59.98854217103576,
,,,,,,,,stim/Instruction_adaptive.png,conditions/adaptive.xlsx,test,0.6,0.6,0.6,-0.6,-0.6,right,R,,,,,0,1,1,1,0,78,78,24,,,,,,,,,,,,,,,,,,,,,,,,,,,,,,,,,,,,,,,,,,,,437.5785339999711,None,right,1,1.2871246999129653,438.07993080001324,439.06441890005954,438.07993080001324,438.56367289996706,438.07993080001324,438.56367289996706,438.07993080001324,438.56367289996706,438.07993080001324,438.56367289996706,438.07993080001324,438.56367289996706,438.53000210004393,439.03101539995987,438.53000210004393,439.03101539995987,438.53000210004393,439.03101539995987,438.53000210004393,439.03101539995987,438.53000210004393,439.03101539995987,438.53000210004393,439.03101539995987,438.53000210004393,439.03101539995987,438.53000210004393,439.03101539995987,438.07993080001324,None,439.03101539995987,441.0012948999647,0.4700000000000002,441.01770740002394,None,441.769673599978,None,,,,,,,[1.96759494],3.840000000000003,0.7468354430379747,11020,002,2024_Jan_05_1334,MFTM_A_new1021,2021.2.3,59.98854217103576,
,,,,,,,,stim/Instruction_adaptive.png,conditions/adaptive.xlsx,test,0.6,0.6,0.6,-0.6,-0.6,right,R,,,,,0,1,1,1,0,79,79,70,,,,,,,,,,,,,,,,,,,,,,,,,,,,,,,,,,,,,,,,,,,,442.2685787000228,None,right,1,0.5820478999521583,442.76958680001553,443.73847310000565,442.76958680001553,443.23744409997016,442.76958680001553,443.23744409997016,442.76958680001553,443.23744409997016,442.76958680001553,443.23744409997016,442.76958680001553,443.23744409997016,443.22024950000923,443.72157980001066,443.22024950000923,443.72157980001066,443.22024950000923,443.72157980001066,443.22024950000923,443.72157980001066,443.22024950000923,443.72157980001066,443.22024950000923,443.72157980001066,443.22024950000923,443.72157980001066,443.22024950000923,443.72157980001066,442.76958680001553,None,443.72157980001066,445.6923459999962,0.4600000000000002,445.70713900006376,None,446.4588472000323,None,,,,,,,[1.9685],3.8700000000000028,0.75,11020,002,2024_Jan_05_1334,MFTM_A_new1021,2021.2.3,59.98854217103576,
,,,,,,,,stim/Instruction_adaptive.png,conditions/adaptive.xlsx,test,0.6,0.6,0.6,-0.6,-0.6,right,R,,,,,0,1,1,1,0,80,80,60,,,,,,,,,,,,,,,,,,,,,,,,,,,,,,,,,,,,,,,,,,,,446.9591223000316,None,right,1,1.2195697999559343,447.4600741000613,448.41170000005513,447.4600741000613,447.9105506000342,447.4600741000613,447.9105506000342,447.4600741000613,447.9105506000342,447.4600741000613,447.9105506000342,447.4600741000613,447.9105506000342,447.8951034999918,448.3951894999482,447.8951034999918,448.3951894999482,447.8951034999918,448.3951894999482,447.8951034999918,448.3951894999482,447.8951034999918,448.3951894999482,447.8951034999918,448.3951894999482,447.8951034999918,448.3951894999482,447.8951034999918,448.3951894999482,447.4600741000613,None,448.3951894999482,450.3642606999492,0.4500000000000002,450.3812720000278,None,451.13189650001004,None,,,,,,,[1.96950617],3.8900000000000032,0.7530864197530864,11020,002,2024_Jan_05_1334,MFTM_A_new1021,2021.2.3,59.98854217103576,
,,,,,,,,stim/Instruction_adaptive.png,conditions/adaptive.xlsx,test,-0.6,-0.6,-0.6,0.6,0.6,left,L,,,,,0,1,1,1,0,81,81,71,,,,,,,,,,,,,,,,,,,,,,,,,,,,,,,,,,,,,,,,,,,,451.63358130003326,None,left,1,1.0661924999440089,452.1332945000613,453.0846151000587,452.1332945000613,452.5847749999957,452.1332945000613,452.5847749999957,452.1332945000613,452.5847749999957,452.1332945000613,452.5847749999957,452.1332945000613,452.5847749999957,452.55098579998594,453.0514422999695,452.55098579998594,453.0514422999695,452.55098579998594,453.0514422999695,452.55098579998594,453.0514422999695,452.55098579998594,453.0514422999695,452.55098579998594,453.0514422999695,452.55098579998594,453.0514422999695,452.55098579998594,453.0514422999695,452.1332945000613,None,453.0514422999695,455.02160430001095,0.44000000000000017,455.05449070001487,None,455.80631969997194,None,,,,,,,[1.97060976],3.920000000000003,0.7560975609756098,11020,002,2024_Jan_05_1334,MFTM_A_new1021,2021.2.3,59.98854217103576,
,,,,,,,,stim/Instruction_adaptive.png,conditions/adaptive.xlsx,test,-0.6,-0.6,-0.6,0.6,0.6,left,L,,,,,0,1,1,1,0,82,82,75,,,,,,,,,,,,,,,,,,,,,,,,,,,,,,,,,,,,,,,,,,,,456.30635460000485,None,left,1,0.6556951000820845,456.80728079995606,457.7417777000228,456.80728079995606,457.2417198000476,456.80728079995606,457.2417198000476,456.80728079995606,457.2417198000476,456.80728079995606,457.2417198000476,456.80728079995606,457.2417198000476,457.2243678000523,457.72516060003545,457.2243678000523,457.72516060003545,457.2243678000523,457.72516060003545,457.2243678000523,457.72516060003545,457.2243678000523,457.72516060003545,457.2243678000523,457.72516060003545,457.2243678000523,457.72516060003545,457.2243678000523,457.72516060003545,456.80728079995606,None,457.72516060003545,None,0.43000000000000016,459.71054180001374,None,460.46237490000203,None,,,,,,,[1.97180723],3.940000000000003,0.7590361445783133,11020,002,2024_Jan_05_1334,MFTM_A_new1021,2021.2.3,59.98854217103576,
,,,,,,,,stim/Instruction_adaptive.png,conditions/adaptive.xlsx,test,0.6,0.6,0.6,-0.6,-0.6,right,R,,,,,0,1,1,1,0,83,83,10,,,,,,,,,,,,,,,,,,,,,,,,,,,,,,,,,,,,,,,,,,,,460.9632013000082,None,left,0,0.9428715000394732,461.46393570001237,462.39884020003956,461.46393570001237,461.89778869994916,461.46393570001237,461.89778869994916,461.46393570001237,461.89778869994916,461.46393570001237,461.89778869994916,461.46393570001237,461.89778869994916,461.8812258000253,462.38259120006114,461.8812258000253,462.38259120006114,461.8812258000253,462.38259120006114,461.8812258000253,462.38259120006114,461.8812258000253,462.38259120006114,461.8812258000253,462.38259120006114,461.8812258000253,462.38259120006114,461.8812258000253,462.38259120006114,461.46393570001237,None,462.38259120006114,None,0.43000000000000016,464.3681346999947,None,465.11992830003146,None,,,,,,,[1.97297619],3.8700000000000028,0.75,11020,002,2024_Jan_05_1334,MFTM_A_new1021,2021.2.3,59.98854217103576,
,,,,,,,,stim/Instruction_adaptive.png,conditions/adaptive.xlsx,test,-0.6,-0.6,-0.6,0.6,0.6,left,L,,,,,0,1,1,1,0,84,84,79,,,,,,,,,,,,,,,,,,,,,,,,,,,,,,,,,,,,,,,,,,,,465.620176800061,None,left,1,1.3508131999988109,466.1208268000046,467.0735549000092,466.1208268000046,466.57158430002164,466.1208268000046,466.57158430002164,466.1208268000046,466.57158430002164,466.1208268000046,466.57158430002164,466.1208268000046,466.57158430002164,466.55478340003174,467.0557049999479,466.55478340003174,467.0557049999479,466.55478340003174,467.0557049999479,466.55478340003174,467.0557049999479,466.55478340003174,467.0557049999479,466.55478340003174,467.0557049999479,466.55478340003174,467.0557049999479,466.55478340003174,467.0557049999479,466.1208268000046,None,467.0557049999479,469.0419525000034,0.4500000000000002,469.0584578999551,None,469.81041220005136,None,,,,,,,[1.97388235],3.8900000000000032,0.7529411764705882,11020,002,2024_Jan_05_1334,MFTM_A_new1021,2021.2.3,59.98854217103576,
,,,,,,,,stim/Instruction_adaptive.png,conditions/adaptive.xlsx,test,-0.6,-0.6,-0.6,0.6,0.6,left,L,,,,,0,1,1,1,0,85,85,17,,,,,,,,,,,,,,,,,,,,,,,,,,,,,,,,,,,,,,,,,,,,470.31100830005016,None,left,1,1.0843990999273956,470.8110654000193,471.76257500005886,470.8110654000193,471.26246969995555,470.8110654000193,471.26246969995555,470.8110654000193,471.26246969995555,470.8110654000193,471.26246969995555,470.8110654000193,471.26246969995555,471.22818099998403,471.7291852000635,471.22818099998403,471.7291852000635,471.22818099998403,471.7291852000635,471.22818099998403,471.7291852000635,471.22818099998403,471.7291852000635,471.22818099998403,471.7291852000635,471.22818099998403,471.7291852000635,471.22818099998403,471.7291852000635,470.8110654000193,None,471.7291852000635,473.7158489000285,0.44000000000000017,473.73207010002807,None,474.4837699000491,None,,,,,,,[1.97488372],3.920000000000003,0.7558139534883721,11020,002,2024_Jan_05_1334,MFTM_A_new1021,2021.2.3,59.98854217103576,
,,,,,,,,stim/Instruction_adaptive.png,conditions/adaptive.xlsx,test,-0.6,-0.6,-0.6,0.6,0.6,left,L,,,,,0,1,1,1,0,86,86,37,,,,,,,,,,,,,,,,,,,,,,,,,,,,,,,,,,,,,,,,,,,,474.9841584999813,None,left,1,1.0171515999827534,475.48587309999857,476.42060109996237,475.48587309999857,475.91908889997285,475.48587309999857,475.91908889997285,475.48587309999857,475.91908889997285,475.48587309999857,475.91908889997285,475.48587309999857,475.91908889997285,475.90186340000946,476.4026208999567,475.90186340000946,476.4026208999567,475.90186340000946,476.4026208999567,475.90186340000946,476.4026208999567,475.90186340000946,476.4026208999567,475.90186340000946,476.4026208999567,475.90186340000946,476.4026208999567,475.90186340000946,476.4026208999567,475.48587309999857,None,476.4026208999567,478.389275399968,0.43000000000000016,478.4055769999977,None,479.1567943999544,None,,,,,,,[1.97597701],3.940000000000003,0.7586206896551724,11020,002,2024_Jan_05_1334,MFTM_A_new1021,2021.2.3,59.98854217103576,
,,,,,,,,stim/Instruction_adaptive.png,conditions/adaptive.xlsx,test,-0.6,-0.6,-0.6,0.6,0.6,left,L,,,,,0,1,1,1,0,87,87,33,,,,,,,,,,,,,,,,,,,,,,,,,,,,,,,,,,,,,,,,,,,,479.65947980002966,None,left,1,1.0245694000041112,480.1588231000351,481.0938205999555,480.1588231000351,480.592968699988,480.1588231000351,480.592968699988,480.1588231000351,480.592968699988,480.1588231000351,480.592968699988,480.1588231000351,480.592968699988,480.57632880005985,481.0772127000382,480.57632880005985,481.0772127000382,480.57632880005985,481.0772127000382,480.57632880005985,481.0772127000382,480.57632880005985,481.0772127000382,480.57632880005985,481.0772127000382,480.57632880005985,481.0772127000382,480.57632880005985,481.0772127000382,480.1588231000351,None,481.0772127000382,483.0650854000123,0.43000000000000016,483.0797006000066,None,483.831221899949,None,,,,,,,[1.97704545],3.960000000000003,0.7613636363636364,11020,002,2024_Jan_05_1334,MFTM_A_new1021,2021.2.3,59.98854217103576,
,,,,,,,,stim/Instruction_adaptive.png,conditions/adaptive.xlsx,test,0.6,0.6,0.6,-0.6,-0.6,right,R,,,,,0,1,1,1,0,88,88,0,,,,,,,,,,,,,,,,,,,,,,,,,,,,,,,,,,,,,,,,,,,,484.33152710006107,None,right,1,0.7672468998935074,484.83174779999536,485.766668700031,484.83174779999536,485.26622620003764,484.83174779999536,485.26622620003764,484.83174779999536,485.26622620003764,484.83174779999536,485.26622620003764,484.83174779999536,485.26622620003764,485.23252139997203,485.7330748999957,485.23252139997203,485.7330748999957,485.23252139997203,485.7330748999957,485.23252139997203,485.7330748999957,485.23252139997203,485.7330748999957,485.23252139997203,485.7330748999957,485.23252139997203,485.7330748999957,485.23252139997203,485.7330748999957,484.83174779999536,None,485.7330748999957,487.7211202000035,0.42000000000000015,487.73597709997557,None,488.4883771999739,None,,,,,,,[1.97820225],3.980000000000003,0.7640449438202247,11020,002,2024_Jan_05_1334,MFTM_A_new1021,2021.2.3,59.98854217103576,
,,,,,,,,stim/Instruction_adaptive.png,conditions/adaptive.xlsx,test,0.6,0.6,0.6,-0.6,-0.6,right,R,,,,,0,1,1,1,0,89,89,62,,,,,,,,,,,,,,,,,,,,,,,,,,,,,,,,,,,,,,,,,,,,488.98805010004435,None,right,1,0.9573745999950916,489.4894930999726,490.42352109996136,489.4894930999726,489.92277029994875,489.4894930999726,489.92277029994875,489.4894930999726,489.92277029994875,489.4894930999726,489.92277029994875,489.4894930999726,489.92277029994875,489.889144100016,490.39050560002215,489.889144100016,490.39050560002215,489.889144100016,490.39050560002215,489.889144100016,490.39050560002215,489.889144100016,490.39050560002215,489.889144100016,490.39050560002215,489.889144100016,490.39050560002215,489.889144100016,490.39050560002215,489.4894930999726,None,490.39050560002215,492.37747089995537,0.42000000000000015,492.39292829995975,None,493.1445150000509,None,,,,,,,[1.97933333],4.0000000000000036,0.7666666666666667,11020,002,2024_Jan_05_1334,MFTM_A_new1021,2021.2.3,59.98854217103576,
,,,,,,,,stim/Instruction_adaptive.png,conditions/adaptive.xlsx,test,-0.6,-0.6,-0.6,0.6,0.6,left,L,,,,,0,1,1,1,0,90,90,49,,,,,,,,,,,,,,,,,,,,,,,,,,,,,,,,,,,,,,,,,,,,493.6448263999773,None,left,1,1.5416154999984428,494.1456410000101,495.064255699981,494.1456410000101,494.56314230000135,494.1456410000101,494.56314230000135,494.1456410000101,494.56314230000135,494.1456410000101,494.56314230000135,494.1456410000101,494.56314230000135,494.546248300001,495.0470555999782,494.546248300001,495.0470555999782,494.546248300001,495.0470555999782,494.546248300001,495.0470555999782,494.546248300001,495.0470555999782,494.546248300001,495.0470555999782,494.546248300001,495.0470555999782,494.546248300001,495.0470555999782,494.1456410000101,None,495.0470555999782,497.03371400001924,0.41000000000000014,497.05072439997457,None,497.8018241999671,None,,,,,,,[1.98054945],4.020000000000003,0.7692307692307693,11020,002,2024_Jan_05_1334,MFTM_A_new1021,2021.2.3,59.98854217103576,
,,,,,,,,stim/Instruction_adaptive.png,conditions/adaptive.xlsx,test,-0.6,-0.6,-0.6,0.6,0.6,left,L,,,,,0,1,1,1,0,91,91,61,,,,,,,,,,,,,,,,,,,,,,,,,,,,,,,,,,,,,,,,,,,,498.30183620005846,None,left,1,1.8760905000381172,498.8027868999634,499.72056819999125,498.8027868999634,499.22043760004453,498.8027868999634,499.22043760004453,498.8027868999634,499.22043760004453,498.8027868999634,499.22043760004453,498.8027868999634,499.22043760004453,499.18657240003813,499.6878318999661,499.18657240003813,499.6878318999661,499.18657240003813,499.6878318999661,499.18657240003813,499.6878318999661,499.18657240003813,499.6878318999661,499.18657240003813,499.6878318999661,499.18657240003813,499.6878318999661,499.18657240003813,499.6878318999661,498.8027868999634,None,499.6878318999661,501.67411000002176,0.41000000000000014,501.7068748000311,None,502.4581441000337,None,,,,,,,[1.98173913],4.040000000000003,0.7717391304347826,11020,002,2024_Jan_05_1334,MFTM_A_new1021,2021.2.3,59.98854217103576,
,,,,,,,,stim/Instruction_adaptive.png,conditions/adaptive.xlsx,test,-0.6,-0.6,-0.6,0.6,0.6,left,L,,,,,0,1,1,1,0,92,92,13,,,,,,,,,,,,,,,,,,,,,,,,,,,,,,,,,,,,,,,,,,,,502.95858450001106,None,left,1,2.1626939999405295,503.4603550999891,504.3615705999546,503.4603550999891,503.86072959995363,503.4603550999891,503.86072959995363,503.4603550999891,503.86072959995363,503.4603550999891,503.86072959995363,503.4603550999891,503.86072959995363,503.8434738999931,504.3449051999487,503.8434738999931,504.3449051999487,503.8434738999931,504.3449051999487,503.8434738999931,504.3449051999487,503.8434738999931,504.3449051999487,503.8434738999931,504.3449051999487,503.8434738999931,504.3449051999487,503.8434738999931,504.3449051999487,503.4603550999891,None,504.3449051999487,506.33111140003894,0.40000000000000013,506.3470852000173,None,507.0987841000315,None,,,,,,,[1.98301075],4.060000000000003,0.7741935483870968,11020,002,2024_Jan_05_1334,MFTM_A_new1021,2021.2.3,59.98854217103576,
