arrwidth1,arrwidth2,arrwidth3,arrwidth4,arrwidth5,keyb,type,orientation,instruction_image,block_filename,block_type,arrow11,arrow22,arrow33,arrow44,arrow55,keyb_3,orientation3,trials.thisRepN,trials.thisTrialN,trials.thisN,trials.thisIndex,trials_3.thisRepN,trials_3.thisTrialN,trials_3.thisN,trials_3.thisIndex,trials_2.thisRepN,trials_2.thisTrialN,trials_2.thisN,trials_2.thisIndex,welcome.started,welcome.stopped,key_resp.keys,key_resp.rt,key_resp.started,key_resp.stopped,instruction_example.started,instruction_example.stopped,key_resp_3.keys,key_resp_3.rt,key_resp_3.started,key_resp_3.stopped,instruction_task.started,instruction_task.stopped,key_resp_2.keys,key_resp_2.rt,key_resp_2.started,key_resp_2.stopped,text_2.started,text_2.stopped,A1.started,A1.stopped,A2.started,A2.stopped,A3.started,A3.stopped,A4.started,A4.stopped,A5.started,A5.stopped,key_resp_4.keys,key_resp_4.corr,key_resp_4.rt,key_resp_4.started,key_resp_4.stopped,fb.started,fb.stopped,instruction_block.started,instruction_block.stopped,key_resp_8.keys,key_resp_8.rt,key_resp_8.started,key_resp_8.stopped,text_8.started,text_8.stopped,key_resp_9.keys,key_resp_9.corr,key_resp_9.rt,text_5.started,text_5.stopped,A11_3.started,A11_3.stopped,A22_2.started,A22_2.stopped,A33_2.started,A33_2.stopped,A44_2.started,A44_2.stopped,A55_2.started,A55_2.stopped,M1_3.started,M1_3.stopped,M2_2.started,M2_2.stopped,M3_2.started,M3_2.stopped,M4_2.started,M4_2.stopped,M5_2.started,M5_2.stopped,M6_2.started,M6_2.stopped,M7_2.started,M7_2.stopped,M8_2.started,M8_2.stopped,key_resp_9.started,key_resp_9.stopped,fixation.started,fixation.stopped,ET,fb_3.started,fb_3.stopped,text_9.started,text_9.stopped,fb_4.started,fb_4.stopped,text_7.started,text_7.stopped,endtext.started,endtext.stopped,fixation_ITI,CCC,Acc,participant,session,date,expName,psychopyVersion,frameRate,
,,,,,,,,,,,,,,,,,,,,,,,,,,,,,,14.334117399994284,None,space,1.2580937000457197,14.334117399994284,None,,,,,,,,,,,,,,,,,,,,,,,,,,,,,,,,,,,,,,,,,,,,,,,,,,,,,,,,,,,,,,,,,,,,,,,,,,,,,,,,,,,,,,,,,11023,002,2024_Jan_07_1304,MFTM_A_new1021,2021.2.3,59.67822693139835,
,,,,,,,,,,,,,,,,,,,,,,,,,,,,,,,,,,,,15.619780399953015,None,space,7.220443299971521,15.619780399953015,None,,,,,,,,,,,,,,,,,,,,,,,,,,,,,,,,,,,,,,,,,,,,,,,,,,,,,,,,,,,,,,,,,,,,,,,,,,,,,,,,,,,11023,002,2024_Jan_07_1304,MFTM_A_new1021,2021.2.3,59.67822693139835,
,,,,,,,,,,,,,,,,,,,,,,,,,,,,,,,,,,,,,,,,,,22.863212500000373,None,space,1.9850033998955041,22.863212500000373,None,,,,,,,,,,,,,,,,,,,,,,,,,,,,,,,,,,,,,,,,,,,,,,,,,,,,,,,,,,,,,,,,,,,,,,,,,,,,,11023,002,2024_Jan_07_1304,MFTM_A_new1021,2021.2.3,59.67822693139835,
0.6,0.6,0.6,-0.6,-0.6,right,3:2,R,,,,,,,,,,,0,0,0,0,,,,,,,,,,,,,,,,,,,,,,,,,,,24.882938600028865,None,24.882938600028865,None,24.882938600028865,None,24.882938600028865,None,24.882938600028865,None,24.882938600028865,None,right,1,1.941530799958855,24.882938600028865,None,26.86932539998088,None,,,,,,,,,,,,,,,,,,,,,,,,,,,,,,,,,,,,,,,,,,,,,,,,,,,,,,,,,,11023,002,2024_Jan_07_1304,MFTM_A_new1021,2021.2.3,59.67822693139835,
-0.6,-0.6,-0.6,0.6,0.6,left,3:2,L,,,,,,,,,,,0,1,1,1,,,,,,,,,,,,,,,,,,,,,,,,,,,27.620249600033276,None,27.620249600033276,None,27.620249600033276,None,27.620249600033276,None,27.620249600033276,None,27.620249600033276,None,left,1,7.5561575999017805,27.620249600033276,None,35.198327200021595,None,,,,,,,,,,,,,,,,,,,,,,,,,,,,,,,,,,,,,,,,,,,,,,,,,,,,,,,,,,11023,002,2024_Jan_07_1304,MFTM_A_new1021,2021.2.3,59.67822693139835,
-0.6,-0.6,-0.6,0.6,0.6,left,3:2,L,,,,,,,,,,,1,0,2,1,,,,,,,,,,,,,,,,,,,,,,,,,,,35.949568600044586,None,35.949568600044586,None,35.949568600044586,None,35.949568600044586,None,35.949568600044586,None,35.949568600044586,None,left,1,2.210685500060208,35.949568600044586,None,38.186083400039934,None,,,,,,,,,,,,,,,,,,,,,,,,,,,,,,,,,,,,,,,,,,,,,,,,,,,,,,,,,,11023,002,2024_Jan_07_1304,MFTM_A_new1021,2021.2.3,59.67822693139835,
0.6,0.6,0.6,-0.6,-0.6,right,3:2,R,,,,,,,,,,,1,1,3,0,,,,,,,,,,,,,,,,,,,,,,,,,,,38.93721090001054,None,38.93721090001054,None,38.93721090001054,None,38.93721090001054,None,38.93721090001054,None,38.93721090001054,None,right,1,1.2635290999896824,38.93721090001054,None,40.22247249993961,None,,,,,,,,,,,,,,,,,,,,,,,,,,,,,,,,,,,,,,,,,,,,,,,,,,,,,,,,,,11023,002,2024_Jan_07_1304,MFTM_A_new1021,2021.2.3,59.67822693139835,
,,,,,,,,stim/Instruction_mask.png,conditions/adaptive.xlsx,practice,0.6,0.6,0.6,-0.6,-0.6,right,R,,,,,0,0,0,0,0,0,0,22,,,,,,,,,,,,,,,,,,,,,,,,,,,,,,,,,,,,,,41.20636750000995,None,space,2.441928399959579,41.20636750000995,None,43.76099850004539,None,right,1,1.1172500000102445,44.195042700041085,None,44.195042700041085,47.19931309996173,44.195042700041085,47.19931309996173,44.195042700041085,47.19931309996173,44.195042700041085,47.19931309996173,44.195042700041085,47.19931309996173,47.18278419994749,47.68369770003483,47.18278419994749,47.68369770003483,47.18278419994749,47.68369770003483,47.18278419994749,47.68369770003483,47.18278419994749,47.68369770003483,47.18278419994749,47.68369770003483,47.18278419994749,47.68369770003483,47.18278419994749,47.68369770003483,44.195042700041085,None,47.68369770003483,47.68369770003483,3,47.70067429996561,None,48.451198900002055,None,,,,,,,,,,11023,002,2024_Jan_07_1304,MFTM_A_new1021,2021.2.3,59.67822693139835,
,,,,,,,,stim/Instruction_mask.png,conditions/adaptive.xlsx,practice,0.6,0.6,0.6,-0.6,-0.6,right,R,,,,,0,0,0,0,0,1,1,12,,,,,,,,,,,,,,,,,,,,,,,,,,,,,,,,,,,,,,,,,,,,48.95187420002185,None,left,0,2.01181739999447,49.45264499995392,51.455652500037104,49.45264499995392,50.95501969999168,49.45264499995392,50.95501969999168,49.45264499995392,50.95501969999168,49.45264499995392,50.95501969999168,49.45264499995392,50.95501969999168,50.938306399970315,51.4390212999424,50.938306399970315,51.4390212999424,50.938306399970315,51.4390212999424,50.938306399970315,51.4390212999424,50.938306399970315,51.4390212999424,50.938306399970315,51.4390212999424,50.938306399970315,51.4390212999424,50.938306399970315,51.4390212999424,49.45264499995392,None,51.4390212999424,52.94121590000577,1.5,52.9578861000482,None,53.70907470001839,None,,,,,,,,,,11023,002,2024_Jan_07_1304,MFTM_A_new1021,2021.2.3,59.67822693139835,
,,,,,,,,stim/Instruction_mask.png,conditions/adaptive.xlsx,practice,0.6,0.6,0.6,-0.6,-0.6,right,R,,,,,0,0,0,0,0,2,2,36,,,,,,,,,,,,,,,,,,,,,,,,,,,,,,,,,,,,,,,,,,,,54.20955240004696,None,right,1,1.5858178000198677,54.710624899948016,56.01278360001743,54.710624899948016,55.511638000025414,54.710624899948016,55.511638000025414,54.710624899948016,55.511638000025414,54.710624899948016,55.511638000025414,54.710624899948016,55.511638000025414,55.49490179994609,55.99588289996609,55.49490179994609,55.99588289996609,55.49490179994609,55.99588289996609,55.49490179994609,55.99588289996609,55.49490179994609,55.99588289996609,55.49490179994609,55.99588289996609,55.49490179994609,55.99588289996609,55.49490179994609,55.99588289996609,54.710624899948016,None,55.99588289996609,58.19911099993624,0.8,58.21576339995954,None,58.966679899953306,None,,,,,,,,,,11023,002,2024_Jan_07_1304,MFTM_A_new1021,2021.2.3,59.67822693139835,
,,,,,,,,stim/Instruction_mask.png,conditions/adaptive.xlsx,practice,-0.6,-0.6,-0.6,0.6,0.6,left,L,,,,,0,0,0,0,0,3,3,43,,,,,,,,,,,,,,,,,,,,,,,,,,,,,,,,,,,,,,,,,,,,59.46799419994932,None,left,1,1.0798362999921665,59.968436599941924,60.71938559995033,59.968436599941924,60.21868000004906,59.968436599941924,60.21868000004906,59.968436599941924,60.21868000004906,59.968436599941924,60.21868000004906,59.968436599941924,60.21868000004906,60.20204859995283,60.70270449994132,60.20204859995283,60.70270449994132,60.20204859995283,60.70270449994132,60.20204859995283,60.70270449994132,60.20204859995283,60.70270449994132,60.20204859995283,60.70270449994132,60.20204859995283,60.70270449994132,60.20204859995283,60.70270449994132,59.968436599941924,None,60.70270449994132,63.45680139993783,3,63.47366819996387,None,64.2246231000172,None,,,,,,,,,,11023,002,2024_Jan_07_1304,MFTM_A_new1021,2021.2.3,59.67822693139835,
,,,,,,,,stim/Instruction_mask.png,conditions/adaptive.xlsx,practice,,,,,,,,,,,,0,0,0,0,,,,,,,,,,,,,,,,,,,,,,,,,,,,,,,,,,,,,,,,,,,,,,,,,,,,,,,,,,,,,,,,,,,,,,,,,,,,,,,,,,,,,,,,,,64.74196639994625,65.74353009997867,65.72692010004539,65.72692010004539,65.72692010004539,None,,,,11023,002,2024_Jan_07_1304,MFTM_A_new1021,2021.2.3,59.67822693139835,
,,,,,,,,stim/Instruction_adaptive.png,conditions/adaptive.xlsx,test,-0.6,-0.6,-0.6,0.6,0.6,left,L,,,,,0,1,1,1,0,0,0,69,,,,,,,,,,,,,,,,,,,,,,,,,,,,,,,,,,,,,,68.88065750000533,None,space,3.103708899929188,68.88065750000533,None,72.01888939994387,None,left,1,1.784189699916169,72.52030850003939,None,72.52030850003939,75.52490530000068,72.52030850003939,75.52490530000068,72.52030850003939,75.52490530000068,72.52030850003939,75.52490530000068,72.52030850003939,75.52490530000068,75.50792879995424,76.00882079999428,75.50792879995424,76.00882079999428,75.50792879995424,76.00882079999428,75.50792879995424,76.00882079999428,75.50792879995424,76.00882079999428,75.50792879995424,76.00882079999428,75.50792879995424,76.00882079999428,75.50792879995424,76.00882079999428,72.52030850003939,None,76.00882079999428,76.00882079999428,3,76.02691879996564,None,76.7767954999581,None,,,,,,,0,6.000000000000005,1.0,11023,002,2024_Jan_07_1304,MFTM_A_new1021,2021.2.3,59.67822693139835,
,,,,,,,,stim/Instruction_adaptive.png,conditions/adaptive.xlsx,test,0.6,0.6,0.6,-0.6,-0.6,right,R,,,,,0,1,1,1,0,1,1,68,,,,,,,,,,,,,,,,,,,,,,,,,,,,,,,,,,,,,,,,,,,,77.27714070002548,None,right,1,1.0942774000577629,77.77799109998159,78.52920039999299,77.77799109998159,78.02821659995243,77.77799109998159,78.02821659995243,77.77799109998159,78.02821659995243,77.77799109998159,78.02821659995243,77.77799109998159,78.02821659995243,78.01213439996354,78.51272020000033,78.01213439996354,78.51272020000033,78.01213439996354,78.51272020000033,78.01213439996354,78.51272020000033,78.01213439996354,78.51272020000033,78.01213439996354,78.51272020000033,78.01213439996354,78.51272020000033,78.01213439996354,78.51272020000033,77.77799109998159,None,78.51272020000033,79.39718990004621,0.25,79.41374690004159,None,80.16498320002574,None,,,,,,,[0.875],6.000000000000005,1.0,11023,002,2024_Jan_07_1304,MFTM_A_new1021,2021.2.3,59.67822693139835,
,,,,,,,,stim/Instruction_adaptive.png,conditions/adaptive.xlsx,test,-0.6,-0.6,-0.6,0.6,0.6,left,L,,,,,0,1,1,1,0,2,2,43,,,,,,,,,,,,,,,,,,,,,,,,,,,,,,,,,,,,,,,,,,,,80.66564110002946,None,right,0,1.0580169000895694,81.16625000000931,81.91735719994176,81.16625000000931,81.41677130002063,81.16625000000931,81.41677130002063,81.16625000000931,81.41677130002063,81.16625000000931,81.41677130002063,81.16625000000931,81.41677130002063,81.40000829997007,81.90068319998682,81.40000829997007,81.90068319998682,81.40000829997007,81.90068319998682,81.40000829997007,81.90068319998682,81.40000829997007,81.90068319998682,81.40000829997007,81.90068319998682,81.40000829997007,81.90068319998682,81.40000829997007,81.90068319998682,81.16625000000931,None,81.90068319998682,83.23649229994044,0.25,83.25258059997577,None,84.00402730004862,None,,,,,,,[1.33333333],3.1800000000000024,0.6666666666666666,11023,002,2024_Jan_07_1304,MFTM_A_new1021,2021.2.3,59.67822693139835,
,,,,,,,,stim/Instruction_adaptive.png,conditions/adaptive.xlsx,test,0.6,0.6,0.6,-0.6,-0.6,right,R,,,,,0,1,1,1,0,3,3,20,,,,,,,,,,,,,,,,,,,,,,,,,,,,,,,,,,,,,,,,,,,,84.50459819997195,None,right,1,1.2990684000542387,85.00525759998709,86.24112979997881,85.00525759998709,85.73960159998387,85.00525759998709,85.73960159998387,85.00525759998709,85.73960159998387,85.00525759998709,85.73960159998387,85.00525759998709,85.73960159998387,85.7231485999655,86.22425870003644,85.7231485999655,86.22425870003644,85.7231485999655,86.22425870003644,85.7231485999655,86.22425870003644,85.7231485999655,86.22425870003644,85.7231485999655,86.22425870003644,85.7231485999655,86.22425870003644,85.7231485999655,86.22425870003644,85.00525759998709,None,86.22425870003644,87.6760008999845,0.7300000000000004,87.69327679998241,None,88.44425319996662,None,,,,,,,[1.4425],4.030000000000003,0.75,11023,002,2024_Jan_07_1304,MFTM_A_new1021,2021.2.3,59.67822693139835,
,,,,,,,,stim/Instruction_adaptive.png,conditions/adaptive.xlsx,test,0.6,0.6,0.6,-0.6,-0.6,right,R,,,,,0,1,1,1,0,4,4,4,,,,,,,,,,,,,,,,,,,,,,,,,,,,,,,,,,,,,,,,,,,,88.94476570002735,None,right,1,0.7711003998992965,89.44514970004093,90.34654810000211,89.44514970004093,89.84596710000187,89.44514970004093,89.84596710000187,89.44514970004093,89.84596710000187,89.44514970004093,89.84596710000187,89.44514970004093,89.84596710000187,89.82921029999852,90.33015679998789,89.82921029999852,90.33015679998789,89.82921029999852,90.33015679998789,89.82921029999852,90.33015679998789,89.82921029999852,90.33015679998789,89.82921029999852,90.33015679998789,89.82921029999852,90.33015679998789,89.82921029999852,90.33015679998789,89.44514970004093,None,90.33015679998789,91.91572099993937,0.40000000000000013,91.93242800002918,None,92.68392790004145,None,,,,,,,[1.574],4.550000000000003,0.8,11023,002,2024_Jan_07_1304,MFTM_A_new1021,2021.2.3,59.67822693139835,
,,,,,,,,stim/Instruction_adaptive.png,conditions/adaptive.xlsx,test,-0.6,-0.6,-0.6,0.6,0.6,left,L,,,,,0,1,1,1,0,5,5,63,,,,,,,,,,,,,,,,,,,,,,,,,,,,,,,,,,,,,,,,,,,,93.18446969997603,None,right,0,0.7555563999339938,93.68482850003056,94.46947799995542,93.68482850003056,93.96871699998155,93.68482850003056,93.96871699998155,93.68482850003056,93.96871699998155,93.68482850003056,93.96871699998155,93.68482850003056,93.96871699998155,93.95204649993684,94.45274770003743,93.95204649993684,94.45274770003743,93.95204649993684,94.45274770003743,93.95204649993684,94.45274770003743,93.95204649993684,94.45274770003743,93.95204649993684,94.45274770003743,93.95204649993684,94.45274770003743,93.95204649993684,94.45274770003743,93.68482850003056,None,94.45274770003743,96.1387490000343,0.28,96.15541410003789,None,96.90674839995336,None,,,,,,,[1.68166667],3.5900000000000025,0.6666666666666666,11023,002,2024_Jan_07_1304,MFTM_A_new1021,2021.2.3,59.67822693139835,
,,,,,,,,stim/Instruction_adaptive.png,conditions/adaptive.xlsx,test,0.6,0.6,0.6,-0.6,-0.6,right,R,,,,,0,1,1,1,0,6,6,8,,,,,,,,,,,,,,,,,,,,,,,,,,,,,,,,,,,,,,,,,,,,97.40706869994756,None,left,0,0.9166632000124082,97.90777299995534,98.95924270001706,97.90777299995534,98.4586857999675,97.90777299995534,98.4586857999675,97.90777299995534,98.4586857999675,97.90777299995534,98.4586857999675,97.90777299995534,98.4586857999675,98.44207680004183,98.94258789997548,98.44207680004183,98.94258789997548,98.44207680004183,98.94258789997548,98.44207680004183,98.94258789997548,98.44207680004183,98.94258789997548,98.44207680004183,98.94258789997548,98.44207680004183,98.94258789997548,98.44207680004183,98.94258789997548,97.90777299995534,None,98.94258789997548,100.66320259997156,0.5500000000000003,100.67880410002545,None,101.42981280002277,None,,,,,,,[1.72],2.490000000000002,0.5714285714285714,11023,002,2024_Jan_07_1304,MFTM_A_new1021,2021.2.3,59.67822693139835,
,,,,,,,,stim/Instruction_adaptive.png,conditions/adaptive.xlsx,test,0.6,0.6,0.6,-0.6,-0.6,right,R,,,,,0,1,1,1,0,7,7,88,,,,,,,,,,,,,,,,,,,,,,,,,,,,,,,,,,,,,,,,,,,,101.9303941000253,None,right,1,1.713335799984634,102.43109590001404,104.10026129998732,102.43109590001404,103.61648109997623,102.43109590001404,103.61648109997623,102.43109590001404,103.61648109997623,102.43109590001404,103.61648109997623,102.43109590001404,103.61648109997623,103.58299220004119,104.08411429997068,103.58299220004119,104.08411429997068,103.58299220004119,104.08411429997068,103.58299220004119,104.08411429997068,103.58299220004119,104.08411429997068,103.58299220004119,104.08411429997068,103.58299220004119,104.08411429997068,103.58299220004119,104.08411429997068,102.43109590001404,None,104.08411429997068,105.4188271999592,1.1700000000000008,105.43571640003938,None,106.18686499993782,None,,,,,,,[[1.33]],2.9700000000000024,0.625,11023,002,2024_Jan_07_1304,MFTM_A_new1021,2021.2.3,59.67822693139835,
,,,,,,,,stim/Instruction_adaptive.png,conditions/adaptive.xlsx,test,-0.6,-0.6,-0.6,0.6,0.6,left,L,,,,,0,1,1,1,0,8,8,53,,,,,,,,,,,,,,,,,,,,,,,,,,,,,,,,,,,,,,,,,,,,106.68742139998358,None,left,1,1.084542699973099,107.18837480002549,108.54019510000944,107.18837480002549,108.03948699997272,107.18837480002549,108.03948699997272,107.18837480002549,108.03948699997272,107.18837480002549,108.03948699997272,107.18837480002549,108.03948699997272,108.0061031000223,108.50673689995892,108.0061031000223,108.50673689995892,108.0061031000223,108.50673689995892,108.0061031000223,108.50673689995892,108.0061031000223,108.50673689995892,108.0061031000223,108.50673689995892,108.0061031000223,108.50673689995892,108.0061031000223,108.50673689995892,107.18837480002549,None,108.50673689995892,110.1774349999614,0.8400000000000005,110.19263009994756,None,110.94388200005051,None,,,,,,,[[1.66]],3.2900000000000027,0.6666666666666666,11023,002,2024_Jan_07_1304,MFTM_A_new1021,2021.2.3,59.67822693139835,
,,,,,,,,stim/Instruction_adaptive.png,conditions/adaptive.xlsx,test,0.6,0.6,0.6,-0.6,-0.6,right,R,,,,,0,1,1,1,0,9,9,90,,,,,,,,,,,,,,,,,,,,,,,,,,,,,,,,,,,,,,,,,,,,111.44470180000644,None,right,1,1.2148220000090078,111.94569369999226,113.13060629996471,111.94569369999226,112.62972480000462,111.94569369999226,112.62972480000462,111.94569369999226,112.62972480000462,111.94569369999226,112.62972480000462,111.94569369999226,112.62972480000462,112.59643190004863,113.09692439995706,112.59643190004863,113.09692439995706,112.59643190004863,113.09692439995706,112.59643190004863,113.09692439995706,112.59643190004863,113.09692439995706,112.59643190004863,113.09692439995706,112.59643190004863,113.09692439995706,112.59643190004863,113.09692439995706,111.94569369999226,None,113.09692439995706,114.78309739998076,0.6700000000000004,114.81628040003125,None,115.56735349993687,None,,,,,,,[1.686],3.5400000000000027,0.7,11023,002,2024_Jan_07_1304,MFTM_A_new1021,2021.2.3,59.67822693139835,
,,,,,,,,stim/Instruction_adaptive.png,conditions/adaptive.xlsx,test,-0.6,-0.6,-0.6,0.6,0.6,left,L,,,,,0,1,1,1,0,10,10,19,,,,,,,,,,,,,,,,,,,,,,,,,,,,,,,,,,,,,,,,,,,,116.06810130004305,None,left,1,0.9995642999419942,116.5688621000154,117.65495899994858,116.5688621000154,117.15323960001115,116.5688621000154,117.15323960001115,116.5688621000154,117.15323960001115,116.5688621000154,117.15323960001115,116.5688621000154,117.15323960001115,117.11954670003615,117.620413800003,117.11954670003615,117.620413800003,117.11954670003615,117.620413800003,117.11954670003615,117.620413800003,117.11954670003615,117.620413800003,117.11954670003615,117.620413800003,117.11954670003615,117.620413800003,117.11954670003615,117.620413800003,116.5688621000154,None,117.620413800003,119.3406250999542,0.5700000000000003,119.3562981999712,None,120.10744900000282,None,,,,,,,[1.70818182],3.740000000000003,0.7272727272727273,11023,002,2024_Jan_07_1304,MFTM_A_new1021,2021.2.3,59.67822693139835,
,,,,,,,,stim/Instruction_adaptive.png,conditions/adaptive.xlsx,test,0.6,0.6,0.6,-0.6,-0.6,right,R,,,,,0,1,1,1,0,11,11,24,,,,,,,,,,,,,,,,,,,,,,,,,,,,,,,,,,,,,,,,,,,,120.60805229994003,None,left,0,0.81865209992975,121.10971760004759,122.11045529996045,121.10971760004759,121.60971390001941,121.10971760004759,121.60971390001941,121.10971760004759,121.60971390001941,121.10971760004759,121.60971390001941,121.10971760004759,121.60971390001941,121.57626999996137,122.0770535999909,121.57626999996137,122.0770535999909,121.57626999996137,122.0770535999909,121.57626999996137,122.0770535999909,121.57626999996137,122.0770535999909,121.57626999996137,122.0770535999909,121.57626999996137,122.0770535999909,121.57626999996137,122.0770535999909,121.10971760004759,None,122.0770535999909,123.81295209995005,0.4900000000000002,123.84638809994794,None,124.59763850003947,None,,,,,,,[1.73333333],3.2500000000000027,0.6666666666666666,11023,002,2024_Jan_07_1304,MFTM_A_new1021,2021.2.3,59.67822693139835,
,,,,,,,,stim/Instruction_adaptive.png,conditions/adaptive.xlsx,test,-0.6,-0.6,-0.6,0.6,0.6,left,L,,,,,0,1,1,1,0,12,12,17,,,,,,,,,,,,,,,,,,,,,,,,,,,,,,,,,,,,,,,,,,,,125.09846729994752,None,left,1,0.6577408000594005,125.59884909994435,126.8007263999898,125.59884909994435,126.29983090003952,125.59884909994435,126.29983090003952,125.59884909994435,126.29983090003952,125.59884909994435,126.29983090003952,125.59884909994435,126.29983090003952,126.26655749999918,126.76729190000333,126.26655749999918,126.76729190000333,126.26655749999918,126.76729190000333,126.26655749999918,126.76729190000333,126.26655749999918,126.76729190000333,126.26655749999918,126.76729190000333,126.26655749999918,126.76729190000333,126.26655749999918,126.76729190000333,125.59884909994435,None,126.76729190000333,128.5214042000007,0.6900000000000004,128.5365851999959,None,129.28795809997246,None,,,,,,,[1.73923077],3.4400000000000026,0.6923076923076923,11023,002,2024_Jan_07_1304,MFTM_A_new1021,2021.2.3,59.67822693139835,
,,,,,,,,stim/Instruction_adaptive.png,conditions/adaptive.xlsx,test,-0.6,-0.6,-0.6,0.6,0.6,left,L,,,,,0,1,1,1,0,13,13,59,,,,,,,,,,,,,,,,,,,,,,,,,,,,,,,,,,,,,,,,,,,,129.7883240999654,None,left,1,0.6871620999881998,130.2891814999748,131.4075632999884,130.2891814999748,130.90713399997912,130.2891814999748,130.90713399997912,130.2891814999748,130.90713399997912,130.2891814999748,130.90713399997912,130.2891814999748,130.90713399997912,130.89030920004006,131.39086939999834,130.89030920004006,131.39086939999834,130.89030920004006,131.39086939999834,130.89030920004006,131.39086939999834,130.89030920004006,131.39086939999834,130.89030920004006,131.39086939999834,130.89030920004006,131.39086939999834,130.89030920004006,131.39086939999834,130.2891814999748,None,131.39086939999834,133.14333340001758,0.6100000000000003,133.16018380003516,None,133.91127409995534,None,,,,,,,[1.75],3.6000000000000028,0.7142857142857143,11023,002,2024_Jan_07_1304,MFTM_A_new1021,2021.2.3,59.67822693139835,
,,,,,,,,stim/Instruction_adaptive.png,conditions/adaptive.xlsx,test,-0.6,-0.6,-0.6,0.6,0.6,left,L,,,,,0,1,1,1,0,14,14,81,,,,,,,,,,,,,,,,,,,,,,,,,,,,,,,,,,,,,,,,,,,,134.41190750000533,None,left,1,0.5839636999880895,134.91258100001141,135.9643096999498,134.91258100001141,135.46339649998117,134.91258100001141,135.46339649998117,134.91258100001141,135.46339649998117,134.91258100001141,135.46339649998117,134.91258100001141,135.46339649998117,135.4304607999511,135.93088160001207,135.4304607999511,135.93088160001207,135.4304607999511,135.93088160001207,135.4304607999511,135.93088160001207,135.4304607999511,135.93088160001207,135.4304607999511,135.93088160001207,135.4304607999511,135.93088160001207,135.4304607999511,135.93088160001207,134.91258100001141,None,135.93088160001207,137.70016739994753,0.5400000000000003,137.71712899999693,None,138.46804439998232,None,,,,,,,[1.764],3.740000000000003,0.7333333333333333,11023,002,2024_Jan_07_1304,MFTM_A_new1021,2021.2.3,59.67822693139835,
,,,,,,,,stim/Instruction_adaptive.png,conditions/adaptive.xlsx,test,0.6,0.6,0.6,-0.6,-0.6,right,R,,,,,0,1,1,1,0,15,15,54,,,,,,,,,,,,,,,,,,,,,,,,,,,,,,,,,,,,,,,,,,,,138.96891509997658,None,right,1,1.458805099944584,139.46961040003225,140.47105609998107,139.46961040003225,139.97025699994992,139.46961040003225,139.97025699994992,139.46961040003225,139.97025699994992,139.46961040003225,139.97025699994992,139.46961040003225,139.97025699994992,139.93672939995304,140.4375334000215,139.93672939995304,140.4375334000215,139.93672939995304,140.4375334000215,139.93672939995304,140.4375334000215,139.93672939995304,140.4375334000215,139.93672939995304,140.4375334000215,139.93672939995304,140.4375334000215,139.93672939995304,140.4375334000215,139.46961040003225,None,140.4375334000215,142.22358829993755,0.4900000000000002,142.24004980002064,None,142.99124260002282,None,,,,,,,[1.779375],3.860000000000003,0.75,11023,002,2024_Jan_07_1304,MFTM_A_new1021,2021.2.3,59.67822693139835,
,,,,,,,,stim/Instruction_adaptive.png,conditions/adaptive.xlsx,test,0.6,0.6,0.6,-0.6,-0.6,right,R,,,,,0,1,1,1,0,16,16,30,,,,,,,,,,,,,,,,,,,,,,,,,,,,,,,,,,,,,,,,,,,,143.4921341999434,None,left,0,0.7120696000056341,143.99281029996928,144.9443005999783,143.99281029996928,144.44330729998183,143.99281029996928,144.44330729998183,143.99281029996928,144.44330729998183,143.99281029996928,144.44330729998183,143.99281029996928,144.44330729998183,144.42681269999593,144.92905839998275,144.42681269999593,144.92905839998275,144.42681269999593,144.92905839998275,144.42681269999593,144.92905839998275,144.42681269999593,144.92905839998275,144.42681269999593,144.92905839998275,144.42681269999593,144.92905839998275,144.42681269999593,144.92905839998275,143.99281029996928,None,144.92905839998275,146.73027439997531,0.4500000000000002,146.7470089000417,None,147.49805819999892,None,,,,,,,[1.79529412],3.5400000000000027,0.7058823529411765,11023,002,2024_Jan_07_1304,MFTM_A_new1021,2021.2.3,59.67822693139835,
,,,,,,,,stim/Instruction_adaptive.png,conditions/adaptive.xlsx,test,0.6,0.6,0.6,-0.6,-0.6,right,R,,,,,0,1,1,1,0,17,17,34,,,,,,,,,,,,,,,,,,,,,,,,,,,,,,,,,,,,,,,,,,,,147.9988096000161,None,right,1,1.2607241999357939,148.49976180004887,149.58429859997705,148.49976180004887,149.08359930000734,148.49976180004887,149.08359930000734,148.49976180004887,149.08359930000734,148.49976180004887,149.08359930000734,148.49976180004887,149.08359930000734,149.05022209999152,149.55107629997656,149.05022209999152,149.55107629997656,149.05022209999152,149.55107629997656,149.05022209999152,149.55107629997656,149.05022209999152,149.55107629997656,149.05022209999152,149.55107629997656,149.05022209999152,149.55107629997656,149.05022209999152,149.55107629997656,148.49976180004887,None,149.55107629997656,151.3538935999386,0.5700000000000003,151.3871968999738,None,152.13808369997423,None,,,,,,,[1.80277778],3.660000000000003,0.7222222222222222,11023,002,2024_Jan_07_1304,MFTM_A_new1021,2021.2.3,59.67822693139835,
,,,,,,,,stim/Instruction_adaptive.png,conditions/adaptive.xlsx,test,-0.6,-0.6,-0.6,0.6,0.6,left,L,,,,,0,1,1,1,0,18,18,1,,,,,,,,,,,,,,,,,,,,,,,,,,,,,,,,,,,,,,,,,,,,152.63941740000155,None,left,1,0.9725298999110237,153.1398946000263,154.17630709998775,153.1398946000263,153.673861999996,153.1398946000263,153.673861999996,153.1398946000263,153.673861999996,153.1398946000263,153.673861999996,153.1398946000263,153.673861999996,153.6402989999624,154.1413429999957,153.6402989999624,154.1413429999957,153.6402989999624,154.1413429999957,153.6402989999624,154.1413429999957,153.6402989999624,154.1413429999957,153.6402989999624,154.1413429999957,153.6402989999624,154.1413429999957,153.6402989999624,154.1413429999957,153.1398946000263,None,154.1413429999957,155.9606285999762,0.5200000000000002,155.97729069995694,None,156.72815820004325,None,,,,,,,[1.81210526],3.770000000000003,0.7368421052631579,11023,002,2024_Jan_07_1304,MFTM_A_new1021,2021.2.3,59.67822693139835,
,,,,,,,,stim/Instruction_adaptive.png,conditions/adaptive.xlsx,test,0.6,0.6,0.6,-0.6,-0.6,right,R,,,,,0,1,1,1,0,19,19,14,,,,,,,,,,,,,,,,,,,,,,,,,,,,,,,,,,,,,,,,,,,,157.23161789996084,None,left,0,0.7024260000325739,157.72990839998238,158.71502839995082,157.72990839998238,158.21378180000465,157.72990839998238,158.21378180000465,157.72990839998238,158.21378180000465,157.72990839998238,158.21378180000465,157.72990839998238,158.21378180000465,158.1970676999772,158.6985137000447,158.1970676999772,158.6985137000447,158.1970676999772,158.6985137000447,158.1970676999772,158.6985137000447,158.1970676999772,158.6985137000447,158.1970676999772,158.6985137000447,158.1970676999772,158.6985137000447,158.1970676999772,158.6985137000447,157.72990839998238,None,158.6985137000447,None,0.4800000000000002,160.53400039998814,None,161.28523989999667,None,,,,,,,[1.8225],3.4800000000000026,0.7,11023,002,2024_Jan_07_1304,MFTM_A_new1021,2021.2.3,59.67822693139835,
,,,,,,,,stim/Instruction_adaptive.png,conditions/adaptive.xlsx,test,0.6,0.6,0.6,-0.6,-0.6,right,R,,,,,0,1,1,1,0,20,20,98,,,,,,,,,,,,,,,,,,,,,,,,,,,,,,,,,,,,,,,,,,,,161.78616949997377,None,right,1,0.6983398000011221,162.28659979999065,163.3883235999383,162.28659979999065,162.8874752999982,162.28659979999065,162.8874752999982,162.28659979999065,162.8874752999982,162.28659979999065,162.8874752999982,162.28659979999065,162.8874752999982,162.8541398999514,163.35475039994344,162.8541398999514,163.35475039994344,162.8541398999514,163.35475039994344,162.8541398999514,163.35475039994344,162.8541398999514,163.35475039994344,162.8541398999514,163.35475039994344,162.8541398999514,163.35475039994344,162.8541398999514,163.35475039994344,162.28659979999065,None,163.35475039994344,165.19076439994387,0.5900000000000003,165.2074703000253,None,165.95885980001185,None,,,,,,,[1.82666667],3.5900000000000025,0.7142857142857143,11023,002,2024_Jan_07_1304,MFTM_A_new1021,2021.2.3,59.67822693139835,
,,,,,,,,stim/Instruction_adaptive.png,conditions/adaptive.xlsx,test,-0.6,-0.6,-0.6,0.6,0.6,left,L,,,,,0,1,1,1,0,21,21,75,,,,,,,,,,,,,,,,,,,,,,,,,,,,,,,,,,,,,,,,,,,,166.45929839997552,None,left,1,0.69610850000754,166.96023640001658,168.0127565000439,166.96023640001658,167.51108239998575,166.96023640001658,167.51108239998575,166.96023640001658,167.51108239998575,166.96023640001658,167.51108239998575,166.96023640001658,167.51108239998575,167.49436629994307,167.99510870000813,167.49436629994307,167.99510870000813,167.49436629994307,167.99510870000813,167.49436629994307,167.99510870000813,167.49436629994307,167.99510870000813,167.49436629994307,167.99510870000813,167.49436629994307,167.99510870000813,167.49436629994307,167.99510870000813,166.96023640001658,None,167.99510870000813,169.8310565999709,0.5500000000000003,169.84791539993603,None,170.5989693000447,None,,,,,,,[1.83227273],3.680000000000003,0.7272727272727273,11023,002,2024_Jan_07_1304,MFTM_A_new1021,2021.2.3,59.67822693139835,
,,,,,,,,stim/Instruction_adaptive.png,conditions/adaptive.xlsx,test,-0.6,-0.6,-0.6,0.6,0.6,left,L,,,,,0,1,1,1,0,22,22,7,,,,,,,,,,,,,,,,,,,,,,,,,,,,,,,,,,,,,,,,,,,,171.0997844999656,None,left,1,0.7125495000509545,171.600270899944,172.61859019997064,171.600270899944,172.11783400003333,171.600270899944,172.11783400003333,171.600270899944,172.11783400003333,171.600270899944,172.11783400003333,171.600270899944,172.11783400003333,172.10125179996248,172.6019317000173,172.10125179996248,172.6019317000173,172.10125179996248,172.6019317000173,172.10125179996248,172.6019317000173,172.10125179996248,172.6019317000173,172.10125179996248,172.6019317000173,172.10125179996248,172.6019317000173,172.10125179996248,172.6019317000173,171.600270899944,None,172.6019317000173,None,0.5100000000000002,174.45461639994755,None,175.20594370004255,None,,,,,,,[1.83913043],3.770000000000003,0.7391304347826086,11023,002,2024_Jan_07_1304,MFTM_A_new1021,2021.2.3,59.67822693139835,
,,,,,,,,stim/Instruction_adaptive.png,conditions/adaptive.xlsx,test,-0.6,-0.6,-0.6,0.6,0.6,left,L,,,,,0,1,1,1,0,23,23,65,,,,,,,,,,,,,,,,,,,,,,,,,,,,,,,,,,,,,,,,,,,,175.70684670004994,None,left,1,0.745251200045459,176.20737189997453,177.19209839997347,176.20737189997453,176.69184240000322,176.20737189997453,176.69184240000322,176.20737189997453,176.69184240000322,176.20737189997453,176.69184240000322,176.20737189997453,176.69184240000322,176.67461119999643,177.17557950003538,176.67461119999643,177.17557950003538,176.67461119999643,177.17557950003538,176.67461119999643,177.17557950003538,176.67461119999643,177.17557950003538,176.67461119999643,177.17557950003538,176.67461119999643,177.17557950003538,176.67461119999643,177.17557950003538,176.20737189997453,None,177.17557950003538,179.0282141000498,0.4800000000000002,179.04532449995168,None,179.79596060002223,None,,,,,,,[1.84666667],3.850000000000003,0.75,11023,002,2024_Jan_07_1304,MFTM_A_new1021,2021.2.3,59.67822693139835,
,,,,,,,,stim/Instruction_adaptive.png,conditions/adaptive.xlsx,test,0.6,0.6,0.6,-0.6,-0.6,right,R,,,,,0,1,1,1,0,24,24,38,,,,,,,,,,,,,,,,,,,,,,,,,,,,,,,,,,,,,,,,,,,,180.2965912000509,None,right,1,1.0271893999306485,180.79732400004286,181.7654923000373,180.79732400004286,181.26559249998536,180.79732400004286,181.26559249998536,180.79732400004286,181.26559249998536,180.79732400004286,181.26559249998536,180.79732400004286,181.26559249998536,181.23133939993568,181.73196969996206,181.23133939993568,181.73196969996206,181.23133939993568,181.73196969996206,181.23133939993568,181.73196969996206,181.23133939993568,181.73196969996206,181.23133939993568,181.73196969996206,181.23133939993568,181.73196969996206,181.23133939993568,181.73196969996206,180.79732400004286,None,181.73196969996206,183.6015320000006,0.4600000000000002,183.618243600009,None,184.36934770003427,None,,,,,,,[1.8544],3.920000000000003,0.76,11023,002,2024_Jan_07_1304,MFTM_A_new1021,2021.2.3,59.67822693139835,
,,,,,,,,stim/Instruction_adaptive.png,conditions/adaptive.xlsx,test,-0.6,-0.6,-0.6,0.6,0.6,left,L,,,,,0,1,1,1,0,25,25,79,,,,,,,,,,,,,,,,,,,,,,,,,,,,,,,,,,,,,,,,,,,,184.87020280002616,None,left,1,0.9094265999738127,185.3710425000172,186.30550050002057,185.3710425000172,185.80484290001914,185.3710425000172,185.80484290001914,185.3710425000172,185.80484290001914,185.3710425000172,185.80484290001914,185.3710425000172,185.80484290001914,185.7881200000411,186.2888104999438,185.7881200000411,186.2888104999438,185.7881200000411,186.2888104999438,185.7881200000411,186.2888104999438,185.7881200000411,186.2888104999438,185.7881200000411,186.2888104999438,185.7881200000411,186.2888104999438,185.7881200000411,186.2888104999438,185.3710425000172,None,186.2888104999438,188.15831760002766,0.43000000000000016,188.17493580002338,None,188.92612660001032,None,,,,,,,[1.86269231],3.990000000000003,0.7692307692307693,11023,002,2024_Jan_07_1304,MFTM_A_new1021,2021.2.3,59.67822693139835,
,,,,,,,,stim/Instruction_adaptive.png,conditions/adaptive.xlsx,test,-0.6,-0.6,-0.6,0.6,0.6,left,L,,,,,0,1,1,1,0,26,26,61,,,,,,,,,,,,,,,,,,,,,,,,,,,,,,,,,,,,,,,,,,,,189.42676599998958,None,left,1,0.7690424000611529,189.92743249994237,190.84549159999005,189.92743249994237,190.344845399959,189.92743249994237,190.344845399959,189.92743249994237,190.344845399959,189.92743249994237,190.344845399959,189.92743249994237,190.344845399959,190.3280739999609,190.82924069999717,190.3280739999609,190.82924069999717,190.3280739999609,190.82924069999717,190.3280739999609,190.82924069999717,190.3280739999609,190.82924069999717,190.3280739999609,190.82924069999717,190.3280739999609,190.82924069999717,190.3280739999609,190.82924069999717,189.92743249994237,None,190.82924069999717,None,0.41000000000000014,192.715026400052,None,193.46608110005036,None,,,,,,,[1.87111111],4.060000000000003,0.7777777777777778,11023,002,2024_Jan_07_1304,MFTM_A_new1021,2021.2.3,59.67822693139835,
,,,,,,,,stim/Instruction_adaptive.png,conditions/adaptive.xlsx,test,0.6,0.6,0.6,-0.6,-0.6,right,R,,,,,0,1,1,1,0,27,27,66,,,,,,,,,,,,,,,,,,,,,,,,,,,,,,,,,,,,,,,,,,,,193.96705099998508,None,right,1,0.7409472001018003,194.46770249994006,195.3690897000488,194.46770249994006,194.8684276000131,194.46770249994006,194.8684276000131,194.46770249994006,194.8684276000131,194.46770249994006,194.8684276000131,194.46770249994006,194.8684276000131,194.83487010002136,195.33558870002162,194.83487010002136,195.33558870002162,194.83487010002136,195.33558870002162,194.83487010002136,195.33558870002162,194.83487010002136,195.33558870002162,194.83487010002136,195.33558870002162,194.83487010002136,195.33558870002162,194.83487010002136,195.33558870002162,194.46770249994006,None,195.33558870002162,197.22181519994047,0.3900000000000001,197.23842089995742,None,197.98956809996162,None,,,,,,,[1.87964286],4.120000000000003,0.7857142857142857,11023,002,2024_Jan_07_1304,MFTM_A_new1021,2021.2.3,59.67822693139835,
,,,,,,,,stim/Instruction_adaptive.png,conditions/adaptive.xlsx,test,-0.6,-0.6,-0.6,0.6,0.6,left,L,,,,,0,1,1,1,0,28,28,51,,,,,,,,,,,,,,,,,,,,,,,,,,,,,,,,,,,,,,,,,,,,198.4903394000139,None,left,1,1.225483400048688,198.99098949995823,199.8755435999483,198.99098949995823,199.37498540000524,198.99098949995823,199.37498540000524,198.99098949995823,199.37498540000524,198.99098949995823,199.37498540000524,198.99098949995823,199.37498540000524,199.35819409997202,199.85883729998022,199.35819409997202,199.85883729998022,199.35819409997202,199.85883729998022,199.35819409997202,199.85883729998022,199.35819409997202,199.85883729998022,199.35819409997202,199.85883729998022,199.35819409997202,199.85883729998022,199.35819409997202,199.85883729998022,198.99098949995823,None,199.85883729998022,None,0.3800000000000001,201.76185210002586,None,202.51290620001964,None,,,,,,,[1.88793103],4.180000000000003,0.7931034482758621,11023,002,2024_Jan_07_1304,MFTM_A_new1021,2021.2.3,59.67822693139835,
,,,,,,,,stim/Instruction_adaptive.png,conditions/adaptive.xlsx,test,0.6,0.6,0.6,-0.6,-0.6,right,R,,,,,0,1,1,1,0,29,29,76,,,,,,,,,,,,,,,,,,,,,,,,,,,,,,,,,,,,,,,,,,,,203.01395399996545,None,right,1,0.8062700999435037,203.51425240002573,204.38238660001662,203.51425240002573,203.8814655999886,203.51425240002573,203.8814655999886,203.51425240002573,203.8814655999886,203.51425240002573,203.8814655999886,203.51425240002573,203.8814655999886,203.86476689996198,204.36579670000356,203.86476689996198,204.36579670000356,203.86476689996198,204.36579670000356,203.86476689996198,204.36579670000356,203.86476689996198,204.36579670000356,203.86476689996198,204.36579670000356,203.86476689996198,204.36579670000356,203.86476689996198,204.36579670000356,203.51425240002573,None,204.36579670000356,206.26837669999804,0.3600000000000001,206.28514419996645,None,207.03607819997706,None,,,,,,,[1.89633333],4.230000000000003,0.8,11023,002,2024_Jan_07_1304,MFTM_A_new1021,2021.2.3,59.67822693139835,
,,,,,,,,stim/Instruction_adaptive.png,conditions/adaptive.xlsx,test,-0.6,-0.6,-0.6,0.6,0.6,left,L,,,,,0,1,1,1,0,30,30,11,,,,,,,,,,,,,,,,,,,,,,,,,,,,,,,,,,,,,,,,,,,,207.53682160004973,None,left,1,1.3225995000684634,208.0378632999491,208.89100719999988,208.0378632999491,208.38830230000895,208.0378632999491,208.38830230000895,208.0378632999491,208.38830230000895,208.0378632999491,208.38830230000895,208.0378632999491,208.38830230000895,208.3716865000315,208.87228430004325,208.3716865000315,208.87228430004325,208.3716865000315,208.87228430004325,208.3716865000315,208.87228430004325,208.3716865000315,208.87228430004325,208.3716865000315,208.87228430004325,208.3716865000315,208.87228430004325,208.3716865000315,208.87228430004325,208.0378632999491,None,208.87228430004325,None,0.3500000000000001,210.79199089994654,None,211.54432570002973,None,,,,,,,[1.90451613],4.280000000000003,0.8064516129032258,11023,002,2024_Jan_07_1304,MFTM_A_new1021,2021.2.3,59.67822693139835,
,,,,,,,,stim/Instruction_adaptive.png,conditions/adaptive.xlsx,test,0.6,0.6,0.6,-0.6,-0.6,right,R,,,,,0,1,1,1,0,31,31,16,,,,,,,,,,,,,,,,,,,,,,,,,,,,,,,,,,,,,,,,,,,,212.04375850001816,None,right,1,0.7600787000264972,212.54447359999176,213.39570630004164,212.54447359999176,212.89484470000025,212.54447359999176,212.89484470000025,212.54447359999176,212.89484470000025,212.54447359999176,212.89484470000025,212.54447359999176,212.89484470000025,212.86142430000473,213.3623378999764,212.86142430000473,213.3623378999764,212.86142430000473,213.3623378999764,212.86142430000473,213.3623378999764,212.86142430000473,213.3623378999764,212.86142430000473,213.3623378999764,212.86142430000473,213.3623378999764,212.86142430000473,213.3623378999764,212.54447359999176,None,213.3623378999764,215.2816979000345,0.3400000000000001,215.29856689996086,None,216.0495407000417,None,,,,,,,[1.9125],4.330000000000004,0.8125,11023,002,2024_Jan_07_1304,MFTM_A_new1021,2021.2.3,59.67822693139835,
,,,,,,,,stim/Instruction_adaptive.png,conditions/adaptive.xlsx,test,0.6,0.6,0.6,-0.6,-0.6,right,R,,,,,0,1,1,1,0,32,32,10,,,,,,,,,,,,,,,,,,,,,,,,,,,,,,,,,,,,,,,,,,,,216.55091849993914,None,right,1,0.8054780000820756,217.05101219995413,217.88587879994884,217.05101219995413,217.38499709998723,217.05101219995413,217.38499709998723,217.05101219995413,217.38499709998723,217.05101219995413,217.38499709998723,217.05101219995413,217.38499709998723,217.36824119999073,217.8690260000294,217.36824119999073,217.8690260000294,217.36824119999073,217.8690260000294,217.36824119999073,217.8690260000294,217.36824119999073,217.8690260000294,217.36824119999073,217.8690260000294,217.36824119999073,217.8690260000294,217.36824119999073,217.8690260000294,217.05101219995413,None,217.8690260000294,219.78846089995932,0.33000000000000007,219.80518070003018,None,220.55630759999622,None,,,,,,,[1.92030303],4.3800000000000034,0.8181818181818182,11023,002,2024_Jan_07_1304,MFTM_A_new1021,2021.2.3,59.67822693139835,
,,,,,,,,stim/Instruction_adaptive.png,conditions/adaptive.xlsx,test,-0.6,-0.6,-0.6,0.6,0.6,left,L,,,,,0,1,1,1,0,33,33,77,,,,,,,,,,,,,,,,,,,,,,,,,,,,,,,,,,,,,,,,,,,,221.05756069999188,None,left,1,1.114750000066124,221.55775379994884,222.39222709997557,221.55775379994884,221.89175700000487,221.55775379994884,221.89175700000487,221.55775379994884,221.89175700000487,221.55775379994884,221.89175700000487,221.55775379994884,221.89175700000487,221.8581220000051,222.35905690002255,221.8581220000051,222.35905690002255,221.8581220000051,222.35905690002255,221.8581220000051,222.35905690002255,221.8581220000051,222.35905690002255,221.8581220000051,222.35905690002255,221.8581220000051,222.35905690002255,221.8581220000051,222.35905690002255,221.55775379994884,None,222.35905690002255,224.2952132000355,0.32000000000000006,224.31179850001354,None,225.0629913000157,None,,,,,,,[1.92794118],4.4200000000000035,0.8235294117647058,11023,002,2024_Jan_07_1304,MFTM_A_new1021,2021.2.3,59.67822693139835,
,,,,,,,,stim/Instruction_adaptive.png,conditions/adaptive.xlsx,test,-0.6,-0.6,-0.6,0.6,0.6,left,L,,,,,0,1,1,1,0,34,34,23,,,,,,,,,,,,,,,,,,,,,,,,,,,,,,,,,,,,,,,,,,,,225.56393900001422,None,left,1,1.368667299975641,226.06430219998583,226.8822511000326,226.06430219998583,226.38164269994013,226.06430219998583,226.38164269994013,226.06430219998583,226.38164269994013,226.06430219998583,226.38164269994013,226.06430219998583,226.38164269994013,226.36493100004736,226.86564790003467,226.36493100004736,226.86564790003467,226.36493100004736,226.86564790003467,226.36493100004736,226.86564790003467,226.36493100004736,226.86564790003467,226.36493100004736,226.86564790003467,226.36493100004736,226.86564790003467,226.36493100004736,226.86564790003467,226.06430219998583,None,226.86564790003467,228.8018938000314,0.31000000000000005,228.81836000003386,None,229.56972220004536,None,,,,,,,[1.93542857],4.470000000000003,0.8285714285714286,11023,002,2024_Jan_07_1304,MFTM_A_new1021,2021.2.3,59.67822693139835,
,,,,,,,,stim/Instruction_adaptive.png,conditions/adaptive.xlsx,test,0.6,0.6,0.6,-0.6,-0.6,right,R,,,,,0,1,1,1,0,35,35,32,,,,,,,,,,,,,,,,,,,,,,,,,,,,,,,,,,,,,,,,,,,,230.07178739993833,None,right,1,1.101463499944657,230.57116819999646,231.37235469999723,230.57116819999646,230.87146619998384,230.57116819999646,230.87146619998384,230.57116819999646,230.87146619998384,230.57116819999646,230.87146619998384,230.57116819999646,230.87146619998384,230.85479999997187,231.35570169996936,230.85479999997187,231.35570169996936,230.85479999997187,231.35570169996936,230.85479999997187,231.35570169996936,230.85479999997187,231.35570169996936,230.85479999997187,231.35570169996936,230.85479999997187,231.35570169996936,230.85479999997187,231.35570169996936,230.57116819999646,None,231.35570169996936,233.30852950003464,0.30000000000000004,233.32515619997866,None,234.07638490002137,None,,,,,,,[1.94277778],4.510000000000003,0.8333333333333334,11023,002,2024_Jan_07_1304,MFTM_A_new1021,2021.2.3,59.67822693139835,
,,,,,,,,stim/Instruction_adaptive.png,conditions/adaptive.xlsx,test,-0.6,-0.6,-0.6,0.6,0.6,left,L,,,,,0,1,1,1,0,36,36,55,,,,,,,,,,,,,,,,,,,,,,,,,,,,,,,,,,,,,,,,,,,,234.57727500004694,None,left,1,1.1789720999076962,235.0776725000469,235.87906860001385,235.0776725000469,235.37831519998144,235.0776725000469,235.37831519998144,235.0776725000469,235.37831519998144,235.0776725000469,235.37831519998144,235.0776725000469,235.37831519998144,235.3449548999779,235.84586160001345,235.3449548999779,235.84586160001345,235.3449548999779,235.84586160001345,235.3449548999779,235.84586160001345,235.3449548999779,235.84586160001345,235.3449548999779,235.84586160001345,235.3449548999779,235.84586160001345,235.3449548999779,235.84586160001345,235.0776725000469,None,235.84586160001345,237.79829469998367,0.29000000000000004,237.83181150001474,None,238.58305749995634,None,,,,,,,[1.95],4.550000000000003,0.8378378378378378,11023,002,2024_Jan_07_1304,MFTM_A_new1021,2021.2.3,59.67822693139835,
,,,,,,,,stim/Instruction_adaptive.png,conditions/adaptive.xlsx,test,0.6,0.6,0.6,-0.6,-0.6,right,R,,,,,0,1,1,1,0,37,37,96,,,,,,,,,,,,,,,,,,,,,,,,,,,,,,,,,,,,,,,,,,,,239.08357390004676,None,right,1,0.9682021000189707,239.5845194000285,240.36883279995527,239.5845194000285,239.8684562999988,239.5845194000285,239.8684562999988,239.5845194000285,239.8684562999988,239.5845194000285,239.8684562999988,239.5845194000285,239.8684562999988,239.85148610000033,240.3524428999517,239.85148610000033,240.3524428999517,239.85148610000033,240.3524428999517,239.85148610000033,240.3524428999517,239.85148610000033,240.3524428999517,239.85148610000033,240.3524428999517,239.85148610000033,240.3524428999517,239.85148610000033,240.3524428999517,239.5845194000285,None,240.3524428999517,None,0.28,242.32188199996017,None,243.07313399994746,None,,,,,,,[1.95710526],4.590000000000003,0.8421052631578947,11023,002,2024_Jan_07_1304,MFTM_A_new1021,2021.2.3,59.67822693139835,
,,,,,,,,stim/Instruction_adaptive.png,conditions/adaptive.xlsx,test,-0.6,-0.6,-0.6,0.6,0.6,left,L,,,,,0,1,1,1,0,38,38,47,,,,,,,,,,,,,,,,,,,,,,,,,,,,,,,,,,,,,,,,,,,,243.5738446000032,None,left,1,1.1183850000379607,244.07431039994117,244.8591178000206,244.07431039994117,244.35846240003593,244.07431039994117,244.35846240003593,244.07431039994117,244.35846240003593,244.07431039994117,244.35846240003593,244.07431039994117,244.35846240003593,244.32487010001205,244.82566570001654,244.32487010001205,244.82566570001654,244.32487010001205,244.82566570001654,244.32487010001205,244.82566570001654,244.32487010001205,244.82566570001654,244.32487010001205,244.82566570001654,244.32487010001205,244.82566570001654,244.32487010001205,244.82566570001654,244.07431039994117,None,244.82566570001654,246.79506429994944,0.27,246.81205870001577,None,247.5628832000075,None,,,,,,,[1.96410256],4.6300000000000034,0.8461538461538461,11023,002,2024_Jan_07_1304,MFTM_A_new1021,2021.2.3,59.67822693139835,
,,,,,,,,stim/Instruction_adaptive.png,conditions/adaptive.xlsx,test,0.6,0.6,0.6,-0.6,-0.6,right,R,,,,,0,1,1,1,0,39,39,18,,,,,,,,,,,,,,,,,,,,,,,,,,,,,,,,,,,,,,,,,,,,248.0637129000388,None,right,1,1.580608099931851,248.5644927000394,249.35081650002394,248.5644927000394,248.8484185000416,248.5644927000394,248.8484185000416,248.5644927000394,248.8484185000416,248.5644927000394,248.8484185000416,248.5644927000394,248.8484185000416,248.8146759000374,249.3157413000008,248.8146759000374,249.3157413000008,248.8146759000374,249.3157413000008,248.8146759000374,249.3157413000008,248.8146759000374,249.3157413000008,248.8146759000374,249.3157413000008,248.8146759000374,249.3157413000008,248.8146759000374,249.3157413000008,248.5644927000394,None,249.3157413000008,251.3018432999961,0.27,251.31860370002687,None,252.0698464999441,None,,,,,,,[1.97075],4.660000000000004,0.85,11023,002,2024_Jan_07_1304,MFTM_A_new1021,2021.2.3,59.67822693139835,
,,,,,,,,stim/Instruction_adaptive.png,conditions/adaptive.xlsx,test,0.6,0.6,0.6,-0.6,-0.6,right,R,,,,,0,1,1,1,0,40,40,58,,,,,,,,,,,,,,,,,,,,,,,,,,,,,,,,,,,,,,,,,,,,252.57089199998882,None,right,1,1.7856838000006974,253.0711725000292,253.83890009997413,253.0711725000292,253.33824229997117,253.0711725000292,253.33824229997117,253.0711725000292,253.33824229997117,253.0711725000292,253.33824229997117,253.0711725000292,253.33824229997117,253.30503879999742,253.8055580999935,253.30503879999742,253.8055580999935,253.30503879999742,253.8055580999935,253.30503879999742,253.8055580999935,253.30503879999742,253.8055580999935,253.30503879999742,253.8055580999935,253.30503879999742,253.8055580999935,253.30503879999742,253.8055580999935,253.0711725000292,None,253.8055580999935,255.79169370001182,0.26,255.808468000032,None,256.5597092999378,None,,,,,,,[1.97731707],4.700000000000004,0.8536585365853658,11023,002,2024_Jan_07_1304,MFTM_A_new1021,2021.2.3,59.67822693139835,
,,,,,,,,stim/Instruction_adaptive.png,conditions/adaptive.xlsx,test,-0.6,-0.6,-0.6,0.6,0.6,left,L,,,,,0,1,1,1,0,41,41,99,,,,,,,,,,,,,,,,,,,,,,,,,,,,,,,,,,,,,,,,,,,,257.06041659996845,None,left,1,1.2875255000544712,257.5611308000516,258.3131826999597,257.5611308000516,257.811345599941,257.5611308000516,257.811345599941,257.5611308000516,257.811345599941,257.5611308000516,257.811345599941,257.5611308000516,257.811345599941,257.794642199995,258.2956345999846,257.794642199995,258.2956345999846,257.794642199995,258.2956345999846,257.794642199995,258.2956345999846,257.794642199995,258.2956345999846,257.794642199995,258.2956345999846,257.794642199995,258.2956345999846,257.794642199995,258.2956345999846,257.5611308000516,None,258.2956345999846,260.28184730000794,0.25,260.29855810001027,None,261.0497249000473,None,,,,,,,[1.98380952],4.730000000000004,0.8571428571428571,11023,002,2024_Jan_07_1304,MFTM_A_new1021,2021.2.3,59.67822693139835,
,,,,,,,,stim/Instruction_adaptive.png,conditions/adaptive.xlsx,test,0.6,0.6,0.6,-0.6,-0.6,right,R,,,,,0,1,1,1,0,42,42,48,,,,,,,,,,,,,,,,,,,,,,,,,,,,,,,,,,,,,,,,,,,,261.55047629994806,None,right,1,1.2535330000100657,262.05109289998654,262.8024328999454,262.05109289998654,262.30186470004264,262.05109289998654,262.30186470004264,262.05109289998654,262.30186470004264,262.05109289998654,262.30186470004264,262.05109289998654,262.30186470004264,262.28489889996126,262.78567120002117,262.28489889996126,262.78567120002117,262.28489889996126,262.78567120002117,262.28489889996126,262.78567120002117,262.28489889996126,262.78567120002117,262.28489889996126,262.78567120002117,262.28489889996126,262.78567120002117,262.28489889996126,262.78567120002117,262.05109289998654,None,262.78567120002117,264.7883537999587,0.25,264.8050572000211,None,265.55624299997,None,,,,,,,[1.99],4.770000000000004,0.8604651162790697,11023,002,2024_Jan_07_1304,MFTM_A_new1021,2021.2.3,59.67822693139835,
,,,,,,,,stim/Instruction_adaptive.png,conditions/adaptive.xlsx,test,-0.6,-0.6,-0.6,0.6,0.6,left,L,,,,,0,1,1,1,0,43,43,35,,,,,,,,,,,,,,,,,,,,,,,,,,,,,,,,,,,,,,,,,,,,266.0572188999504,None,left,1,1.4509510999778286,266.55779099999927,267.30895530001726,266.55779099999927,266.8079637000337,266.55779099999927,266.8079637000337,266.55779099999927,266.8079637000337,266.55779099999927,266.8079637000337,266.55779099999927,266.8079637000337,266.7912417999469,267.2922851999756,266.7912417999469,267.2922851999756,266.7912417999469,267.2922851999756,266.7912417999469,267.2922851999756,266.7912417999469,267.2922851999756,266.7912417999469,267.2922851999756,266.7912417999469,267.2922851999756,266.7912417999469,267.2922851999756,266.55779099999927,None,267.2922851999756,269.29527080000844,0.25,269.31196740001906,None,270.06309780001175,None,,,,,,,[1.99590909],4.800000000000004,0.8636363636363636,11023,002,2024_Jan_07_1304,MFTM_A_new1021,2021.2.3,59.67822693139835,
,,,,,,,,stim/Instruction_adaptive.png,conditions/adaptive.xlsx,test,-0.6,-0.6,-0.6,0.6,0.6,left,L,,,,,0,1,1,1,0,44,44,25,,,,,,,,,,,,,,,,,,,,,,,,,,,,,,,,,,,,,,,,,,,,270.5637609999394,None,left,1,1.1759854999836534,271.0645380000351,271.81566299998667,271.0645380000351,271.3149115999695,271.0645380000351,271.3149115999695,271.0645380000351,271.3149115999695,271.0645380000351,271.3149115999695,271.0645380000351,271.3149115999695,271.298457399942,271.7988461999921,271.298457399942,271.7988461999921,271.298457399942,271.7988461999921,271.298457399942,271.7988461999921,271.298457399942,271.7988461999921,271.298457399942,271.7988461999921,271.298457399942,271.7988461999921,271.298457399942,271.7988461999921,271.0645380000351,None,271.7988461999921,273.80183030001353,0.25,273.81859749997966,None,274.5697221000446,None,,,,,,,[2.00155556],4.830000000000004,0.8666666666666667,11023,002,2024_Jan_07_1304,MFTM_A_new1021,2021.2.3,59.67822693139835,
,,,,,,,,stim/Instruction_adaptive.png,conditions/adaptive.xlsx,test,-0.6,-0.6,-0.6,0.6,0.6,left,L,,,,,0,1,1,1,0,45,45,5,,,,,,,,,,,,,,,,,,,,,,,,,,,,,,,,,,,,,,,,,,,,275.07036230002996,None,left,1,1.1011759999673814,275.57152320002206,276.3222600000445,275.57152320002206,275.82145329995546,275.57152320002206,275.82145329995546,275.57152320002206,275.82145329995546,275.57152320002206,275.82145329995546,275.57152320002206,275.82145329995546,275.8048712000018,276.30594919994473,275.8048712000018,276.30594919994473,275.8048712000018,276.30594919994473,275.8048712000018,276.30594919994473,275.8048712000018,276.30594919994473,275.8048712000018,276.30594919994473,275.8048712000018,276.30594919994473,275.8048712000018,276.30594919994473,275.57152320002206,None,276.30594919994473,278.3253819999518,0.25,278.3418311999412,None,279.0929062999785,None,,,,,,,[2.00695652],4.860000000000004,0.8695652173913043,11023,002,2024_Jan_07_1304,MFTM_A_new1021,2021.2.3,59.67822693139835,
,,,,,,,,stim/Instruction_adaptive.png,conditions/adaptive.xlsx,test,0.6,0.6,0.6,-0.6,-0.6,right,R,,,,,0,1,1,1,0,46,46,64,,,,,,,,,,,,,,,,,,,,,,,,,,,,,,,,,,,,,,,,,,,,279.5938255999936,None,left,0,1.4661901000654325,280.0944637999637,280.8456761999987,280.0944637999637,280.3449374999618,280.0944637999637,280.3449374999618,280.0944637999637,280.3449374999618,280.0944637999637,280.3449374999618,280.0944637999637,280.3449374999618,280.3282644000137,280.8289495999925,280.3282644000137,280.8289495999925,280.3282644000137,280.8289495999925,280.3282644000137,280.8289495999925,280.3282644000137,280.8289495999925,280.3282644000137,280.8289495999925,280.3282644000137,280.8289495999925,280.3282644000137,280.8289495999925,280.0944637999637,None,280.8289495999925,282.8486851999769,0.25,282.8653517999919,None,283.61657549999654,None,,,,,,,[2.01212766],4.760000000000003,0.851063829787234,11023,002,2024_Jan_07_1304,MFTM_A_new1021,2021.2.3,59.67822693139835,
,,,,,,,,stim/Instruction_adaptive.png,conditions/adaptive.xlsx,test,-0.6,-0.6,-0.6,0.6,0.6,left,L,,,,,0,1,1,1,0,47,47,33,,,,,,,,,,,,,,,,,,,,,,,,,,,,,,,,,,,,,,,,,,,,284.11716330004856,None,right,0,1.118764100014232,284.6178475000197,285.3690174999647,284.6178475000197,284.8682802999392,284.6178475000197,284.8682802999392,284.6178475000197,284.8682802999392,284.6178475000197,284.8682802999392,284.6178475000197,284.8682802999392,284.8518248000182,285.3522899999516,284.8518248000182,285.3522899999516,284.8518248000182,285.3522899999516,284.8518248000182,285.3522899999516,284.8518248000182,285.3522899999516,284.8518248000182,285.3522899999516,284.8518248000182,285.3522899999516,284.8518248000182,285.3522899999516,284.6178475000197,None,285.3522899999516,287.3718915999634,0.25,287.38885650003795,None,288.13987920002546,None,,,,,,,[2.01708333],4.6700000000000035,0.8333333333333334,11023,002,2024_Jan_07_1304,MFTM_A_new1021,2021.2.3,59.67822693139835,
,,,,,,,,stim/Instruction_adaptive.png,conditions/adaptive.xlsx,test,0.6,0.6,0.6,-0.6,-0.6,right,R,,,,,0,1,1,1,0,48,48,74,,,,,,,,,,,,,,,,,,,,,,,,,,,,,,,,,,,,,,,,,,,,288.6407482000068,None,left,0,1.0271798999747261,289.14133330003824,289.9089441000251,289.14133330003824,289.40834500000346,289.14133330003824,289.40834500000346,289.14133330003824,289.40834500000346,289.14133330003824,289.40834500000346,289.14133330003824,289.40834500000346,289.3748212000355,289.8757416999433,289.3748212000355,289.8757416999433,289.3748212000355,289.8757416999433,289.3748212000355,289.8757416999433,289.3748212000355,289.8757416999433,289.3748212000355,289.8757416999433,289.3748212000355,289.8757416999433,289.3748212000355,289.8757416999433,289.14133330003824,None,289.8757416999433,291.913320899941,0.26,291.928561000037,None,292.68047340004705,None,,,,,,,[2.02163265],4.580000000000004,0.8163265306122449,11023,002,2024_Jan_07_1304,MFTM_A_new1021,2021.2.3,59.67822693139835,
,,,,,,,,stim/Instruction_adaptive.png,conditions/adaptive.xlsx,test,-0.6,-0.6,-0.6,0.6,0.6,left,L,,,,,0,1,1,1,0,49,49,15,,,,,,,,,,,,,,,,,,,,,,,,,,,,,,,,,,,,,,,,,,,,293.1806358000031,None,left,1,0.9751132000237703,293.6814283999847,294.46728340000845,293.6814283999847,293.9650574999396,293.6814283999847,293.9650574999396,293.6814283999847,293.9650574999396,293.6814283999847,293.9650574999396,293.6814283999847,293.9650574999396,293.9482880999567,294.4493240000447,293.9482880999567,294.4493240000447,293.9482880999567,294.4493240000447,293.9482880999567,294.4493240000447,293.9482880999567,294.4493240000447,293.9482880999567,294.4493240000447,293.9482880999567,294.4493240000447,293.9482880999567,294.4493240000447,293.6814283999847,None,294.4493240000447,296.4855472999625,0.28,296.501999399974,None,297.2531436999561,None,,,,,,,[2.0256],4.610000000000004,0.82,11023,002,2024_Jan_07_1304,MFTM_A_new1021,2021.2.3,59.67822693139835,
,,,,,,,,stim/Instruction_adaptive.png,conditions/adaptive.xlsx,test,0.6,0.6,0.6,-0.6,-0.6,right,R,,,,,0,1,1,1,0,50,50,72,,,,,,,,,,,,,,,,,,,,,,,,,,,,,,,,,,,,,,,,,,,,297.7541914000176,None,left,0,1.5218694999348372,298.25480490003247,299.03933639999013,298.25480490003247,298.538387699984,298.25480490003247,298.538387699984,298.25480490003247,298.538387699984,298.25480490003247,298.538387699984,298.25480490003247,298.538387699984,298.5052430999931,299.00648670003284,298.5052430999931,299.00648670003284,298.5052430999931,299.00648670003284,298.5052430999931,299.00648670003284,298.5052430999931,299.00648670003284,298.5052430999931,299.00648670003284,298.5052430999931,299.00648670003284,298.5052430999931,299.00648670003284,298.25480490003247,None,299.00648670003284,301.0425509000197,0.27,301.05906450003386,None,301.8100842999993,None,,,,,,,[2.02960784],4.520000000000003,0.803921568627451,11023,002,2024_Jan_07_1304,MFTM_A_new1021,2021.2.3,59.67822693139835,
,,,,,,,,stim/Instruction_adaptive.png,conditions/adaptive.xlsx,test,-0.6,-0.6,-0.6,0.6,0.6,left,L,,,,,0,1,1,1,0,51,51,93,,,,,,,,,,,,,,,,,,,,,,,,,,,,,,,,,,,,,,,,,,,,302.31113119993825,None,left,1,1.045023399987258,302.81159089994617,303.6126848999411,302.81159089994617,303.11187729996163,302.81159089994617,303.11187729996163,302.81159089994617,303.11187729996163,302.81159089994617,303.11187729996163,302.81159089994617,303.11187729996163,303.07864830002654,303.57935050001834,303.07864830002654,303.57935050001834,303.07864830002654,303.57935050001834,303.07864830002654,303.57935050001834,303.07864830002654,303.57935050001834,303.07864830002654,303.57935050001834,303.07864830002654,303.57935050001834,303.07864830002654,303.57935050001834,302.81159089994617,None,303.57935050001834,305.6161315999925,0.29000000000000004,305.6490054000169,None,306.4000379999634,None,,,,,,,[2.03307692],4.550000000000003,0.8076923076923077,11023,002,2024_Jan_07_1304,MFTM_A_new1021,2021.2.3,59.67822693139835,
,,,,,,,,stim/Instruction_adaptive.png,conditions/adaptive.xlsx,test,0.6,0.6,0.6,-0.6,-0.6,right,R,,,,,0,1,1,1,0,52,52,84,,,,,,,,,,,,,,,,,,,,,,,,,,,,,,,,,,,,,,,,,,,,306.90132730000187,None,right,1,1.1668785000219941,307.4017789999489,308.1866816999391,307.4017789999489,307.6853564999765,307.4017789999489,307.6853564999765,307.4017789999489,307.6853564999765,307.4017789999489,307.6853564999765,307.4017789999489,307.6853564999765,307.6690574999666,308.1695825000061,307.6690574999666,308.1695825000061,307.6690574999666,308.1695825000061,307.6690574999666,308.1695825000061,307.6690574999666,308.1695825000061,307.6690574999666,308.1695825000061,307.6690574999666,308.1695825000061,307.6690574999666,308.1695825000061,307.4017789999489,None,308.1695825000061,310.20590689999517,0.28,310.22256939997897,None,310.9736509999493,None,,,,,,,[2.03660377],4.580000000000004,0.8113207547169812,11023,002,2024_Jan_07_1304,MFTM_A_new1021,2021.2.3,59.67822693139835,
,,,,,,,,stim/Instruction_adaptive.png,conditions/adaptive.xlsx,test,-0.6,-0.6,-0.6,0.6,0.6,left,L,,,,,0,1,1,1,0,53,53,13,,,,,,,,,,,,,,,,,,,,,,,,,,,,,,,,,,,,,,,,,,,,311.4744339999743,None,left,1,1.1773842999245971,311.9751149000367,312.76011220004875,311.9751149000367,312.25891269999556,311.9751149000367,312.25891269999556,311.9751149000367,312.25891269999556,311.9751149000367,312.25891269999556,311.9751149000367,312.25891269999556,312.2422728999518,312.7428910000017,312.2422728999518,312.7428910000017,312.2422728999518,312.7428910000017,312.2422728999518,312.7428910000017,312.2422728999518,312.7428910000017,312.2422728999518,312.7428910000017,312.2422728999518,312.7428910000017,312.2422728999518,312.7428910000017,311.9751149000367,None,312.7428910000017,None,0.28,314.7959963999456,None,315.54715690005105,None,,,,,,,[2.04],4.610000000000004,0.8148148148148148,11023,002,2024_Jan_07_1304,MFTM_A_new1021,2021.2.3,59.67822693139835,
,,,,,,,,stim/Instruction_adaptive.png,conditions/adaptive.xlsx,test,0.6,0.6,0.6,-0.6,-0.6,right,R,,,,,0,1,1,1,0,54,54,42,,,,,,,,,,,,,,,,,,,,,,,,,,,,,,,,,,,,,,,,,,,,316.047864299966,None,right,1,0.9641502000158653,316.5485903000226,317.3168300000252,316.5485903000226,316.83233689994086,316.5485903000226,316.83233689994086,316.5485903000226,316.83233689994086,316.5485903000226,316.83233689994086,316.5485903000226,316.83233689994086,316.7989522999851,317.3009801999433,316.7989522999851,317.3009801999433,316.7989522999851,317.3009801999433,316.7989522999851,317.3009801999433,316.7989522999851,317.3009801999433,316.7989522999851,317.3009801999433,316.7989522999851,317.3009801999433,316.7989522999851,317.3009801999433,316.5485903000226,None,317.3009801999433,319.35521329997573,0.27,319.36941189994104,None,320.12106080004014,None,,,,,,,[2.04345455],4.640000000000004,0.8181818181818182,11023,002,2024_Jan_07_1304,MFTM_A_new1021,2021.2.3,59.67822693139835,
,,,,,,,,stim/Instruction_adaptive.png,conditions/adaptive.xlsx,test,0.6,0.6,0.6,-0.6,-0.6,right,R,,,,,0,1,1,1,0,55,55,78,,,,,,,,,,,,,,,,,,,,,,,,,,,,,,,,,,,,,,,,,,,,320.62148770003114,None,right,1,1.1587904000189155,321.1219579000026,321.8899580000434,321.1219579000026,321.3891753000207,321.1219579000026,321.3891753000207,321.1219579000026,321.3891753000207,321.1219579000026,321.3891753000207,321.1219579000026,321.3891753000207,321.3723561000079,321.87306919996627,321.3723561000079,321.87306919996627,321.3723561000079,321.87306919996627,321.3723561000079,321.87306919996627,321.3723561000079,321.87306919996627,321.3723561000079,321.87306919996627,321.3723561000079,321.87306919996627,321.3723561000079,321.87306919996627,321.1219579000026,None,321.87306919996627,323.9260959000094,0.26,323.94288790004794,None,324.69408779998776,None,,,,,,,[2.04696429],4.6700000000000035,0.8214285714285714,11023,002,2024_Jan_07_1304,MFTM_A_new1021,2021.2.3,59.67822693139835,
,,,,,,,,stim/Instruction_adaptive.png,conditions/adaptive.xlsx,test,-0.6,-0.6,-0.6,0.6,0.6,left,L,,,,,0,1,1,1,0,56,56,87,,,,,,,,,,,,,,,,,,,,,,,,,,,,,,,,,,,,,,,,,,,,325.1947429999709,None,left,1,0.8653337999712676,325.6954764999682,326.46316060004756,325.6954764999682,325.962526599993,325.6954764999682,325.962526599993,325.6954764999682,325.962526599993,325.6954764999682,325.962526599993,325.6954764999682,325.962526599993,325.9293506999966,326.4310637000017,325.9293506999966,326.4310637000017,325.9293506999966,326.4310637000017,325.9293506999966,326.4310637000017,325.9293506999966,326.4310637000017,325.9293506999966,326.4310637000017,325.9293506999966,326.4310637000017,325.9293506999966,326.4310637000017,325.6954764999682,None,326.4310637000017,328.4828501000302,0.26,328.5162715000333,None,329.2674335000338,None,,,,,,,[2.05035088],4.690000000000004,0.8245614035087719,11023,002,2024_Jan_07_1304,MFTM_A_new1021,2021.2.3,59.67822693139835,
,,,,,,,,stim/Instruction_adaptive.png,conditions/adaptive.xlsx,test,-0.6,-0.6,-0.6,0.6,0.6,left,L,,,,,0,1,1,1,0,57,57,9,,,,,,,,,,,,,,,,,,,,,,,,,,,,,,,,,,,,,,,,,,,,329.7680685999803,None,left,1,0.6999443999957293,330.26878699997906,331.0199772999622,330.26878699997906,330.5192221000325,330.26878699997906,330.5192221000325,330.26878699997906,330.5192221000325,330.26878699997906,330.5192221000325,330.26878699997906,330.5192221000325,330.50252300000284,331.0031595999608,330.50252300000284,331.0031595999608,330.50252300000284,331.0031595999608,330.50252300000284,331.0031595999608,330.50252300000284,331.0031595999608,330.50252300000284,331.0031595999608,330.50252300000284,331.0031595999608,330.50252300000284,331.0031595999608,330.26878699997906,None,331.0031595999608,333.05758459994104,0.25,333.07316359994,None,333.82417979999445,None,,,,,,,[2.0537931],4.720000000000004,0.8275862068965517,11023,002,2024_Jan_07_1304,MFTM_A_new1021,2021.2.3,59.67822693139835,
,,,,,,,,stim/Instruction_adaptive.png,conditions/adaptive.xlsx,test,0.6,0.6,0.6,-0.6,-0.6,right,R,,,,,0,1,1,1,0,58,58,36,,,,,,,,,,,,,,,,,,,,,,,,,,,,,,,,,,,,,,,,,,,,334.32603670004755,None,left,0,1.0073908000485972,334.82551949995104,335.577370999963,334.82551949995104,335.07628789998125,334.82551949995104,335.07628789998125,334.82551949995104,335.07628789998125,334.82551949995104,335.07628789998125,334.82551949995104,335.07628789998125,335.05992339993827,335.55996899993625,335.05992339993827,335.55996899993625,335.05992339993827,335.55996899993625,335.05992339993827,335.55996899993625,335.05992339993827,335.55996899993625,335.05992339993827,335.55996899993625,335.05992339993827,335.55996899993625,335.05992339993827,335.55996899993625,334.82551949995104,None,335.55996899993625,337.63109749997966,0.25,337.64585480000824,None,338.3975710000377,None,,,,,,,[2.05711864],4.640000000000004,0.8135593220338984,11023,002,2024_Jan_07_1304,MFTM_A_new1021,2021.2.3,59.67822693139835,
,,,,,,,,stim/Instruction_adaptive.png,conditions/adaptive.xlsx,test,0.6,0.6,0.6,-0.6,-0.6,right,R,,,,,0,1,1,1,0,59,59,22,,,,,,,,,,,,,,,,,,,,,,,,,,,,,,,,,,,,,,,,,,,,338.89822650002316,None,left,0,0.904342099907808,339.40033750003204,340.1668788000243,339.40033750003204,339.666074299952,339.40033750003204,339.666074299952,339.40033750003204,339.666074299952,339.40033750003204,339.666074299952,339.40033750003204,339.666074299952,339.6493268000195,340.15007850003894,339.6493268000195,340.15007850003894,339.6493268000195,340.15007850003894,339.6493268000195,340.15007850003894,339.6493268000195,340.15007850003894,339.6493268000195,340.15007850003894,339.6493268000195,340.15007850003894,339.6493268000195,340.15007850003894,339.40033750003204,None,340.15007850003894,None,0.26,342.22013200004585,None,342.97120030003134,None,,,,,,,[2.06016667],4.560000000000004,0.8,11023,002,2024_Jan_07_1304,MFTM_A_new1021,2021.2.3,59.67822693139835,
,,,,,,,,stim/Instruction_adaptive.png,conditions/adaptive.xlsx,test,-0.6,-0.6,-0.6,0.6,0.6,left,L,,,,,0,1,1,1,0,60,60,89,,,,,,,,,,,,,,,,,,,,,,,,,,,,,,,,,,,,,,,,,,,,343.47173350001685,None,left,1,0.7000655999872833,343.97256200003903,344.7569416000042,343.97256200003903,344.25640199996997,343.97256200003903,344.25640199996997,343.97256200003903,344.25640199996997,343.97256200003903,344.25640199996997,343.97256200003903,344.25640199996997,344.23960550001357,344.7401875000214,344.23960550001357,344.7401875000214,344.23960550001357,344.7401875000214,344.23960550001357,344.7401875000214,344.23960550001357,344.7401875000214,344.23960550001357,344.7401875000214,344.23960550001357,344.7401875000214,344.23960550001357,344.7401875000214,343.97256200003903,None,344.7401875000214,346.81014109996613,0.28,346.8266954999417,None,347.57806850003544,None,,,,,,,[2.06278689],4.590000000000003,0.8032786885245902,11023,002,2024_Jan_07_1304,MFTM_A_new1021,2021.2.3,59.67822693139835,
,,,,,,,,stim/Instruction_adaptive.png,conditions/adaptive.xlsx,test,-0.6,-0.6,-0.6,0.6,0.6,left,L,,,,,0,1,1,1,0,61,61,85,,,,,,,,,,,,,,,,,,,,,,,,,,,,,,,,,,,,,,,,,,,,348.07861049997155,None,right,0,0.7978432000381872,348.5793857999379,349.3640454999404,348.5793857999379,348.8631255000364,348.5793857999379,348.8631255000364,348.5793857999379,348.8631255000364,348.5793857999379,348.8631255000364,348.5793857999379,348.8631255000364,348.8297348000342,349.3303304000292,348.8297348000342,349.3303304000292,348.8297348000342,349.3303304000292,348.8297348000342,349.3303304000292,348.8297348000342,349.3303304000292,348.8297348000342,349.3303304000292,348.8297348000342,349.3303304000292,348.8297348000342,349.3303304000292,348.5793857999379,None,349.3303304000292,351.4006997999968,0.27,351.41698179999366,None,352.1679956000298,None,,,,,,,[2.06548387],4.510000000000003,0.7903225806451613,11023,002,2024_Jan_07_1304,MFTM_A_new1021,2021.2.3,59.67822693139835,
,,,,,,,,stim/Instruction_adaptive.png,conditions/adaptive.xlsx,test,0.6,0.6,0.6,-0.6,-0.6,right,R,,,,,0,1,1,1,0,62,62,46,,,,,,,,,,,,,,,,,,,,,,,,,,,,,,,,,,,,,,,,,,,,352.6687274000142,None,right,1,0.5350962999509647,353.16948809998576,353.97086080000736,353.16948809998576,353.46994159999304,353.16948809998576,353.46994159999304,353.16948809998576,353.46994159999304,353.16948809998576,353.46994159999304,353.16948809998576,353.46994159999304,353.4367111000465,353.93716169998515,353.4367111000465,353.93716169998515,353.4367111000465,353.93716169998515,353.4367111000465,353.93716169998515,353.4367111000465,353.93716169998515,353.4367111000465,353.93716169998515,353.4367111000465,353.93716169998515,353.4367111000465,353.93716169998515,353.16948809998576,None,353.93716169998515,356.00741990003735,0.29000000000000004,356.04047220002394,None,356.7915753000416,None,,,,,,,[2.06777778],4.540000000000004,0.7936507936507936,11023,002,2024_Jan_07_1304,MFTM_A_new1021,2021.2.3,59.67822693139835,
,,,,,,,,stim/Instruction_adaptive.png,conditions/adaptive.xlsx,test,0.6,0.6,0.6,-0.6,-0.6,right,R,,,,,0,1,1,1,0,63,63,70,,,,,,,,,,,,,,,,,,,,,,,,,,,,,,,,,,,,,,,,,,,,357.2922569999937,None,left,0,0.5277544999262318,357.7929312000051,358.5775373999495,357.7929312000051,358.0768330999417,357.7929312000051,358.0768330999417,357.7929312000051,358.0768330999417,357.7929312000051,358.0768330999417,357.7929312000051,358.0768330999417,358.0601432999829,358.5609463000437,358.0601432999829,358.5609463000437,358.0601432999829,358.5609463000437,358.0601432999829,358.5609463000437,358.0601432999829,358.5609463000437,358.0601432999829,358.5609463000437,358.0601432999829,358.5609463000437,358.0601432999829,358.5609463000437,357.7929312000051,None,358.5609463000437,360.6307244000491,0.28,360.6472476000199,None,361.3983993999427,None,,,,,,,[2.07015625],4.4600000000000035,0.78125,11023,002,2024_Jan_07_1304,MFTM_A_new1021,2021.2.3,59.67822693139835,
,,,,,,,,stim/Instruction_adaptive.png,conditions/adaptive.xlsx,test,-0.6,-0.6,-0.6,0.6,0.6,left,L,,,,,0,1,1,1,0,64,64,29,,,,,,,,,,,,,,,,,,,,,,,,,,,,,,,,,,,,,,,,,,,,361.8990862000501,None,right,0,0.7928150000516325,362.39974809996784,363.20107189996634,362.39974809996784,362.70031350001227,362.39974809996784,362.70031350001227,362.39974809996784,362.70031350001227,362.39974809996784,362.70031350001227,362.39974809996784,362.70031350001227,362.68367669999134,363.1842565999832,362.68367669999134,363.1842565999832,362.68367669999134,363.1842565999832,362.68367669999134,363.1842565999832,362.68367669999134,363.1842565999832,362.68367669999134,363.1842565999832,362.68367669999134,363.1842565999832,362.68367669999134,363.1842565999832,362.39974809996784,None,363.1842565999832,None,0.30000000000000004,365.2708652999718,None,366.02170990000013,None,,,,,,,[2.07215385],4.370000000000004,0.7692307692307693,11023,002,2024_Jan_07_1304,MFTM_A_new1021,2021.2.3,59.67822693139835,
,,,,,,,,stim/Instruction_adaptive.png,conditions/adaptive.xlsx,test,0.6,0.6,0.6,-0.6,-0.6,right,R,,,,,0,1,1,1,0,65,65,94,,,,,,,,,,,,,,,,,,,,,,,,,,,,,,,,,,,,,,,,,,,,366.52263709995896,None,right,1,0.6737175000598654,367.0235546999611,367.8594399000285,367.0235546999611,367.35710529994685,367.0235546999611,367.35710529994685,367.0235546999611,367.35710529994685,367.0235546999611,367.35710529994685,367.0235546999611,367.35710529994685,367.32381059997715,367.8245955000166,367.32381059997715,367.8245955000166,367.32381059997715,367.8245955000166,367.32381059997715,367.8245955000166,367.32381059997715,367.8245955000166,367.32381059997715,367.8245955000166,367.32381059997715,367.8245955000166,367.32381059997715,367.8245955000166,367.0235546999611,None,367.8245955000166,369.9127450999804,0.32000000000000006,369.92748039995786,None,370.6790158000076,None,,,,,,,[2.07378788],4.400000000000004,0.7727272727272727,11023,002,2024_Jan_07_1304,MFTM_A_new1021,2021.2.3,59.67822693139835,
,,,,,,,,stim/Instruction_adaptive.png,conditions/adaptive.xlsx,test,0.6,0.6,0.6,-0.6,-0.6,right,R,,,,,0,1,1,1,0,66,66,52,,,,,,,,,,,,,,,,,,,,,,,,,,,,,,,,,,,,,,,,,,,,371.17938390001655,None,right,1,1.024441699963063,371.6802743000444,372.4980520999525,371.6802743000444,371.99741259997245,371.6802743000444,371.99741259997245,371.6802743000444,371.99741259997245,371.6802743000444,371.99741259997245,371.6802743000444,371.99741259997245,371.9809312999714,372.48134359996766,371.9809312999714,372.48134359996766,371.9809312999714,372.48134359996766,371.9809312999714,372.48134359996766,371.9809312999714,372.48134359996766,371.9809312999714,372.48134359996766,371.9809312999714,372.48134359996766,371.9809312999714,372.48134359996766,371.6802743000444,None,372.4649958999362,374.5513755000429,0.31000000000000005,374.56788350001443,None,375.31901149998885,None,,,,,,,[2.07552239],4.430000000000003,0.7761194029850746,11023,002,2024_Jan_07_1304,MFTM_A_new1021,2021.2.3,59.67822693139835,
,,,,,,,,stim/Instruction_adaptive.png,conditions/adaptive.xlsx,test,-0.6,-0.6,-0.6,0.6,0.6,left,L,,,,,0,1,1,1,0,67,67,37,,,,,,,,,,,,,,,,,,,,,,,,,,,,,,,,,,,,,,,,,,,,375.8197229000507,None,left,1,0.6402389999711886,376.3207128000213,377.1386955999769,376.3207128000213,376.63759359996766,376.3207128000213,376.63759359996766,376.3207128000213,376.63759359996766,376.3207128000213,376.63759359996766,376.3207128000213,376.63759359996766,376.604759800015,377.1052392999409,376.604759800015,377.1052392999409,376.604759800015,377.1052392999409,376.604759800015,377.1052392999409,376.604759800015,377.1052392999409,376.604759800015,377.1052392999409,376.604759800015,377.1052392999409,376.604759800015,377.1052392999409,376.3207128000213,None,377.1052392999409,379.1914879999822,0.31000000000000005,379.2081181999529,None,379.959056599997,None,,,,,,,[2.07720588],4.4600000000000035,0.7794117647058824,11023,002,2024_Jan_07_1304,MFTM_A_new1021,2021.2.3,59.67822693139835,
,,,,,,,,stim/Instruction_adaptive.png,conditions/adaptive.xlsx,test,0.6,0.6,0.6,-0.6,-0.6,right,R,,,,,0,1,1,1,0,68,68,92,,,,,,,,,,,,,,,,,,,,,,,,,,,,,,,,,,,,,,,,,,,,380.45999610004947,None,right,1,0.7042001000372693,380.9606640000129,381.76183970004786,380.9606640000129,381.2609720999608,380.9606640000129,381.2609720999608,380.9606640000129,381.2609720999608,380.9606640000129,381.2609720999608,380.9606640000129,381.2609720999608,381.24424659996293,381.74525459995493,381.24424659996293,381.74525459995493,381.24424659996293,381.74525459995493,381.24424659996293,381.74525459995493,381.24424659996293,381.74525459995493,381.24424659996293,381.74525459995493,381.24424659996293,381.74525459995493,381.24424659996293,381.74525459995493,380.9606640000129,None,381.74525459995493,383.8314457000233,0.30000000000000004,383.84827840002254,None,384.59938749996945,None,,,,,,,[2.07898551],4.480000000000004,0.782608695652174,11023,002,2024_Jan_07_1304,MFTM_A_new1021,2021.2.3,59.67822693139835,
,,,,,,,,stim/Instruction_adaptive.png,conditions/adaptive.xlsx,test,-0.6,-0.6,-0.6,0.6,0.6,left,L,,,,,0,1,1,1,0,69,69,95,,,,,,,,,,,,,,,,,,,,,,,,,,,,,,,,,,,,,,,,,,,,385.1000026999973,None,right,0,1.0313976000761613,385.6014032999519,386.40201499999966,385.6014032999519,385.9014507000102,385.6014032999519,385.9014507000102,385.6014032999519,385.9014507000102,385.6014032999519,385.9014507000102,385.6014032999519,385.9014507000102,385.8679170999676,386.36843160004355,385.8679170999676,386.36843160004355,385.8679170999676,386.36843160004355,385.8679170999676,386.36843160004355,385.8679170999676,386.36843160004355,385.8679170999676,386.36843160004355,385.8679170999676,386.36843160004355,385.8679170999676,386.36843160004355,385.6014032999519,None,386.36843160004355,388.4552588999504,0.29000000000000004,388.47175340005197,None,389.22301940002944,None,,,,,,,[2.08085714],4.410000000000004,0.7714285714285715,11023,002,2024_Jan_07_1304,MFTM_A_new1021,2021.2.3,59.67822693139835,
,,,,,,,,stim/Instruction_adaptive.png,conditions/adaptive.xlsx,test,-0.6,-0.6,-0.6,0.6,0.6,left,L,,,,,0,1,1,1,0,70,70,3,,,,,,,,,,,,,,,,,,,,,,,,,,,,,,,,,,,,,,,,,,,,389.7234937000321,None,left,1,0.78440879995469,390.2244700000156,391.0427525000414,390.2244700000156,390.54223489994183,390.2244700000156,390.54223489994183,390.2244700000156,390.54223489994183,390.2244700000156,390.54223489994183,390.2244700000156,390.54223489994183,390.52484460000414,391.0255656000227,390.52484460000414,391.0255656000227,390.52484460000414,391.0255656000227,390.52484460000414,391.0255656000227,390.52484460000414,391.0255656000227,390.52484460000414,391.0255656000227,390.52484460000414,391.0255656000227,390.52484460000414,391.0255656000227,390.2244700000156,None,391.0255656000227,393.112457399955,0.31000000000000005,393.1290877000429,None,393.8797898000339,None,,,,,,,[2.08239437],4.440000000000003,0.7746478873239436,11023,002,2024_Jan_07_1304,MFTM_A_new1021,2021.2.3,59.67822693139835,
,,,,,,,,stim/Instruction_adaptive.png,conditions/adaptive.xlsx,test,-0.6,-0.6,-0.6,0.6,0.6,left,L,,,,,0,1,1,1,0,71,71,31,,,,,,,,,,,,,,,,,,,,,,,,,,,,,,,,,,,,,,,,,,,,394.38053329999093,None,left,1,0.7834831000072882,394.88142410002183,395.6826417000266,394.88142410002183,395.1815239000134,394.88142410002183,395.1815239000134,394.88142410002183,395.1815239000134,394.88142410002183,395.1815239000134,394.88142410002183,395.1815239000134,395.16510119999293,395.6658900999464,395.16510119999293,395.6658900999464,395.16510119999293,395.6658900999464,395.16510119999293,395.6658900999464,395.16510119999293,395.6658900999464,395.16510119999293,395.6658900999464,395.16510119999293,395.6658900999464,395.16510119999293,395.6658900999464,394.88142410002183,None,395.6658900999464,397.75224529998377,0.30000000000000004,397.76896010001656,None,398.5199092000257,None,,,,,,,[2.08402778],4.4600000000000035,0.7777777777777778,11023,002,2024_Jan_07_1304,MFTM_A_new1021,2021.2.3,59.67822693139835,
,,,,,,,,stim/Instruction_adaptive.png,conditions/adaptive.xlsx,test,-0.6,-0.6,-0.6,0.6,0.6,left,L,,,,,0,1,1,1,0,72,72,73,,,,,,,,,,,,,,,,,,,,,,,,,,,,,,,,,,,,,,,,,,,,399.02083669998683,None,left,1,0.5838498000521213,399.5214873999357,400.3242557999911,399.5214873999357,399.82192519993987,399.5214873999357,399.82192519993987,399.5214873999357,399.82192519993987,399.5214873999357,399.82192519993987,399.5214873999357,399.82192519993987,399.8051160000032,400.30610519996844,399.8051160000032,400.30610519996844,399.8051160000032,400.30610519996844,399.8051160000032,400.30610519996844,399.8051160000032,400.30610519996844,399.8051160000032,400.30610519996844,399.8051160000032,400.30610519996844,399.8051160000032,400.30610519996844,399.5214873999357,None,400.30610519996844,402.3924380999524,0.30000000000000004,402.40920320001896,None,403.1613153000362,None,,,,,,,[2.08561644],4.490000000000004,0.7808219178082192,11023,002,2024_Jan_07_1304,MFTM_A_new1021,2021.2.3,59.67822693139835,
,,,,,,,,stim/Instruction_adaptive.png,conditions/adaptive.xlsx,test,0.6,0.6,0.6,-0.6,-0.6,right,R,,,,,0,1,1,1,0,73,73,28,,,,,,,,,,,,,,,,,,,,,,,,,,,,,,,,,,,,,,,,,,,,403.6609693999635,None,left,0,0.8951395000331104,404.1615685999859,404.96306460001506,404.1615685999859,404.4621915000025,404.1615685999859,404.4621915000025,404.1615685999859,404.4621915000025,404.1615685999859,404.4621915000025,404.1615685999859,404.4621915000025,404.42873269994743,404.92940899997484,404.42873269994743,404.92940899997484,404.42873269994743,404.92940899997484,404.42873269994743,404.92940899997484,404.42873269994743,404.92940899997484,404.42873269994743,404.92940899997484,404.42873269994743,404.92940899997484,404.42873269994743,404.92940899997484,404.1615685999859,None,404.92940899997484,407.0159882999724,0.29000000000000004,407.0499349000165,None,407.80051880003884,None,,,,,,,[2.0872973],4.410000000000004,0.7702702702702703,11023,002,2024_Jan_07_1304,MFTM_A_new1021,2021.2.3,59.67822693139835,
,,,,,,,,stim/Instruction_adaptive.png,conditions/adaptive.xlsx,test,-0.6,-0.6,-0.6,0.6,0.6,left,L,,,,,0,1,1,1,0,74,74,41,,,,,,,,,,,,,,,,,,,,,,,,,,,,,,,,,,,,,,,,,,,,408.30110819998663,None,left,1,1.1590114999562502,408.80180979997385,409.6203315999592,408.80180979997385,409.11889469996095,408.80180979997385,409.11889469996095,408.80180979997385,409.11889469996095,408.80180979997385,409.11889469996095,408.80180979997385,409.11889469996095,409.1022878000513,409.60311579995323,409.1022878000513,409.60311579995323,409.1022878000513,409.60311579995323,409.1022878000513,409.60311579995323,409.1022878000513,409.60311579995323,409.1022878000513,409.60311579995323,409.1022878000513,409.60311579995323,409.1022878000513,409.60311579995323,408.80180979997385,None,409.60311579995323,None,0.31000000000000005,411.70622699998785,None,412.4573390999576,None,,,,,,,[2.08866667],4.440000000000003,0.7733333333333333,11023,002,2024_Jan_07_1304,MFTM_A_new1021,2021.2.3,59.67822693139835,
,,,,,,,,stim/Instruction_adaptive.png,conditions/adaptive.xlsx,test,-0.6,-0.6,-0.6,0.6,0.6,left,L,,,,,0,1,1,1,0,75,75,67,,,,,,,,,,,,,,,,,,,,,,,,,,,,,,,,,,,,,,,,,,,,412.95813329995144,None,left,1,0.9180475000757724,413.4588068999583,414.2610472999513,413.4588068999583,413.7592220000224,413.4588068999583,413.7592220000224,413.4588068999583,413.7592220000224,413.4588068999583,413.7592220000224,413.4588068999583,413.7592220000224,413.74247739999555,414.24344170000404,413.74247739999555,414.24344170000404,413.74247739999555,414.24344170000404,413.74247739999555,414.24344170000404,413.74247739999555,414.24344170000404,413.74247739999555,414.24344170000404,413.74247739999555,414.24344170000404,413.74247739999555,414.24344170000404,413.4588068999583,None,414.24344170000404,416.3465594999725,0.30000000000000004,416.36314969998784,None,417.11481689999346,None,,,,,,,[2.09013158],4.4600000000000035,0.7763157894736842,11023,002,2024_Jan_07_1304,MFTM_A_new1021,2021.2.3,59.67822693139835,
,,,,,,,,stim/Instruction_adaptive.png,conditions/adaptive.xlsx,test,-0.6,-0.6,-0.6,0.6,0.6,left,L,,,,,0,1,1,1,0,76,76,45,,,,,,,,,,,,,,,,,,,,,,,,,,,,,,,,,,,,,,,,,,,,417.61490359995514,None,left,1,0.6855937000364065,418.11554499994963,418.91796340001747,418.11554499994963,418.4162087000441,418.11554499994963,418.4162087000441,418.11554499994963,418.4162087000441,418.11554499994963,418.4162087000441,418.11554499994963,418.4162087000441,418.39944219996687,418.899622399942,418.39944219996687,418.899622399942,418.39944219996687,418.899622399942,418.39944219996687,418.899622399942,418.39944219996687,418.899622399942,418.39944219996687,418.899622399942,418.39944219996687,418.899622399942,418.39944219996687,418.899622399942,418.11554499994963,None,418.899622399942,421.00346140004694,0.30000000000000004,421.0200643000426,None,421.77095699997153,None,,,,,,,[2.09155844],4.490000000000004,0.7792207792207793,11023,002,2024_Jan_07_1304,MFTM_A_new1021,2021.2.3,59.67822693139835,
,,,,,,,,stim/Instruction_adaptive.png,conditions/adaptive.xlsx,test,0.6,0.6,0.6,-0.6,-0.6,right,R,,,,,0,1,1,1,0,77,77,56,,,,,,,,,,,,,,,,,,,,,,,,,,,,,,,,,,,,,,,,,,,,422.2720013000071,None,right,1,1.0040553000289947,422.7726824999554,423.5751036000438,422.7726824999554,423.0729790000478,422.7726824999554,423.0729790000478,422.7726824999554,423.0729790000478,422.7726824999554,423.0729790000478,422.7726824999554,423.0729790000478,423.0397830000147,423.54058220004663,423.0397830000147,423.54058220004663,423.0397830000147,423.54058220004663,423.0397830000147,423.54058220004663,423.0397830000147,423.54058220004663,423.0397830000147,423.54058220004663,423.0397830000147,423.54058220004663,423.0397830000147,423.54058220004663,422.7726824999554,None,423.54058220004663,425.64376190002076,0.29000000000000004,425.6601721999468,None,426.4114257999463,None,,,,,,,[2.09307692],4.510000000000003,0.782051282051282,11023,002,2024_Jan_07_1304,MFTM_A_new1021,2021.2.3,59.67822693139835,
,,,,,,,,stim/Instruction_adaptive.png,conditions/adaptive.xlsx,test,0.6,0.6,0.6,-0.6,-0.6,right,R,,,,,0,1,1,1,0,78,78,80,,,,,,,,,,,,,,,,,,,,,,,,,,,,,,,,,,,,,,,,,,,,426.911986000021,None,left,0,1.1161107999505475,427.41287400003057,428.2139003999764,427.41287400003057,427.7133052999852,427.41287400003057,427.7133052999852,427.41287400003057,427.7133052999852,427.41287400003057,427.7133052999852,427.41287400003057,427.7133052999852,427.6798161000479,428.1807731000008,427.6798161000479,428.1807731000008,427.6798161000479,428.1807731000008,427.6798161000479,428.1807731000008,427.6798161000479,428.1807731000008,427.6798161000479,428.1807731000008,427.6798161000479,428.1807731000008,427.6798161000479,428.1807731000008,427.41287400003057,None,428.1807731000008,430.283813499962,0.29000000000000004,430.3004848000128,None,431.05163180001546,None,,,,,,,[2.09455696],4.440000000000003,0.7721518987341772,11023,002,2024_Jan_07_1304,MFTM_A_new1021,2021.2.3,59.67822693139835,
,,,,,,,,stim/Instruction_adaptive.png,conditions/adaptive.xlsx,test,0.6,0.6,0.6,-0.6,-0.6,right,R,,,,,0,1,1,1,0,79,79,40,,,,,,,,,,,,,,,,,,,,,,,,,,,,,,,,,,,,,,,,,,,,431.552488300018,None,left,0,1.099869699915871,432.05309980001766,432.85417259996757,432.05309980001766,432.3535416999366,432.05309980001766,432.3535416999366,432.05309980001766,432.3535416999366,432.05309980001766,432.3535416999366,432.05309980001766,432.3535416999366,432.3367896999698,432.8375903000124,432.3367896999698,432.8375903000124,432.3367896999698,432.8375903000124,432.3367896999698,432.8375903000124,432.3367896999698,432.8375903000124,432.3367896999698,432.8375903000124,432.3367896999698,432.8375903000124,432.3367896999698,432.8375903000124,432.05309980001766,None,432.8375903000124,434.9431752000237,0.30000000000000004,434.95677649998106,None,435.70889290003106,None,,,,,,,[2.095875],4.370000000000004,0.7625,11023,002,2024_Jan_07_1304,MFTM_A_new1021,2021.2.3,59.67822693139835,
,,,,,,,,stim/Instruction_adaptive.png,conditions/adaptive.xlsx,test,-0.6,-0.6,-0.6,0.6,0.6,left,L,,,,,0,1,1,1,0,80,80,91,,,,,,,,,,,,,,,,,,,,,,,,,,,,,,,,,,,,,,,,,,,,436.20923190005124,None,left,1,0.6988304000115022,436.7100974000059,437.544562999974,436.7100974000059,437.04381279996596,436.7100974000059,437.04381279996596,436.7100974000059,437.04381279996596,436.7100974000059,437.04381279996596,436.7100974000059,437.04381279996596,437.0103124999441,437.5111801000312,437.0103124999441,437.5111801000312,437.0103124999441,437.5111801000312,437.0103124999441,437.5111801000312,437.0103124999441,437.5111801000312,437.0103124999441,437.5111801000312,437.0103124999441,437.5111801000312,437.0103124999441,437.5111801000312,436.7100974000059,None,437.5111801000312,439.61430619994644,0.32000000000000006,439.6312081000069,None,440.3820374000352,None,,,,,,,[2.09691358],4.400000000000004,0.7654320987654321,11023,002,2024_Jan_07_1304,MFTM_A_new1021,2021.2.3,59.67822693139835,
,,,,,,,,stim/Instruction_adaptive.png,conditions/adaptive.xlsx,test,-0.6,-0.6,-0.6,0.6,0.6,left,L,,,,,0,1,1,1,0,81,81,57,,,,,,,,,,,,,,,,,,,,,,,,,,,,,,,,,,,,,,,,,,,,440.88270139996894,None,left,1,0.4813505000201985,441.3836247000145,442.20141239999793,441.3836247000145,441.70072490000166,441.3836247000145,441.70072490000166,441.3836247000145,441.70072490000166,441.3836247000145,441.70072490000166,441.3836247000145,441.70072490000166,441.683969900012,442.18481530004647,441.683969900012,442.18481530004647,441.683969900012,442.18481530004647,441.683969900012,442.18481530004647,441.683969900012,442.18481530004647,441.683969900012,442.18481530004647,441.683969900012,442.18481530004647,441.683969900012,442.18481530004647,441.3836247000145,None,442.18481530004647,444.2880011999514,0.31000000000000005,444.30462710000575,None,445.0567008999642,None,,,,,,,[2.09804878],4.4200000000000035,0.7682926829268293,11023,002,2024_Jan_07_1304,MFTM_A_new1021,2021.2.3,59.67822693139835,
,,,,,,,,stim/Instruction_adaptive.png,conditions/adaptive.xlsx,test,-0.6,-0.6,-0.6,0.6,0.6,left,L,,,,,0,1,1,1,0,82,82,21,,,,,,,,,,,,,,,,,,,,,,,,,,,,,,,,,,,,,,,,,,,,445.55701640003826,None,left,1,0.5756251000566408,446.0571156999795,446.87505289993715,446.0571156999795,446.37418689997867,446.0571156999795,446.37418689997867,446.0571156999795,446.37418689997867,446.0571156999795,446.37418689997867,446.0571156999795,446.37418689997867,446.35739899997134,446.85829929995816,446.35739899997134,446.85829929995816,446.35739899997134,446.85829929995816,446.35739899997134,446.85829929995816,446.35739899997134,446.85829929995816,446.35739899997134,446.85829929995816,446.35739899997134,446.85829929995816,446.35739899997134,446.85829929995816,446.0571156999795,None,446.84164540003985,448.9449582999805,0.31000000000000005,448.980117399944,None,449.72937429999,None,,,,,,,[2.09915663],4.440000000000003,0.7710843373493976,11023,002,2024_Jan_07_1304,MFTM_A_new1021,2021.2.3,59.67822693139835,
,,,,,,,,stim/Instruction_adaptive.png,conditions/adaptive.xlsx,test,-0.6,-0.6,-0.6,0.6,0.6,left,L,,,,,0,1,1,1,0,83,83,71,,,,,,,,,,,,,,,,,,,,,,,,,,,,,,,,,,,,,,,,,,,,450.229897000012,None,left,1,0.5100876000942662,450.7307584999362,451.5318872999633,450.7307584999362,451.0312012999784,450.7307584999362,451.0312012999784,450.7307584999362,451.0312012999784,450.7307584999362,451.0312012999784,450.7307584999362,451.0312012999784,451.0144899999723,451.5153302999679,451.0144899999723,451.5153302999679,451.0144899999723,451.5153302999679,451.0144899999723,451.5153302999679,451.0144899999723,451.5153302999679,451.0144899999723,451.5153302999679,451.0144899999723,451.5153302999679,451.0144899999723,451.5153302999679,450.7307584999362,None,451.5153302999679,453.61838420003187,0.30000000000000004,453.6351166999666,None,454.3861756999977,None,,,,,,,[2.10035714],4.4600000000000035,0.7738095238095238,11023,002,2024_Jan_07_1304,MFTM_A_new1021,2021.2.3,59.67822693139835,
,,,,,,,,stim/Instruction_adaptive.png,conditions/adaptive.xlsx,test,0.6,0.6,0.6,-0.6,-0.6,right,R,,,,,0,1,1,1,0,84,84,82,,,,,,,,,,,,,,,,,,,,,,,,,,,,,,,,,,,,,,,,,,,,454.886898900033,None,right,1,0.781102699926123,455.3876805000473,456.1888856999576,455.3876805000473,455.68814750004094,455.3876805000473,455.68814750004094,455.3876805000473,455.68814750004094,455.3876805000473,455.68814750004094,455.3876805000473,455.68814750004094,455.6714173000073,456.1720961999381,455.6714173000073,456.1720961999381,455.6714173000073,456.1720961999381,455.6714173000073,456.1720961999381,455.6714173000073,456.1720961999381,455.6714173000073,456.1720961999381,455.6714173000073,456.1720961999381,455.6714173000073,456.1720961999381,455.3876805000473,None,456.1720961999381,458.2751105000498,0.30000000000000004,458.2918365999358,None,459.04302560002543,None,,,,,,,[2.10152941],4.490000000000004,0.7764705882352941,11023,002,2024_Jan_07_1304,MFTM_A_new1021,2021.2.3,59.67822693139835,
,,,,,,,,stim/Instruction_adaptive.png,conditions/adaptive.xlsx,test,0.6,0.6,0.6,-0.6,-0.6,right,R,,,,,0,1,1,1,0,85,85,6,,,,,,,,,,,,,,,,,,,,,,,,,,,,,,,,,,,,,,,,,,,,459.5438694000477,None,right,1,0.780693200067617,460.04452690004837,460.84556509996764,460.04452690004837,460.3448735999409,460.04452690004837,460.3448735999409,460.04452690004837,460.3448735999409,460.04452690004837,460.3448735999409,460.04452690004837,460.3448735999409,460.3114857999608,460.8124210999813,460.3114857999608,460.8124210999813,460.3114857999608,460.8124210999813,460.3114857999608,460.8124210999813,460.3114857999608,460.8124210999813,460.3114857999608,460.8124210999813,460.3114857999608,460.8124210999813,460.3114857999608,460.8124210999813,460.04452690004837,None,460.8124210999813,462.9159611000214,0.29000000000000004,462.94903050002176,None,463.70165870001074,None,,,,,,,[2.1027907],4.510000000000003,0.7790697674418605,11023,002,2024_Jan_07_1304,MFTM_A_new1021,2021.2.3,59.67822693139835,
,,,,,,,,stim/Instruction_adaptive.png,conditions/adaptive.xlsx,test,0.6,0.6,0.6,-0.6,-0.6,right,R,,,,,0,1,1,1,0,86,86,60,,,,,,,,,,,,,,,,,,,,,,,,,,,,,,,,,,,,,,,,,,,,464.20057250000536,None,right,1,2.011698800022714,464.70119679998606,465.50292859994806,464.70119679998606,465.00195710000116,464.70119679998606,465.00195710000116,464.70119679998606,465.00195710000116,464.70119679998606,465.00195710000116,464.70119679998606,465.00195710000116,464.9684903000016,465.4693868999602,464.9684903000016,465.4693868999602,464.9684903000016,465.4693868999602,464.9684903000016,465.4693868999602,464.9684903000016,465.4693868999602,464.9684903000016,465.4693868999602,464.9684903000016,465.4693868999602,464.9684903000016,465.4693868999602,464.70119679998606,None,465.4693868999602,467.57318339997437,0.29000000000000004,467.605830000015,None,468.35660489997827,None,,,,,,,[2.10402299],4.530000000000004,0.7816091954022989,11023,002,2024_Jan_07_1304,MFTM_A_new1021,2021.2.3,59.67822693139835,
,,,,,,,,stim/Instruction_adaptive.png,conditions/adaptive.xlsx,test,-0.6,-0.6,-0.6,0.6,0.6,left,L,,,,,0,1,1,1,0,87,87,49,,,,,,,,,,,,,,,,,,,,,,,,,,,,,,,,,,,,,,,,,,,,468.8576028000098,None,right,0,1.0585175999440253,469.35828869999386,470.1428509999532,469.35828869999386,469.641893299995,469.35828869999386,469.641893299995,469.35828869999386,469.641893299995,469.35828869999386,469.641893299995,469.35828869999386,469.641893299995,469.625543299946,470.12615040002856,469.625543299946,470.12615040002856,469.625543299946,470.12615040002856,469.625543299946,470.12615040002856,469.625543299946,470.12615040002856,469.625543299946,470.12615040002856,469.625543299946,470.12615040002856,469.625543299946,470.12615040002856,469.35828869999386,None,470.12615040002856,None,0.28,472.2459543000441,None,472.99704909999855,None,,,,,,,[2.10534091],4.470000000000003,0.7727272727272727,11023,002,2024_Jan_07_1304,MFTM_A_new1021,2021.2.3,59.67822693139835,
,,,,,,,,stim/Instruction_adaptive.png,conditions/adaptive.xlsx,test,-0.6,-0.6,-0.6,0.6,0.6,left,L,,,,,0,1,1,1,0,88,88,39,,,,,,,,,,,,,,,,,,,,,,,,,,,,,,,,,,,,,,,,,,,,473.4977566000307,None,left,1,1.0023610999342054,473.99855150002986,474.79963060002774,473.99855150002986,474.2990389999468,473.99855150002986,474.2990389999468,473.99855150002986,474.2990389999468,473.99855150002986,474.2990389999468,473.99855150002986,474.2990389999468,474.2821759999497,474.78279890003614,474.2821759999497,474.78279890003614,474.2821759999497,474.78279890003614,474.2821759999497,474.78279890003614,474.2821759999497,474.78279890003614,474.2821759999497,474.78279890003614,474.2821759999497,474.78279890003614,474.2821759999497,474.78279890003614,473.99855150002986,None,474.78279890003614,None,0.30000000000000004,476.9029042000184,None,477.65394770004787,None,,,,,,,[2.10640449],4.490000000000004,0.7752808988764045,11023,002,2024_Jan_07_1304,MFTM_A_new1021,2021.2.3,59.67822693139835,
,,,,,,,,stim/Instruction_adaptive.png,conditions/adaptive.xlsx,test,0.6,0.6,0.6,-0.6,-0.6,right,R,,,,,0,1,1,1,0,89,89,50,,,,,,,,,,,,,,,,,,,,,,,,,,,,,,,,,,,,,,,,,,,,478.1547355999937,None,left,0,0.7612866999115795,478.65556630003266,479.4566347999498,478.65556630003266,478.95601229998283,478.65556630003266,478.95601229998283,478.65556630003266,478.95601229998283,478.65556630003266,478.95601229998283,478.65556630003266,478.95601229998283,478.9225810000207,479.4232630999759,478.9225810000207,479.4232630999759,478.9225810000207,479.4232630999759,478.9225810000207,479.4232630999759,478.9225810000207,479.4232630999759,478.9225810000207,479.4232630999759,478.9225810000207,479.4232630999759,478.9225810000207,479.4232630999759,478.65556630003266,None,479.4232630999759,481.54327619995456,0.29000000000000004,481.5593791999854,None,482.3110115999589,None,,,,,,,[2.10755556],4.430000000000003,0.7666666666666667,11023,002,2024_Jan_07_1304,MFTM_A_new1021,2021.2.3,59.67822693139835,
,,,,,,,,stim/Instruction_adaptive.png,conditions/adaptive.xlsx,test,0.6,0.6,0.6,-0.6,-0.6,right,R,,,,,0,1,1,1,0,90,90,62,,,,,,,,,,,,,,,,,,,,,,,,,,,,,,,,,,,,,,,,,,,,482.8117707000347,None,left,0,0.8169338000006974,483.31235679995734,484.1303301999578,483.31235679995734,483.630813100026,483.31235679995734,483.630813100026,483.31235679995734,483.630813100026,483.31235679995734,483.630813100026,483.31235679995734,483.630813100026,483.6128587999847,484.1135689000366,483.6128587999847,484.1135689000366,483.6128587999847,484.1135689000366,483.6128587999847,484.1135689000366,483.6128587999847,484.1135689000366,483.6128587999847,484.1135689000366,483.6128587999847,484.1135689000366,483.6128587999847,484.1135689000366,483.31235679995734,None,484.1135689000366,None,0.31000000000000005,486.23324319999665,None,486.9845198999392,None,,,,,,,[2.10846154],4.360000000000003,0.7582417582417582,11023,002,2024_Jan_07_1304,MFTM_A_new1021,2021.2.3,59.67822693139835,
,,,,,,,,stim/Instruction_adaptive.png,conditions/adaptive.xlsx,test,0.6,0.6,0.6,-0.6,-0.6,right,R,,,,,0,1,1,1,0,91,91,26,,,,,,,,,,,,,,,,,,,,,,,,,,,,,,,,,,,,,,,,,,,,487.4851510999724,None,right,1,0.4627260999986902,487.9860219999682,488.82057079998776,487.9860219999682,488.3198211999843,487.9860219999682,488.3198211999843,487.9860219999682,488.3198211999843,487.9860219999682,488.3198211999843,487.9860219999682,488.3198211999843,488.2865260000108,488.7871307999594,488.2865260000108,488.7871307999594,488.2865260000108,488.7871307999594,488.2865260000108,488.7871307999594,488.2865260000108,488.7871307999594,488.2865260000108,488.7871307999594,488.2865260000108,488.7871307999594,488.2865260000108,488.7871307999594,487.9860219999682,None,488.7871307999594,490.9073242000304,0.32000000000000006,490.92376299994066,None,491.67461139999796,None,,,,,,,[2.10923913],4.390000000000003,0.7608695652173914,11023,002,2024_Jan_07_1304,MFTM_A_new1021,2021.2.3,59.67822693139835,
,,,,,,,,stim/Instruction_adaptive.png,conditions/adaptive.xlsx,test,0.6,0.6,0.6,-0.6,-0.6,right,R,,,,,0,1,1,1,0,92,92,86,,,,,,,,,,,,,,,,,,,,,,,,,,,,,,,,,,,,,,,,,,,,492.1755105999764,None,left,0,1.012910999939777,492.676215399988,493.4939960000338,492.676215399988,492.993368800031,492.676215399988,492.993368800031,492.676215399988,492.993368800031,492.676215399988,492.993368800031,492.676215399988,492.993368800031,492.95990559994243,493.460812299978,492.95990559994243,493.460812299978,492.95990559994243,493.460812299978,492.95990559994243,493.460812299978,492.95990559994243,493.460812299978,492.95990559994243,493.460812299978,492.95990559994243,493.460812299978,492.95990559994243,493.460812299978,492.676215399988,None,493.460812299978,495.5804688000353,0.31000000000000005,495.597476099967,None,496.3483375000069,None,,,,,,,[2.11010753],4.320000000000004,0.7526881720430108,11023,002,2024_Jan_07_1304,MFTM_A_new1021,2021.2.3,59.67822693139835,
,,,,,,,,stim/Instruction_adaptive.png,conditions/adaptive.xlsx,test,-0.6,-0.6,-0.6,0.6,0.6,left,L,,,,,0,1,1,1,0,93,93,83,,,,,,,,,,,,,,,,,,,,,,,,,,,,,,,,,,,,,,,,,,,,496.84905269998126,None,left,1,0.6593640999635682,497.3496389000211,498.18442209996283,497.3496389000211,497.68370559997857,497.3496389000211,497.68370559997857,497.3496389000211,497.68370559997857,497.3496389000211,497.68370559997857,497.3496389000211,497.68370559997857,497.6669719000347,498.1678305999376,497.6669719000347,498.1678305999376,497.6669719000347,498.1678305999376,497.6669719000347,498.1678305999376,497.6669719000347,498.1678305999376,497.6669719000347,498.1678305999376,497.6669719000347,498.1678305999376,497.6669719000347,498.1678305999376,497.3496389000211,None,498.1678305999376,500.28757549996953,0.33000000000000007,500.304002400022,None,501.0552463999484,None,,,,,,,[2.11074468],4.350000000000003,0.7553191489361702,11023,002,2024_Jan_07_1304,MFTM_A_new1021,2021.2.3,59.67822693139835,
