arrwidth1,arrwidth2,arrwidth3,arrwidth4,arrwidth5,keyb,type,orientation,instruction_image,block_filename,block_type,arrow11,arrow22,arrow33,arrow44,arrow55,keyb_3,orientation3,trials.thisRepN,trials.thisTrialN,trials.thisN,trials.thisIndex,trials_3.thisRepN,trials_3.thisTrialN,trials_3.thisN,trials_3.thisIndex,trials_2.thisRepN,trials_2.thisTrialN,trials_2.thisN,trials_2.thisIndex,welcome.started,welcome.stopped,key_resp.keys,key_resp.rt,key_resp.started,key_resp.stopped,instruction_example.started,instruction_example.stopped,key_resp_3.keys,key_resp_3.rt,key_resp_3.started,key_resp_3.stopped,instruction_task.started,instruction_task.stopped,key_resp_2.keys,key_resp_2.rt,key_resp_2.started,key_resp_2.stopped,text_2.started,text_2.stopped,A1.started,A1.stopped,A2.started,A2.stopped,A3.started,A3.stopped,A4.started,A4.stopped,A5.started,A5.stopped,key_resp_4.keys,key_resp_4.corr,key_resp_4.rt,key_resp_4.started,key_resp_4.stopped,fb.started,fb.stopped,instruction_block.started,instruction_block.stopped,key_resp_8.keys,key_resp_8.rt,key_resp_8.started,key_resp_8.stopped,text_8.started,text_8.stopped,key_resp_9.keys,key_resp_9.corr,key_resp_9.rt,text_5.started,text_5.stopped,A11_3.started,A11_3.stopped,A22_2.started,A22_2.stopped,A33_2.started,A33_2.stopped,A44_2.started,A44_2.stopped,A55_2.started,A55_2.stopped,M1_3.started,M1_3.stopped,M2_2.started,M2_2.stopped,M3_2.started,M3_2.stopped,M4_2.started,M4_2.stopped,M5_2.started,M5_2.stopped,M6_2.started,M6_2.stopped,M7_2.started,M7_2.stopped,M8_2.started,M8_2.stopped,key_resp_9.started,key_resp_9.stopped,fixation.started,fixation.stopped,ET,fb_3.started,fb_3.stopped,text_9.started,text_9.stopped,fb_4.started,fb_4.stopped,text_7.started,text_7.stopped,endtext.started,endtext.stopped,fixation_ITI,CCC,Acc,participant,session,date,expName,psychopyVersion,frameRate,
,,,,,,,,,,,,,,,,,,,,,,,,,,,,,,11.945847200113349,None,space,13.361709999968298,11.945847200113349,None,,,,,,,,,,,,,,,,,,,,,,,,,,,,,,,,,,,,,,,,,,,,,,,,,,,,,,,,,,,,,,,,,,,,,,,,,,,,,,,,,,,,,,,,,11023,001,2024_Jan_07_1002,MFTM_A_new1021,2021.2.3,59.52058548635389,
,,,,,,,,,,,,,,,,,,,,,,,,,,,,,,,,,,,,25.33209160005208,None,space,24.91968970000744,25.33209160005208,None,,,,,,,,,,,,,,,,,,,,,,,,,,,,,,,,,,,,,,,,,,,,,,,,,,,,,,,,,,,,,,,,,,,,,,,,,,,,,,,,,,,11023,001,2024_Jan_07_1002,MFTM_A_new1021,2021.2.3,59.52058548635389,
,,,,,,,,,,,,,,,,,,,,,,,,,,,,,,,,,,,,,,,,,,50.269478200003505,None,space,11.293937899987213,50.269478200003505,None,,,,,,,,,,,,,,,,,,,,,,,,,,,,,,,,,,,,,,,,,,,,,,,,,,,,,,,,,,,,,,,,,,,,,,,,,,,,,11023,001,2024_Jan_07_1002,MFTM_A_new1021,2021.2.3,59.52058548635389,
0.6,0.6,0.6,-0.6,-0.6,right,3:2,R,,,,,,,,,,,0,0,0,0,,,,,,,,,,,,,,,,,,,,,,,,,,,61.60263410001062,None,61.60263410001062,None,61.60263410001062,None,61.60263410001062,None,61.60263410001062,None,61.60263410001062,None,right,1,1.816851400071755,61.60263410001062,None,63.4553035000572,None,,,,,,,,,,,,,,,,,,,,,,,,,,,,,,,,,,,,,,,,,,,,,,,,,,,,,,,,,,11023,001,2024_Jan_07_1002,MFTM_A_new1021,2021.2.3,59.52058548635389,
-0.6,-0.6,-0.6,0.6,0.6,left,3:2,L,,,,,,,,,,,0,1,1,1,,,,,,,,,,,,,,,,,,,,,,,,,,,64.20657700009178,None,64.20657700009178,None,64.20657700009178,None,64.20657700009178,None,64.20657700009178,None,64.20657700009178,None,left,1,1.8049293999793008,64.20657700009178,None,66.04244760004804,None,,,,,,,,,,,,,,,,,,,,,,,,,,,,,,,,,,,,,,,,,,,,,,,,,,,,,,,,,,11023,001,2024_Jan_07_1002,MFTM_A_new1021,2021.2.3,59.52058548635389,
0.6,0.6,0.6,-0.6,-0.6,right,3:2,R,,,,,,,,,,,1,0,2,0,,,,,,,,,,,,,,,,,,,,,,,,,,,66.79365830007009,None,66.79365830007009,None,66.79365830007009,None,66.79365830007009,None,66.79365830007009,None,66.79365830007009,None,right,1,1.8897780000697821,66.79365830007009,None,68.71333840000443,None,,,,,,,,,,,,,,,,,,,,,,,,,,,,,,,,,,,,,,,,,,,,,,,,,,,,,,,,,,11023,001,2024_Jan_07_1002,MFTM_A_new1021,2021.2.3,59.52058548635389,
-0.6,-0.6,-0.6,0.6,0.6,left,3:2,L,,,,,,,,,,,1,1,3,1,,,,,,,,,,,,,,,,,,,,,,,,,,,69.4654396000551,None,69.4654396000551,None,69.4654396000551,None,69.4654396000551,None,69.4654396000551,None,69.4654396000551,None,left,1,1.9779325999552384,69.4654396000551,None,71.46737110009417,None,,,,,,,,,,,,,,,,,,,,,,,,,,,,,,,,,,,,,,,,,,,,,,,,,,,,,,,,,,11023,001,2024_Jan_07_1002,MFTM_A_new1021,2021.2.3,59.52058548635389,
,,,,,,,,stim/Instruction_mask.png,conditions/adaptive.xlsx,practice,-0.6,-0.6,-0.6,0.6,0.6,left,L,,,,,0,0,0,0,0,0,0,91,,,,,,,,,,,,,,,,,,,,,,,,,,,,,,,,,,,,,,72.43521140003577,None,space,60.7683291999856,72.43521140003577,None,133.3092494000448,None,left,1,1.2044434999115765,133.74310250009876,None,133.74310250009876,136.74802790000103,133.74310250009876,136.74802790000103,133.74310250009876,136.74802790000103,133.74310250009876,136.74802790000103,133.74310250009876,136.74802790000103,136.73097490007058,137.23256390006281,136.73097490007058,137.23256390006281,136.73097490007058,137.23256390006281,136.73097490007058,137.23256390006281,136.73097490007058,137.23256390006281,136.73097490007058,137.23256390006281,136.73097490007058,137.23256390006281,136.73097490007058,137.23256390006281,133.74310250009876,None,137.23256390006281,137.23256390006281,3,137.24870760005433,None,137.999263200094,None,,,,,,,,,,11023,001,2024_Jan_07_1002,MFTM_A_new1021,2021.2.3,59.52058548635389,
,,,,,,,,stim/Instruction_mask.png,conditions/adaptive.xlsx,practice,-0.6,-0.6,-0.6,0.6,0.6,left,L,,,,,0,0,0,0,0,1,1,77,,,,,,,,,,,,,,,,,,,,,,,,,,,,,,,,,,,,,,,,,,,,138.50005580007564,None,right,0,1.8260727000888437,139.00161950010806,141.00395510008093,139.00161950010806,140.5040227000136,139.00161950010806,140.5040227000136,139.00161950010806,140.5040227000136,139.00161950010806,140.5040227000136,139.00161950010806,140.5040227000136,140.48701030004304,140.9880300000077,140.48701030004304,140.9880300000077,140.48701030004304,140.9880300000077,140.48701030004304,140.9880300000077,140.48701030004304,140.9880300000077,140.48701030004304,140.9880300000077,140.48701030004304,140.9880300000077,140.48701030004304,140.9880300000077,139.00161950010806,None,140.9880300000077,142.49028920009732,1.5,142.5054827000713,None,143.25826250005048,None,,,,,,,,,,11023,001,2024_Jan_07_1002,MFTM_A_new1021,2021.2.3,59.52058548635389,
,,,,,,,,stim/Instruction_mask.png,conditions/adaptive.xlsx,practice,0.6,0.6,0.6,-0.6,-0.6,right,R,,,,,0,0,0,0,0,2,2,72,,,,,,,,,,,,,,,,,,,,,,,,,,,,,,,,,,,,,,,,,,,,143.75812930008397,None,left,0,1.5855237999930978,144.25851120008156,145.56056430004537,144.25851120008156,145.05978220002726,144.25851120008156,145.05978220002726,144.25851120008156,145.05978220002726,144.25851120008156,145.05978220002726,144.25851120008156,145.05978220002726,145.04304630006664,145.5438202000223,145.04304630006664,145.5438202000223,145.04304630006664,145.5438202000223,145.04304630006664,145.5438202000223,145.04304630006664,145.5438202000223,145.04304630006664,145.5438202000223,145.04304630006664,145.5438202000223,145.04304630006664,145.5438202000223,144.25851120008156,None,145.5438202000223,147.7470653000055,0.8,147.7637159000151,None,148.51520520006306,None,,,,,,,,,,11023,001,2024_Jan_07_1002,MFTM_A_new1021,2021.2.3,59.52058548635389,
,,,,,,,,stim/Instruction_mask.png,conditions/adaptive.xlsx,practice,-0.6,-0.6,-0.6,0.6,0.6,left,L,,,,,0,0,0,0,0,3,3,87,,,,,,,,,,,,,,,,,,,,,,,,,,,,,,,,,,,,,,,,,,,,149.0159805000294,None,None,0,0,149.516200400074,150.267312400043,149.516200400074,149.76697880006395,149.516200400074,149.76697880006395,149.516200400074,149.76697880006395,149.516200400074,149.76697880006395,149.516200400074,149.76697880006395,149.7502300000051,150.2512823001016,149.7502300000051,150.2512823001016,149.7502300000051,150.2512823001016,149.7502300000051,150.2512823001016,149.7502300000051,150.2512823001016,149.7502300000051,150.2512823001016,149.7502300000051,150.2512823001016,149.7502300000051,150.2512823001016,149.516200400074,None,150.2512823001016,153.0049466000637,3,153.02123840001877,None,153.7725371000124,None,,,,,,,,,,11023,001,2024_Jan_07_1002,MFTM_A_new1021,2021.2.3,59.52058548635389,
,,,,,,,,stim/Instruction_mask.png,conditions/adaptive.xlsx,practice,,,,,,,,,,,,0,0,0,0,,,,,,,,,,,,,,,,,,,,,,,,,,,,,,,,,,,,,,,,,,,,,,,,,,,,,,,,,,,,,,,,,,,,,,,,,,,,,,,,,,,,,,,,,,154.30667720001657,155.30897650006227,155.29244240000844,155.29244240000844,155.29244240000844,None,,,,11023,001,2024_Jan_07_1002,MFTM_A_new1021,2021.2.3,59.52058548635389,
,,,,,,,,stim/Instruction_adaptive.png,conditions/adaptive.xlsx,test,-0.6,-0.6,-0.6,0.6,0.6,left,L,,,,,0,1,1,1,0,0,0,17,,,,,,,,,,,,,,,,,,,,,,,,,,,,,,,,,,,,,,158.44619960000273,None,space,20.805601099971682,158.44619960000273,None,179.29355990001932,None,left,1,1.1361315000103787,179.7957353000529,None,179.7957353000529,182.79974340007175,179.7957353000529,182.79974340007175,179.7957353000529,182.79974340007175,179.7957353000529,182.79974340007175,179.7957353000529,182.79974340007175,182.78306929999962,183.28373420005664,182.78306929999962,183.28373420005664,182.78306929999962,183.28373420005664,182.78306929999962,183.28373420005664,182.78306929999962,183.28373420005664,182.78306929999962,183.28373420005664,182.78306929999962,183.28373420005664,182.78306929999962,183.28373420005664,179.7957353000529,None,183.28373420005664,183.28373420005664,3,183.30022510001436,None,184.05156710010488,None,,,,,,,0,6.000000000000005,1.0,11023,001,2024_Jan_07_1002,MFTM_A_new1021,2021.2.3,59.52058548635389,
,,,,,,,,stim/Instruction_adaptive.png,conditions/adaptive.xlsx,test,-0.6,-0.6,-0.6,0.6,0.6,left,L,,,,,0,1,1,1,0,1,1,67,,,,,,,,,,,,,,,,,,,,,,,,,,,,,,,,,,,,,,,,,,,,184.55287210003007,None,left,1,1.264256100053899,185.0523142000893,185.80464440002106,185.0523142000893,185.30299510003533,185.0523142000893,185.30299510003533,185.0523142000893,185.30299510003533,185.0523142000893,185.30299510003533,185.0523142000893,185.30299510003533,185.28608370001893,185.7869958000956,185.28608370001893,185.7869958000956,185.28608370001893,185.7869958000956,185.28608370001893,185.7869958000956,185.28608370001893,185.7869958000956,185.28608370001893,185.7869958000956,185.28608370001893,185.7869958000956,185.28608370001893,185.7869958000956,185.0523142000893,None,185.7869958000956,186.67214970011264,0.25,186.6880625000922,None,187.44000690011308,None,,,,,,,[0.875],6.000000000000005,1.0,11023,001,2024_Jan_07_1002,MFTM_A_new1021,2021.2.3,59.52058548635389,
,,,,,,,,stim/Instruction_adaptive.png,conditions/adaptive.xlsx,test,0.6,0.6,0.6,-0.6,-0.6,right,R,,,,,0,1,1,1,0,2,2,12,,,,,,,,,,,,,,,,,,,,,,,,,,,,,,,,,,,,,,,,,,,,187.940853600041,None,right,1,0.794838699977845,188.44079430005513,189.1929408001015,188.44079430005513,188.6911465000594,188.44079430005513,188.6911465000594,188.44079430005513,188.6911465000594,188.44079430005513,188.6911465000594,188.44079430005513,188.6911465000594,188.67446430004202,189.17518480005674,188.67446430004202,189.17518480005674,188.67446430004202,189.17518480005674,188.67446430004202,189.17518480005674,188.67446430004202,189.17518480005674,188.67446430004202,189.17518480005674,188.67446430004202,189.17518480005674,188.67446430004202,189.17518480005674,188.44079430005513,None,189.17518480005674,190.5106929000467,0.25,190.52792630007025,None,191.27821740007494,None,,,,,,,[1.33333333],6.000000000000005,1.0,11023,001,2024_Jan_07_1002,MFTM_A_new1021,2021.2.3,59.52058548635389,
,,,,,,,,stim/Instruction_adaptive.png,conditions/adaptive.xlsx,test,0.6,0.6,0.6,-0.6,-0.6,right,R,,,,,0,1,1,1,0,3,3,84,,,,,,,,,,,,,,,,,,,,,,,,,,,,,,,,,,,,,,,,,,,,191.78000120003708,None,right,1,0.8521571999881417,192.2803978000302,193.0312653000001,192.2803978000302,192.53095990000293,192.2803978000302,192.53095990000293,192.2803978000302,192.53095990000293,192.2803978000302,192.53095990000293,192.2803978000302,192.53095990000293,192.51346200006083,193.01460080000106,192.51346200006083,193.01460080000106,192.51346200006083,193.01460080000106,192.51346200006083,193.01460080000106,192.51346200006083,193.01460080000106,192.51346200006083,193.01460080000106,192.51346200006083,193.01460080000106,192.51346200006083,193.01460080000106,192.2803978000302,None,193.01460080000106,194.58401240000967,0.25,194.59964800009038,None,195.35213210002985,None,,,,,,,[1.5625],6.000000000000005,1.0,11023,001,2024_Jan_07_1002,MFTM_A_new1021,2021.2.3,59.52058548635389,
,,,,,,,,stim/Instruction_adaptive.png,conditions/adaptive.xlsx,test,0.6,0.6,0.6,-0.6,-0.6,right,R,,,,,0,1,1,1,0,4,4,50,,,,,,,,,,,,,,,,,,,,,,,,,,,,,,,,,,,,,,,,,,,,195.85240270011127,None,left,0,0.8837251999648288,196.35245940007735,197.10348130005877,196.35245940007735,196.60351220006123,196.35245940007735,196.60351220006123,196.35245940007735,196.60351220006123,196.35245940007735,196.60351220006123,196.35245940007735,196.60351220006123,196.58699790004175,197.08714120008517,196.58699790004175,197.08714120008517,196.58699790004175,197.08714120008517,196.58699790004175,197.08714120008517,196.58699790004175,197.08714120008517,196.58699790004175,197.08714120008517,196.58699790004175,197.08714120008517,196.58699790004175,197.08714120008517,196.35245940007735,None,197.08714120008517,198.79013170010876,0.25,198.80605790007394,None,199.55721170001198,None,,,,,,,[1.7],4.720000000000004,0.8,11023,001,2024_Jan_07_1002,MFTM_A_new1021,2021.2.3,59.52058548635389,
,,,,,,,,stim/Instruction_adaptive.png,conditions/adaptive.xlsx,test,0.6,0.6,0.6,-0.6,-0.6,right,R,,,,,0,1,1,1,0,5,5,92,,,,,,,,,,,,,,,,,,,,,,,,,,,,,,,,,,,,,,,,,,,,200.05895370000508,None,left,0,0.548722599982284,200.55923730006907,201.31054160010535,200.55923730006907,200.80979700002354,200.55923730006907,200.80979700002354,200.55923730006907,200.80979700002354,200.55923730006907,200.80979700002354,200.55923730006907,200.80979700002354,200.7936997000361,201.29400120000355,200.7936997000361,201.29400120000355,200.7936997000361,201.29400120000355,200.7936997000361,201.29400120000355,200.7936997000361,201.29400120000355,200.7936997000361,201.29400120000355,200.7936997000361,201.29400120000355,200.7936997000361,201.29400120000355,200.55923730006907,None,201.29400120000355,203.09721820009872,0.25,203.11304260010365,None,203.8638106000144,None,,,,,,,[1.79166667],3.4400000000000026,0.6666666666666666,11023,001,2024_Jan_07_1002,MFTM_A_new1021,2021.2.3,59.52058548635389,
,,,,,,,,stim/Instruction_adaptive.png,conditions/adaptive.xlsx,test,-0.6,-0.6,-0.6,0.6,0.6,left,L,,,,,0,1,1,1,0,6,6,27,,,,,,,,,,,,,,,,,,,,,,,,,,,,,,,,,,,,,,,,,,,,204.36548910010606,None,left,1,1.2906884000403807,204.86496550007723,205.98428570001852,204.86496550007723,205.48259120003786,204.86496550007723,205.48259120003786,204.86496550007723,205.48259120003786,204.86496550007723,205.48259120003786,204.86496550007723,205.48259120003786,205.4493135000812,205.95000000006985,205.4493135000812,205.95000000006985,205.4493135000812,205.95000000006985,205.4493135000812,205.95000000006985,205.4493135000812,205.95000000006985,205.4493135000812,205.95000000006985,205.4493135000812,205.95000000006985,205.4493135000812,205.95000000006985,204.86496550007723,None,205.95000000006985,207.7700213000644,0.6100000000000003,207.78595540008973,None,208.53796690003946,None,,,,,,,[1.80571429],4.030000000000003,0.7142857142857143,11023,001,2024_Jan_07_1002,MFTM_A_new1021,2021.2.3,59.52058548635389,
,,,,,,,,stim/Instruction_adaptive.png,conditions/adaptive.xlsx,test,0.6,0.6,0.6,-0.6,-0.6,right,R,,,,,0,1,1,1,0,7,7,10,,,,,,,,,,,,,,,,,,,,,,,,,,,,,,,,,,,,,,,,,,,,209.03851690003648,None,left,0,1.760374499950558,209.53922880010214,210.44063030008692,209.53922880010214,209.9398451000452,209.53922880010214,209.9398451000452,209.53922880010214,209.9398451000452,209.53922880010214,209.9398451000452,209.53922880010214,209.9398451000452,209.92294810002204,210.42401580000296,209.92294810002204,210.42401580000296,209.92294810002204,210.42401580000296,209.92294810002204,210.42401580000296,209.92294810002204,210.42401580000296,209.92294810002204,210.42401580000296,209.92294810002204,210.42401580000296,209.92294810002204,210.42401580000296,209.53922880010214,None,210.42401580000296,212.27659620007034,0.40000000000000013,212.2933131000027,None,213.04454900010023,None,,,,,,,[1.8425],2.990000000000002,0.625,11023,001,2024_Jan_07_1002,MFTM_A_new1021,2021.2.3,59.52058548635389,
,,,,,,,,stim/Instruction_adaptive.png,conditions/adaptive.xlsx,test,-0.6,-0.6,-0.6,0.6,0.6,left,L,,,,,0,1,1,1,0,8,8,83,,,,,,,,,,,,,,,,,,,,,,,,,,,,,,,,,,,,,,,,,,,,213.54490130010527,None,left,1,1.6946511999703944,214.04509510006756,215.38205880008172,214.04509510006756,214.88041150011122,214.04509510006756,214.88041150011122,214.04509510006756,214.88041150011122,214.04509510006756,214.88041150011122,214.04509510006756,214.88041150011122,214.86344770004507,215.3652041000314,214.86344770004507,215.3652041000314,214.86344770004507,215.3652041000314,214.86344770004507,215.3652041000314,214.86344770004507,215.3652041000314,214.86344770004507,215.3652041000314,214.86344770004507,215.3652041000314,214.86344770004507,215.3652041000314,214.04509510006756,None,215.3652041000314,217.0336241000332,0.8300000000000005,217.04976620001253,None,217.80095260008238,None,,,,,,,[[1.67]],3.4400000000000026,0.6666666666666666,11023,001,2024_Jan_07_1002,MFTM_A_new1021,2021.2.3,59.52058548635389,
,,,,,,,,stim/Instruction_adaptive.png,conditions/adaptive.xlsx,test,-0.6,-0.6,-0.6,0.6,0.6,left,L,,,,,0,1,1,1,0,9,9,15,,,,,,,,,,,,,,,,,,,,,,,,,,,,,,,,,,,,,,,,,,,,218.302388500073,None,left,1,1.6976480999728665,218.80234590009786,219.92158230009954,218.80234590009786,219.42140330001712,218.80234590009786,219.42140330001712,218.80234590009786,219.42140330001712,218.80234590009786,219.42140330001712,218.80234590009786,219.42140330001712,219.40447700000368,219.90489940007683,219.40447700000368,219.90489940007683,219.40447700000368,219.90489940007683,219.40447700000368,219.90489940007683,219.40447700000368,219.90489940007683,219.40447700000368,219.90489940007683,219.40447700000368,219.90489940007683,219.40447700000368,219.90489940007683,218.80234590009786,None,219.90489940007683,None,0.6100000000000003,221.73985470004845,None,222.4919579999987,None,,,,,,,[1.83],3.760000000000003,0.7,11023,001,2024_Jan_07_1002,MFTM_A_new1021,2021.2.3,59.52058548635389,
,,,,,,,,stim/Instruction_adaptive.png,conditions/adaptive.xlsx,test,-0.6,-0.6,-0.6,0.6,0.6,left,L,,,,,0,1,1,1,0,10,10,69,,,,,,,,,,,,,,,,,,,,,,,,,,,,,,,,,,,,,,,,,,,,222.99261770001613,None,right,0,1.6305186999961734,223.4931046999991,224.49495830002706,223.4931046999991,223.99346060003154,223.4931046999991,223.99346060003154,223.4931046999991,223.99346060003154,223.4931046999991,223.99346060003154,223.4931046999991,223.99346060003154,223.96080470003653,224.46074930008035,223.96080470003653,224.46074930008035,223.96080470003653,224.46074930008035,223.96080470003653,224.46074930008035,223.96080470003653,224.46074930008035,223.96080470003653,224.46074930008035,223.96080470003653,224.46074930008035,223.96080470003653,224.46074930008035,223.4931046999991,None,224.46074930008035,226.31439580000006,0.4900000000000002,226.32970830006525,None,227.08142320008483,None,,,,,,,[1.84636364],3.0500000000000025,0.6363636363636364,11023,001,2024_Jan_07_1002,MFTM_A_new1021,2021.2.3,59.52058548635389,
,,,,,,,,stim/Instruction_adaptive.png,conditions/adaptive.xlsx,test,0.6,0.6,0.6,-0.6,-0.6,right,R,,,,,0,1,1,1,0,11,11,78,,,,,,,,,,,,,,,,,,,,,,,,,,,,,,,,,,,,,,,,,,,,227.5824644000968,None,left,0,1.824257000000216,228.0835852000164,229.38568780000787,228.0835852000164,228.8840293000685,228.0835852000164,228.8840293000685,228.0835852000164,228.8840293000685,228.0835852000164,228.8840293000685,228.0835852000164,228.8840293000685,228.85147510003299,229.35227780009154,228.85147510003299,229.35227780009154,228.85147510003299,229.35227780009154,228.85147510003299,229.35227780009154,228.85147510003299,229.35227780009154,228.85147510003299,229.35227780009154,228.85147510003299,229.35227780009154,228.85147510003299,229.35227780009154,228.0835852000164,None,229.35227780009154,231.07129089999944,0.7900000000000005,231.0879494000692,None,231.83891490008682,None,,,,,,,[[1.71]],2.1500000000000012,0.5833333333333334,11023,001,2024_Jan_07_1002,MFTM_A_new1021,2021.2.3,59.52058548635389,
,,,,,,,,stim/Instruction_adaptive.png,conditions/adaptive.xlsx,test,-0.6,-0.6,-0.6,0.6,0.6,left,L,,,,,0,1,1,1,0,12,12,93,,,,,,,,,,,,,,,,,,,,,,,,,,,,,,,,,,,,,,,,,,,,232.33962630003225,None,left,1,1.9471293999813497,232.8406060000416,234.8266407001065,232.8406060000416,234.3261711000232,232.8406060000416,234.3261711000232,232.8406060000416,234.3261711000232,232.8406060000416,234.3261711000232,232.8406060000416,234.3261711000232,234.3091658001067,234.80948600010015,234.3091658001067,234.80948600010015,234.3091658001067,234.80948600010015,234.3091658001067,234.80948600010015,234.3091658001067,234.80948600010015,234.3091658001067,234.80948600010015,234.3091658001067,234.80948600010015,234.3091658001067,234.80948600010015,232.8406060000416,None,234.80948600010015,235.82868560007773,1.480000000000001,235.8443107000785,None,236.59634340007324,None,,,,,,,[[1.02]],2.5500000000000016,0.6153846153846154,11023,001,2024_Jan_07_1002,MFTM_A_new1021,2021.2.3,59.52058548635389,
,,,,,,,,stim/Instruction_adaptive.png,conditions/adaptive.xlsx,test,-0.6,-0.6,-0.6,0.6,0.6,left,L,,,,,0,1,1,1,0,13,13,31,,,,,,,,,,,,,,,,,,,,,,,,,,,,,,,,,,,,,,,,,,,,237.09671070007607,None,right,0,1.742948399973102,237.5969712000806,239.21706809999887,237.5969712000806,238.73206660000142,237.5969712000806,238.73206660000142,237.5969712000806,238.73206660000142,237.5969712000806,238.73206660000142,237.5969712000806,238.73206660000142,238.69858210009988,239.20026670000516,238.69858210009988,239.20026670000516,238.69858210009988,239.20026670000516,238.69858210009988,239.20026670000516,238.69858210009988,239.20026670000516,238.69858210009988,239.20026670000516,238.69858210009988,239.20026670000516,238.69858210009988,239.20026670000516,237.5969712000806,None,239.20026670000516,240.58540010009892,1.1200000000000008,240.60206530010328,None,241.35333770001307,None,,,,,,,[[1.38]],1.670000000000001,0.5714285714285714,11023,001,2024_Jan_07_1002,MFTM_A_new1021,2021.2.3,59.52058548635389,
,,,,,,,,stim/Instruction_adaptive.png,conditions/adaptive.xlsx,test,0.6,0.6,0.6,-0.6,-0.6,right,R,,,,,0,1,1,1,0,14,14,70,,,,,,,,,,,,,,,,,,,,,,,,,,,,,,,,,,,,,,,,,,,,241.85407000000123,None,None,0,0,242.35416750004515,244.92434150003828,242.35416750004515,244.42484500003047,242.35416750004515,244.42484500003047,242.35416750004515,244.42484500003047,242.35416750004515,244.42484500003047,242.35416750004515,244.42484500003047,244.40771010005847,244.90781550004613,244.40771010005847,244.90781550004613,244.40771010005847,244.90781550004613,244.40771010005847,244.90781550004613,244.40771010005847,244.90781550004613,244.40771010005847,244.90781550004613,244.40771010005847,244.90781550004613,244.40771010005847,244.90781550004613,242.35416750004515,None,244.90781550004613,245.8426191000035,2.0700000000000016,245.85907610005233,None,246.61279080004897,None,,,,,,,[[0.93]],0.5,0.5333333333333333,11023,001,2024_Jan_07_1002,MFTM_A_new1021,2021.2.3,59.52058548635389,
,,,,,,,,stim/Instruction_adaptive.png,conditions/adaptive.xlsx,test,0.6,0.6,0.6,-0.6,-0.6,right,R,,,,,0,1,1,1,0,15,15,26,,,,,,,,,,,,,,,,,,,,,,,,,,,,,,,,,,,,,,,,,,,,247.11214380001184,None,right,1,1.6160555999958888,247.6123599000275,None,247.6123599000275,250.61701919999905,247.6123599000275,250.61701919999905,247.6123599000275,250.61701919999905,247.6123599000275,250.61701919999905,247.6123599000275,250.61701919999905,250.59945740003604,251.10028540005442,250.59945740003604,251.10028540005442,250.59945740003604,251.10028540005442,250.59945740003604,251.10028540005442,250.59945740003604,251.10028540005442,250.59945740003604,251.10028540005442,250.59945740003604,251.10028540005442,250.59945740003604,251.10028540005442,247.6123599000275,None,251.10028540005442,251.10028540005442,3.0000000000000027,251.11690170003567,None,251.86848200007807,None,,,,,,,0,0.9400000000000004,0.5625,11023,001,2024_Jan_07_1002,MFTM_A_new1021,2021.2.3,59.52058548635389,
,,,,,,,,stim/Instruction_adaptive.png,conditions/adaptive.xlsx,test,0.6,0.6,0.6,-0.6,-0.6,right,R,,,,,0,1,1,1,0,16,16,54,,,,,,,,,,,,,,,,,,,,,,,,,,,,,,,,,,,,,,,,,,,,252.3691810000455,None,right,1,1.7095374000491574,252.8700793000171,None,252.8700793000171,255.8745972000761,252.8700793000171,255.8745972000761,252.8700793000171,255.8745972000761,252.8700793000171,255.8745972000761,252.8700793000171,255.8745972000761,255.85773170005996,256.3588087001117,255.85773170005996,256.3588087001117,255.85773170005996,256.3588087001117,255.85773170005996,256.3588087001117,255.85773170005996,256.3588087001117,255.85773170005996,256.3588087001117,255.85773170005996,256.3588087001117,255.85773170005996,256.3588087001117,252.8700793000171,None,256.3588087001117,256.3588087001117,3.0000000000000027,256.37551480007824,None,257.1257803000044,None,,,,,,,0,1.3800000000000008,0.5882352941176471,11023,001,2024_Jan_07_1002,MFTM_A_new1021,2021.2.3,59.52058548635389,
,,,,,,,,stim/Instruction_adaptive.png,conditions/adaptive.xlsx,test,0.6,0.6,0.6,-0.6,-0.6,right,R,,,,,0,1,1,1,0,17,17,60,,,,,,,,,,,,,,,,,,,,,,,,,,,,,,,,,,,,,,,,,,,,257.62665490002837,None,right,1,1.1163287999806926,258.12788420007564,None,258.12788420007564,260.6654438000405,258.12788420007564,260.6654438000405,258.12788420007564,260.6654438000405,258.12788420007564,260.6654438000405,258.12788420007564,260.6654438000405,260.64822339999955,261.14917610003613,260.64822339999955,261.14917610003613,260.64822339999955,261.14917610003613,260.64822339999955,261.14917610003613,260.64822339999955,261.14917610003613,260.64822339999955,261.14917610003613,260.64822339999955,261.14917610003613,260.64822339999955,261.14917610003613,258.12788420007564,None,261.14917610003613,261.14917610003613,2.530000000000002,261.1658767000772,None,261.91712180001196,None,,,,,,,0,1.660000000000001,0.6111111111111112,11023,001,2024_Jan_07_1002,MFTM_A_new1021,2021.2.3,59.52058548635389,
,,,,,,,,stim/Instruction_adaptive.png,conditions/adaptive.xlsx,test,-0.6,-0.6,-0.6,0.6,0.6,left,L,,,,,0,1,1,1,0,18,18,51,,,,,,,,,,,,,,,,,,,,,,,,,,,,,,,,,,,,,,,,,,,,262.4181185000343,None,right,0,2.54127950000111,262.91851820005104,265.5051976001123,262.91851820005104,265.0041720001027,262.91851820005104,265.0041720001027,262.91851820005104,265.0041720001027,262.91851820005104,265.0041720001027,262.91851820005104,265.0041720001027,264.9884321000427,265.4882781000342,264.9884321000427,265.4882781000342,264.9884321000427,265.4882781000342,264.9884321000427,265.4882781000342,264.9884321000427,265.4882781000342,264.9884321000427,265.4882781000342,264.9884321000427,265.4882781000342,264.9884321000427,265.4882781000342,262.91851820005104,None,265.4722516000038,265.9060919000767,2.080000000000002,265.9222444000188,None,266.6741546000121,None,,,,,,,[[0.42]],0.9800000000000004,0.5789473684210527,11023,001,2024_Jan_07_1002,MFTM_A_new1021,2021.2.3,59.52058548635389,
,,,,,,,,stim/Instruction_adaptive.png,conditions/adaptive.xlsx,test,-0.6,-0.6,-0.6,0.6,0.6,left,L,,,,,0,1,1,1,0,19,19,91,,,,,,,,,,,,,,,,,,,,,,,,,,,,,,,,,,,,,,,,,,,,267.17518550006207,None,left,1,1.4969381999690086,267.67492890008725,None,267.67492890008725,270.67976890003774,267.67492890008725,270.67976890003774,267.67492890008725,270.67976890003774,267.67492890008725,270.67976890003774,267.67492890008725,270.67976890003774,270.6626284000231,271.16391960007604,270.6626284000231,271.16391960007604,270.6626284000231,271.16391960007604,270.6626284000231,271.16391960007604,270.6626284000231,271.16391960007604,270.6626284000231,271.16391960007604,270.6626284000231,271.16391960007604,270.6626284000231,271.16391960007604,267.67492890008725,None,271.16391960007604,271.16391960007604,3.0000000000000027,271.180633500102,None,271.93188140005805,None,,,,,,,0,1.2800000000000007,0.6,11023,001,2024_Jan_07_1002,MFTM_A_new1021,2021.2.3,59.52058548635389,
,,,,,,,,stim/Instruction_adaptive.png,conditions/adaptive.xlsx,test,-0.6,-0.6,-0.6,0.6,0.6,left,L,,,,,0,1,1,1,0,20,20,59,,,,,,,,,,,,,,,,,,,,,,,,,,,,,,,,,,,,,,,,,,,,272.4319866000442,None,left,1,1.5262655999977142,272.9333726000041,None,272.9333726000041,275.6539691000944,272.9333726000041,275.6539691000944,272.9333726000041,275.6539691000944,272.9333726000041,275.6539691000944,272.9333726000041,275.6539691000944,275.6208037000615,276.12141320004594,275.6208037000615,276.12141320004594,275.6208037000615,276.12141320004594,275.6208037000615,276.12141320004594,275.6208037000615,276.12141320004594,275.6208037000615,276.12141320004594,275.6208037000615,276.12141320004594,275.6208037000615,276.12141320004594,272.9333726000041,None,276.12141320004594,276.12141320004594,2.710000000000002,276.15493530000094,None,276.90529390005395,None,,,,,,,0,1.4900000000000009,0.6190476190476191,11023,001,2024_Jan_07_1002,MFTM_A_new1021,2021.2.3,59.52058548635389,
,,,,,,,,stim/Instruction_adaptive.png,conditions/adaptive.xlsx,test,0.6,0.6,0.6,-0.6,-0.6,right,R,,,,,0,1,1,1,0,21,21,98,,,,,,,,,,,,,,,,,,,,,,,,,,,,,,,,,,,,,,,,,,,,277.40657560003456,None,right,1,2.8018468999071047,277.90659680007957,280.76171730004717,277.90659680007957,280.2603240000317,277.90659680007957,280.2603240000317,277.90659680007957,280.2603240000317,277.90659680007957,280.2603240000317,277.90659680007957,280.2603240000317,280.22680120007135,280.72778930002823,280.22680120007135,280.72778930002823,280.22680120007135,280.72778930002823,280.22680120007135,280.72778930002823,280.22680120007135,280.72778930002823,280.22680120007135,280.72778930002823,280.22680120007135,280.72778930002823,280.22680120007135,280.72778930002823,277.90659680007957,None,280.72778930002823,280.89503050001804,2.3400000000000016,280.91103529999964,None,281.66293250001036,None,,,,,,,[[0.16]],1.660000000000001,0.6363636363636364,11023,001,2024_Jan_07_1002,MFTM_A_new1021,2021.2.3,59.52058548635389,
,,,,,,,,stim/Instruction_adaptive.png,conditions/adaptive.xlsx,test,0.6,0.6,0.6,-0.6,-0.6,right,R,,,,,0,1,1,1,0,22,22,48,,,,,,,,,,,,,,,,,,,,,,,,,,,,,,,,,,,,,,,,,,,,282.1635044000577,None,left,0,1.1231971000088379,282.6646894000005,285.2508093001088,282.6646894000005,284.7507793001132,282.6646894000005,284.7507793001132,282.6646894000005,284.7507793001132,282.6646894000005,284.7507793001132,282.6646894000005,284.7507793001132,284.73413950006943,285.23477620002814,284.73413950006943,285.23477620002814,284.73413950006943,285.23477620002814,284.73413950006943,285.23477620002814,284.73413950006943,285.23477620002814,284.73413950006943,285.23477620002814,284.73413950006943,285.23477620002814,284.73413950006943,285.23477620002814,282.6646894000005,None,285.2180499000242,285.6515334000578,2.080000000000002,285.66809620009735,None,286.41966610006057,None,,,,,,,[[0.42]],1.2200000000000006,0.6086956521739131,11023,001,2024_Jan_07_1002,MFTM_A_new1021,2021.2.3,59.52058548635389,
,,,,,,,,stim/Instruction_adaptive.png,conditions/adaptive.xlsx,test,-0.6,-0.6,-0.6,0.6,0.6,left,L,,,,,0,1,1,1,0,23,23,41,,,,,,,,,,,,,,,,,,,,,,,,,,,,,,,,,,,,,,,,,,,,286.92156180005986,None,left,1,0.8998967000516132,287.42394080001395,None,287.42394080001395,290.2590027000988,287.42394080001395,290.2590027000988,287.42394080001395,290.2590027000988,287.42394080001395,290.2590027000988,287.42394080001395,290.2590027000988,290.22591430007014,290.7261675000191,290.22591430007014,290.7261675000191,290.22591430007014,290.7261675000191,290.22591430007014,290.7261675000191,290.22591430007014,290.7261675000191,290.22591430007014,290.7261675000191,290.22591430007014,290.7261675000191,290.22591430007014,290.7261675000191,287.42394080001395,None,290.7261675000191,290.7261675000191,2.820000000000002,290.74332550005056,None,291.4954635000322,None,,,,,,,0,1.3900000000000008,0.625,11023,001,2024_Jan_07_1002,MFTM_A_new1021,2021.2.3,59.52058548635389,
,,,,,,,,stim/Instruction_adaptive.png,conditions/adaptive.xlsx,test,0.6,0.6,0.6,-0.6,-0.6,right,R,,,,,0,1,1,1,0,24,24,66,,,,,,,,,,,,,,,,,,,,,,,,,,,,,,,,,,,,,,,,,,,,291.9949474000605,None,right,1,1.316743400064297,292.4956298000179,None,292.4956298000179,295.01541140000336,292.4956298000179,295.01541140000336,292.4956298000179,295.01541140000336,292.4956298000179,295.01541140000336,292.4956298000179,295.01541140000336,294.98183080006856,295.4826638000086,294.98183080006856,295.4826638000086,294.98183080006856,295.4826638000086,294.98183080006856,295.4826638000086,294.98183080006856,295.4826638000086,294.98183080006856,295.4826638000086,294.98183080006856,295.4826638000086,294.98183080006856,295.4826638000086,292.4956298000179,None,295.4826638000086,295.4826638000086,2.510000000000002,295.5170842000516,None,296.26720670005307,None,,,,,,,0,1.530000000000001,0.64,11023,001,2024_Jan_07_1002,MFTM_A_new1021,2021.2.3,59.52058548635389,
,,,,,,,,stim/Instruction_adaptive.png,conditions/adaptive.xlsx,test,0.6,0.6,0.6,-0.6,-0.6,right,R,,,,,0,1,1,1,0,25,25,56,,,,,,,,,,,,,,,,,,,,,,,,,,,,,,,,,,,,,,,,,,,,296.7685787000228,None,right,1,1.7514808000996709,297.26875080005266,300.05693030008115,297.26875080005266,299.5552109000273,297.26875080005266,299.5552109000273,297.26875080005266,299.5552109000273,297.26875080005266,299.5552109000273,297.26875080005266,299.5552109000273,299.53854850004427,300.04015730007086,299.53854850004427,300.04015730007086,299.53854850004427,300.04015730007086,299.53854850004427,300.04015730007086,299.53854850004427,300.04015730007086,299.53854850004427,300.04015730007086,299.53854850004427,300.04015730007086,299.53854850004427,300.04015730007086,297.26875080005266,None,300.04015730007086,None,2.280000000000002,300.2729804000119,None,301.02552300004754,None,,,,,,,[[0.22]],1.660000000000001,0.6538461538461539,11023,001,2024_Jan_07_1002,MFTM_A_new1021,2021.2.3,59.52058548635389,
,,,,,,,,stim/Instruction_adaptive.png,conditions/adaptive.xlsx,test,0.6,0.6,0.6,-0.6,-0.6,right,R,,,,,0,1,1,1,0,26,26,90,,,,,,,,,,,,,,,,,,,,,,,,,,,,,,,,,,,,,,,,,,,,301.52476150006987,None,right,1,1.8818496000021696,302.0265022000531,304.6138447000412,302.0265022000531,304.1128647000296,302.0265022000531,304.1128647000296,302.0265022000531,304.1128647000296,302.0265022000531,304.1128647000296,302.0265022000531,304.1128647000296,304.0953272000188,304.5967111000791,304.0953272000188,304.5967111000791,304.0953272000188,304.5967111000791,304.0953272000188,304.5967111000791,304.0953272000188,304.5967111000791,304.0953272000188,304.5967111000791,304.0953272000188,304.5967111000791,304.0953272000188,304.5967111000791,302.0265022000531,None,304.5794287000317,305.0141708001029,2.080000000000002,305.0301427000668,None,305.7823938000947,None,,,,,,,[[0.42]],1.7600000000000011,0.6666666666666666,11023,001,2024_Jan_07_1002,MFTM_A_new1021,2021.2.3,59.52058548635389,
,,,,,,,,stim/Instruction_adaptive.png,conditions/adaptive.xlsx,test,-0.6,-0.6,-0.6,0.6,0.6,left,L,,,,,0,1,1,1,0,27,27,11,,,,,,,,,,,,,,,,,,,,,,,,,,,,,,,,,,,,,,,,,,,,306.2819493000861,None,left,1,2.141239000018686,306.78273289999925,309.2368973001139,306.78273289999925,308.7369532000739,306.78273289999925,308.7369532000739,306.78273289999925,308.7369532000739,306.78273289999925,308.7369532000739,306.78273289999925,308.7369532000739,308.7032934000017,309.2038696000818,308.7032934000017,309.2038696000818,308.7032934000017,309.2038696000818,308.7032934000017,309.2038696000818,308.7032934000017,309.2038696000818,308.7032934000017,309.2038696000818,308.7032934000017,309.2038696000818,308.7032934000017,309.2038696000818,306.78273289999925,None,309.2038696000818,309.7713499000529,1.9400000000000015,309.7873414000496,None,310.5396462000208,None,,,,,,,[[0.56]],1.8600000000000012,0.6785714285714286,11023,001,2024_Jan_07_1002,MFTM_A_new1021,2021.2.3,59.52058548635389,
,,,,,,,,stim/Instruction_adaptive.png,conditions/adaptive.xlsx,test,0.6,0.6,0.6,-0.6,-0.6,right,R,,,,,0,1,1,1,0,28,28,46,,,,,,,,,,,,,,,,,,,,,,,,,,,,,,,,,,,,,,,,,,,,311.0401763000991,None,right,1,1.3119232000317425,311.5398100001039,313.8600694000488,311.5398100001039,313.3597427000059,311.5398100001039,313.3597427000059,311.5398100001039,313.3597427000059,311.5398100001039,313.3597427000059,311.5398100001039,313.3597427000059,313.3257108000107,313.82744060002733,313.3257108000107,313.82744060002733,313.3257108000107,313.82744060002733,313.3257108000107,313.82744060002733,313.3257108000107,313.82744060002733,313.3257108000107,313.82744060002733,313.3257108000107,313.82744060002733,313.3257108000107,313.82744060002733,311.5398100001039,None,313.82744060002733,314.5281191000249,1.8100000000000014,314.54531090008095,None,315.2955638000276,None,,,,,,,[[0.69]],1.9400000000000013,0.6896551724137931,11023,001,2024_Jan_07_1002,MFTM_A_new1021,2021.2.3,59.52058548635389,
,,,,,,,,stim/Instruction_adaptive.png,conditions/adaptive.xlsx,test,-0.6,-0.6,-0.6,0.6,0.6,left,L,,,,,0,1,1,1,0,29,29,5,,,,,,,,,,,,,,,,,,,,,,,,,,,,,,,,,,,,,,,,,,,,315.79705010005273,None,right,0,1.722378500038758,316.29746170004364,318.51754130003974,316.29746170004364,318.01601740007754,316.29746170004364,318.01601740007754,316.29746170004364,318.01601740007754,316.29746170004364,318.01601740007754,316.29746170004364,318.01601740007754,317.983243900002,318.48402770003304,317.983243900002,318.48402770003304,317.983243900002,318.48402770003304,317.983243900002,318.48402770003304,317.983243900002,318.48402770003304,317.983243900002,318.48402770003304,317.983243900002,318.48402770003304,317.983243900002,318.48402770003304,316.29746170004364,None,318.48402770003304,319.2858905000612,1.7100000000000013,319.30080310010817,None,320.05307890009135,None,,,,,,,[[0.79]],1.700000000000001,0.6666666666666666,11023,001,2024_Jan_07_1002,MFTM_A_new1021,2021.2.3,59.52058548635389,
,,,,,,,,stim/Instruction_adaptive.png,conditions/adaptive.xlsx,test,-0.6,-0.6,-0.6,0.6,0.6,left,L,,,,,0,1,1,1,0,30,30,19,,,,,,,,,,,,,,,,,,,,,,,,,,,,,,,,,,,,,,,,,,,,320.5538661000319,None,left,1,0.9254446999402717,321.0544992000796,323.57412970007863,321.0544992000796,323.0735080000013,321.0544992000796,323.0735080000013,321.0544992000796,323.0735080000013,321.0544992000796,323.0735080000013,321.0544992000796,323.0735080000013,323.0567742000567,323.5574134000344,323.0567742000567,323.5574134000344,323.0567742000567,323.5574134000344,323.0567742000567,323.5574134000344,323.0567742000567,323.5574134000344,323.0567742000567,323.5574134000344,323.0567742000567,323.5574134000344,323.0567742000567,323.5574134000344,321.0544992000796,None,323.5574134000344,324.04167550010607,2.0200000000000014,324.05832100007683,None,324.8103616000153,None,,,,,,,[[0.48]],1.7900000000000011,0.6774193548387096,11023,001,2024_Jan_07_1002,MFTM_A_new1021,2021.2.3,59.52058548635389,
,,,,,,,,stim/Instruction_adaptive.png,conditions/adaptive.xlsx,test,-0.6,-0.6,-0.6,0.6,0.6,left,L,,,,,0,1,1,1,0,31,31,33,,,,,,,,,,,,,,,,,,,,,,,,,,,,,,,,,,,,,,,,,,,,325.31081870000344,None,left,1,1.4804927000077441,325.8116762000136,328.2152350000106,325.8116762000136,327.71419470000546,325.8116762000136,327.71419470000546,325.8116762000136,327.71419470000546,325.8116762000136,327.71419470000546,325.8116762000136,327.71419470000546,327.6980045000091,328.1979415001115,327.6980045000091,328.1979415001115,327.6980045000091,328.1979415001115,327.6980045000091,328.1979415001115,327.6980045000091,328.1979415001115,327.6980045000091,328.1979415001115,327.6980045000091,328.1979415001115,327.6980045000091,328.1979415001115,325.8116762000136,None,328.1979415001115,328.79906060011126,1.9000000000000015,328.815797300078,None,329.5677428001072,None,,,,,,,[[0.6]],1.8700000000000012,0.6875,11023,001,2024_Jan_07_1002,MFTM_A_new1021,2021.2.3,59.52058548635389,
,,,,,,,,stim/Instruction_adaptive.png,conditions/adaptive.xlsx,test,0.6,0.6,0.6,-0.6,-0.6,right,R,,,,,0,1,1,1,0,32,32,2,,,,,,,,,,,,,,,,,,,,,,,,,,,,,,,,,,,,,,,,,,,,330.0673679000465,None,left,0,1.9159456000197679,330.5685136000393,332.8719267001143,330.5685136000393,332.37166230008006,330.5685136000393,332.37166230008006,330.5685136000393,332.37166230008006,330.5685136000393,332.37166230008006,330.5685136000393,332.37166230008006,332.35376650001854,332.85523530002683,332.35376650001854,332.85523530002683,332.35376650001854,332.85523530002683,332.35376650001854,332.85523530002683,332.35376650001854,332.85523530002683,332.35376650001854,332.85523530002683,332.35376650001854,332.85523530002683,332.35376650001854,332.85523530002683,330.5685136000393,None,332.85523530002683,333.55668030004017,1.8000000000000014,333.5722641000757,None,334.3245006001089,None,,,,,,,[[0.7]],1.650000000000001,0.6666666666666666,11023,001,2024_Jan_07_1002,MFTM_A_new1021,2021.2.3,59.52058548635389,
,,,,,,,,stim/Instruction_adaptive.png,conditions/adaptive.xlsx,test,0.6,0.6,0.6,-0.6,-0.6,right,R,,,,,0,1,1,1,0,33,33,74,,,,,,,,,,,,,,,,,,,,,,,,,,,,,,,,,,,,,,,,,,,,334.82511640002485,None,right,1,2.502862900029868,335.3257134000305,337.92903050000314,335.3257134000305,337.42905200005043,335.3257134000305,337.42905200005043,335.3257134000305,337.42905200005043,335.3257134000305,337.42905200005043,335.3257134000305,337.42905200005043,337.4122380000772,337.91287170001306,337.4122380000772,337.91287170001306,337.4122380000772,337.91287170001306,337.4122380000772,337.91287170001306,337.4122380000772,337.91287170001306,337.4122380000772,337.91287170001306,337.4122380000772,337.91287170001306,337.4122380000772,337.91287170001306,335.3257134000305,None,337.91287170001306,338.3134423000738,2.1000000000000014,338.32956420001574,None,339.0812399000861,None,,,,,,,[[0.4]],1.730000000000001,0.6764705882352942,11023,001,2024_Jan_07_1002,MFTM_A_new1021,2021.2.3,59.52058548635389,
,,,,,,,,stim/Instruction_adaptive.png,conditions/adaptive.xlsx,test,-0.6,-0.6,-0.6,0.6,0.6,left,L,,,,,0,1,1,1,0,34,34,45,,,,,,,,,,,,,,,,,,,,,,,,,,,,,,,,,,,,,,,,,,,,339.582063900074,None,left,1,1.4581379999872297,340.0820234999992,342.5692417001119,340.0820234999992,342.0681814000709,340.0820234999992,342.0681814000709,340.0820234999992,342.0681814000709,340.0820234999992,342.0681814000709,340.0820234999992,342.0681814000709,342.05205560009927,342.5525352000259,342.05205560009927,342.5525352000259,342.05205560009927,342.5525352000259,342.05205560009927,342.5525352000259,342.05205560009927,342.5525352000259,342.05205560009927,342.5525352000259,342.05205560009927,342.5525352000259,342.05205560009927,342.5525352000259,340.0820234999992,None,342.5525352000259,None,1.9800000000000015,343.0865277000703,None,343.8380735000828,None,,,,,,,[[0.52]],1.8000000000000012,0.6857142857142857,11023,001,2024_Jan_07_1002,MFTM_A_new1021,2021.2.3,59.52058548635389,
,,,,,,,,stim/Instruction_adaptive.png,conditions/adaptive.xlsx,test,0.6,0.6,0.6,-0.6,-0.6,right,R,,,,,0,1,1,1,0,35,35,82,,,,,,,,,,,,,,,,,,,,,,,,,,,,,,,,,,,,,,,,,,,,344.33856890001334,None,right,1,1.5007336999988183,344.8391545000486,347.2433161000954,344.8391545000486,346.74256200005766,344.8391545000486,346.74256200005766,344.8391545000486,346.74256200005766,344.8391545000486,346.74256200005766,344.8391545000486,346.74256200005766,346.70973410003353,347.2105448000366,346.70973410003353,347.2105448000366,346.70973410003353,347.2105448000366,346.70973410003353,347.2105448000366,346.70973410003353,347.2105448000366,346.70973410003353,347.2105448000366,346.70973410003353,347.2105448000366,346.70973410003353,347.2105448000366,344.8391545000486,None,347.2105448000366,347.82755860011093,1.8900000000000015,347.8441907000961,None,348.59528440004215,None,,,,,,,[[0.61]],1.8700000000000012,0.6944444444444444,11023,001,2024_Jan_07_1002,MFTM_A_new1021,2021.2.3,59.52058548635389,
,,,,,,,,stim/Instruction_adaptive.png,conditions/adaptive.xlsx,test,-0.6,-0.6,-0.6,0.6,0.6,left,L,,,,,0,1,1,1,0,36,36,3,,,,,,,,,,,,,,,,,,,,,,,,,,,,,,,,,,,,,,,,,,,,349.09621660003904,None,left,1,2.0236701999092475,349.59617680008523,351.90005210007075,349.59617680008523,351.3988489001058,349.59617680008523,351.3988489001058,349.59617680008523,351.3988489001058,349.59617680008523,351.3988489001058,349.59617680008523,351.3988489001058,351.38281570002437,351.88359270000365,351.38281570002437,351.88359270000365,351.38281570002437,351.88359270000365,351.38281570002437,351.88359270000365,351.38281570002437,351.88359270000365,351.38281570002437,351.88359270000365,351.38281570002437,351.88359270000365,351.38281570002437,351.88359270000365,349.59617680008523,None,351.88359270000365,352.58453690004535,1.8000000000000014,352.60126740008127,None,353.35235739999916,None,,,,,,,[[0.7]],1.9400000000000013,0.7027027027027027,11023,001,2024_Jan_07_1002,MFTM_A_new1021,2021.2.3,59.52058548635389,
,,,,,,,,stim/Instruction_adaptive.png,conditions/adaptive.xlsx,test,0.6,0.6,0.6,-0.6,-0.6,right,R,,,,,0,1,1,1,0,37,37,34,,,,,,,,,,,,,,,,,,,,,,,,,,,,,,,,,,,,,,,,,,,,353.85398590005934,None,right,1,1.8026825999841094,354.3540445000399,356.57410170009825,354.3540445000399,356.07322070002556,354.3540445000399,356.07322070002556,354.3540445000399,356.07322070002556,354.3540445000399,356.07322070002556,354.3540445000399,356.07322070002556,356.04007660003845,356.54062120011076,356.04007660003845,356.54062120011076,356.04007660003845,356.54062120011076,356.04007660003845,356.54062120011076,356.04007660003845,356.54062120011076,356.04007660003845,356.54062120011076,356.04007660003845,356.54062120011076,356.04007660003845,356.54062120011076,354.3540445000399,None,356.54062120011076,357.3421144000022,1.7100000000000013,357.3579971001018,None,358.10869370005094,None,,,,,,,[[0.79]],1.9900000000000013,0.7105263157894737,11023,001,2024_Jan_07_1002,MFTM_A_new1021,2021.2.3,59.52058548635389,
,,,,,,,,stim/Instruction_adaptive.png,conditions/adaptive.xlsx,test,0.6,0.6,0.6,-0.6,-0.6,right,R,,,,,0,1,1,1,0,38,38,4,,,,,,,,,,,,,,,,,,,,,,,,,,,,,,,,,,,,,,,,,,,,358.60943420010153,None,right,1,1.9897448000265285,359.11035880004056,361.2809465000173,359.11035880004056,360.7797437000554,359.11035880004056,360.7797437000554,359.11035880004056,360.7797437000554,359.11035880004056,360.7797437000554,359.11035880004056,360.7797437000554,360.7469429000048,361.2474306001095,360.7469429000048,361.2474306001095,360.7469429000048,361.2474306001095,360.7469429000048,361.2474306001095,360.7469429000048,361.2474306001095,360.7469429000048,361.2474306001095,360.7469429000048,361.2474306001095,360.7469429000048,361.2474306001095,359.11035880004056,None,361.2474306001095,362.0826121000573,1.6600000000000013,362.0990997001063,None,362.8507141000591,None,,,,,,,[0.82307692],2.0500000000000016,0.717948717948718,11023,001,2024_Jan_07_1002,MFTM_A_new1021,2021.2.3,59.52058548635389,
,,,,,,,,stim/Instruction_adaptive.png,conditions/adaptive.xlsx,test,-0.6,-0.6,-0.6,0.6,0.6,left,L,,,,,0,1,1,1,0,39,39,47,,,,,,,,,,,,,,,,,,,,,,,,,,,,,,,,,,,,,,,,,,,,363.3506301000016,None,left,1,1.8808187000686303,363.85137510008644,365.9548060001107,363.85137510008644,365.4536717000883,363.85137510008644,365.4536717000883,363.85137510008644,365.4536717000883,363.85137510008644,365.4536717000883,363.85137510008644,365.4536717000883,365.41961080010515,365.9211183000589,365.41961080010515,365.9211183000589,365.41961080010515,365.9211183000589,365.41961080010515,365.9211183000589,365.41961080010515,365.9211183000589,365.41961080010515,365.9211183000589,365.41961080010515,365.9211183000589,365.41961080010515,365.9211183000589,363.85137510008644,None,365.9211183000589,366.75589000002947,1.5900000000000012,366.7721046000952,None,367.5238517000107,None,,,,,,,[0.82525],2.1000000000000014,0.725,11023,001,2024_Jan_07_1002,MFTM_A_new1021,2021.2.3,59.52058548635389,
,,,,,,,,stim/Instruction_adaptive.png,conditions/adaptive.xlsx,test,0.6,0.6,0.6,-0.6,-0.6,right,R,,,,,0,1,1,1,0,40,40,52,,,,,,,,,,,,,,,,,,,,,,,,,,,,,,,,,,,,,,,,,,,,368.0241099999985,None,right,1,1.286857399973087,368.52534960000776,370.561330000055,368.52534960000776,370.0599184000166,368.52534960000776,370.0599184000166,368.52534960000776,370.0599184000166,368.52534960000776,370.0599184000166,368.52534960000776,370.0599184000166,370.04367940011434,370.543922400102,370.04367940011434,370.543922400102,370.04367940011434,370.543922400102,370.04367940011434,370.543922400102,370.04367940011434,370.543922400102,370.04367940011434,370.543922400102,370.04367940011434,370.543922400102,370.04367940011434,370.543922400102,368.52534960000776,None,370.543922400102,371.3792890000623,1.5300000000000011,371.3956011000555,None,372.1461817000527,None,,,,,,,[0.82878049],2.1500000000000012,0.7317073170731707,11023,001,2024_Jan_07_1002,MFTM_A_new1021,2021.2.3,59.52058548635389,
,,,,,,,,stim/Instruction_adaptive.png,conditions/adaptive.xlsx,test,-0.6,-0.6,-0.6,0.6,0.6,left,L,,,,,0,1,1,1,0,41,41,55,,,,,,,,,,,,,,,,,,,,,,,,,,,,,,,,,,,,,,,,,,,,372.64793279999867,None,right,0,2.023929800023325,373.1480174000608,375.13467810000293,373.1480174000608,374.63340700010303,373.1480174000608,374.63340700010303,373.1480174000608,374.63340700010303,373.1480174000608,374.63340700010303,373.1480174000608,374.63340700010303,374.6166067000013,375.1177094000159,374.6166067000013,375.1177094000159,374.6166067000013,375.1177094000159,374.6166067000013,375.1177094000159,374.6166067000013,375.1177094000159,374.6166067000013,375.1177094000159,374.6166067000013,375.1177094000159,374.6166067000013,375.1177094000159,373.1480174000608,None,375.1177094000159,375.95225140010007,1.480000000000001,375.96933000010904,None,376.7206058000447,None,,,,,,,[0.83333333],2.0100000000000016,0.7142857142857143,11023,001,2024_Jan_07_1002,MFTM_A_new1021,2021.2.3,59.52058548635389,
,,,,,,,,stim/Instruction_adaptive.png,conditions/adaptive.xlsx,test,-0.6,-0.6,-0.6,0.6,0.6,left,L,,,,,0,1,1,1,0,42,42,1,,,,,,,,,,,,,,,,,,,,,,,,,,,,,,,,,,,,,,,,,,,,377.2211280000629,None,left,1,1.922652899986133,377.7211440000683,379.85792710003443,377.7211440000683,379.35822460008785,377.7211440000683,379.35822460008785,377.7211440000683,379.35822460008785,377.7211440000683,379.35822460008785,377.7211440000683,379.35822460008785,379.3242413001135,379.82516760006547,379.3242413001135,379.82516760006547,379.3242413001135,379.82516760006547,379.3242413001135,379.82516760006547,379.3242413001135,379.82516760006547,379.3242413001135,379.82516760006547,379.3242413001135,379.82516760006547,379.3242413001135,379.82516760006547,377.7211440000683,None,379.82516760006547,380.6595635000849,1.6300000000000012,380.6930343999993,None,381.44397820008453,None,,,,,,,[0.83418605],2.0600000000000014,0.7209302325581395,11023,001,2024_Jan_07_1002,MFTM_A_new1021,2021.2.3,59.52058548635389,
,,,,,,,,stim/Instruction_adaptive.png,conditions/adaptive.xlsx,test,0.6,0.6,0.6,-0.6,-0.6,right,R,,,,,0,1,1,1,0,43,43,18,,,,,,,,,,,,,,,,,,,,,,,,,,,,,,,,,,,,,,,,,,,,381.9447924999986,None,right,1,1.0233418999705464,382.44491940003354,384.5317721000174,382.44491940003354,384.0313163000392,382.44491940003354,384.0313163000392,382.44491940003354,384.0313163000392,382.44491940003354,384.0313163000392,382.44491940003354,384.0313163000392,384.01454910007305,384.5149286000524,384.01454910007305,384.5149286000524,384.01454910007305,384.5149286000524,384.01454910007305,384.5149286000524,384.01454910007305,384.5149286000524,384.01454910007305,384.5149286000524,384.01454910007305,384.5149286000524,384.01454910007305,384.5149286000524,382.44491940003354,None,384.5149286000524,None,1.5800000000000012,385.36690750007983,None,386.1172946000006,None,,,,,,,[0.83613636],2.110000000000001,0.7272727272727273,11023,001,2024_Jan_07_1002,MFTM_A_new1021,2021.2.3,59.52058548635389,
,,,,,,,,stim/Instruction_adaptive.png,conditions/adaptive.xlsx,test,0.6,0.6,0.6,-0.6,-0.6,right,R,,,,,0,1,1,1,0,44,44,38,,,,,,,,,,,,,,,,,,,,,,,,,,,,,,,,,,,,,,,,,,,,386.61812060000375,None,right,1,0.853436499950476,387.1184861001093,389.1382605000399,387.1184861001093,388.6379832000239,387.1184861001093,388.6379832000239,387.1184861001093,388.6379832000239,387.1184861001093,388.6379832000239,387.1184861001093,388.6379832000239,388.6208348000655,389.1216185000958,388.6208348000655,389.1216185000958,388.6208348000655,389.1216185000958,388.6208348000655,389.1216185000958,388.6208348000655,389.1216185000958,388.6208348000655,389.1216185000958,388.6208348000655,389.1216185000958,388.6208348000655,389.1216185000958,387.1184861001093,None,389.1216185000958,389.9735155000817,1.5200000000000011,389.98955330008175,None,390.74061930004973,None,,,,,,,[0.83933333],2.1500000000000012,0.7333333333333333,11023,001,2024_Jan_07_1002,MFTM_A_new1021,2021.2.3,59.52058548635389,
,,,,,,,,stim/Instruction_adaptive.png,conditions/adaptive.xlsx,test,-0.6,-0.6,-0.6,0.6,0.6,left,L,,,,,0,1,1,1,0,45,45,7,,,,,,,,,,,,,,,,,,,,,,,,,,,,,,,,,,,,,,,,,,,,391.2412228001049,None,left,1,1.069254899979569,391.74276620009914,393.72879850002937,391.74276620009914,393.2289656000212,391.74276620009914,393.2289656000212,391.74276620009914,393.2289656000212,391.74276620009914,393.2289656000212,391.74276620009914,393.2289656000212,393.21108980011195,393.71160590008367,393.21108980011195,393.71160590008367,393.21108980011195,393.71160590008367,393.21108980011195,393.71160590008367,393.21108980011195,393.71160590008367,393.21108980011195,393.71160590008367,393.21108980011195,393.71160590008367,393.21108980011195,393.71160590008367,391.74276620009914,None,393.71160590008367,394.5638016000157,1.480000000000001,394.5795778000029,None,395.3307126000291,None,,,,,,,[0.84326087],2.2000000000000015,0.7391304347826086,11023,001,2024_Jan_07_1002,MFTM_A_new1021,2021.2.3,59.52058548635389,
,,,,,,,,stim/Instruction_adaptive.png,conditions/adaptive.xlsx,test,0.6,0.6,0.6,-0.6,-0.6,right,R,,,,,0,1,1,1,0,46,46,62,,,,,,,,,,,,,,,,,,,,,,,,,,,,,,,,,,,,,,,,,,,,395.83193820004817,None,right,1,1.6317544999765232,396.3327435000101,398.26852110004984,396.3327435000101,397.7675305000739,396.3327435000101,397.7675305000739,396.3327435000101,397.7675305000739,396.3327435000101,397.7675305000739,396.3327435000101,397.7675305000739,397.75094660010654,398.2519236000953,397.75094660010654,398.2519236000953,397.75094660010654,398.2519236000953,397.75094660010654,398.2519236000953,397.75094660010654,398.2519236000953,397.75094660010654,398.2519236000953,397.75094660010654,398.2519236000953,397.75094660010654,398.2519236000953,396.3327435000101,None,398.2519236000953,399.10280320001766,1.430000000000001,399.11951230000705,None,399.8707202000078,None,,,,,,,[0.84808511],2.2400000000000015,0.7446808510638298,11023,001,2024_Jan_07_1002,MFTM_A_new1021,2021.2.3,59.52058548635389,
,,,,,,,,stim/Instruction_adaptive.png,conditions/adaptive.xlsx,test,-0.6,-0.6,-0.6,0.6,0.6,left,L,,,,,0,1,1,1,0,47,47,43,,,,,,,,,,,,,,,,,,,,,,,,,,,,,,,,,,,,,,,,,,,,400.37220510002226,None,left,1,1.715964899980463,400.87220850004815,402.77480710006785,400.87220850004815,402.27518170000985,400.87220850004815,402.27518170000985,400.87220850004815,402.27518170000985,400.87220850004815,402.27518170000985,400.87220850004815,402.27518170000985,402.2416515001096,402.7427404000191,402.2416515001096,402.7427404000191,402.2416515001096,402.7427404000191,402.2416515001096,402.7427404000191,402.2416515001096,402.7427404000191,402.2416515001096,402.7427404000191,402.2416515001096,402.7427404000191,402.2416515001096,402.7427404000191,400.87220850004815,None,402.7427404000191,403.61037900007796,1.390000000000001,403.6268248000415,None,404.3782594000222,None,,,,,,,[0.85354167],2.2800000000000016,0.75,11023,001,2024_Jan_07_1002,MFTM_A_new1021,2021.2.3,59.52058548635389,
,,,,,,,,stim/Instruction_adaptive.png,conditions/adaptive.xlsx,test,-0.6,-0.6,-0.6,0.6,0.6,left,L,,,,,0,1,1,1,0,48,48,97,,,,,,,,,,,,,,,,,,,,,,,,,,,,,,,,,,,,,,,,,,,,404.8788931000745,None,left,1,1.0655166999204084,405.3788923000684,407.23199800006114,405.3788923000684,406.73136720003095,405.3788923000684,406.73136720003095,405.3788923000684,406.73136720003095,405.3788923000684,406.73136720003095,405.3788923000684,406.73136720003095,406.71482600003947,407.2150839000242,406.71482600003947,407.2150839000242,406.71482600003947,407.2150839000242,406.71482600003947,407.2150839000242,406.71482600003947,407.2150839000242,406.71482600003947,407.2150839000242,406.71482600003947,407.2150839000242,406.71482600003947,407.2150839000242,405.3788923000684,None,407.2150839000242,408.0828682000283,1.350000000000001,408.099408900016,None,408.8514427000191,None,,,,,,,[0.85959184],2.3200000000000016,0.7551020408163265,11023,001,2024_Jan_07_1002,MFTM_A_new1021,2021.2.3,59.52058548635389,
,,,,,,,,stim/Instruction_adaptive.png,conditions/adaptive.xlsx,test,0.6,0.6,0.6,-0.6,-0.6,right,R,,,,,0,1,1,1,0,49,49,40,,,,,,,,,,,,,,,,,,,,,,,,,,,,,,,,,,,,,,,,,,,,409.35229200008325,None,right,1,1.5754498000023887,409.8527878000168,411.67212920007296,409.8527878000168,411.1882677000249,409.8527878000168,411.1882677000249,409.8527878000168,411.1882677000249,409.8527878000168,411.1882677000249,409.8527878000168,411.1882677000249,411.15487810003106,411.65616530005354,411.15487810003106,411.65616530005354,411.15487810003106,411.65616530005354,411.15487810003106,411.65616530005354,411.15487810003106,411.65616530005354,411.15487810003106,411.65616530005354,411.15487810003106,411.65616530005354,411.15487810003106,411.65616530005354,409.8527878000168,None,411.65616530005354,412.5236342001008,1.320000000000001,412.5405073000584,None,413.2918500000378,None,,,,,,,[0.866],2.3500000000000014,0.76,11023,001,2024_Jan_07_1002,MFTM_A_new1021,2021.2.3,59.52058548635389,
,,,,,,,,stim/Instruction_adaptive.png,conditions/adaptive.xlsx,test,0.6,0.6,0.6,-0.6,-0.6,right,R,,,,,0,1,1,1,0,50,50,44,,,,,,,,,,,,,,,,,,,,,,,,,,,,,,,,,,,,,,,,,,,,413.79224700003397,None,right,1,1.0632982000242919,414.29299970006105,416.0955106000183,414.29299970006105,415.59473020001315,414.29299970006105,415.59473020001315,414.29299970006105,415.59473020001315,414.29299970006105,415.59473020001315,414.29299970006105,415.59473020001315,415.56129450001754,416.06142020004336,415.56129450001754,416.06142020004336,415.56129450001754,416.06142020004336,415.56129450001754,416.06142020004336,415.56129450001754,416.06142020004336,415.56129450001754,416.06142020004336,415.56129450001754,416.06142020004336,415.56129450001754,416.06142020004336,414.29299970006105,None,416.06142020004336,416.9462964000413,1.290000000000001,416.96278000005987,None,417.7138324000407,None,,,,,,,[0.8727451],2.3900000000000015,0.7647058823529411,11023,001,2024_Jan_07_1002,MFTM_A_new1021,2021.2.3,59.52058548635389,
,,,,,,,,stim/Instruction_adaptive.png,conditions/adaptive.xlsx,test,0.6,0.6,0.6,-0.6,-0.6,right,R,,,,,0,1,1,1,0,51,51,0,,,,,,,,,,,,,,,,,,,,,,,,,,,,,,,,,,,,,,,,,,,,418.2158192000352,None,right,1,1.112730500055477,418.71532020007726,420.4851297000423,418.71532020007726,419.98454430000857,418.71532020007726,419.98454430000857,418.71532020007726,419.98454430000857,418.71532020007726,419.98454430000857,418.71532020007726,419.98454430000857,419.9672725000419,420.46849010000005,419.9672725000419,420.46849010000005,419.9672725000419,420.46849010000005,419.9672725000419,420.46849010000005,419.9672725000419,420.46849010000005,419.9672725000419,420.46849010000005,419.9672725000419,420.46849010000005,419.9672725000419,420.46849010000005,418.71532020007726,None,420.4525323000271,421.3369382000528,1.260000000000001,421.3692989000119,None,422.12094120006077,None,,,,,,,[0.87980769],2.4200000000000017,0.7692307692307693,11023,001,2024_Jan_07_1002,MFTM_A_new1021,2021.2.3,59.52058548635389,
,,,,,,,,stim/Instruction_adaptive.png,conditions/adaptive.xlsx,test,0.6,0.6,0.6,-0.6,-0.6,right,R,,,,,0,1,1,1,0,52,52,64,,,,,,,,,,,,,,,,,,,,,,,,,,,,,,,,,,,,,,,,,,,,422.62186520011164,None,right,1,1.0504011999582872,423.1224694000557,424.8578571000835,423.1224694000557,424.3575957000721,423.1224694000557,424.3575957000721,423.1224694000557,424.3575957000721,423.1224694000557,424.3575957000721,423.1224694000557,424.3575957000721,424.3403708001133,424.8412658000598,424.3403708001133,424.8412658000598,424.3403708001133,424.8412658000598,424.3403708001133,424.8412658000598,424.3403708001133,424.8412658000598,424.3403708001133,424.8412658000598,424.3403708001133,424.8412658000598,424.3403708001133,424.8412658000598,423.1224694000557,None,424.8412658000598,None,1.2300000000000009,425.7423471000511,None,426.493850100087,None,,,,,,,[0.88716981],2.4600000000000017,0.7735849056603774,11023,001,2024_Jan_07_1002,MFTM_A_new1021,2021.2.3,59.52058548635389,
,,,,,,,,stim/Instruction_adaptive.png,conditions/adaptive.xlsx,test,-0.6,-0.6,-0.6,0.6,0.6,left,L,,,,,0,1,1,1,0,53,53,25,,,,,,,,,,,,,,,,,,,,,,,,,,,,,,,,,,,,,,,,,,,,426.9950348000275,None,left,1,1.7168986999895424,427.49570500000846,429.19820620003156,427.49570500000846,428.6974654000951,427.49570500000846,428.6974654000951,427.49570500000846,428.6974654000951,427.49570500000846,428.6974654000951,427.49570500000846,428.6974654000951,428.6801362000406,429.1806526000146,428.6801362000406,429.1806526000146,428.6801362000406,429.1806526000146,428.6801362000406,429.1806526000146,428.6801362000406,429.1806526000146,428.6801362000406,429.1806526000146,428.6801362000406,429.1806526000146,428.6801362000406,429.1806526000146,427.49570500000846,None,429.1806526000146,430.0838726001093,1.2000000000000008,430.0988164000446,None,430.85112070001196,None,,,,,,,[0.89481481],2.490000000000002,0.7777777777777778,11023,001,2024_Jan_07_1002,MFTM_A_new1021,2021.2.3,59.52058548635389,
,,,,,,,,stim/Instruction_adaptive.png,conditions/adaptive.xlsx,test,-0.6,-0.6,-0.6,0.6,0.6,left,L,,,,,0,1,1,1,0,54,54,77,,,,,,,,,,,,,,,,,,,,,,,,,,,,,,,,,,,,,,,,,,,,431.35104440001305,None,left,1,1.471851099980995,431.85204080003314,433.5381720000878,431.85204080003314,433.0372294000117,431.85204080003314,433.0372294000117,431.85204080003314,433.0372294000117,431.85204080003314,433.0372294000117,431.85204080003314,433.0372294000117,433.003141000052,433.5039442999987,433.003141000052,433.5039442999987,433.003141000052,433.5039442999987,433.003141000052,433.5039442999987,433.003141000052,433.5039442999987,433.003141000052,433.5039442999987,433.003141000052,433.5039442999987,433.003141000052,433.5039442999987,431.85204080003314,None,433.5039442999987,434.42220400006045,1.1700000000000008,434.4391636000946,None,435.19057279999834,None,,,,,,,[0.90272727],2.520000000000002,0.7818181818181819,11023,001,2024_Jan_07_1002,MFTM_A_new1021,2021.2.3,59.52058548635389,
,,,,,,,,stim/Instruction_adaptive.png,conditions/adaptive.xlsx,test,-0.6,-0.6,-0.6,0.6,0.6,left,L,,,,,0,1,1,1,0,55,55,57,,,,,,,,,,,,,,,,,,,,,,,,,,,,,,,,,,,,,,,,,,,,435.6910753000993,None,left,1,2.5087722999742255,436.19121930003166,437.8436165000312,436.19121930003166,437.3435987000121,436.19121930003166,437.3435987000121,436.19121930003166,437.3435987000121,436.19121930003166,437.3435987000121,436.19121930003166,437.3435987000121,437.32704870007,437.82794710004237,437.32704870007,437.82794710004237,437.32704870007,437.82794710004237,437.32704870007,437.82794710004237,437.32704870007,437.82794710004237,437.32704870007,437.82794710004237,437.32704870007,437.82794710004237,437.32704870007,437.82794710004237,436.19121930003166,None,437.82794710004237,438.74589990009554,1.1500000000000008,438.7626455000136,None,439.5133805000223,None,,,,,,,[0.91071429],2.5500000000000016,0.7857142857142857,11023,001,2024_Jan_07_1002,MFTM_A_new1021,2021.2.3,59.52058548635389,
,,,,,,,,stim/Instruction_adaptive.png,conditions/adaptive.xlsx,test,0.6,0.6,0.6,-0.6,-0.6,right,R,,,,,0,1,1,1,0,56,56,28,,,,,,,,,,,,,,,,,,,,,,,,,,,,,,,,,,,,,,,,,,,,440.01329200004693,None,right,1,1.5048181000165641,440.51517190004233,442.1508242000127,440.51517190004233,441.65010070009157,440.51517190004233,441.65010070009157,440.51517190004233,441.65010070009157,440.51517190004233,441.65010070009157,440.51517190004233,441.65010070009157,441.6165601001121,442.1171658000676,441.6165601001121,442.1171658000676,441.6165601001121,442.1171658000676,441.6165601001121,442.1171658000676,441.6165601001121,442.1171658000676,441.6165601001121,442.1171658000676,441.6165601001121,442.1171658000676,441.6165601001121,442.1171658000676,440.51517190004233,None,442.1171658000676,443.03529350005556,1.1200000000000008,443.0686372000491,None,443.81989690009505,None,,,,,,,[0.91894737],2.580000000000002,0.7894736842105263,11023,001,2024_Jan_07_1002,MFTM_A_new1021,2021.2.3,59.52058548635389,
,,,,,,,,stim/Instruction_adaptive.png,conditions/adaptive.xlsx,test,0.6,0.6,0.6,-0.6,-0.6,right,R,,,,,0,1,1,1,0,57,57,20,,,,,,,,,,,,,,,,,,,,,,,,,,,,,,,,,,,,,,,,,,,,444.3205166000407,None,right,1,1.5422444000141695,444.8216652000556,446.4237570000114,444.8216652000556,445.92330850008875,444.8216652000556,445.92330850008875,444.8216652000556,445.92330850008875,444.8216652000556,445.92330850008875,444.8216652000556,445.92330850008875,445.9057719000848,446.40715930005535,445.9057719000848,446.40715930005535,445.9057719000848,446.40715930005535,445.9057719000848,446.40715930005535,445.9057719000848,446.40715930005535,445.9057719000848,446.40715930005535,445.9057719000848,446.40715930005535,445.9057719000848,446.40715930005535,444.8216652000556,None,446.40715930005535,447.34170390001964,1.1000000000000008,447.35758710000664,None,448.1097574000014,None,,,,,,,[0.92724138],2.610000000000002,0.7931034482758621,11023,001,2024_Jan_07_1002,MFTM_A_new1021,2021.2.3,59.52058548635389,
,,,,,,,,stim/Instruction_adaptive.png,conditions/adaptive.xlsx,test,0.6,0.6,0.6,-0.6,-0.6,right,R,,,,,0,1,1,1,0,58,58,24,,,,,,,,,,,,,,,,,,,,,,,,,,,,,,,,,,,,,,,,,,,,448.61041370010935,None,left,0,1.5415984001010656,449.11036090005655,450.69626320002135,449.11036090005655,450.1952176000923,449.11036090005655,450.1952176000923,449.11036090005655,450.1952176000923,449.11036090005655,450.1952176000923,449.11036090005655,450.1952176000923,450.17863720003515,450.67952440003864,450.17863720003515,450.67952440003864,450.17863720003515,450.67952440003864,450.17863720003515,450.67952440003864,450.17863720003515,450.67952440003864,450.17863720003515,450.67952440003864,450.17863720003515,450.67952440003864,450.17863720003515,450.67952440003864,449.11036090005655,None,450.67952440003864,451.6152447001077,1.0800000000000007,451.6301244000206,None,452.38251150003634,None,,,,,,,[0.93559322],2.520000000000002,0.7796610169491526,11023,001,2024_Jan_07_1002,MFTM_A_new1021,2021.2.3,59.52058548635389,
,,,,,,,,stim/Instruction_adaptive.png,conditions/adaptive.xlsx,test,0.6,0.6,0.6,-0.6,-0.6,right,R,,,,,0,1,1,1,0,59,59,32,,,,,,,,,,,,,,,,,,,,,,,,,,,,,,,,,,,,,,,,,,,,452.8835770000005,None,right,1,0.844009599997662,453.383991300012,455.0357076000655,453.383991300012,454.535736400052,453.383991300012,454.535736400052,453.383991300012,454.535736400052,453.383991300012,454.535736400052,453.383991300012,454.535736400052,454.5190355000086,455.01928150001913,454.5190355000086,455.01928150001913,454.5190355000086,455.01928150001913,454.5190355000086,455.01928150001913,454.5190355000086,455.01928150001913,454.5190355000086,455.01928150001913,454.5190355000086,455.01928150001913,454.5190355000086,455.01928150001913,453.383991300012,None,455.01928150001913,455.9712271000026,1.1500000000000008,455.98704290005844,None,456.7390086000087,None,,,,,,,[0.9425],2.5500000000000016,0.7833333333333333,11023,001,2024_Jan_07_1002,MFTM_A_new1021,2021.2.3,59.52058548635389,
,,,,,,,,stim/Instruction_adaptive.png,conditions/adaptive.xlsx,test,-0.6,-0.6,-0.6,0.6,0.6,left,L,,,,,0,1,1,1,0,60,60,23,,,,,,,,,,,,,,,,,,,,,,,,,,,,,,,,,,,,,,,,,,,,457.24015560001135,None,left,1,1.1526582000078633,457.7398161001038,459.3595368000679,457.7398161001038,458.8755524000153,457.7398161001038,458.8755524000153,457.7398161001038,458.8755524000153,457.7398161001038,458.8755524000153,457.7398161001038,458.8755524000153,458.8420240000123,459.3428160001058,458.8420240000123,459.3428160001058,458.8420240000123,459.3428160001058,458.8420240000123,459.3428160001058,458.8420240000123,459.3428160001058,458.8420240000123,459.3428160001058,458.8420240000123,459.3428160001058,458.8420240000123,459.3428160001058,457.7398161001038,None,459.3428160001058,460.2942875000881,1.1200000000000008,460.31088880007155,None,461.0621098000556,None,,,,,,,[0.94967213],2.580000000000002,0.7868852459016393,11023,001,2024_Jan_07_1002,MFTM_A_new1021,2021.2.3,59.52058548635389,
,,,,,,,,stim/Instruction_adaptive.png,conditions/adaptive.xlsx,test,0.6,0.6,0.6,-0.6,-0.6,right,R,,,,,0,1,1,1,0,61,61,96,,,,,,,,,,,,,,,,,,,,,,,,,,,,,,,,,,,,,,,,,,,,461.5621807000134,None,right,1,0.8122068999800831,462.0639862000244,463.6661126000108,462.0639862000244,463.1657489000354,462.0639862000244,463.1657489000354,462.0639862000244,463.1657489000354,462.0639862000244,463.1657489000354,462.0639862000244,463.1657489000354,463.1479327001143,463.6492507000221,463.1479327001143,463.6492507000221,463.1479327001143,463.6492507000221,463.1479327001143,463.6492507000221,463.1479327001143,463.6492507000221,463.1479327001143,463.6492507000221,463.1479327001143,463.6492507000221,463.1479327001143,463.6492507000221,462.0639862000244,None,463.6492507000221,464.6177797000855,1.1000000000000008,464.6343841000926,None,465.38472950004507,None,,,,,,,[0.95693548],2.610000000000002,0.7903225806451613,11023,001,2024_Jan_07_1002,MFTM_A_new1021,2021.2.3,59.52058548635389,
,,,,,,,,stim/Instruction_adaptive.png,conditions/adaptive.xlsx,test,-0.6,-0.6,-0.6,0.6,0.6,left,L,,,,,0,1,1,1,0,62,62,13,,,,,,,,,,,,,,,,,,,,,,,,,,,,,,,,,,,,,,,,,,,,465.8864005000796,None,left,1,1.1538209998980165,466.3862318000756,467.97161890007555,466.3862318000756,467.47192890010774,466.3862318000756,467.47192890010774,466.3862318000756,467.47192890010774,466.3862318000756,467.47192890010774,466.3862318000756,467.47192890010774,467.4542908000294,467.9562566000968,467.4542908000294,467.9562566000968,467.4542908000294,467.9562566000968,467.4542908000294,467.9562566000968,467.4542908000294,467.9562566000968,467.4542908000294,467.9562566000968,467.4542908000294,467.9562566000968,467.4542908000294,467.9562566000968,466.3862318000756,None,467.9562566000968,468.9238885000814,1.0800000000000007,468.94089310010895,None,469.6919276000699,None,,,,,,,[0.96428571],2.6300000000000017,0.7936507936507936,11023,001,2024_Jan_07_1002,MFTM_A_new1021,2021.2.3,59.52058548635389,
,,,,,,,,stim/Instruction_adaptive.png,conditions/adaptive.xlsx,test,-0.6,-0.6,-0.6,0.6,0.6,left,L,,,,,0,1,1,1,0,63,63,63,,,,,,,,,,,,,,,,,,,,,,,,,,,,,,,,,,,,,,,,,,,,470.1924398000119,None,right,0,1.519480700022541,470.6929581000004,472.26201720000245,470.6929581000004,471.7614505001111,470.6929581000004,471.7614505001111,470.6929581000004,471.7614505001111,470.6929581000004,471.7614505001111,470.6929581000004,471.7614505001111,471.72788890008815,472.22800300002564,471.72788890008815,472.22800300002564,471.72788890008815,472.22800300002564,471.72788890008815,472.22800300002564,471.72788890008815,472.22800300002564,471.72788890008815,472.22800300002564,471.72788890008815,472.22800300002564,471.72788890008815,472.22800300002564,470.6929581000004,None,472.22800300002564,473.21371660009027,1.0600000000000007,473.23025130003225,None,473.9804331000196,None,,,,,,,[0.97171875],2.560000000000002,0.78125,11023,001,2024_Jan_07_1002,MFTM_A_new1021,2021.2.3,59.52058548635389,
,,,,,,,,stim/Instruction_adaptive.png,conditions/adaptive.xlsx,test,0.6,0.6,0.6,-0.6,-0.6,right,R,,,,,0,1,1,1,0,64,64,94,,,,,,,,,,,,,,,,,,,,,,,,,,,,,,,,,,,,,,,,,,,,474.4824136000825,None,right,1,1.5568723999895155,474.98311540007126,476.61855240003206,474.98311540007126,476.11705910007004,474.98311540007126,476.11705910007004,474.98311540007126,476.11705910007004,474.98311540007126,476.11705910007004,474.98311540007126,476.11705910007004,476.08369110000785,476.5846892000409,476.08369110000785,476.5846892000409,476.08369110000785,476.5846892000409,476.08369110000785,476.5846892000409,476.08369110000785,476.5846892000409,476.08369110000785,476.5846892000409,476.08369110000785,476.5846892000409,476.08369110000785,476.5846892000409,474.98311540007126,None,476.5846892000409,477.56979259999935,1.1200000000000008,477.5857737000333,None,478.3378994000377,None,,,,,,,[0.978],2.580000000000002,0.7846153846153846,11023,001,2024_Jan_07_1002,MFTM_A_new1021,2021.2.3,59.52058548635389,
,,,,,,,,stim/Instruction_adaptive.png,conditions/adaptive.xlsx,test,-0.6,-0.6,-0.6,0.6,0.6,left,L,,,,,0,1,1,1,0,65,65,37,,,,,,,,,,,,,,,,,,,,,,,,,,,,,,,,,,,,,,,,,,,,478.83851170004345,None,right,0,1.1868369000731036,479.33851220004726,480.9417547000339,479.33851220004726,480.4407944000559,479.33851220004726,480.4407944000559,479.33851220004726,480.4407944000559,479.33851220004726,480.4407944000559,479.33851220004726,480.4407944000559,480.42397680005524,480.9250863000052,480.42397680005524,480.9250863000052,480.42397680005524,480.9250863000052,480.42397680005524,480.9250863000052,480.42397680005524,480.9250863000052,480.42397680005524,480.9250863000052,480.42397680005524,480.9250863000052,480.42397680005524,480.9250863000052,479.33851220004726,None,480.9250863000052,481.9095922000706,1.1000000000000008,481.92506400006823,None,482.6767145000631,None,,,,,,,[0.98439394],2.5100000000000016,0.7727272727272727,11023,001,2024_Jan_07_1002,MFTM_A_new1021,2021.2.3,59.52058548635389,
,,,,,,,,stim/Instruction_adaptive.png,conditions/adaptive.xlsx,test,0.6,0.6,0.6,-0.6,-0.6,right,R,,,,,0,1,1,1,0,66,66,72,,,,,,,,,,,,,,,,,,,,,,,,,,,,,,,,,,,,,,,,,,,,483.178771100007,None,right,1,1.5808974000392482,483.6795987000223,485.3305105000036,483.6795987000223,484.8302520000143,483.6795987000223,484.8302520000143,483.6795987000223,484.8302520000143,483.6795987000223,484.8302520000143,483.6795987000223,484.8302520000143,484.8134984000353,485.3143758000806,484.8134984000353,485.3143758000806,484.8134984000353,485.3143758000806,484.8134984000353,485.3143758000806,484.8134984000353,485.3143758000806,484.8134984000353,485.3143758000806,484.8134984000353,485.3143758000806,484.8134984000353,485.3143758000806,483.6795987000223,None,485.3143758000806,486.31611530005466,1.1500000000000008,486.33281300007366,None,487.083903400111,None,,,,,,,[0.98985075],2.530000000000002,0.7761194029850746,11023,001,2024_Jan_07_1002,MFTM_A_new1021,2021.2.3,59.52058548635389,
,,,,,,,,stim/Instruction_adaptive.png,conditions/adaptive.xlsx,test,0.6,0.6,0.6,-0.6,-0.6,right,R,,,,,0,1,1,1,0,67,67,6,,,,,,,,,,,,,,,,,,,,,,,,,,,,,,,,,,,,,,,,,,,,487.58518990001176,None,right,1,1.6546024000272155,488.08537930005696,489.7382562001003,488.08537930005696,489.23658340005204,488.08537930005696,489.23658340005204,488.08537930005696,489.23658340005204,488.08537930005696,489.23658340005204,488.08537930005696,489.23658340005204,489.2042112000054,489.70455020002555,489.2042112000054,489.70455020002555,489.2042112000054,489.70455020002555,489.2042112000054,489.70455020002555,489.2042112000054,489.70455020002555,489.2042112000054,489.70455020002555,489.2042112000054,489.70455020002555,489.2042112000054,489.70455020002555,488.08537930005696,None,489.70455020002555,490.70605370006524,1.1400000000000008,490.7219689000631,None,491.4738901000237,None,,,,,,,[0.99529412],2.560000000000002,0.7794117647058824,11023,001,2024_Jan_07_1002,MFTM_A_new1021,2021.2.3,59.52058548635389,
,,,,,,,,stim/Instruction_adaptive.png,conditions/adaptive.xlsx,test,-0.6,-0.6,-0.6,0.6,0.6,left,L,,,,,0,1,1,1,0,68,68,39,,,,,,,,,,,,,,,,,,,,,,,,,,,,,,,,,,,,,,,,,,,,491.97460539999884,None,left,1,1.7367360999342054,492.4752991000423,494.11027370009106,492.4752991000423,493.60977100010496,492.4752991000423,493.60977100010496,492.4752991000423,493.60977100010496,492.4752991000423,493.60977100010496,492.4752991000423,493.60977100010496,493.5761763000628,494.0770979000954,493.5761763000628,494.0770979000954,493.5761763000628,494.0770979000954,493.5761763000628,494.0770979000954,493.5761763000628,494.0770979000954,493.5761763000628,494.0770979000954,493.5761763000628,494.0770979000954,493.5761763000628,494.0770979000954,492.4752991000423,None,494.0770979000954,495.078479000018,1.1200000000000008,495.0958511000499,None,495.8469548000721,None,,,,,,,[1.00086957],2.580000000000002,0.782608695652174,11023,001,2024_Jan_07_1002,MFTM_A_new1021,2021.2.3,59.52058548635389,
,,,,,,,,stim/Instruction_adaptive.png,conditions/adaptive.xlsx,test,0.6,0.6,0.6,-0.6,-0.6,right,R,,,,,0,1,1,1,0,69,69,22,,,,,,,,,,,,,,,,,,,,,,,,,,,,,,,,,,,,,,,,,,,,496.3478166999994,None,right,1,1.6198302999837324,496.84821240010206,498.45027060003486,496.84821240010206,497.94991510000546,496.84821240010206,497.94991510000546,496.84821240010206,497.94991510000546,496.84821240010206,497.94991510000546,496.84821240010206,497.94991510000546,497.9327694000676,498.43415190000087,497.9327694000676,498.43415190000087,497.9327694000676,498.43415190000087,497.9327694000676,498.43415190000087,497.9327694000676,498.43415190000087,497.9327694000676,498.43415190000087,497.9327694000676,498.43415190000087,497.9327694000676,498.43415190000087,496.84821240010206,None,498.43415190000087,499.45226570009254,1.1000000000000008,499.4683123000432,None,500.2207567000296,None,,,,,,,[1.00657143],2.610000000000002,0.7857142857142857,11023,001,2024_Jan_07_1002,MFTM_A_new1021,2021.2.3,59.52058548635389,
,,,,,,,,stim/Instruction_adaptive.png,conditions/adaptive.xlsx,test,-0.6,-0.6,-0.6,0.6,0.6,left,L,,,,,0,1,1,1,0,70,70,89,,,,,,,,,,,,,,,,,,,,,,,,,,,,,,,,,,,,,,,,,,,,500.7210020000348,None,left,1,2.438480499899015,501.2214661000762,502.8071465000976,501.2214661000762,502.3063545000041,501.2214661000762,502.3063545000041,501.2214661000762,502.3063545000041,501.2214661000762,502.3063545000041,501.2214661000762,502.3063545000041,502.2891107000178,502.79100310010836,502.2891107000178,502.79100310010836,502.2891107000178,502.79100310010836,502.2891107000178,502.79100310010836,502.2891107000178,502.79100310010836,502.2891107000178,502.79100310010836,502.2891107000178,502.79100310010836,502.2891107000178,502.79100310010836,501.2214661000762,None,502.79100310010836,503.80828450003173,1.0800000000000007,503.82534460001625,None,504.57657620008104,None,,,,,,,[1.01239437],2.6300000000000017,0.7887323943661971,11023,001,2024_Jan_07_1002,MFTM_A_new1021,2021.2.3,59.52058548635389,
,,,,,,,,stim/Instruction_adaptive.png,conditions/adaptive.xlsx,test,0.6,0.6,0.6,-0.6,-0.6,right,R,,,,,0,1,1,1,0,71,71,14,,,,,,,,,,,,,,,,,,,,,,,,,,,,,,,,,,,,,,,,,,,,505.07769150007516,None,left,0,1.699181400006637,505.57734720001463,507.14704100007657,505.57734720001463,506.6455991000403,505.57734720001463,506.6455991000403,505.57734720001463,506.6455991000403,505.57734720001463,506.6455991000403,505.57734720001463,506.6455991000403,506.6121023000451,507.1131607000716,506.6121023000451,507.1131607000716,506.6121023000451,507.1131607000716,506.6121023000451,507.1131607000716,506.6121023000451,507.1131607000716,506.6121023000451,507.1131607000716,506.6121023000451,507.1131607000716,506.6121023000451,507.1131607000716,505.57734720001463,None,507.1131607000716,508.132708500023,1.0600000000000007,508.1639639000641,None,508.915939400089,None,,,,,,,[1.01833333],2.560000000000002,0.7777777777777778,11023,001,2024_Jan_07_1002,MFTM_A_new1021,2021.2.3,59.52058548635389,
,,,,,,,,stim/Instruction_adaptive.png,conditions/adaptive.xlsx,test,0.6,0.6,0.6,-0.6,-0.6,right,R,,,,,0,1,1,1,0,72,72,88,,,,,,,,,,,,,,,,,,,,,,,,,,,,,,,,,,,,,,,,,,,,509.4171320000896,None,left,0,1.4308559000492096,509.9172127000056,511.53694190003444,509.9172127000056,511.05347500008065,509.9172127000056,511.05347500008065,509.9172127000056,511.05347500008065,509.9172127000056,511.05347500008065,509.9172127000056,511.05347500008065,511.018853400019,511.51984110008925,511.018853400019,511.51984110008925,511.018853400019,511.51984110008925,511.018853400019,511.51984110008925,511.018853400019,511.51984110008925,511.018853400019,511.51984110008925,511.018853400019,511.51984110008925,511.018853400019,511.51984110008925,509.9172127000056,None,511.51984110008925,512.5550976000959,1.1200000000000008,512.5717158000916,None,513.323060200084,None,,,,,,,[1.02328767],2.490000000000002,0.7671232876712328,11023,001,2024_Jan_07_1002,MFTM_A_new1021,2021.2.3,59.52058548635389,
,,,,,,,,stim/Instruction_adaptive.png,conditions/adaptive.xlsx,test,-0.6,-0.6,-0.6,0.6,0.6,left,L,,,,,0,1,1,1,0,73,73,9,,,,,,,,,,,,,,,,,,,,,,,,,,,,,,,,,,,,,,,,,,,,513.8236466000089,None,left,1,1.568393199937418,514.3243085000431,515.993439400103,514.3243085000431,515.5094494000077,514.3243085000431,515.5094494000077,514.3243085000431,515.5094494000077,514.3243085000431,515.5094494000077,514.3243085000431,515.5094494000077,515.4754655000288,515.9766282000346,515.4754655000288,515.9766282000346,515.4754655000288,515.9766282000346,515.4754655000288,515.9766282000346,515.4754655000288,515.9766282000346,515.4754655000288,515.9766282000346,515.4754655000288,515.9766282000346,515.4754655000288,515.9766282000346,514.3243085000431,None,515.9766282000346,517.011867400026,1.1700000000000008,517.0275439000688,None,517.7796372000594,None,,,,,,,[1.02743243],2.5100000000000016,0.7702702702702703,11023,001,2024_Jan_07_1002,MFTM_A_new1021,2021.2.3,59.52058548635389,
,,,,,,,,stim/Instruction_adaptive.png,conditions/adaptive.xlsx,test,-0.6,-0.6,-0.6,0.6,0.6,left,L,,,,,0,1,1,1,0,74,74,99,,,,,,,,,,,,,,,,,,,,,,,,,,,,,,,,,,,,,,,,,,,,518.2806592000416,None,left,1,1.216389200068079,518.7802025000565,520.4326066001086,518.7802025000565,519.9319788001012,518.7802025000565,519.9319788001012,518.7802025000565,519.9319788001012,518.7802025000565,519.9319788001012,518.7802025000565,519.9319788001012,519.9156026000855,520.4160615000874,519.9156026000855,520.4160615000874,519.9156026000855,520.4160615000874,519.9156026000855,520.4160615000874,519.9156026000855,520.4160615000874,519.9156026000855,520.4160615000874,519.9156026000855,520.4160615000874,519.9156026000855,520.4160615000874,518.7802025000565,None,520.4160615000874,521.4517627001042,1.1500000000000008,521.4682984000538,None,522.2197447000071,None,,,,,,,[1.03173333],2.540000000000002,0.7733333333333333,11023,001,2024_Jan_07_1002,MFTM_A_new1021,2021.2.3,59.52058548635389,
,,,,,,,,stim/Instruction_adaptive.png,conditions/adaptive.xlsx,test,0.6,0.6,0.6,-0.6,-0.6,right,R,,,,,0,1,1,1,0,75,75,86,,,,,,,,,,,,,,,,,,,,,,,,,,,,,,,,,,,,,,,,,,,,522.7202271000715,None,right,1,1.9358431999571621,523.2207383000059,524.8566344000865,523.2207383000059,524.3556089000776,523.2207383000059,524.3556089000776,523.2207383000059,524.3556089000776,523.2207383000059,524.3556089000776,523.2207383000059,524.3556089000776,524.3394247000106,524.8396750000538,524.3394247000106,524.8396750000538,524.3394247000106,524.8396750000538,524.3394247000106,524.8396750000538,524.3394247000106,524.8396750000538,524.3394247000106,524.8396750000538,524.3394247000106,524.8396750000538,524.3394247000106,524.8396750000538,523.2207383000059,None,524.8396750000538,525.8747755000368,1.1300000000000008,525.8906140000327,None,526.6420875000767,None,,,,,,,[1.03618421],2.560000000000002,0.7763157894736842,11023,001,2024_Jan_07_1002,MFTM_A_new1021,2021.2.3,59.52058548635389,
,,,,,,,,stim/Instruction_adaptive.png,conditions/adaptive.xlsx,test,0.6,0.6,0.6,-0.6,-0.6,right,R,,,,,0,1,1,1,0,76,76,30,,,,,,,,,,,,,,,,,,,,,,,,,,,,,,,,,,,,,,,,,,,,527.1433115000837,None,right,1,1.4247001999756321,527.6435774000129,529.2629623000976,527.6435774000129,528.7626581001095,527.6435774000129,528.7626581001095,527.6435774000129,528.7626581001095,527.6435774000129,528.7626581001095,527.6435774000129,528.7626581001095,528.7458224000875,529.2464407000225,528.7458224000875,529.2464407000225,528.7458224000875,529.2464407000225,528.7458224000875,529.2464407000225,528.7458224000875,529.2464407000225,528.7458224000875,529.2464407000225,528.7458224000875,529.2464407000225,528.7458224000875,529.2464407000225,527.6435774000129,None,529.2464407000225,530.2985864001093,1.1200000000000008,530.3138341000304,None,531.0657693000976,None,,,,,,,[1.04064935],2.580000000000002,0.7792207792207793,11023,001,2024_Jan_07_1002,MFTM_A_new1021,2021.2.3,59.52058548635389,
,,,,,,,,stim/Instruction_adaptive.png,conditions/adaptive.xlsx,test,-0.6,-0.6,-0.6,0.6,0.6,left,L,,,,,0,1,1,1,0,77,77,73,,,,,,,,,,,,,,,,,,,,,,,,,,,,,,,,,,,,,,,,,,,,531.566968100029,None,left,1,1.057079799938947,532.0671670000302,533.6696043000557,532.0671670000302,533.1681760000065,532.0671670000302,533.1681760000065,532.0671670000302,533.1681760000065,532.0671670000302,533.1681760000065,532.0671670000302,533.1681760000065,533.1521961000981,533.6528207000811,533.1521961000981,533.6528207000811,533.1521961000981,533.6528207000811,533.1521961000981,533.6528207000811,533.1521961000981,533.6528207000811,533.1521961000981,533.6528207000811,533.1521961000981,533.6528207000811,533.1521961000981,533.6528207000811,532.0671670000302,None,533.6528207000811,534.7037806001026,1.1000000000000008,534.7214569000062,None,535.4724232000299,None,,,,,,,[1.04525641],2.610000000000002,0.782051282051282,11023,001,2024_Jan_07_1002,MFTM_A_new1021,2021.2.3,59.52058548635389,
,,,,,,,,stim/Instruction_adaptive.png,conditions/adaptive.xlsx,test,-0.6,-0.6,-0.6,0.6,0.6,left,L,,,,,0,1,1,1,0,78,78,21,,,,,,,,,,,,,,,,,,,,,,,,,,,,,,,,,,,,,,,,,,,,535.9733062000014,None,right,0,1.1934541000518948,536.4746360999998,538.0590881000971,536.4746360999998,537.558542600018,536.4746360999998,537.558542600018,536.4746360999998,537.558542600018,536.4746360999998,537.558542600018,536.4746360999998,537.558542600018,537.5422406001016,538.0425391000463,537.5422406001016,538.0425391000463,537.5422406001016,538.0425391000463,537.5422406001016,538.0425391000463,537.5422406001016,538.0425391000463,537.5422406001016,538.0425391000463,537.5422406001016,538.0425391000463,537.5422406001016,538.0425391000463,536.4746360999998,None,538.0425391000463,539.093712800066,1.0800000000000007,539.110439900076,None,539.8630525000626,None,,,,,,,[1.05],2.540000000000002,0.7721518987341772,11023,001,2024_Jan_07_1002,MFTM_A_new1021,2021.2.3,59.52058548635389,
,,,,,,,,stim/Instruction_adaptive.png,conditions/adaptive.xlsx,test,0.6,0.6,0.6,-0.6,-0.6,right,R,,,,,0,1,1,1,0,79,79,16,,,,,,,,,,,,,,,,,,,,,,,,,,,,,,,,,,,,,,,,,,,,540.3634811000666,None,right,1,1.8453541999915615,540.8630371000618,542.4995837000897,540.8630371000618,541.9985776001122,540.8630371000618,541.9985776001122,540.8630371000618,541.9985776001122,540.8630371000618,541.9985776001122,540.8630371000618,541.9985776001122,541.9816812000936,542.4820515000029,541.9816812000936,542.4820515000029,541.9816812000936,542.4820515000029,541.9816812000936,542.4820515000029,541.9816812000936,542.4820515000029,541.9816812000936,542.4820515000029,541.9816812000936,542.4820515000029,541.9816812000936,542.4820515000029,540.8630371000618,None,542.4820515000029,543.5342217000434,1.1300000000000008,543.5501998000545,None,544.3021174001042,None,,,,,,,[1.054],2.560000000000002,0.775,11023,001,2024_Jan_07_1002,MFTM_A_new1021,2021.2.3,59.52058548635389,
,,,,,,,,stim/Instruction_adaptive.png,conditions/adaptive.xlsx,test,0.6,0.6,0.6,-0.6,-0.6,right,R,,,,,0,1,1,1,0,80,80,42,,,,,,,,,,,,,,,,,,,,,,,,,,,,,,,,,,,,,,,,,,,,544.8027032000246,None,right,1,1.5562429999699816,545.3038021000102,546.9391930000857,545.3038021000102,546.4379738999996,545.3038021000102,546.4379738999996,545.3038021000102,546.4379738999996,545.3038021000102,546.4379738999996,545.3038021000102,546.4379738999996,546.404382500099,546.9054250000045,546.404382500099,546.9054250000045,546.404382500099,546.9054250000045,546.404382500099,546.9054250000045,546.404382500099,546.9054250000045,546.404382500099,546.9054250000045,546.404382500099,546.9054250000045,546.404382500099,546.9054250000045,545.3038021000102,None,546.9054250000045,547.9740841001039,1.1200000000000008,547.9902623000089,None,548.7417438999983,None,,,,,,,[1.05802469],2.5900000000000016,0.7777777777777778,11023,001,2024_Jan_07_1002,MFTM_A_new1021,2021.2.3,59.52058548635389,
,,,,,,,,stim/Instruction_adaptive.png,conditions/adaptive.xlsx,test,-0.6,-0.6,-0.6,0.6,0.6,left,L,,,,,0,1,1,1,0,81,81,95,,,,,,,,,,,,,,,,,,,,,,,,,,,,,,,,,,,,,,,,,,,,549.2422641000012,None,right,0,1.4533115000231192,549.7429565000348,551.3459653001046,549.7429565000348,550.8454874000745,549.7429565000348,550.8454874000745,549.7429565000348,550.8454874000745,549.7429565000348,550.8454874000745,549.7429565000348,550.8454874000745,550.8110462001059,551.312821200001,550.8110462001059,551.312821200001,550.8110462001059,551.312821200001,550.8110462001059,551.312821200001,550.8110462001059,551.312821200001,550.8110462001059,551.312821200001,550.8110462001059,551.312821200001,550.8110462001059,551.312821200001,549.7429565000348,None,551.312821200001,552.3807652000105,1.0900000000000007,552.396240800037,None,553.1484927000711,None,,,,,,,[1.06231707],2.520000000000002,0.7682926829268293,11023,001,2024_Jan_07_1002,MFTM_A_new1021,2021.2.3,59.52058548635389,
,,,,,,,,stim/Instruction_adaptive.png,conditions/adaptive.xlsx,test,-0.6,-0.6,-0.6,0.6,0.6,left,L,,,,,0,1,1,1,0,82,82,81,,,,,,,,,,,,,,,,,,,,,,,,,,,,,,,,,,,,,,,,,,,,553.649281400023,None,left,1,2.2147663000505418,554.1493151000468,555.802844400052,554.1493151000468,555.301668100059,554.1493151000468,555.301668100059,554.1493151000468,555.301668100059,554.1493151000468,555.301668100059,554.1493151000468,555.301668100059,555.284976300085,555.7860570000485,555.284976300085,555.7860570000485,555.284976300085,555.7860570000485,555.284976300085,555.7860570000485,555.284976300085,555.7860570000485,555.284976300085,555.7860570000485,555.284976300085,555.7860570000485,555.284976300085,555.7860570000485,554.1493151000468,None,555.7860570000485,556.8541278000921,1.1500000000000008,556.8693620000267,None,557.6211834000424,None,,,,,,,[1.06578313],2.540000000000002,0.7710843373493976,11023,001,2024_Jan_07_1002,MFTM_A_new1021,2021.2.3,59.52058548635389,
,,,,,,,,stim/Instruction_adaptive.png,conditions/adaptive.xlsx,test,-0.6,-0.6,-0.6,0.6,0.6,left,L,,,,,0,1,1,1,0,83,83,75,,,,,,,,,,,,,,,,,,,,,,,,,,,,,,,,,,,,,,,,,,,,558.1226904001087,None,left,1,1.5730081999208778,558.6233733000699,560.2590813999996,558.6233733000699,559.7583990000421,558.6233733000699,559.7583990000421,558.6233733000699,559.7583990000421,558.6233733000699,559.7583990000421,558.6233733000699,559.7583990000421,559.7410335000604,560.2423811000772,559.7410335000604,560.2423811000772,559.7410335000604,560.2423811000772,559.7410335000604,560.2423811000772,559.7410335000604,560.2423811000772,559.7410335000604,560.2423811000772,559.7410335000604,560.2423811000772,559.7410335000604,560.2423811000772,558.6233733000699,None,560.2423811000772,561.3098658000818,1.1300000000000008,561.3271779000061,None,562.0784244000679,None,,,,,,,[1.06940476],2.570000000000002,0.7738095238095238,11023,001,2024_Jan_07_1002,MFTM_A_new1021,2021.2.3,59.52058548635389,
,,,,,,,,stim/Instruction_adaptive.png,conditions/adaptive.xlsx,test,-0.6,-0.6,-0.6,0.6,0.6,left,L,,,,,0,1,1,1,0,84,84,85,,,,,,,,,,,,,,,,,,,,,,,,,,,,,,,,,,,,,,,,,,,,562.5795144001022,None,right,0,1.388861200073734,563.0792809000704,564.6992172000464,563.0792809000704,564.1984201000305,563.0792809000704,564.1984201000305,563.0792809000704,564.1984201000305,563.0792809000704,564.1984201000305,563.0792809000704,564.1984201000305,564.1647338001058,564.6657347000437,564.1647338001058,564.6657347000437,564.1647338001058,564.6657347000437,564.1647338001058,564.6657347000437,564.1647338001058,564.6657347000437,564.1647338001058,564.6657347000437,564.1647338001058,564.6657347000437,564.1647338001058,564.6657347000437,563.0792809000704,None,564.6657347000437,565.7505157000851,1.1100000000000008,565.7665425000014,None,566.5185226000613,None,,,,,,,[1.07317647],2.5000000000000018,0.7647058823529411,11023,001,2024_Jan_07_1002,MFTM_A_new1021,2021.2.3,59.52058548635389,
,,,,,,,,stim/Instruction_adaptive.png,conditions/adaptive.xlsx,test,0.6,0.6,0.6,-0.6,-0.6,right,R,,,,,0,1,1,1,0,85,85,80,,,,,,,,,,,,,,,,,,,,,,,,,,,,,,,,,,,,,,,,,,,,567.0189771000296,None,right,1,1.660066100070253,567.5200282000005,569.1884349000175,567.5200282000005,568.6876169000752,567.5200282000005,568.6876169000752,567.5200282000005,568.6876169000752,567.5200282000005,568.6876169000752,567.5200282000005,568.6876169000752,568.6541473000543,569.1560631000903,568.6541473000543,569.1560631000903,568.6541473000543,569.1560631000903,568.6541473000543,569.1560631000903,568.6541473000543,569.1560631000903,568.6541473000543,569.1560631000903,568.6541473000543,569.1560631000903,568.6541473000543,569.1560631000903,567.5200282000005,None,569.1560631000903,570.2406081000809,1.1600000000000008,570.2567894000094,None,571.0082962000743,None,,,,,,,[1.07627907],2.520000000000002,0.7674418604651163,11023,001,2024_Jan_07_1002,MFTM_A_new1021,2021.2.3,59.52058548635389,
,,,,,,,,stim/Instruction_adaptive.png,conditions/adaptive.xlsx,test,0.6,0.6,0.6,-0.6,-0.6,right,R,,,,,0,1,1,1,0,86,86,76,,,,,,,,,,,,,,,,,,,,,,,,,,,,,,,,,,,,,,,,,,,,571.508453000104,None,right,1,2.4422061999794096,572.0098954000277,573.66233620001,572.0098954000277,573.1615236001089,572.0098954000277,573.1615236001089,572.0098954000277,573.1615236001089,572.0098954000277,573.1615236001089,572.0098954000277,573.1615236001089,573.1449541000184,573.645534100011,573.1449541000184,573.645534100011,573.1449541000184,573.645534100011,573.1449541000184,573.645534100011,573.1449541000184,573.645534100011,573.1449541000184,573.645534100011,573.1449541000184,573.645534100011,573.1449541000184,573.645534100011,572.0098954000277,None,573.645534100011,574.7306406000862,1.1500000000000008,574.7465355000459,None,575.4984122000169,None,,,,,,,[1.07942529],2.540000000000002,0.7701149425287356,11023,001,2024_Jan_07_1002,MFTM_A_new1021,2021.2.3,59.52058548635389,
,,,,,,,,stim/Instruction_adaptive.png,conditions/adaptive.xlsx,test,0.6,0.6,0.6,-0.6,-0.6,right,R,,,,,0,1,1,1,0,87,87,58,,,,,,,,,,,,,,,,,,,,,,,,,,,,,,,,,,,,,,,,,,,,575.9990983000025,None,right,1,2.18478170002345,576.4999022000702,578.1357737000799,576.4999022000702,577.6353927000891,576.4999022000702,577.6353927000891,576.4999022000702,577.6353927000891,576.4999022000702,577.6353927000891,576.4999022000702,577.6353927000891,577.6174586000852,578.1180935000302,577.6174586000852,578.1180935000302,577.6174586000852,578.1180935000302,577.6174586000852,578.1180935000302,577.6174586000852,578.1180935000302,577.6174586000852,578.1180935000302,577.6174586000852,578.1180935000302,577.6174586000852,578.1180935000302,576.4999022000702,None,578.1180935000302,579.2037713000318,1.1300000000000008,579.2205199000891,None,579.9715882000746,None,,,,,,,[1.08272727],2.570000000000002,0.7727272727272727,11023,001,2024_Jan_07_1002,MFTM_A_new1021,2021.2.3,59.52058548635389,
,,,,,,,,stim/Instruction_adaptive.png,conditions/adaptive.xlsx,test,0.6,0.6,0.6,-0.6,-0.6,right,R,,,,,0,1,1,1,0,88,88,68,,,,,,,,,,,,,,,,,,,,,,,,,,,,,,,,,,,,,,,,,,,,580.4726618001005,None,right,1,2.2071442999877036,580.9730159000028,582.5927767000394,580.9730159000028,582.091448900057,580.9730159000028,582.091448900057,580.9730159000028,582.091448900057,580.9730159000028,582.091448900057,580.9730159000028,582.091448900057,582.0745878000744,582.5760077000596,582.0745878000744,582.5760077000596,582.0745878000744,582.5760077000596,582.0745878000744,582.5760077000596,582.0745878000744,582.5760077000596,582.0745878000744,582.5760077000596,582.0745878000744,582.5760077000596,582.0745878000744,582.5760077000596,580.9730159000028,None,582.5589628000744,583.6601128000766,1.1100000000000008,583.6764744000975,None,584.42864440009,None,,,,,,,[1.08617978],2.5900000000000016,0.7752808988764045,11023,001,2024_Jan_07_1002,MFTM_A_new1021,2021.2.3,59.52058548635389,
,,,,,,,,stim/Instruction_adaptive.png,conditions/adaptive.xlsx,test,-0.6,-0.6,-0.6,0.6,0.6,left,L,,,,,0,1,1,1,0,89,89,49,,,,,,,,,,,,,,,,,,,,,,,,,,,,,,,,,,,,,,,,,,,,584.9294006000273,None,left,1,1.0781650999560952,585.4298930000514,587.0322618000209,585.4298930000514,586.5307224000571,585.4298930000514,586.5307224000571,585.4298930000514,586.5307224000571,585.4298930000514,586.5307224000571,585.4298930000514,586.5307224000571,586.4980329000391,586.9981200000038,586.4980329000391,586.9981200000038,586.4980329000391,586.9981200000038,586.4980329000391,586.9981200000038,586.4980329000391,586.9981200000038,586.4980329000391,586.9981200000038,586.4980329000391,586.9981200000038,586.4980329000391,586.9981200000038,585.4298930000514,None,586.9981200000038,588.100874900003,1.0900000000000007,588.1162029000698,None,588.8680979000637,None,,,,,,,[1.08977778],2.610000000000002,0.7777777777777778,11023,001,2024_Jan_07_1002,MFTM_A_new1021,2021.2.3,59.52058548635389,
,,,,,,,,stim/Instruction_adaptive.png,conditions/adaptive.xlsx,test,-0.6,-0.6,-0.6,0.6,0.6,left,L,,,,,0,1,1,1,0,90,90,87,,,,,,,,,,,,,,,,,,,,,,,,,,,,,,,,,,,,,,,,,,,,589.3688039000845,None,left,1,1.3987337000435218,589.8696969000157,591.4552565000486,589.8696969000157,590.9545650000218,589.8696969000157,590.9545650000218,589.8696969000157,590.9545650000218,589.8696969000157,590.9545650000218,589.8696969000157,590.9545650000218,590.9372814000817,591.4379537000787,590.9372814000817,591.4379537000787,590.9372814000817,591.4379537000787,590.9372814000817,591.4379537000787,590.9372814000817,591.4379537000787,590.9372814000817,591.4379537000787,590.9372814000817,591.4379537000787,590.9372814000817,591.4379537000787,589.8696969000157,None,591.4379537000787,592.5400119000115,1.0800000000000007,592.5562657000264,None,593.3077708000783,None,,,,,,,[1.09340659],2.620000000000002,0.7802197802197802,11023,001,2024_Jan_07_1002,MFTM_A_new1021,2021.2.3,59.52058548635389,
,,,,,,,,stim/Instruction_adaptive.png,conditions/adaptive.xlsx,test,-0.6,-0.6,-0.6,0.6,0.6,left,L,,,,,0,1,1,1,0,91,91,29,,,,,,,,,,,,,,,,,,,,,,,,,,,,,,,,,,,,,,,,,,,,593.8087147000479,None,left,1,0.8955803000135347,594.308822400053,595.878645400051,594.308822400053,595.3942345000105,594.308822400053,595.3942345000105,594.308822400053,595.3942345000105,594.308822400053,595.3942345000105,594.308822400053,595.3942345000105,595.3604132001055,595.8619257000973,595.3604132001055,595.8619257000973,595.3604132001055,595.8619257000973,595.3604132001055,595.8619257000973,595.3604132001055,595.8619257000973,595.3604132001055,595.8619257000973,595.3604132001055,595.8619257000973,595.3604132001055,595.8619257000973,594.308822400053,None,595.8619257000973,596.9632200000342,1.0700000000000007,596.9802957000211,None,597.7311826000223,None,,,,,,,[1.09706522],2.640000000000002,0.782608695652174,11023,001,2024_Jan_07_1002,MFTM_A_new1021,2021.2.3,59.52058548635389,
,,,,,,,,stim/Instruction_adaptive.png,conditions/adaptive.xlsx,test,-0.6,-0.6,-0.6,0.6,0.6,left,L,,,,,0,1,1,1,0,92,92,35,,,,,,,,,,,,,,,,,,,,,,,,,,,,,,,,,,,,,,,,,,,,598.2319279001094,None,left,1,1.0399402000475675,598.732112800004,600.3010651000077,598.732112800004,599.8000587000279,598.732112800004,599.8000587000279,598.732112800004,599.8000587000279,598.732112800004,599.8000587000279,598.732112800004,599.8000587000279,599.7834397000261,600.284443300101,599.7834397000261,600.284443300101,599.7834397000261,600.284443300101,599.7834397000261,600.284443300101,599.7834397000261,600.284443300101,599.7834397000261,600.284443300101,599.7834397000261,600.284443300101,599.7834397000261,600.284443300101,598.732112800004,None,600.2677377000218,601.3692482000915,1.0600000000000007,601.4028621000471,None,602.1537860000972,None,,,,,,,[1.10075269],2.660000000000002,0.7849462365591398,11023,001,2024_Jan_07_1002,MFTM_A_new1021,2021.2.3,59.52058548635389,
,,,,,,,,stim/Instruction_adaptive.png,conditions/adaptive.xlsx,test,0.6,0.6,0.6,-0.6,-0.6,right,R,,,,,0,1,1,1,0,93,93,36,,,,,,,,,,,,,,,,,,,,,,,,,,,,,,,,,,,,,,,,,,,,602.654546600068,None,right,1,1.7607256000628695,603.1552700001048,604.7076077000238,603.1552700001048,604.2069500000216,603.1552700001048,604.2069500000216,603.1552700001048,604.2069500000216,603.1552700001048,604.2069500000216,603.1552700001048,604.2069500000216,604.1731448000064,604.6741658000974,604.1731448000064,604.6741658000974,604.1731448000064,604.6741658000974,604.1731448000064,604.6741658000974,604.1731448000064,604.6741658000974,604.1731448000064,604.6741658000974,604.1731448000064,604.6741658000974,604.1731448000064,604.6741658000974,603.1552700001048,None,604.6741658000974,605.7927965000272,1.0400000000000007,605.8095322001027,None,606.5601202000398,None,,,,,,,[1.10457447],2.680000000000002,0.7872340425531915,11023,001,2024_Jan_07_1002,MFTM_A_new1021,2021.2.3,59.52058548635389,
