arrwidth1,arrwidth2,arrwidth3,arrwidth4,arrwidth5,keyb,type,orientation,instruction_image,block_filename,block_type,arrow11,arrow22,arrow33,arrow44,arrow55,keyb_3,orientation3,trials.thisRepN,trials.thisTrialN,trials.thisN,trials.thisIndex,trials_3.thisRepN,trials_3.thisTrialN,trials_3.thisN,trials_3.thisIndex,trials_2.thisRepN,trials_2.thisTrialN,trials_2.thisN,trials_2.thisIndex,welcome.started,welcome.stopped,key_resp.keys,key_resp.rt,key_resp.started,key_resp.stopped,instruction_example.started,instruction_example.stopped,key_resp_3.keys,key_resp_3.rt,key_resp_3.started,key_resp_3.stopped,instruction_task.started,instruction_task.stopped,key_resp_2.keys,key_resp_2.rt,key_resp_2.started,key_resp_2.stopped,text_2.started,text_2.stopped,A1.started,A1.stopped,A2.started,A2.stopped,A3.started,A3.stopped,A4.started,A4.stopped,A5.started,A5.stopped,key_resp_4.keys,key_resp_4.corr,key_resp_4.rt,key_resp_4.started,key_resp_4.stopped,fb.started,fb.stopped,instruction_block.started,instruction_block.stopped,key_resp_8.keys,key_resp_8.rt,key_resp_8.started,key_resp_8.stopped,text_8.started,text_8.stopped,key_resp_9.keys,key_resp_9.corr,key_resp_9.rt,text_5.started,text_5.stopped,A11_3.started,A11_3.stopped,A22_2.started,A22_2.stopped,A33_2.started,A33_2.stopped,A44_2.started,A44_2.stopped,A55_2.started,A55_2.stopped,M1_3.started,M1_3.stopped,M2_2.started,M2_2.stopped,M3_2.started,M3_2.stopped,M4_2.started,M4_2.stopped,M5_2.started,M5_2.stopped,M6_2.started,M6_2.stopped,M7_2.started,M7_2.stopped,M8_2.started,M8_2.stopped,key_resp_9.started,key_resp_9.stopped,fixation.started,fixation.stopped,ET,fb_3.started,fb_3.stopped,text_9.started,text_9.stopped,fb_4.started,fb_4.stopped,text_7.started,text_7.stopped,endtext.started,endtext.stopped,fixation_ITI,CCC,Acc,participant,session,date,expName,psychopyVersion,frameRate,
,,,,,,,,,,,,,,,,,,,,,,,,,,,,,,13.716913300100714,None,space,2.433849100023508,13.716913300100714,None,,,,,,,,,,,,,,,,,,,,,,,,,,,,,,,,,,,,,,,,,,,,,,,,,,,,,,,,,,,,,,,,,,,,,,,,,,,,,,,,,,,,,,,,,11027,002,2024_Jan_10_1335,MFTM_A_new1021,2021.2.3,59.63772473752085,
,,,,,,,,,,,,,,,,,,,,,,,,,,,,,,,,,,,,16.1711828999687,None,space,0.9873583998996764,16.1711828999687,None,,,,,,,,,,,,,,,,,,,,,,,,,,,,,,,,,,,,,,,,,,,,,,,,,,,,,,,,,,,,,,,,,,,,,,,,,,,,,,,,,,,11027,002,2024_Jan_10_1335,MFTM_A_new1021,2021.2.3,59.63772473752085,
,,,,,,,,,,,,,,,,,,,,,,,,,,,,,,,,,,,,,,,,,,17.18865910009481,None,space,0.3618610999546945,17.18865910009481,None,,,,,,,,,,,,,,,,,,,,,,,,,,,,,,,,,,,,,,,,,,,,,,,,,,,,,,,,,,,,,,,,,,,,,,,,,,,,,11027,002,2024_Jan_10_1335,MFTM_A_new1021,2021.2.3,59.63772473752085,
-0.6,-0.6,-0.6,0.6,0.6,left,3:2,L,,,,,,,,,,,0,0,0,1,,,,,,,,,,,,,,,,,,,,,,,,,,,17.59033889998682,None,17.59033889998682,None,17.59033889998682,None,17.59033889998682,None,17.59033889998682,None,17.59033889998682,None,left,1,3.2965499002020806,17.59033889998682,None,20.928289300063625,None,,,,,,,,,,,,,,,,,,,,,,,,,,,,,,,,,,,,,,,,,,,,,,,,,,,,,,,,,,11027,002,2024_Jan_10_1335,MFTM_A_new1021,2021.2.3,59.63772473752085,
0.6,0.6,0.6,-0.6,-0.6,right,3:2,R,,,,,,,,,,,0,1,1,0,,,,,,,,,,,,,,,,,,,,,,,,,,,21.679476900026202,None,21.679476900026202,None,21.679476900026202,None,21.679476900026202,None,21.679476900026202,None,21.679476900026202,None,right,1,3.3111250000074506,21.679476900026202,None,25.01845440012403,None,,,,,,,,,,,,,,,,,,,,,,,,,,,,,,,,,,,,,,,,,,,,,,,,,,,,,,,,,,11027,002,2024_Jan_10_1335,MFTM_A_new1021,2021.2.3,59.63772473752085,
-0.6,-0.6,-0.6,0.6,0.6,left,3:2,L,,,,,,,,,,,1,0,2,1,,,,,,,,,,,,,,,,,,,,,,,,,,,25.768432600190863,None,25.768432600190863,None,25.768432600190863,None,25.768432600190863,None,25.768432600190863,None,25.768432600190863,None,left,1,1.437996600056067,25.768432600190863,None,27.237154300091788,None,,,,,,,,,,,,,,,,,,,,,,,,,,,,,,,,,,,,,,,,,,,,,,,,,,,,,,,,,,11027,002,2024_Jan_10_1335,MFTM_A_new1021,2021.2.3,59.63772473752085,
0.6,0.6,0.6,-0.6,-0.6,right,3:2,R,,,,,,,,,,,1,1,3,0,,,,,,,,,,,,,,,,,,,,,,,,,,,27.98863960010931,None,27.98863960010931,None,27.98863960010931,None,27.98863960010931,None,27.98863960010931,None,27.98863960010931,None,right,1,2.4580216000322253,27.98863960010931,None,30.47519460017793,None,,,,,,,,,,,,,,,,,,,,,,,,,,,,,,,,,,,,,,,,,,,,,,,,,,,,,,,,,,11027,002,2024_Jan_10_1335,MFTM_A_new1021,2021.2.3,59.63772473752085,
,,,,,,,,stim/Instruction_mask.png,conditions/adaptive.xlsx,practice,-0.6,-0.6,-0.6,0.6,0.6,left,L,,,,,0,0,0,0,0,0,0,3,,,,,,,,,,,,,,,,,,,,,,,,,,,,,,,,,,,,,,31.509874100098386,None,left,5.640825400128961,31.509874100098386,None,37.25191600015387,None,left,1,1.1047660000622272,37.68593999999575,None,37.68593999999575,40.69063650001772,37.68593999999575,40.69063650001772,37.68593999999575,40.69063650001772,37.68593999999575,40.69063650001772,37.68593999999575,40.69063650001772,40.67372660012916,41.17448600009084,40.67372660012916,41.17448600009084,40.67372660012916,41.17448600009084,40.67372660012916,41.17448600009084,40.67372660012916,41.17448600009084,40.67372660012916,41.17448600009084,40.67372660012916,41.17448600009084,40.67372660012916,41.17448600009084,37.68593999999575,None,41.17448600009084,41.17448600009084,3,41.191120400093496,None,41.9420624000486,None,,,,,,,,,,11027,002,2024_Jan_10_1335,MFTM_A_new1021,2021.2.3,59.63772473752085,
,,,,,,,,stim/Instruction_mask.png,conditions/adaptive.xlsx,practice,0.6,0.6,0.6,-0.6,-0.6,right,R,,,,,0,0,0,0,0,1,1,56,,,,,,,,,,,,,,,,,,,,,,,,,,,,,,,,,,,,,,,,,,,,42.443044800078496,None,right,1,0.8779239000286907,42.94450750015676,44.94675740017556,42.94450750015676,44.44595530000515,42.94450750015676,44.44595530000515,42.94450750015676,44.44595530000515,42.94450750015676,44.44595530000515,42.94450750015676,44.44595530000515,44.42932630004361,44.92993220011704,44.42932630004361,44.92993220011704,44.42932630004361,44.92993220011704,44.42932630004361,44.92993220011704,44.42932630004361,44.92993220011704,44.42932630004361,44.92993220011704,44.42932630004361,44.92993220011704,44.42932630004361,44.92993220011704,42.94450750015676,None,44.92993220011704,46.433510300004855,1.5,46.44956770003773,None,47.200095100095496,None,,,,,,,,,,11027,002,2024_Jan_10_1335,MFTM_A_new1021,2021.2.3,59.63772473752085,
,,,,,,,,stim/Instruction_mask.png,conditions/adaptive.xlsx,practice,0.6,0.6,0.6,-0.6,-0.6,right,R,,,,,0,0,0,0,0,2,2,32,,,,,,,,,,,,,,,,,,,,,,,,,,,,,,,,,,,,,,,,,,,,47.70087190018967,None,right,1,2.276787099894136,48.201906100148335,49.50368280010298,48.201906100148335,49.00267960014753,48.201906100148335,49.00267960014753,48.201906100148335,49.00267960014753,48.201906100148335,49.00267960014753,48.201906100148335,49.00267960014753,48.98594230017625,49.48671450000256,48.98594230017625,49.48671450000256,48.98594230017625,49.48671450000256,48.98594230017625,49.48671450000256,48.98594230017625,49.48671450000256,48.98594230017625,49.48671450000256,48.98594230017625,49.48671450000256,48.98594230017625,49.48671450000256,48.201906100148335,None,49.48671450000256,51.690201700199395,0.8,51.70665520010516,None,52.45849290001206,None,,,,,,,,,,11027,002,2024_Jan_10_1335,MFTM_A_new1021,2021.2.3,59.63772473752085,
,,,,,,,,stim/Instruction_mask.png,conditions/adaptive.xlsx,practice,0.6,0.6,0.6,-0.6,-0.6,right,R,,,,,0,0,0,0,0,3,3,76,,,,,,,,,,,,,,,,,,,,,,,,,,,,,,,,,,,,,,,,,,,,52.95844330010004,None,left,0,2.5473525999113917,53.45920460019261,54.21159520000219,53.45920460019261,53.70958510017954,53.45920460019261,53.70958510017954,53.45920460019261,53.70958510017954,53.45920460019261,53.70958510017954,53.45920460019261,53.70958510017954,53.69316550018266,54.193835500162095,53.69316550018266,54.193835500162095,53.69316550018266,54.193835500162095,53.69316550018266,54.193835500162095,53.69316550018266,54.193835500162095,53.69316550018266,54.193835500162095,53.69316550018266,54.193835500162095,53.69316550018266,54.193835500162095,53.45920460019261,None,54.193835500162095,56.94786319998093,3,56.964479700196534,None,57.71608579996973,None,,,,,,,,,,11027,002,2024_Jan_10_1335,MFTM_A_new1021,2021.2.3,59.63772473752085,
,,,,,,,,stim/Instruction_mask.png,conditions/adaptive.xlsx,practice,,,,,,,,,,,,0,0,0,0,,,,,,,,,,,,,,,,,,,,,,,,,,,,,,,,,,,,,,,,,,,,,,,,,,,,,,,,,,,,,,,,,,,,,,,,,,,,,,,,,,,,,,,,,,58.2330403001979,59.234728100011125,59.200947400182486,59.200947400182486,59.200947400182486,None,,,,11027,002,2024_Jan_10_1335,MFTM_A_new1021,2021.2.3,59.63772473752085,
,,,,,,,,stim/Instruction_adaptive.png,conditions/adaptive.xlsx,test,0.6,0.6,0.6,-0.6,-0.6,right,R,,,,,0,1,1,1,0,0,0,2,,,,,,,,,,,,,,,,,,,,,,,,,,,,,,,,,,,,,,62.33838029997423,None,left,1.1090021000709385,62.33838029997423,None,63.4905970999971,None,right,1,1.447224099887535,63.99149939999916,None,63.99149939999916,66.99682230013423,63.99149939999916,66.99682230013423,63.99149939999916,66.99682230013423,63.99149939999916,66.99682230013423,63.99149939999916,66.99682230013423,66.98062820010819,67.48038950003684,66.98062820010819,67.48038950003684,66.98062820010819,67.48038950003684,66.98062820010819,67.48038950003684,66.98062820010819,67.48038950003684,66.98062820010819,67.48038950003684,66.98062820010819,67.48038950003684,66.98062820010819,67.48038950003684,63.99149939999916,None,67.48038950003684,67.48038950003684,3,67.49709550011903,None,68.24791620019823,None,,,,,,,0,6.000000000000005,1.0,11027,002,2024_Jan_10_1335,MFTM_A_new1021,2021.2.3,59.63772473752085,
,,,,,,,,stim/Instruction_adaptive.png,conditions/adaptive.xlsx,test,-0.6,-0.6,-0.6,0.6,0.6,left,L,,,,,0,1,1,1,0,1,1,89,,,,,,,,,,,,,,,,,,,,,,,,,,,,,,,,,,,,,,,,,,,,68.74848220008425,None,left,1,1.8371512999292463,69.249354199972,70.00107890018262,69.249354199972,69.49991960008629,69.249354199972,69.49991960008629,69.249354199972,69.49991960008629,69.249354199972,69.49991960008629,69.249354199972,69.49991960008629,69.48305799998343,69.98372959997505,69.48305799998343,69.98372959997505,69.48305799998343,69.98372959997505,69.48305799998343,69.98372959997505,69.48305799998343,69.98372959997505,69.48305799998343,69.98372959997505,69.48305799998343,69.98372959997505,69.48305799998343,69.98372959997505,69.249354199972,None,69.98372959997505,71.10190960019827,0.25,71.11859950004146,None,71.86993720009923,None,,,,,,,[0.875],6.000000000000005,1.0,11027,002,2024_Jan_10_1335,MFTM_A_new1021,2021.2.3,59.63772473752085,
,,,,,,,,stim/Instruction_adaptive.png,conditions/adaptive.xlsx,test,0.6,0.6,0.6,-0.6,-0.6,right,R,,,,,0,1,1,1,0,2,2,40,,,,,,,,,,,,,,,,,,,,,,,,,,,,,,,,,,,,,,,,,,,,72.37055230000988,None,right,1,1.9663869999349117,72.87211280013435,73.62278149998747,72.87211280013435,73.12183770001866,72.87211280013435,73.12183770001866,72.87211280013435,73.12183770001866,72.87211280013435,73.12183770001866,72.87211280013435,73.12183770001866,73.10512690013275,73.60627020010725,73.10512690013275,73.60627020010725,73.10512690013275,73.60627020010725,73.10512690013275,73.60627020010725,73.10512690013275,73.60627020010725,73.10512690013275,73.60627020010725,73.10512690013275,73.60627020010725,73.10512690013275,73.60627020010725,72.87211280013435,None,73.60627020010725,74.94086230010726,0.25,74.957743300125,None,75.70963900000788,None,,,,,,,[1.33333333],6.000000000000005,1.0,11027,002,2024_Jan_10_1335,MFTM_A_new1021,2021.2.3,59.63772473752085,
,,,,,,,,stim/Instruction_adaptive.png,conditions/adaptive.xlsx,test,-0.6,-0.6,-0.6,0.6,0.6,left,L,,,,,0,1,1,1,0,3,3,11,,,,,,,,,,,,,,,,,,,,,,,,,,,,,,,,,,,,,,,,,,,,76.21060920017771,None,left,1,1.183637399924919,76.71092210011557,77.46158370003104,76.71092210011557,76.96088430006057,76.71092210011557,76.96088430006057,76.71092210011557,76.96088430006057,76.71092210011557,76.96088430006057,76.71092210011557,76.96088430006057,76.944319000002,77.44515050016344,76.944319000002,77.44515050016344,76.944319000002,77.44515050016344,76.944319000002,77.44515050016344,76.944319000002,77.44515050016344,76.944319000002,77.44515050016344,76.944319000002,77.44515050016344,76.944319000002,77.44515050016344,76.71092210011557,None,77.44515050016344,79.01382380002178,0.25,79.03044210001826,None,79.78186840005219,None,,,,,,,[1.5625],6.000000000000005,1.0,11027,002,2024_Jan_10_1335,MFTM_A_new1021,2021.2.3,59.63772473752085,
,,,,,,,,stim/Instruction_adaptive.png,conditions/adaptive.xlsx,test,-0.6,-0.6,-0.6,0.6,0.6,left,L,,,,,0,1,1,1,0,4,4,41,,,,,,,,,,,,,,,,,,,,,,,,,,,,,,,,,,,,,,,,,,,,80.28261110000312,None,right,0,1.3756355999503285,80.78320120018907,81.53439799998887,80.78320120018907,81.03373960009776,80.78320120018907,81.03373960009776,80.78320120018907,81.03373960009776,80.78320120018907,81.03373960009776,80.78320120018907,81.03373960009776,81.01657900004648,81.51804410014302,81.01657900004648,81.51804410014302,81.01657900004648,81.51804410014302,81.01657900004648,81.51804410014302,81.01657900004648,81.51804410014302,81.01657900004648,81.51804410014302,81.01657900004648,81.51804410014302,81.01657900004648,81.51804410014302,80.78320120018907,None,81.51804410014302,83.22136830003001,0.25,83.23622800013982,None,83.98780150013044,None,,,,,,,[1.7],4.720000000000004,0.8,11027,002,2024_Jan_10_1335,MFTM_A_new1021,2021.2.3,59.63772473752085,
,,,,,,,,stim/Instruction_adaptive.png,conditions/adaptive.xlsx,test,-0.6,-0.6,-0.6,0.6,0.6,left,L,,,,,0,1,1,1,0,5,5,77,,,,,,,,,,,,,,,,,,,,,,,,,,,,,,,,,,,,,,,,,,,,84.48902950016782,None,left,1,1.5373184001073241,84.98930870019831,85.74131010007113,84.98930870019831,85.2398322999943,84.98930870019831,85.2398322999943,84.98930870019831,85.2398322999943,84.98930870019831,85.2398322999943,84.98930870019831,85.2398322999943,85.22290180018172,85.72454550000839,85.22290180018172,85.72454550000839,85.22290180018172,85.72454550000839,85.22290180018172,85.72454550000839,85.22290180018172,85.72454550000839,85.22290180018172,85.72454550000839,85.22290180018172,85.72454550000839,85.22290180018172,85.72454550000839,84.98930870019831,None,85.72454550000839,87.52643730002455,0.25,87.54318410018459,None,88.29472650005482,None,,,,,,,[1.79166667],5.1200000000000045,0.8333333333333334,11027,002,2024_Jan_10_1335,MFTM_A_new1021,2021.2.3,59.63772473752085,
,,,,,,,,stim/Instruction_adaptive.png,conditions/adaptive.xlsx,test,0.6,0.6,0.6,-0.6,-0.6,right,R,,,,,0,1,1,1,0,6,6,48,,,,,,,,,,,,,,,,,,,,,,,,,,,,,,,,,,,,,,,,,,,,88.79525179998018,None,right,1,1.0870195000898093,89.29559800005518,90.04675960005261,89.29559800005518,89.54610739997588,89.29559800005518,89.54610739997588,89.29559800005518,89.54610739997588,89.29559800005518,89.54610739997588,89.29559800005518,89.54610739997588,89.5293437000364,90.03016480011865,89.5293437000364,90.03016480011865,89.5293437000364,90.03016480011865,89.5293437000364,90.03016480011865,89.5293437000364,90.03016480011865,89.5293437000364,90.03016480011865,89.5293437000364,90.03016480011865,89.5293437000364,90.03016480011865,89.29559800005518,None,90.03016480011865,91.90016330010258,0.25,91.91626140009612,None,92.66793400002643,None,,,,,,,[1.85714286],5.380000000000004,0.8571428571428571,11027,002,2024_Jan_10_1335,MFTM_A_new1021,2021.2.3,59.63772473752085,
,,,,,,,,stim/Instruction_adaptive.png,conditions/adaptive.xlsx,test,0.6,0.6,0.6,-0.6,-0.6,right,R,,,,,0,1,1,1,0,7,7,34,,,,,,,,,,,,,,,,,,,,,,,,,,,,,,,,,,,,,,,,,,,,93.16801930009387,None,right,1,1.2098375000059605,93.66871040011756,94.42023809999228,93.66871040011756,93.91922809998505,93.66871040011756,93.91922809998505,93.66871040011756,93.91922809998505,93.66871040011756,93.91922809998505,93.66871040011756,93.91922809998505,93.90264039998874,94.40381020004861,93.90264039998874,94.40381020004861,93.90264039998874,94.40381020004861,93.90264039998874,94.40381020004861,93.90264039998874,94.40381020004861,93.90264039998874,94.40381020004861,93.90264039998874,94.40381020004861,93.90264039998874,94.40381020004861,93.66871040011756,None,94.40381020004861,96.32282600016333,0.25,96.33953870018013,None,97.09065430006012,None,,,,,,,[1.90625],5.570000000000005,0.875,11027,002,2024_Jan_10_1335,MFTM_A_new1021,2021.2.3,59.63772473752085,
,,,,,,,,stim/Instruction_adaptive.png,conditions/adaptive.xlsx,test,-0.6,-0.6,-0.6,0.6,0.6,left,L,,,,,0,1,1,1,0,8,8,3,,,,,,,,,,,,,,,,,,,,,,,,,,,,,,,,,,,,,,,,,,,,97.59140430018306,None,left,1,0.9069799999706447,98.09217740013264,98.84344530012459,98.09217740013264,98.34247250016779,98.09217740013264,98.34247250016779,98.09217740013264,98.34247250016779,98.09217740013264,98.34247250016779,98.09217740013264,98.34247250016779,98.32607920002192,98.8264556999784,98.32607920002192,98.8264556999784,98.32607920002192,98.8264556999784,98.32607920002192,98.8264556999784,98.32607920002192,98.8264556999784,98.32607920002192,98.8264556999784,98.32607920002192,98.8264556999784,98.32607920002192,98.8264556999784,98.09217740013264,None,98.8264556999784,100.78002639999613,0.25,100.79617420001887,None,101.54700250015594,None,,,,,,,[1.94444444],5.720000000000004,0.8888888888888888,11027,002,2024_Jan_10_1335,MFTM_A_new1021,2021.2.3,59.63772473752085,
,,,,,,,,stim/Instruction_adaptive.png,conditions/adaptive.xlsx,test,-0.6,-0.6,-0.6,0.6,0.6,left,L,,,,,0,1,1,1,0,9,9,27,,,,,,,,,,,,,,,,,,,,,,,,,,,,,,,,,,,,,,,,,,,,102.04804100003093,None,left,1,2.4739957000128925,102.54869160009548,103.30011740000919,102.54869160009548,102.79929670016281,102.54869160009548,102.79929670016281,102.54869160009548,102.79929670016281,102.54869160009548,102.79929670016281,102.54869160009548,102.79929670016281,102.78242820012383,103.28304520016536,102.78242820012383,103.28304520016536,102.78242820012383,103.28304520016536,102.78242820012383,103.28304520016536,102.78242820012383,103.28304520016536,102.78242820012383,103.28304520016536,102.78242820012383,103.28304520016536,102.78242820012383,103.28304520016536,102.54869160009548,None,103.28304520016536,105.26947020017542,0.25,105.28604690008797,None,106.03721440001391,None,,,,,,,[1.975],5.840000000000005,0.9,11027,002,2024_Jan_10_1335,MFTM_A_new1021,2021.2.3,59.63772473752085,
,,,,,,,,stim/Instruction_adaptive.png,conditions/adaptive.xlsx,test,-0.6,-0.6,-0.6,0.6,0.6,left,L,,,,,0,1,1,1,0,10,10,25,,,,,,,,,,,,,,,,,,,,,,,,,,,,,,,,,,,,,,,,,,,,106.53887040005066,None,left,1,0.9922007999848574,107.03879530006088,107.79013189999387,107.03879530006088,107.28913340019062,107.03879530006088,107.28913340019062,107.03879530006088,107.28913340019062,107.03879530006088,107.28913340019062,107.03879530006088,107.28913340019062,107.27236580010504,107.77315700007603,107.27236580010504,107.77315700007603,107.27236580010504,107.77315700007603,107.27236580010504,107.77315700007603,107.27236580010504,107.77315700007603,107.27236580010504,107.77315700007603,107.27236580010504,107.77315700007603,107.27236580010504,107.77315700007603,107.03879530006088,None,107.77315700007603,109.77722849999554,0.25,109.7927896999754,None,110.54449580004439,None,,,,,,,[2.],5.930000000000005,0.9090909090909091,11027,002,2024_Jan_10_1335,MFTM_A_new1021,2021.2.3,59.63772473752085,
,,,,,,,,stim/Instruction_adaptive.png,conditions/adaptive.xlsx,test,-0.6,-0.6,-0.6,0.6,0.6,left,L,,,,,0,1,1,1,0,11,11,91,,,,,,,,,,,,,,,,,,,,,,,,,,,,,,,,,,,,,,,,,,,,111.04491519997828,None,right,0,1.8694772999733686,111.5454440000467,112.29645790020004,111.5454440000467,111.79566880012862,111.5454440000467,111.79566880012862,111.5454440000467,111.79566880012862,111.5454440000467,111.79566880012862,111.5454440000467,111.79566880012862,111.77911650016904,112.280579400016,111.77911650016904,112.280579400016,111.77911650016904,112.280579400016,111.77911650016904,112.280579400016,111.77911650016904,112.280579400016,111.77911650016904,112.280579400016,111.77911650016904,112.280579400016,111.77911650016904,112.280579400016,111.5454440000467,None,112.280579400016,None,0.25,114.31605710019358,None,115.0677594000008,None,,,,,,,[2.02083333],5.260000000000004,0.8333333333333334,11027,002,2024_Jan_10_1335,MFTM_A_new1021,2021.2.3,59.63772473752085,
,,,,,,,,stim/Instruction_adaptive.png,conditions/adaptive.xlsx,test,-0.6,-0.6,-0.6,0.6,0.6,left,L,,,,,0,1,1,1,0,12,12,19,,,,,,,,,,,,,,,,,,,,,,,,,,,,,,,,,,,,,,,,,,,,115.56817840016447,None,right,0,2.1055819001048803,116.06892910017632,116.81981320003979,116.06892910017632,116.31903030001558,116.06892910017632,116.31903030001558,116.06892910017632,116.31903030001558,116.06892910017632,116.31903030001558,116.06892910017632,116.31903030001558,116.30244200001471,116.80334210000001,116.30244200001471,116.80334210000001,116.30244200001471,116.80334210000001,116.30244200001471,116.80334210000001,116.30244200001471,116.80334210000001,116.30244200001471,116.80334210000001,116.30244200001471,116.80334210000001,116.30244200001471,116.80334210000001,116.06892910017632,None,116.80334210000001,118.85617729998194,0.25,118.87283920007758,None,119.62475650012493,None,,,,,,,[2.03846154],4.720000000000004,0.7692307692307693,11027,002,2024_Jan_10_1335,MFTM_A_new1021,2021.2.3,59.63772473752085,
,,,,,,,,stim/Instruction_adaptive.png,conditions/adaptive.xlsx,test,0.6,0.6,0.6,-0.6,-0.6,right,R,,,,,0,1,1,1,0,13,13,76,,,,,,,,,,,,,,,,,,,,,,,,,,,,,,,,,,,,,,,,,,,,120.12479290016927,None,left,0,1.6772385002113879,120.62530339998193,121.3772947001271,120.62530339998193,120.87624720018357,120.62530339998193,120.87624720018357,120.62530339998193,120.87624720018357,120.62530339998193,120.87624720018357,120.62530339998193,120.87624720018357,120.85922920005396,121.35974130011164,120.85922920005396,121.35974130011164,120.85922920005396,121.35974130011164,120.85922920005396,121.35974130011164,120.85922920005396,121.35974130011164,120.85922920005396,121.35974130011164,120.85922920005396,121.35974130011164,120.85922920005396,121.35974130011164,120.62530339998193,None,121.35974130011164,123.4134874001611,0.25,123.43032110016793,None,124.1810457999818,None,,,,,,,[2.05357143],4.2100000000000035,0.7142857142857143,11027,002,2024_Jan_10_1335,MFTM_A_new1021,2021.2.3,59.63772473752085,
,,,,,,,,stim/Instruction_adaptive.png,conditions/adaptive.xlsx,test,0.6,0.6,0.6,-0.6,-0.6,right,R,,,,,0,1,1,1,0,14,14,72,,,,,,,,,,,,,,,,,,,,,,,,,,,,,,,,,,,,,,,,,,,,124.68204750004224,None,right,1,2.6642926998902112,125.18230420001782,126.05033670016564,125.18230420001782,125.54946200014092,125.18230420001782,125.54946200014092,125.18230420001782,125.54946200014092,125.18230420001782,125.54946200014092,125.18230420001782,125.54946200014092,125.53286560019478,126.03412780002691,125.53286560019478,126.03412780002691,125.53286560019478,126.03412780002691,125.53286560019478,126.03412780002691,125.53286560019478,126.03412780002691,125.53286560019478,126.03412780002691,125.53286560019478,126.03412780002691,125.53286560019478,126.03412780002691,125.18230420001782,None,126.03412780002691,None,0.3600000000000001,128.10325570008717,None,128.85530230007134,None,,,,,,,[2.05933333],4.4200000000000035,0.7333333333333333,11027,002,2024_Jan_10_1335,MFTM_A_new1021,2021.2.3,59.63772473752085,
,,,,,,,,stim/Instruction_adaptive.png,conditions/adaptive.xlsx,test,-0.6,-0.6,-0.6,0.6,0.6,left,L,,,,,0,1,1,1,0,15,15,49,,,,,,,,,,,,,,,,,,,,,,,,,,,,,,,,,,,,,,,,,,,,129.355124700116,None,right,0,1.8066988999489695,129.85600839997642,130.67414060002193,129.85600839997642,130.17275270004757,129.85600839997642,130.17275270004757,129.85600839997642,130.17275270004757,129.85600839997642,130.17275270004757,129.85600839997642,130.17275270004757,130.14035820006393,130.64071900001727,130.14035820006393,130.64071900001727,130.14035820006393,130.64071900001727,130.14035820006393,130.64071900001727,130.14035820006393,130.64071900001727,130.14035820006393,130.64071900001727,130.14035820006393,130.64071900001727,130.14035820006393,130.64071900001727,129.85600839997642,None,130.64071900001727,132.71024290006608,0.31000000000000005,132.74293539999053,None,133.49530710000545,None,,,,,,,[2.0675],3.8900000000000032,0.6875,11027,002,2024_Jan_10_1335,MFTM_A_new1021,2021.2.3,59.63772473752085,
,,,,,,,,stim/Instruction_adaptive.png,conditions/adaptive.xlsx,test,-0.6,-0.6,-0.6,0.6,0.6,left,L,,,,,0,1,1,1,0,16,16,67,,,,,,,,,,,,,,,,,,,,,,,,,,,,,,,,,,,,,,,,,,,,133.99576790002175,None,right,0,1.8553318998310715,134.49611410009675,135.44756040000357,134.49611410009675,134.9464781000279,134.49611410009675,134.9464781000279,134.49611410009675,134.9464781000279,134.49611410009675,134.9464781000279,134.49611410009675,134.9464781000279,134.9132768001873,135.41402100003324,134.9132768001873,135.41402100003324,134.9132768001873,135.41402100003324,134.9132768001873,135.41402100003324,134.9132768001873,135.41402100003324,134.9132768001873,135.41402100003324,134.9132768001873,135.41402100003324,134.9132768001873,135.41402100003324,134.49611410009675,None,135.41402100003324,137.48371540009975,0.44000000000000017,137.5004800001625,None,138.25145760015585,None,,,,,,,[[2.06]],3.1800000000000024,0.6470588235294118,11027,002,2024_Jan_10_1335,MFTM_A_new1021,2021.2.3,59.63772473752085,
,,,,,,,,stim/Instruction_adaptive.png,conditions/adaptive.xlsx,test,-0.6,-0.6,-0.6,0.6,0.6,left,L,,,,,0,1,1,1,0,17,17,33,,,,,,,,,,,,,,,,,,,,,,,,,,,,,,,,,,,,,,,,,,,,138.75274839997292,None,left,1,1.561051300028339,139.25353970006108,140.48826320003718,139.25353970006108,139.98778520012274,139.25353970006108,139.98778520012274,139.25353970006108,139.98778520012274,139.25353970006108,139.98778520012274,139.25353970006108,139.98778520012274,139.97106010001153,140.47211250010878,139.97106010001153,140.47211250010878,139.97106010001153,140.47211250010878,139.97106010001153,140.47211250010878,139.97106010001153,140.47211250010878,139.97106010001153,140.47211250010878,139.97106010001153,140.47211250010878,139.97106010001153,140.47211250010878,139.25353970006108,None,140.47211250010878,None,0.7300000000000004,142.25806000013836,None,143.00909080007114,None,,,,,,,[[1.77]],3.4800000000000026,0.6666666666666666,11027,002,2024_Jan_10_1335,MFTM_A_new1021,2021.2.3,59.63772473752085,
,,,,,,,,stim/Instruction_adaptive.png,conditions/adaptive.xlsx,test,-0.6,-0.6,-0.6,0.6,0.6,left,L,,,,,0,1,1,1,0,18,18,73,,,,,,,,,,,,,,,,,,,,,,,,,,,,,,,,,,,,,,,,,,,,143.5095326001756,None,right,0,1.9965437999926507,144.01011150004342,145.11174820014276,144.01011150004342,144.61107109999284,144.01011150004342,144.61107109999284,144.01011150004342,144.61107109999284,144.01011150004342,144.61107109999284,144.01011150004342,144.61107109999284,144.57766610011458,145.0790566999931,144.57766610011458,145.0790566999931,144.57766610011458,145.0790566999931,144.57766610011458,145.0790566999931,144.57766610011458,145.0790566999931,144.57766610011458,145.0790566999931,144.57766610011458,145.0790566999931,144.57766610011458,145.0790566999931,144.01011150004342,None,145.0790566999931,146.99797040014528,0.5900000000000003,147.01473850011826,None,147.76569150015712,None,,,,,,,[[1.91]],2.760000000000002,0.631578947368421,11027,002,2024_Jan_10_1335,MFTM_A_new1021,2021.2.3,59.63772473752085,
,,,,,,,,stim/Instruction_adaptive.png,conditions/adaptive.xlsx,test,-0.6,-0.6,-0.6,0.6,0.6,left,L,,,,,0,1,1,1,0,19,19,29,,,,,,,,,,,,,,,,,,,,,,,,,,,,,,,,,,,,,,,,,,,,148.26706910016946,None,right,0,3.0954602998681366,148.76714700018056,150.2527068001218,148.76714700018056,149.7525186999701,148.76714700018056,149.7525186999701,148.76714700018056,149.7525186999701,148.76714700018056,149.7525186999701,148.76714700018056,149.7525186999701,149.71868550009094,150.21929210005328,149.71868550009094,150.21929210005328,149.71868550009094,150.21929210005328,149.71868550009094,150.21929210005328,149.71868550009094,150.21929210005328,149.71868550009094,150.21929210005328,149.71868550009094,150.21929210005328,149.71868550009094,150.21929210005328,148.76714700018056,None,150.21929210005328,151.88891550013795,0.9700000000000006,151.90567470015958,None,152.6563407999929,None,,,,,,,[[1.53]],1.700000000000001,0.6,11027,002,2024_Jan_10_1335,MFTM_A_new1021,2021.2.3,59.63772473752085,
,,,,,,,,stim/Instruction_adaptive.png,conditions/adaptive.xlsx,test,0.6,0.6,0.6,-0.6,-0.6,right,R,,,,,0,1,1,1,0,20,20,10,,,,,,,,,,,,,,,,,,,,,,,,,,,,,,,,,,,,,,,,,,,,153.15709280013107,None,right,1,1.6932007998693734,153.65767220011912,156.17830829997547,153.65767220011912,155.67736220010556,153.65767220011912,155.67736220010556,153.65767220011912,155.67736220010556,153.65767220011912,155.67736220010556,153.65767220011912,155.67736220010556,155.66096010012552,156.16200440004468,155.66096010012552,156.16200440004468,155.66096010012552,156.16200440004468,155.66096010012552,156.16200440004468,155.66096010012552,156.16200440004468,155.66096010012552,156.16200440004468,155.66096010012552,156.16200440004468,155.66096010012552,156.16200440004468,153.65767220011912,None,156.16200440004468,156.6457038000226,2.0200000000000014,156.6621513001155,None,157.41344410018064,None,,,,,,,[[0.48]],2.2000000000000015,0.6190476190476191,11027,002,2024_Jan_10_1335,MFTM_A_new1021,2021.2.3,59.63772473752085,
,,,,,,,,stim/Instruction_adaptive.png,conditions/adaptive.xlsx,test,0.6,0.6,0.6,-0.6,-0.6,right,R,,,,,0,1,1,1,0,21,21,50,,,,,,,,,,,,,,,,,,,,,,,,,,,,,,,,,,,,,,,,,,,,157.9147497001104,None,left,0,3.1120359001215547,158.41464420012198,160.3516929000616,158.41464420012198,159.85036260006018,158.41464420012198,159.85036260006018,158.41464420012198,159.85036260006018,158.41464420012198,159.85036260006018,158.41464420012198,159.85036260006018,159.83386610005982,160.3346336001996,159.83386610005982,160.3346336001996,159.83386610005982,160.3346336001996,159.83386610005982,160.3346336001996,159.83386610005982,160.3346336001996,159.83386610005982,160.3346336001996,159.83386610005982,160.3346336001996,159.83386610005982,160.3346336001996,158.41464420012198,None,160.3346336001996,161.55401520011947,1.430000000000001,161.5688971001655,None,162.320783900097,None,,,,,,,[[1.07]],1.1600000000000006,0.5909090909090909,11027,002,2024_Jan_10_1335,MFTM_A_new1021,2021.2.3,59.63772473752085,
,,,,,,,,stim/Instruction_adaptive.png,conditions/adaptive.xlsx,test,-0.6,-0.6,-0.6,0.6,0.6,left,L,,,,,0,1,1,1,0,22,22,65,,,,,,,,,,,,,,,,,,,,,,,,,,,,,,,,,,,,,,,,,,,,162.82111990009435,None,left,1,1.820639800047502,163.3221050000284,None,163.3221050000284,166.27766959997825,163.3221050000284,166.27766959997825,163.3221050000284,166.27766959997825,163.3221050000284,166.27766959997825,163.3221050000284,166.27766959997825,166.2434994999785,166.74385590013117,166.2434994999785,166.74385590013117,166.2434994999785,166.74385590013117,166.2434994999785,166.74385590013117,166.2434994999785,166.74385590013117,166.2434994999785,166.74385590013117,166.2434994999785,166.74385590013117,166.2434994999785,166.74385590013117,163.3221050000284,None,166.74385590013117,166.74385590013117,2.940000000000002,166.7772080001887,None,167.52907200017944,None,,,,,,,0,1.650000000000001,0.6086956521739131,11027,002,2024_Jan_10_1335,MFTM_A_new1021,2021.2.3,59.63772473752085,
,,,,,,,,stim/Instruction_adaptive.png,conditions/adaptive.xlsx,test,0.6,0.6,0.6,-0.6,-0.6,right,R,,,,,0,1,1,1,0,23,23,94,,,,,,,,,,,,,,,,,,,,,,,,,,,,,,,,,,,,,,,,,,,,168.02912060008384,None,right,1,1.3811931000091136,168.52988210017793,171.13384909997694,168.52988210017793,170.63295630016364,168.52988210017793,170.63295630016364,168.52988210017793,170.63295630016364,168.52988210017793,170.63295630016364,168.52988210017793,170.63295630016364,170.61673130001873,171.11726319999434,170.61673130001873,171.11726319999434,170.61673130001873,171.11726319999434,170.61673130001873,171.11726319999434,170.61673130001873,171.11726319999434,170.61673130001873,171.11726319999434,170.61673130001873,171.11726319999434,170.61673130001873,171.11726319999434,168.52988210017793,None,171.11726319999434,171.5176030001603,2.1000000000000014,171.5346357000526,None,172.28593330015428,None,,,,,,,[[0.4]],1.9500000000000013,0.625,11027,002,2024_Jan_10_1335,MFTM_A_new1021,2021.2.3,59.63772473752085,
,,,,,,,,stim/Instruction_adaptive.png,conditions/adaptive.xlsx,test,-0.6,-0.6,-0.6,0.6,0.6,left,L,,,,,0,1,1,1,0,24,24,47,,,,,,,,,,,,,,,,,,,,,,,,,,,,,,,,,,,,,,,,,,,,172.7860388001427,None,left,1,1.4320251001045108,173.28669190010987,175.49000930017792,173.28669190010987,174.98942840006202,173.28669190010987,174.98942840006202,173.28669190010987,174.98942840006202,173.28669190010987,174.98942840006202,173.28669190010987,174.98942840006202,174.97257720003836,175.47331020003185,174.97257720003836,175.47331020003185,174.97257720003836,175.47331020003185,174.97257720003836,175.47331020003185,174.97257720003836,175.47331020003185,174.97257720003836,175.47331020003185,174.97257720003836,175.47331020003185,174.97257720003836,175.47331020003185,173.28669190010987,None,175.47331020003185,176.27483900007792,1.7000000000000013,176.29130070004612,None,177.04278700007126,None,,,,,,,[[0.8]],2.1700000000000017,0.64,11027,002,2024_Jan_10_1335,MFTM_A_new1021,2021.2.3,59.63772473752085,
,,,,,,,,stim/Instruction_adaptive.png,conditions/adaptive.xlsx,test,-0.6,-0.6,-0.6,0.6,0.6,left,L,,,,,0,1,1,1,0,25,25,5,,,,,,,,,,,,,,,,,,,,,,,,,,,,,,,,,,,,,,,,,,,,177.54313580016606,None,right,0,1.5627981000579894,178.0439284001477,180.01426089997403,178.0439284001477,179.51321140001528,178.0439284001477,179.51321140001528,178.0439284001477,179.51321140001528,178.0439284001477,179.51321140001528,178.0439284001477,179.51321140001528,179.4797298000194,179.98149200016633,179.4797298000194,179.98149200016633,179.4797298000194,179.98149200016633,179.4797298000194,179.98149200016633,179.4797298000194,179.98149200016633,179.4797298000194,179.98149200016633,179.4797298000194,179.98149200016633,179.4797298000194,179.98149200016633,178.0439284001477,None,179.98149200016633,181.0318891000934,1.460000000000001,181.047823500121,None,181.79951720009558,None,,,,,,,[[1.04]],1.620000000000001,0.6153846153846154,11027,002,2024_Jan_10_1335,MFTM_A_new1021,2021.2.3,59.63772473752085,
,,,,,,,,stim/Instruction_adaptive.png,conditions/adaptive.xlsx,test,-0.6,-0.6,-0.6,0.6,0.6,left,L,,,,,0,1,1,1,0,26,26,97,,,,,,,,,,,,,,,,,,,,,,,,,,,,,,,,,,,,,,,,,,,,182.30048370012082,None,left,1,1.214010100113228,182.8007334000431,185.45512900012545,182.8007334000431,184.9542130001355,182.8007334000431,184.9542130001355,182.8007334000431,184.9542130001355,182.8007334000431,184.9542130001355,182.8007334000431,184.9542130001355,184.9206709000282,185.42160690017045,184.9206709000282,185.42160690017045,184.9206709000282,185.42160690017045,184.9206709000282,185.42160690017045,184.9206709000282,185.42160690017045,184.9206709000282,185.42160690017045,184.9206709000282,185.42160690017045,184.9206709000282,185.42160690017045,182.8007334000431,None,185.42160690017045,185.78879270004109,2.1400000000000015,185.80540379998274,None,186.55644100019708,None,,,,,,,[[0.36]],1.8400000000000012,0.6296296296296297,11027,002,2024_Jan_10_1335,MFTM_A_new1021,2021.2.3,59.63772473752085,
,,,,,,,,stim/Instruction_adaptive.png,conditions/adaptive.xlsx,test,-0.6,-0.6,-0.6,0.6,0.6,left,L,,,,,0,1,1,1,0,27,27,17,,,,,,,,,,,,,,,,,,,,,,,,,,,,,,,,,,,,,,,,,,,,187.0578111000359,None,right,0,3.0965351001359522,187.55809080018662,189.9120812001638,187.55809080018662,189.41097450000234,187.55809080018662,189.41097450000234,187.55809080018662,189.41097450000234,187.55809080018662,189.41097450000234,187.55809080018662,189.41097450000234,189.3772680000402,189.87813460011967,189.3772680000402,189.87813460011967,189.3772680000402,189.87813460011967,189.3772680000402,189.87813460011967,189.3772680000402,189.87813460011967,189.3772680000402,189.87813460011967,189.3772680000402,189.87813460011967,189.3772680000402,189.87813460011967,187.55809080018662,None,189.87813460011967,190.67969680018723,1.8400000000000014,190.69585440005176,None,191.44732869998552,None,,,,,,,[[0.66]],1.2800000000000007,0.6071428571428571,11027,002,2024_Jan_10_1335,MFTM_A_new1021,2021.2.3,59.63772473752085,
,,,,,,,,stim/Instruction_adaptive.png,conditions/adaptive.xlsx,test,-0.6,-0.6,-0.6,0.6,0.6,left,L,,,,,0,1,1,1,0,28,28,45,,,,,,,,,,,,,,,,,,,,,,,,,,,,,,,,,,,,,,,,,,,,191.94846149999648,None,right,0,2.3262028000317514,192.44863170012832,None,192.44863170012832,195.16987209999934,192.44863170012832,195.16987209999934,192.44863170012832,195.16987209999934,192.44863170012832,195.16987209999934,192.44863170012832,195.16987209999934,195.1364070000127,195.6373175000772,195.1364070000127,195.6373175000772,195.1364070000127,195.6373175000772,195.1364070000127,195.6373175000772,195.1364070000127,195.6373175000772,195.1364070000127,195.6373175000772,195.1364070000127,195.6373175000772,195.1364070000127,195.6373175000772,192.44863170012832,None,195.6373175000772,195.6373175000772,2.710000000000002,195.66998080001213,None,196.42109180008993,None,,,,,,,0,0.5,0.5862068965517241,11027,002,2024_Jan_10_1335,MFTM_A_new1021,2021.2.3,59.63772473752085,
,,,,,,,,stim/Instruction_adaptive.png,conditions/adaptive.xlsx,test,0.6,0.6,0.6,-0.6,-0.6,right,R,,,,,0,1,1,1,0,29,29,80,,,,,,,,,,,,,,,,,,,,,,,,,,,,,,,,,,,,,,,,,,,,196.9223013999872,None,right,1,2.311532000079751,197.4231777000241,None,197.4231777000241,200.42700000014156,197.4231777000241,200.42700000014156,197.4231777000241,200.42700000014156,197.4231777000241,200.42700000014156,197.4231777000241,200.42700000014156,200.41124460007995,200.91128210001625,200.41124460007995,200.91128210001625,200.41124460007995,200.91128210001625,200.41124460007995,200.91128210001625,200.41124460007995,200.91128210001625,200.41124460007995,200.91128210001625,200.41124460007995,200.91128210001625,200.41124460007995,200.91128210001625,197.4231777000241,None,200.91128210001625,200.91128210001625,3.0000000000000027,200.9278278001584,None,201.67881350009702,None,,,,,,,0,0.8100000000000003,0.6,11027,002,2024_Jan_10_1335,MFTM_A_new1021,2021.2.3,59.63772473752085,
,,,,,,,,stim/Instruction_adaptive.png,conditions/adaptive.xlsx,test,-0.6,-0.6,-0.6,0.6,0.6,left,L,,,,,0,1,1,1,0,30,30,75,,,,,,,,,,,,,,,,,,,,,,,,,,,,,,,,,,,,,,,,,,,,202.18021650006995,None,left,1,1.0705408998765051,202.68037450010888,None,202.68037450010888,205.68489470006898,202.68037450010888,205.68489470006898,202.68037450010888,205.68489470006898,202.68037450010888,205.68489470006898,202.68037450010888,205.68489470006898,205.66820980003104,206.1689202999696,205.66820980003104,206.1689202999696,205.66820980003104,206.1689202999696,205.66820980003104,206.1689202999696,205.66820980003104,206.1689202999696,205.66820980003104,206.1689202999696,205.66820980003104,206.1689202999696,205.66820980003104,206.1689202999696,202.68037450010888,None,206.1689202999696,206.1689202999696,3.0000000000000027,206.1855159001425,None,206.93707480002195,None,,,,,,,0,1.0800000000000005,0.6129032258064516,11027,002,2024_Jan_10_1335,MFTM_A_new1021,2021.2.3,59.63772473752085,
,,,,,,,,stim/Instruction_adaptive.png,conditions/adaptive.xlsx,test,0.6,0.6,0.6,-0.6,-0.6,right,R,,,,,0,1,1,1,0,31,31,46,,,,,,,,,,,,,,,,,,,,,,,,,,,,,,,,,,,,,,,,,,,,207.43812090018764,None,right,1,1.6285834999289364,207.93805730016902,None,207.93805730016902,210.9426295000594,207.93805730016902,210.9426295000594,207.93805730016902,210.9426295000594,207.93805730016902,210.9426295000594,207.93805730016902,210.9426295000594,210.92623650003225,211.42657999997027,210.92623650003225,211.42657999997027,210.92623650003225,211.42657999997027,210.92623650003225,211.42657999997027,210.92623650003225,211.42657999997027,210.92623650003225,211.42657999997027,210.92623650003225,211.42657999997027,210.92623650003225,211.42657999997027,207.93805730016902,None,211.42657999997027,211.42657999997027,3.0000000000000027,211.44387910002843,None,212.19446090003476,None,,,,,,,0,1.2800000000000007,0.625,11027,002,2024_Jan_10_1335,MFTM_A_new1021,2021.2.3,59.63772473752085,
,,,,,,,,stim/Instruction_adaptive.png,conditions/adaptive.xlsx,test,0.6,0.6,0.6,-0.6,-0.6,right,R,,,,,0,1,1,1,0,32,32,70,,,,,,,,,,,,,,,,,,,,,,,,,,,,,,,,,,,,,,,,,,,,212.69592020008713,None,right,1,0.8107336999382824,213.19599340017885,None,213.19599340017885,215.91706440015696,213.19599340017885,215.91706440015696,213.19599340017885,215.91706440015696,213.19599340017885,215.91706440015696,213.19599340017885,215.91706440015696,215.88389140018262,216.38393950019963,215.88389140018262,216.38393950019963,215.88389140018262,216.38393950019963,215.88389140018262,216.38393950019963,215.88389140018262,216.38393950019963,215.88389140018262,216.38393950019963,215.88389140018262,216.38393950019963,215.88389140018262,216.38393950019963,213.19599340017885,None,216.38393950019963,216.38393950019963,2.710000000000002,216.41756410012022,None,217.16932610003278,None,,,,,,,0,1.4400000000000008,0.6363636363636364,11027,002,2024_Jan_10_1335,MFTM_A_new1021,2021.2.3,59.63772473752085,
,,,,,,,,stim/Instruction_adaptive.png,conditions/adaptive.xlsx,test,0.6,0.6,0.6,-0.6,-0.6,right,R,,,,,0,1,1,1,0,33,33,20,,,,,,,,,,,,,,,,,,,,,,,,,,,,,,,,,,,,,,,,,,,,217.66958770016208,None,right,1,0.8854792998172343,218.16991599998437,221.09108040016145,218.16991599998437,220.59076060005464,218.16991599998437,220.59076060005464,218.16991599998437,220.59076060005464,218.16991599998437,220.59076060005464,218.16991599998437,220.59076060005464,220.5734261001926,221.07447530003265,220.5734261001926,221.07447530003265,220.5734261001926,221.07447530003265,220.5734261001926,221.07447530003265,220.5734261001926,221.07447530003265,220.5734261001926,221.07447530003265,220.5734261001926,221.07447530003265,220.5734261001926,221.07447530003265,218.16991599998437,None,221.07447530003265,221.15950289997272,2.4200000000000017,221.1743668001145,None,221.92586469999515,None,,,,,,,[[0.08]],1.570000000000001,0.6470588235294118,11027,002,2024_Jan_10_1335,MFTM_A_new1021,2021.2.3,59.63772473752085,
,,,,,,,,stim/Instruction_adaptive.png,conditions/adaptive.xlsx,test,-0.6,-0.6,-0.6,0.6,0.6,left,L,,,,,0,1,1,1,0,34,34,63,,,,,,,,,,,,,,,,,,,,,,,,,,,,,,,,,,,,,,,,,,,,222.4264066000469,None,left,1,1.4001396000385284,222.92722920002416,225.6478258999996,222.92722920002416,225.1473563001491,222.92722920002416,225.1473563001491,222.92722920002416,225.1473563001491,222.92722920002416,225.1473563001491,222.92722920002416,225.1473563001491,225.1304307000246,225.6314594000578,225.1304307000246,225.6314594000578,225.1304307000246,225.6314594000578,225.1304307000246,225.6314594000578,225.1304307000246,225.6314594000578,225.1304307000246,225.6314594000578,225.1304307000246,225.6314594000578,225.1304307000246,225.6314594000578,222.92722920002416,None,225.6314594000578,225.91469940007664,2.2200000000000015,225.93142080004327,None,226.68288320000283,None,,,,,,,[[0.28]],1.680000000000001,0.6571428571428571,11027,002,2024_Jan_10_1335,MFTM_A_new1021,2021.2.3,59.63772473752085,
,,,,,,,,stim/Instruction_adaptive.png,conditions/adaptive.xlsx,test,-0.6,-0.6,-0.6,0.6,0.6,left,L,,,,,0,1,1,1,0,35,35,95,,,,,,,,,,,,,,,,,,,,,,,,,,,,,,,,,,,,,,,,,,,,227.18345750006847,None,left,1,1.178628200199455,227.68417840008624,230.2399309000466,227.68417840008624,229.73720880015753,227.68417840008624,229.73720880015753,227.68417840008624,229.73720880015753,227.68417840008624,229.73720880015753,227.68417840008624,229.73720880015753,229.7207782000769,230.22125100018457,229.7207782000769,230.22125100018457,229.7207782000769,230.22125100018457,229.7207782000769,230.22125100018457,229.7207782000769,230.22125100018457,229.7207782000769,230.22125100018457,229.7207782000769,230.22125100018457,229.7207782000769,230.22125100018457,227.68417840008624,None,230.22125100018457,230.6719112000428,2.0500000000000016,230.68876649998128,None,231.43964960006997,None,,,,,,,[[0.45]],1.7800000000000011,0.6666666666666666,11027,002,2024_Jan_10_1335,MFTM_A_new1021,2021.2.3,59.63772473752085,
,,,,,,,,stim/Instruction_adaptive.png,conditions/adaptive.xlsx,test,0.6,0.6,0.6,-0.6,-0.6,right,R,,,,,0,1,1,1,0,36,36,96,,,,,,,,,,,,,,,,,,,,,,,,,,,,,,,,,,,,,,,,,,,,231.94114460004494,None,right,1,1.276890599867329,232.44183090003207,234.86146609997377,232.44183090003207,234.37739460007288,232.44183090003207,234.37739460007288,232.44183090003207,234.37739460007288,232.44183090003207,234.37739460007288,232.44183090003207,234.37739460007288,234.3439635001123,234.84536950010806,234.3439635001123,234.84536950010806,234.3439635001123,234.84536950010806,234.3439635001123,234.84536950010806,234.3439635001123,234.84536950010806,234.3439635001123,234.84536950010806,234.3439635001123,234.84536950010806,234.3439635001123,234.84536950010806,232.44183090003207,None,234.84536950010806,235.4290247000754,1.9200000000000015,235.44547160016373,None,236.19667380000465,None,,,,,,,[[0.58]],1.8700000000000012,0.6756756756756757,11027,002,2024_Jan_10_1335,MFTM_A_new1021,2021.2.3,59.63772473752085,
,,,,,,,,stim/Instruction_adaptive.png,conditions/adaptive.xlsx,test,-0.6,-0.6,-0.6,0.6,0.6,left,L,,,,,0,1,1,1,0,37,37,83,,,,,,,,,,,,,,,,,,,,,,,,,,,,,,,,,,,,,,,,,,,,236.69785620016046,None,left,1,1.040561500005424,237.19828420015983,239.50152200018056,237.19828420015983,239.00112340017222,237.19828420015983,239.00112340017222,237.19828420015983,239.00112340017222,237.19828420015983,239.00112340017222,237.19828420015983,239.00112340017222,238.98418030003086,239.48480540001765,238.98418030003086,239.48480540001765,238.98418030003086,239.48480540001765,238.98418030003086,239.48480540001765,238.98418030003086,239.48480540001765,238.98418030003086,239.48480540001765,238.98418030003086,239.48480540001765,238.98418030003086,239.48480540001765,237.19828420015983,None,239.48480540001765,240.1859632001724,1.8000000000000014,240.2026531000156,None,240.95469550020061,None,,,,,,,[[0.7]],1.9600000000000013,0.6842105263157895,11027,002,2024_Jan_10_1335,MFTM_A_new1021,2021.2.3,59.63772473752085,
,,,,,,,,stim/Instruction_adaptive.png,conditions/adaptive.xlsx,test,0.6,0.6,0.6,-0.6,-0.6,right,R,,,,,0,1,1,1,0,38,38,12,,,,,,,,,,,,,,,,,,,,,,,,,,,,,,,,,,,,,,,,,,,,241.45479230000637,None,right,1,1.5795102999545634,241.9552228001412,244.15925450017676,241.9552228001412,243.65785730001517,241.9552228001412,243.65785730001517,241.9552228001412,243.65785730001517,241.9552228001412,243.65785730001517,241.9552228001412,243.65785730001517,243.62440890003927,244.12599990004674,243.62440890003927,244.12599990004674,243.62440890003927,244.12599990004674,243.62440890003927,244.12599990004674,243.62440890003927,244.12599990004674,243.62440890003927,244.12599990004674,243.62440890003927,244.12599990004674,243.62440890003927,244.12599990004674,241.9552228001412,None,244.12599990004674,244.94388190004975,1.6900000000000013,244.95975380018353,None,245.7114211001899,None,,,,,,,[[0.81]],2.030000000000001,0.6923076923076923,11027,002,2024_Jan_10_1335,MFTM_A_new1021,2021.2.3,59.63772473752085,
,,,,,,,,stim/Instruction_adaptive.png,conditions/adaptive.xlsx,test,0.6,0.6,0.6,-0.6,-0.6,right,R,,,,,0,1,1,1,0,39,39,14,,,,,,,,,,,,,,,,,,,,,,,,,,,,,,,,,,,,,,,,,,,,246.21242380002514,None,right,1,1.5670008000452071,246.71239500003867,248.83192820008844,246.71239500003867,248.33159420010634,246.71239500003867,248.33159420010634,246.71239500003867,248.33159420010634,246.71239500003867,248.33159420010634,246.71239500003867,248.33159420010634,248.31498270016164,248.81559450016357,248.31498270016164,248.81559450016357,248.31498270016164,248.81559450016357,248.31498270016164,248.81559450016357,248.31498270016164,248.81559450016357,248.31498270016164,248.81559450016357,248.31498270016164,248.81559450016357,248.31498270016164,248.81559450016357,246.71239500003867,None,248.81559450016357,None,1.6100000000000012,249.71681170002557,None,250.46784480009228,None,,,,,,,[[0.89]],2.1000000000000014,0.7,11027,002,2024_Jan_10_1335,MFTM_A_new1021,2021.2.3,59.63772473752085,
,,,,,,,,stim/Instruction_adaptive.png,conditions/adaptive.xlsx,test,-0.6,-0.6,-0.6,0.6,0.6,left,L,,,,,0,1,1,1,0,40,40,23,,,,,,,,,,,,,,,,,,,,,,,,,,,,,,,,,,,,,,,,,,,,250.96917170006782,None,left,1,1.033389599993825,251.4694080001209,253.50571330008097,251.4694080001209,253.0054717999883,251.4694080001209,253.0054717999883,251.4694080001209,253.0054717999883,251.4694080001209,253.0054717999883,251.4694080001209,253.0054717999883,252.9883100001607,253.48904860019684,252.9883100001607,253.48904860019684,252.9883100001607,253.48904860019684,252.9883100001607,253.48904860019684,252.9883100001607,253.48904860019684,252.9883100001607,253.48904860019684,252.9883100001607,253.48904860019684,252.9883100001607,253.48904860019684,251.4694080001209,None,253.48904860019684,None,1.5300000000000011,254.4738551999908,None,255.22566480003297,None,,,,,,,[[0.97]],2.1700000000000017,0.7073170731707317,11027,002,2024_Jan_10_1335,MFTM_A_new1021,2021.2.3,59.63772473752085,
,,,,,,,,stim/Instruction_adaptive.png,conditions/adaptive.xlsx,test,0.6,0.6,0.6,-0.6,-0.6,right,R,,,,,0,1,1,1,0,41,41,74,,,,,,,,,,,,,,,,,,,,,,,,,,,,,,,,,,,,,,,,,,,,255.7264161000494,None,right,1,0.7642864000517875,256.22653060010634,258.1958241001703,256.22653060010634,257.6953224001918,256.22653060010634,257.6953224001918,256.22653060010634,257.6953224001918,256.22653060010634,257.6953224001918,256.22653060010634,257.6953224001918,257.66169139998965,258.1629600999877,257.66169139998965,258.1629600999877,257.66169139998965,258.1629600999877,257.66169139998965,258.1629600999877,257.66169139998965,258.1629600999877,257.66169139998965,258.1629600999877,257.66169139998965,258.1629600999877,257.66169139998965,258.1629600999877,256.22653060010634,None,258.1629600999877,259.2146619001869,1.460000000000001,259.2310428000055,None,259.98205670015886,None,,,,,,,[[1.04]],2.2300000000000013,0.7142857142857143,11027,002,2024_Jan_10_1335,MFTM_A_new1021,2021.2.3,59.63772473752085,
,,,,,,,,stim/Instruction_adaptive.png,conditions/adaptive.xlsx,test,0.6,0.6,0.6,-0.6,-0.6,right,R,,,,,0,1,1,1,0,42,42,16,,,,,,,,,,,,,,,,,,,,,,,,,,,,,,,,,,,,,,,,,,,,260.4830376000609,None,right,1,2.1359188999049366,260.98371509998105,262.8863646001555,260.98371509998105,262.38621799997054,260.98371509998105,262.38621799997054,260.98371509998105,262.38621799997054,260.98371509998105,262.38621799997054,260.98371509998105,262.38621799997054,262.36891650012694,262.8702397001907,262.36891650012694,262.8702397001907,262.36891650012694,262.8702397001907,262.36891650012694,262.8702397001907,262.36891650012694,262.8702397001907,262.36891650012694,262.8702397001907,262.36891650012694,262.8702397001907,262.36891650012694,262.8702397001907,260.98371509998105,None,262.8702397001907,263.9713489001151,1.400000000000001,263.9879160001874,None,264.7390469000675,None,,,,,,,[[1.1]],2.2800000000000016,0.7209302325581395,11027,002,2024_Jan_10_1335,MFTM_A_new1021,2021.2.3,59.63772473752085,
,,,,,,,,stim/Instruction_adaptive.png,conditions/adaptive.xlsx,test,-0.6,-0.6,-0.6,0.6,0.6,left,L,,,,,0,1,1,1,0,43,43,79,,,,,,,,,,,,,,,,,,,,,,,,,,,,,,,,,,,,,,,,,,,,265.2398728001863,None,left,1,1.0026363998185843,265.7403959999792,267.59327120007947,265.7403959999792,267.09266840014607,265.7403959999792,267.09266840014607,265.7403959999792,267.09266840014607,265.7403959999792,267.09266840014607,265.7403959999792,267.09266840014607,267.07599660009146,267.57662940002047,267.07599660009146,267.57662940002047,267.07599660009146,267.57662940002047,267.07599660009146,267.57662940002047,267.07599660009146,267.57662940002047,267.07599660009146,267.57662940002047,267.07599660009146,267.57662940002047,267.07599660009146,267.57662940002047,265.7403959999792,None,267.57662940002047,268.7288681000937,1.350000000000001,268.74503750004806,None,269.49684110004455,None,,,,,,,[[1.15]],2.3400000000000016,0.7272727272727273,11027,002,2024_Jan_10_1335,MFTM_A_new1021,2021.2.3,59.63772473752085,
,,,,,,,,stim/Instruction_adaptive.png,conditions/adaptive.xlsx,test,-0.6,-0.6,-0.6,0.6,0.6,left,L,,,,,0,1,1,1,0,44,44,85,,,,,,,,,,,,,,,,,,,,,,,,,,,,,,,,,,,,,,,,,,,,269.9968286000658,None,left,1,1.4295470998622477,270.49745040014386,272.3003895999864,270.49745040014386,271.79947070009075,270.49745040014386,271.79947070009075,270.49745040014386,271.79947070009075,270.49745040014386,271.79947070009075,270.49745040014386,271.79947070009075,271.7831341000274,272.2841201000847,271.7831341000274,272.2841201000847,271.7831341000274,272.2841201000847,271.7831341000274,272.2841201000847,271.7831341000274,272.2841201000847,271.7831341000274,272.2841201000847,271.7831341000274,272.2841201000847,271.7831341000274,272.2841201000847,270.49745040014386,None,272.2841201000847,273.45232699997723,1.300000000000001,273.4693269999698,None,274.22024300019257,None,,,,,,,[1.15666667],2.3900000000000015,0.7333333333333333,11027,002,2024_Jan_10_1335,MFTM_A_new1021,2021.2.3,59.63772473752085,
,,,,,,,,stim/Instruction_adaptive.png,conditions/adaptive.xlsx,test,-0.6,-0.6,-0.6,0.6,0.6,left,L,,,,,0,1,1,1,0,45,45,43,,,,,,,,,,,,,,,,,,,,,,,,,,,,,,,,,,,,,,,,,,,,274.7204198001418,None,left,1,1.1058124999981374,275.2215815000236,276.9910173001699,275.2215815000236,276.4898965000175,275.2215815000236,276.4898965000175,275.2215815000236,276.4898965000175,275.2215815000236,276.4898965000175,275.2215815000236,276.4898965000175,276.4564233000856,276.95719750015996,276.4564233000856,276.95719750015996,276.4564233000856,276.95719750015996,276.4564233000856,276.95719750015996,276.4564233000856,276.95719750015996,276.4564233000856,276.95719750015996,276.4564233000856,276.95719750015996,276.4564233000856,276.95719750015996,275.2215815000236,None,276.95719750015996,278.1263544000685,1.260000000000001,278.14238390000537,None,278.8934673999902,None,,,,,,,[1.15847826],2.4400000000000017,0.7391304347826086,11027,002,2024_Jan_10_1335,MFTM_A_new1021,2021.2.3,59.63772473752085,
,,,,,,,,stim/Instruction_adaptive.png,conditions/adaptive.xlsx,test,0.6,0.6,0.6,-0.6,-0.6,right,R,,,,,0,1,1,1,0,46,46,62,,,,,,,,,,,,,,,,,,,,,,,,,,,,,,,,,,,,,,,,,,,,279.3941440000199,None,right,1,1.2239567001815885,279.8950243999716,281.6143987001851,279.8950243999716,281.113180299988,279.8950243999716,281.113180299988,279.8950243999716,281.113180299988,279.8950243999716,281.113180299988,279.8950243999716,281.113180299988,281.0969187000301,281.59750839998014,281.0969187000301,281.59750839998014,281.0969187000301,281.59750839998014,281.0969187000301,281.59750839998014,281.0969187000301,281.59750839998014,281.0969187000301,281.59750839998014,281.0969187000301,281.59750839998014,281.0969187000301,281.59750839998014,279.8950243999716,None,281.5806660000235,282.74912870000117,1.2100000000000009,282.76553480001166,None,283.5168326999992,None,,,,,,,[1.1612766],2.490000000000002,0.7446808510638298,11027,002,2024_Jan_10_1335,MFTM_A_new1021,2021.2.3,59.63772473752085,
,,,,,,,,stim/Instruction_adaptive.png,conditions/adaptive.xlsx,test,-0.6,-0.6,-0.6,0.6,0.6,left,L,,,,,0,1,1,1,0,47,47,9,,,,,,,,,,,,,,,,,,,,,,,,,,,,,,,,,,,,,,,,,,,,284.0181533000432,None,left,1,1.160262299934402,284.51874039997347,286.2047806000337,284.51874039997347,285.70349050010554,284.51874039997347,285.70349050010554,284.51874039997347,285.70349050010554,284.51874039997347,285.70349050010554,284.51874039997347,285.70349050010554,285.67077580001205,286.17078410019167,285.67077580001205,286.17078410019167,285.67077580001205,286.17078410019167,285.67077580001205,286.17078410019167,285.67077580001205,286.17078410019167,285.67077580001205,286.17078410019167,285.67077580001205,286.17078410019167,285.67077580001205,286.17078410019167,284.51874039997347,None,286.17078410019167,287.3392782001756,1.1700000000000008,287.3559487001039,None,288.1076258001849,None,,,,,,,[1.16479167],2.530000000000002,0.75,11027,002,2024_Jan_10_1335,MFTM_A_new1021,2021.2.3,59.63772473752085,
,,,,,,,,stim/Instruction_adaptive.png,conditions/adaptive.xlsx,test,0.6,0.6,0.6,-0.6,-0.6,right,R,,,,,0,1,1,1,0,48,48,8,,,,,,,,,,,,,,,,,,,,,,,,,,,,,,,,,,,,,,,,,,,,288.6085831001401,None,right,1,1.0743601000867784,289.10850690002553,290.7610671001021,289.10850690002553,290.26061570015736,289.10850690002553,290.26061570015736,289.10850690002553,290.26061570015736,289.10850690002553,290.26061570015736,289.10850690002553,290.26061570015736,290.22693240013905,290.7277210999746,290.22693240013905,290.7277210999746,290.22693240013905,290.7277210999746,290.22693240013905,290.7277210999746,290.22693240013905,290.7277210999746,290.22693240013905,290.7277210999746,290.22693240013905,290.7277210999746,290.22693240013905,290.7277210999746,289.10850690002553,None,290.7277210999746,291.89612330007367,1.1400000000000008,291.92948300018907,None,292.6803995000664,None,,,,,,,[1.16877551],2.570000000000002,0.7551020408163265,11027,002,2024_Jan_10_1335,MFTM_A_new1021,2021.2.3,59.63772473752085,
,,,,,,,,stim/Instruction_adaptive.png,conditions/adaptive.xlsx,test,0.6,0.6,0.6,-0.6,-0.6,right,R,,,,,0,1,1,1,0,49,49,90,,,,,,,,,,,,,,,,,,,,,,,,,,,,,,,,,,,,,,,,,,,,293.1812756001018,None,left,0,0.9570577000267804,293.6819550001528,295.30103130009957,293.6819550001528,294.8007919001393,293.6819550001528,294.8007919001393,293.6819550001528,294.8007919001393,293.6819550001528,294.8007919001393,293.6819550001528,294.8007919001393,294.78366379998624,295.28469850006513,294.78366379998624,295.28469850006513,294.78366379998624,295.28469850006513,294.78366379998624,295.28469850006513,294.78366379998624,295.28469850006513,294.78366379998624,295.28469850006513,294.78366379998624,295.28469850006513,294.78366379998624,295.28469850006513,293.6819550001528,None,295.2674839000683,296.45284990011714,1.1100000000000008,296.4695081000682,None,297.22053720010445,None,,,,,,,[1.1732],2.450000000000002,0.74,11027,002,2024_Jan_10_1335,MFTM_A_new1021,2021.2.3,59.63772473752085,
,,,,,,,,stim/Instruction_adaptive.png,conditions/adaptive.xlsx,test,0.6,0.6,0.6,-0.6,-0.6,right,R,,,,,0,1,1,1,0,50,50,88,,,,,,,,,,,,,,,,,,,,,,,,,,,,,,,,,,,,,,,,,,,,297.72124480013736,None,right,1,0.7851764000952244,298.2220060999971,299.9244646001607,298.2220060999971,299.4237886001356,298.2220060999971,299.4237886001356,298.2220060999971,299.4237886001356,298.2220060999971,299.4237886001356,298.2220060999971,299.4237886001356,299.40715440013446,299.9077814000193,299.40715440013446,299.9077814000193,299.40715440013446,299.9077814000193,299.40715440013446,299.9077814000193,299.40715440013446,299.9077814000193,299.40715440013446,299.9077814000193,299.40715440013446,299.9077814000193,299.40715440013446,299.9077814000193,298.2220060999971,None,299.9077814000193,301.09291420015506,1.2000000000000008,301.1103439000435,None,301.86054070014507,None,,,,,,,[1.17568627],2.490000000000002,0.7450980392156863,11027,002,2024_Jan_10_1335,MFTM_A_new1021,2021.2.3,59.63772473752085,
,,,,,,,,stim/Instruction_adaptive.png,conditions/adaptive.xlsx,test,0.6,0.6,0.6,-0.6,-0.6,right,R,,,,,0,1,1,1,0,51,51,24,,,,,,,,,,,,,,,,,,,,,,,,,,,,,,,,,,,,,,,,,,,,302.3617848001886,None,right,1,1.6725769001059234,302.86224650009535,304.53150400007144,302.86224650009535,304.0480427001603,302.86224650009535,304.0480427001603,302.86224650009535,304.0480427001603,302.86224650009535,304.0480427001603,302.86224650009535,304.0480427001603,304.0141845000908,304.5153700001538,304.0141845000908,304.5153700001538,304.0141845000908,304.5153700001538,304.0141845000908,304.5153700001538,304.0141845000908,304.5153700001538,304.0141845000908,304.5153700001538,304.0141845000908,304.5153700001538,304.0141845000908,304.5153700001538,302.86224650009535,None,304.5153700001538,305.7000184999779,1.1700000000000008,305.71671160007827,None,306.4677454000339,None,,,,,,,[1.17865385],2.530000000000002,0.75,11027,002,2024_Jan_10_1335,MFTM_A_new1021,2021.2.3,59.63772473752085,
,,,,,,,,stim/Instruction_adaptive.png,conditions/adaptive.xlsx,test,0.6,0.6,0.6,-0.6,-0.6,right,R,,,,,0,1,1,1,0,52,52,54,,,,,,,,,,,,,,,,,,,,,,,,,,,,,,,,,,,,,,,,,,,,306.96845190017484,None,right,1,1.473261500010267,307.4696788000874,309.1222433000803,307.4696788000874,308.621661900077,307.4696788000874,308.621661900077,307.4696788000874,308.621661900077,307.4696788000874,308.621661900077,307.4696788000874,308.621661900077,308.58787970012054,309.0880850001704,308.58787970012054,309.0880850001704,308.58787970012054,309.0880850001704,308.58787970012054,309.0880850001704,308.58787970012054,309.0880850001704,308.58787970012054,309.0880850001704,308.58787970012054,309.0880850001704,308.58787970012054,309.0880850001704,307.4696788000874,None,309.0880850001704,310.27333450014703,1.1400000000000008,310.306799300015,None,311.0582477999851,None,,,,,,,[1.18207547],2.570000000000002,0.7547169811320755,11027,002,2024_Jan_10_1335,MFTM_A_new1021,2021.2.3,59.63772473752085,
,,,,,,,,stim/Instruction_adaptive.png,conditions/adaptive.xlsx,test,-0.6,-0.6,-0.6,0.6,0.6,left,L,,,,,0,1,1,1,0,53,53,21,,,,,,,,,,,,,,,,,,,,,,,,,,,,,,,,,,,,,,,,,,,,311.55886140000075,None,left,1,1.5235704998485744,312.05955480015837,313.67911180015653,312.05955480015837,313.17853400018066,312.05955480015837,313.17853400018066,312.05955480015837,313.17853400018066,312.05955480015837,313.17853400018066,312.05955480015837,313.17853400018066,313.1441870999988,313.6451359000057,313.1441870999988,313.6451359000057,313.1441870999988,313.6451359000057,313.1441870999988,313.6451359000057,313.1441870999988,313.6451359000057,313.1441870999988,313.6451359000057,313.1441870999988,313.6451359000057,313.1441870999988,313.6451359000057,312.05955480015837,None,313.6451359000057,314.8305089001078,1.1100000000000008,314.86342160007916,None,315.61433110013604,None,,,,,,,[1.18592593],2.610000000000002,0.7592592592592593,11027,002,2024_Jan_10_1335,MFTM_A_new1021,2021.2.3,59.63772473752085,
,,,,,,,,stim/Instruction_adaptive.png,conditions/adaptive.xlsx,test,0.6,0.6,0.6,-0.6,-0.6,right,R,,,,,0,1,1,1,0,54,54,78,,,,,,,,,,,,,,,,,,,,,,,,,,,,,,,,,,,,,,,,,,,,316.1153333999682,None,right,1,0.6150523999240249,316.6158782001585,318.20178390014917,316.6158782001585,317.7010596001055,316.6158782001585,317.7010596001055,316.6158782001585,317.7010596001055,316.6158782001585,317.7010596001055,316.6158782001585,317.7010596001055,317.6847120001912,318.1850982999895,317.6847120001912,318.1850982999895,317.6847120001912,318.1850982999895,317.6847120001912,318.1850982999895,317.6847120001912,318.1850982999895,317.6847120001912,318.1850982999895,317.6847120001912,318.1850982999895,317.6847120001912,318.1850982999895,316.6158782001585,None,318.1850982999895,None,1.0800000000000007,319.38664750009775,None,320.1384274000302,None,,,,,,,[1.19018182],2.650000000000002,0.7636363636363637,11027,002,2024_Jan_10_1335,MFTM_A_new1021,2021.2.3,59.63772473752085,
,,,,,,,,stim/Instruction_adaptive.png,conditions/adaptive.xlsx,test,-0.6,-0.6,-0.6,0.6,0.6,left,L,,,,,0,1,1,1,0,55,55,59,,,,,,,,,,,,,,,,,,,,,,,,,,,,,,,,,,,,,,,,,,,,320.63881540019065,None,left,1,0.7394367998931557,321.13956030015834,322.6917667000089,321.13956030015834,322.19096140004694,321.13956030015834,322.19096140004694,321.13956030015834,322.19096140004694,321.13956030015834,322.19096140004694,321.13956030015834,322.19096140004694,322.17422390007414,322.6755671000574,322.17422390007414,322.6755671000574,322.17422390007414,322.6755671000574,322.17422390007414,322.6755671000574,322.17422390007414,322.6755671000574,322.17422390007414,322.6755671000574,322.17422390007414,322.6755671000574,322.17422390007414,322.6755671000574,321.13956030015834,None,322.6755671000574,323.8765853000805,1.0500000000000007,323.89336690003984,None,324.6445651000831,None,,,,,,,[1.19482143],2.680000000000002,0.7678571428571429,11027,002,2024_Jan_10_1335,MFTM_A_new1021,2021.2.3,59.63772473752085,
,,,,,,,,stim/Instruction_adaptive.png,conditions/adaptive.xlsx,test,-0.6,-0.6,-0.6,0.6,0.6,left,L,,,,,0,1,1,1,0,56,56,31,,,,,,,,,,,,,,,,,,,,,,,,,,,,,,,,,,,,,,,,,,,,325.1450938000344,None,right,0,1.4493679001461715,325.64601100003347,327.1817850000225,325.64601100003347,326.68082030001096,325.64601100003347,326.68082030001096,325.64601100003347,326.68082030001096,325.64601100003347,326.68082030001096,325.64601100003347,326.68082030001096,326.66411810019054,327.16480260016397,326.66411810019054,327.16480260016397,326.66411810019054,327.16480260016397,326.66411810019054,327.16480260016397,326.66411810019054,327.16480260016397,326.66411810019054,327.16480260016397,326.66411810019054,327.16480260016397,326.66411810019054,327.16480260016397,325.64601100003347,None,327.16480260016397,328.36733900010586,1.0300000000000007,328.3833978001494,None,329.13517620018683,None,,,,,,,[1.19964912],2.580000000000002,0.7543859649122807,11027,002,2024_Jan_10_1335,MFTM_A_new1021,2021.2.3,59.63772473752085,
,,,,,,,,stim/Instruction_adaptive.png,conditions/adaptive.xlsx,test,-0.6,-0.6,-0.6,0.6,0.6,left,L,,,,,0,1,1,1,0,57,57,69,,,,,,,,,,,,,,,,,,,,,,,,,,,,,,,,,,,,,,,,,,,,329.6355519001372,None,left,1,1.1589365999680012,330.13596340012737,331.7393674000632,330.13596340012737,331.23764650011435,330.13596340012737,331.23764650011435,330.13596340012737,331.23764650011435,330.13596340012737,331.23764650011435,330.13596340012737,331.23764650011435,331.22112970007583,331.721756500192,331.22112970007583,331.721756500192,331.22112970007583,331.721756500192,331.22112970007583,331.721756500192,331.22112970007583,331.721756500192,331.22112970007583,331.721756500192,331.22112970007583,331.721756500192,331.22112970007583,331.721756500192,330.13596340012737,None,331.721756500192,None,1.1000000000000008,332.94013840006664,None,333.69191220006905,None,,,,,,,[1.20310345],2.620000000000002,0.7586206896551724,11027,002,2024_Jan_10_1335,MFTM_A_new1021,2021.2.3,59.63772473752085,
,,,,,,,,stim/Instruction_adaptive.png,conditions/adaptive.xlsx,test,0.6,0.6,0.6,-0.6,-0.6,right,R,,,,,0,1,1,1,0,58,58,32,,,,,,,,,,,,,,,,,,,,,,,,,,,,,,,,,,,,,,,,,,,,334.19229620019905,None,right,1,1.1299244998954237,334.6929330001585,336.2621110000182,334.6929330001585,335.7776116000023,334.6929330001585,335.7776116000023,334.6929330001585,335.7776116000023,334.6929330001585,335.7776116000023,334.6929330001585,335.7776116000023,335.7442634999752,336.245746999979,335.7442634999752,336.245746999979,335.7442634999752,336.245746999979,335.7442634999752,336.245746999979,335.7442634999752,336.245746999979,335.7442634999752,336.245746999979,335.7442634999752,336.245746999979,335.7442634999752,336.245746999979,334.6929330001585,None,336.245746999979,337.4637794001028,1.0700000000000007,337.48031180002727,None,338.2316168001853,None,,,,,,,[1.20694915],2.650000000000002,0.7627118644067796,11027,002,2024_Jan_10_1335,MFTM_A_new1021,2021.2.3,59.63772473752085,
,,,,,,,,stim/Instruction_adaptive.png,conditions/adaptive.xlsx,test,-0.6,-0.6,-0.6,0.6,0.6,left,L,,,,,0,1,1,1,0,59,59,71,,,,,,,,,,,,,,,,,,,,,,,,,,,,,,,,,,,,,,,,,,,,338.732039200142,None,left,1,1.0859966001007706,339.2328822000418,340.78570800018497,339.2328822000418,340.28456210019067,339.2328822000418,340.28456210019067,339.2328822000418,340.28456210019067,339.2328822000418,340.28456210019067,339.2328822000418,340.28456210019067,340.26781940017827,340.7686026999727,340.26781940017827,340.7686026999727,340.26781940017827,340.7686026999727,340.26781940017827,340.7686026999727,340.26781940017827,340.7686026999727,340.26781940017827,340.7686026999727,340.26781940017827,340.7686026999727,340.26781940017827,340.7686026999727,339.2328822000418,None,340.7686026999727,341.98741660011,1.0500000000000007,342.0033699001651,None,342.754475499969,None,,,,,,,[1.211],2.680000000000002,0.7666666666666667,11027,002,2024_Jan_10_1335,MFTM_A_new1021,2021.2.3,59.63772473752085,
,,,,,,,,stim/Instruction_adaptive.png,conditions/adaptive.xlsx,test,0.6,0.6,0.6,-0.6,-0.6,right,R,,,,,0,1,1,1,0,60,60,66,,,,,,,,,,,,,,,,,,,,,,,,,,,,,,,,,,,,,,,,,,,,343.25546550005674,None,right,1,1.8585117000620812,343.7564315001946,345.29280250007287,343.7564315001946,344.7919619001914,343.7564315001946,344.7919619001914,343.7564315001946,344.7919619001914,343.7564315001946,344.7919619001914,343.7564315001946,344.7919619001914,344.77454320015386,345.27518770005554,344.77454320015386,345.27518770005554,344.77454320015386,345.27518770005554,344.77454320015386,345.27518770005554,344.77454320015386,345.27518770005554,344.77454320015386,345.27518770005554,344.77454320015386,345.27518770005554,344.77454320015386,345.27518770005554,343.7564315001946,None,345.27518770005554,346.49370770016685,1.0300000000000007,346.5105533001479,None,347.26185790007,None,,,,,,,[1.2152459],2.720000000000002,0.7704918032786885,11027,002,2024_Jan_10_1335,MFTM_A_new1021,2021.2.3,59.63772473752085,
,,,,,,,,stim/Instruction_adaptive.png,conditions/adaptive.xlsx,test,0.6,0.6,0.6,-0.6,-0.6,right,R,,,,,0,1,1,1,0,61,61,0,,,,,,,,,,,,,,,,,,,,,,,,,,,,,,,,,,,,,,,,,,,,347.7623620000668,None,right,1,1.088216200005263,348.26265320018865,349.765102900099,348.26265320018865,349.2648047001567,348.26265320018865,349.2648047001567,348.26265320018865,349.2648047001567,348.26265320018865,349.2648047001567,348.26265320018865,349.2648047001567,349.2479048999958,349.74823720008135,349.2479048999958,349.74823720008135,349.2479048999958,349.74823720008135,349.2479048999958,349.74823720008135,349.2479048999958,349.74823720008135,349.2479048999958,349.74823720008135,349.2479048999958,349.74823720008135,349.2479048999958,349.74823720008135,348.26265320018865,None,349.74823720008135,None,1.0000000000000007,350.9835525001399,None,351.7344339999836,None,,,,,,,[1.21983871],2.7500000000000018,0.7741935483870968,11027,002,2024_Jan_10_1335,MFTM_A_new1021,2021.2.3,59.63772473752085,
,,,,,,,,stim/Instruction_adaptive.png,conditions/adaptive.xlsx,test,-0.6,-0.6,-0.6,0.6,0.6,left,L,,,,,0,1,1,1,0,62,62,55,,,,,,,,,,,,,,,,,,,,,,,,,,,,,,,,,,,,,,,,,,,,352.2361781001091,None,right,0,1.0390244000591338,352.73613470001146,354.2219114000909,352.73613470001146,353.7215913999826,352.73613470001146,353.7215913999826,352.73613470001146,353.7215913999826,352.73613470001146,353.7215913999826,352.73613470001146,353.7215913999826,353.7043126001954,354.2049649001565,353.7043126001954,354.2049649001565,353.7043126001954,354.2049649001565,353.7043126001954,354.2049649001565,353.7043126001954,354.2049649001565,353.7043126001954,354.2049649001565,353.7043126001954,354.2049649001565,353.7043126001954,354.2049649001565,352.73613470001146,None,354.2049649001565,None,0.9800000000000006,355.44013270013966,None,356.1911518999841,None,,,,,,,[1.22460317],2.660000000000002,0.7619047619047619,11027,002,2024_Jan_10_1335,MFTM_A_new1021,2021.2.3,59.63772473752085,
,,,,,,,,stim/Instruction_adaptive.png,conditions/adaptive.xlsx,test,0.6,0.6,0.6,-0.6,-0.6,right,R,,,,,0,1,1,1,0,63,63,28,,,,,,,,,,,,,,,,,,,,,,,,,,,,,,,,,,,,,,,,,,,,356.69182420009747,None,right,1,1.3576468999963254,357.1933532000985,358.7456222001929,357.1933532000985,358.2445293001365,357.1933532000985,358.2445293001365,357.1933532000985,358.2445293001365,357.1933532000985,358.2445293001365,357.1933532000985,358.2445293001365,358.21089990017936,358.7114829001948,358.21089990017936,358.7114829001948,358.21089990017936,358.7114829001948,358.21089990017936,358.7114829001948,358.21089990017936,358.7114829001948,358.21089990017936,358.7114829001948,358.21089990017936,358.7114829001948,358.21089990017936,358.7114829001948,357.1933532000985,None,358.7114829001948,359.94748340011574,1.0400000000000007,359.96352210012265,None,360.7153965001926,None,,,,,,,[1.22828125],2.690000000000002,0.765625,11027,002,2024_Jan_10_1335,MFTM_A_new1021,2021.2.3,59.63772473752085,
,,,,,,,,stim/Instruction_adaptive.png,conditions/adaptive.xlsx,test,-0.6,-0.6,-0.6,0.6,0.6,left,L,,,,,0,1,1,1,0,64,64,39,,,,,,,,,,,,,,,,,,,,,,,,,,,,,,,,,,,,,,,,,,,,361.21540980017744,None,left,1,1.7788735998328775,361.7161187999882,363.25183070008643,361.7161187999882,362.75087620015256,361.7161187999882,362.75087620015256,361.7161187999882,362.75087620015256,361.7161187999882,362.75087620015256,361.7161187999882,362.75087620015256,362.717557300115,363.21836489997804,362.717557300115,363.21836489997804,362.717557300115,363.21836489997804,362.717557300115,363.21836489997804,362.717557300115,363.21836489997804,362.717557300115,363.21836489997804,362.717557300115,363.21836489997804,362.717557300115,363.21836489997804,361.7161187999882,None,363.21836489997804,364.4534343001433,1.0200000000000007,364.4702467001043,None,365.22134410007857,None,,,,,,,[1.23215385],2.720000000000002,0.7692307692307693,11027,002,2024_Jan_10_1335,MFTM_A_new1021,2021.2.3,59.63772473752085,
,,,,,,,,stim/Instruction_adaptive.png,conditions/adaptive.xlsx,test,0.6,0.6,0.6,-0.6,-0.6,right,R,,,,,0,1,1,1,0,65,65,18,,,,,,,,,,,,,,,,,,,,,,,,,,,,,,,,,,,,,,,,,,,,365.7219318000134,None,left,0,1.416426899842918,366.22259620018303,367.7249781000428,366.22259620018303,367.2242970999796,366.22259620018303,367.2242970999796,366.22259620018303,367.2242970999796,366.22259620018303,367.2242970999796,366.22259620018303,367.2242970999796,367.2075692000799,367.70825520018116,367.2075692000799,367.70825520018116,367.2075692000799,367.70825520018116,367.2075692000799,367.70825520018116,367.2075692000799,367.70825520018116,367.2075692000799,367.70825520018116,367.2075692000799,367.70825520018116,367.2075692000799,367.70825520018116,366.22259620018303,None,367.70825520018116,368.94422359997407,1.0000000000000007,368.95966970012523,None,369.7111834001262,None,,,,,,,[1.23621212],2.6300000000000017,0.7575757575757576,11027,002,2024_Jan_10_1335,MFTM_A_new1021,2021.2.3,59.63772473752085,
,,,,,,,,stim/Instruction_adaptive.png,conditions/adaptive.xlsx,test,0.6,0.6,0.6,-0.6,-0.6,right,R,,,,,0,1,1,1,0,66,66,36,,,,,,,,,,,,,,,,,,,,,,,,,,,,,,,,,,,,,,,,,,,,370.21208250010386,None,right,1,1.198401000117883,370.712898200145,372.2817602001596,370.712898200145,371.78126440010965,370.712898200145,371.78126440010965,370.712898200145,371.78126440010965,370.712898200145,371.78126440010965,370.712898200145,371.78126440010965,371.7475939001888,372.24877510010265,371.7475939001888,372.24877510010265,371.7475939001888,372.24877510010265,371.7475939001888,372.24877510010265,371.7475939001888,372.24877510010265,371.7475939001888,372.24877510010265,371.7475939001888,372.24877510010265,371.7475939001888,372.24877510010265,370.712898200145,None,372.24877510010265,373.50027730013244,1.0600000000000007,373.516945600044,None,374.2679649000056,None,,,,,,,[1.23925373],2.660000000000002,0.7611940298507462,11027,002,2024_Jan_10_1335,MFTM_A_new1021,2021.2.3,59.63772473752085,
,,,,,,,,stim/Instruction_adaptive.png,conditions/adaptive.xlsx,test,0.6,0.6,0.6,-0.6,-0.6,right,R,,,,,0,1,1,1,0,67,67,52,,,,,,,,,,,,,,,,,,,,,,,,,,,,,,,,,,,,,,,,,,,,374.76937200012617,None,right,1,1.4499657999258488,375.269342900021,376.8219409000594,375.269342900021,376.3222563001327,375.269342900021,376.3222563001327,375.269342900021,376.3222563001327,375.269342900021,376.3222563001327,375.269342900021,376.3222563001327,376.28778920019977,376.7890359000303,376.28778920019977,376.7890359000303,376.28778920019977,376.7890359000303,376.28778920019977,376.7890359000303,376.28778920019977,376.7890359000303,376.28778920019977,376.7890359000303,376.28778920019977,376.7890359000303,376.28778920019977,376.7890359000303,375.269342900021,None,376.7890359000303,378.0402594001498,1.0400000000000007,378.057087500114,None,378.8085823999718,None,,,,,,,[1.2425],2.690000000000002,0.7647058823529411,11027,002,2024_Jan_10_1335,MFTM_A_new1021,2021.2.3,59.63772473752085,
,,,,,,,,stim/Instruction_adaptive.png,conditions/adaptive.xlsx,test,0.6,0.6,0.6,-0.6,-0.6,right,R,,,,,0,1,1,1,0,68,68,56,,,,,,,,,,,,,,,,,,,,,,,,,,,,,,,,,,,,,,,,,,,,379.30871810019016,None,right,1,1.3818663998972625,379.80946939997375,381.3290515001863,379.80946939997375,380.8445129999891,379.80946939997375,380.8445129999891,379.80946939997375,380.8445129999891,379.80946939997375,380.8445129999891,379.80946939997375,380.8445129999891,380.8110307001043,381.312005400192,380.8110307001043,381.312005400192,380.8110307001043,381.312005400192,380.8110307001043,381.312005400192,380.8110307001043,381.312005400192,380.8110307001043,381.312005400192,380.8110307001043,381.312005400192,380.8110307001043,381.312005400192,379.80946939997375,None,381.312005400192,382.5642477001529,1.0200000000000007,382.5803607001435,None,383.33166170003824,None,,,,,,,[1.24594203],2.720000000000002,0.7681159420289855,11027,002,2024_Jan_10_1335,MFTM_A_new1021,2021.2.3,59.63772473752085,
,,,,,,,,stim/Instruction_adaptive.png,conditions/adaptive.xlsx,test,0.6,0.6,0.6,-0.6,-0.6,right,R,,,,,0,1,1,1,0,69,69,60,,,,,,,,,,,,,,,,,,,,,,,,,,,,,,,,,,,,,,,,,,,,383.8330267001875,None,right,1,2.2820588999893516,384.3330408001784,385.8355911001563,384.3330408001784,385.33437589998357,384.3330408001784,385.33437589998357,384.3330408001784,385.33437589998357,384.3330408001784,385.33437589998357,384.3330408001784,385.33437589998357,385.3175592001062,385.81856940011494,385.3175592001062,385.81856940011494,385.3175592001062,385.81856940011494,385.3175592001062,385.81856940011494,385.3175592001062,385.81856940011494,385.3175592001062,385.81856940011494,385.3175592001062,385.81856940011494,385.3175592001062,385.81856940011494,384.3330408001784,None,385.81856940011494,387.07084510009736,1.0000000000000007,387.08705350011587,None,387.838366500102,None,,,,,,,[1.24957143],2.7500000000000018,0.7714285714285715,11027,002,2024_Jan_10_1335,MFTM_A_new1021,2021.2.3,59.63772473752085,
,,,,,,,,stim/Instruction_adaptive.png,conditions/adaptive.xlsx,test,0.6,0.6,0.6,-0.6,-0.6,right,R,,,,,0,1,1,1,0,70,70,82,,,,,,,,,,,,,,,,,,,,,,,,,,,,,,,,,,,,,,,,,,,,388.340474500088,None,left,0,2.0072378998156637,388.83973710006103,390.32622530008666,388.83973710006103,389.8245476000011,388.83973710006103,389.8245476000011,388.83973710006103,389.8245476000011,388.83973710006103,389.8245476000011,388.83973710006103,389.8245476000011,389.8081178001594,390.30955900019035,389.8081178001594,390.30955900019035,389.8081178001594,390.30955900019035,389.8081178001594,390.30955900019035,389.8081178001594,390.30955900019035,389.8081178001594,390.30955900019035,389.8081178001594,390.30955900019035,389.8081178001594,390.30955900019035,388.83973710006103,None,390.30955900019035,None,0.9800000000000006,391.57694480009377,None,392.3293288999703,None,,,,,,,[1.25338028],2.6700000000000017,0.7605633802816901,11027,002,2024_Jan_10_1335,MFTM_A_new1021,2021.2.3,59.63772473752085,
,,,,,,,,stim/Instruction_adaptive.png,conditions/adaptive.xlsx,test,0.6,0.6,0.6,-0.6,-0.6,right,R,,,,,0,1,1,1,0,71,71,92,,,,,,,,,,,,,,,,,,,,,,,,,,,,,,,,,,,,,,,,,,,,392.8287597000599,None,right,1,2.093287199968472,393.329687200021,394.8661462001037,393.329687200021,394.36446269997396,393.329687200021,394.36446269997396,393.329687200021,394.36446269997396,393.329687200021,394.36446269997396,393.329687200021,394.36446269997396,394.34813790000044,394.8498784999829,394.34813790000044,394.8498784999829,394.34813790000044,394.8498784999829,394.34813790000044,394.8498784999829,394.34813790000044,394.8498784999829,394.34813790000044,394.8498784999829,394.34813790000044,394.8498784999829,394.34813790000044,394.8498784999829,393.329687200021,None,394.8498784999829,None,1.0300000000000007,396.1168603000697,None,396.8685730001889,None,,,,,,,[1.25638889],2.690000000000002,0.7638888888888888,11027,002,2024_Jan_10_1335,MFTM_A_new1021,2021.2.3,59.63772473752085,
,,,,,,,,stim/Instruction_adaptive.png,conditions/adaptive.xlsx,test,-0.6,-0.6,-0.6,0.6,0.6,left,L,,,,,0,1,1,1,0,72,72,93,,,,,,,,,,,,,,,,,,,,,,,,,,,,,,,,,,,,,,,,,,,,397.3696149000898,None,left,1,1.0658491000067443,397.86968460003845,399.3893329000566,397.86968460003845,398.90500620007515,397.86968460003845,398.90500620007515,397.86968460003845,398.90500620007515,397.86968460003845,398.90500620007515,397.86968460003845,398.90500620007515,398.8716182000935,399.3724919001106,398.8716182000935,399.3724919001106,398.8716182000935,399.3724919001106,398.8716182000935,399.3724919001106,398.8716182000935,399.3724919001106,398.8716182000935,399.3724919001106,398.8716182000935,399.3724919001106,398.8716182000935,399.3724919001106,397.86968460003845,None,399.3724919001106,400.6411113999784,1.0200000000000007,400.6576060000807,None,401.4090045001358,None,,,,,,,[1.25945205],2.720000000000002,0.7671232876712328,11027,002,2024_Jan_10_1335,MFTM_A_new1021,2021.2.3,59.63772473752085,
,,,,,,,,stim/Instruction_adaptive.png,conditions/adaptive.xlsx,test,-0.6,-0.6,-0.6,0.6,0.6,left,L,,,,,0,1,1,1,0,73,73,87,,,,,,,,,,,,,,,,,,,,,,,,,,,,,,,,,,,,,,,,,,,,401.9090174001176,None,left,1,1.1332827999722213,402.40978520014323,403.9120297001209,402.40978520014323,403.4112600001972,402.40978520014323,403.4112600001972,402.40978520014323,403.4112600001972,402.40978520014323,403.4112600001972,402.40978520014323,403.4112600001972,403.395358200185,403.896689100191,403.395358200185,403.896689100191,403.395358200185,403.896689100191,403.395358200185,403.896689100191,403.395358200185,403.896689100191,403.395358200185,403.896689100191,403.395358200185,403.896689100191,403.395358200185,403.896689100191,402.40978520014323,None,403.896689100191,405.1637894001324,1.0000000000000007,405.18082060012966,None,405.931658500107,None,,,,,,,[1.2627027],2.7500000000000018,0.7702702702702703,11027,002,2024_Jan_10_1335,MFTM_A_new1021,2021.2.3,59.63772473752085,
,,,,,,,,stim/Instruction_adaptive.png,conditions/adaptive.xlsx,test,0.6,0.6,0.6,-0.6,-0.6,right,R,,,,,0,1,1,1,0,74,74,30,,,,,,,,,,,,,,,,,,,,,,,,,,,,,,,,,,,,,,,,,,,,406.4323603999801,None,left,0,1.2099806999322027,406.9330267000478,408.4188391000498,406.9330267000478,407.91780930012465,406.9330267000478,407.91780930012465,406.9330267000478,407.91780930012465,406.9330267000478,407.91780930012465,406.9330267000478,407.91780930012465,407.901373000117,408.401836700039,407.901373000117,408.401836700039,407.901373000117,408.401836700039,407.901373000117,408.401836700039,407.901373000117,408.401836700039,407.901373000117,408.401836700039,407.901373000117,408.401836700039,407.901373000117,408.401836700039,406.9330267000478,None,408.401836700039,409.67055919999257,0.9800000000000006,409.68729500006884,None,410.4382041001227,None,,,,,,,[1.26613333],2.6700000000000017,0.76,11027,002,2024_Jan_10_1335,MFTM_A_new1021,2021.2.3,59.63772473752085,
,,,,,,,,stim/Instruction_adaptive.png,conditions/adaptive.xlsx,test,0.6,0.6,0.6,-0.6,-0.6,right,R,,,,,0,1,1,1,0,75,75,64,,,,,,,,,,,,,,,,,,,,,,,,,,,,,,,,,,,,,,,,,,,,410.939204600174,None,right,1,1.0871804999187589,411.4398630000651,412.97570780012757,411.4398630000651,412.4745962000452,411.4398630000651,412.4745962000452,411.4398630000651,412.4745962000452,411.4398630000651,412.4745962000452,411.4398630000651,412.4745962000452,412.4584551001899,412.9587475999724,412.4584551001899,412.9587475999724,412.4584551001899,412.9587475999724,412.4584551001899,412.9587475999724,412.4584551001899,412.9587475999724,412.4584551001899,412.9587475999724,412.4584551001899,412.9587475999724,412.4584551001899,412.9587475999724,411.4398630000651,None,412.9587475999724,414.22731630015187,1.0300000000000007,414.24400439998135,None,414.99540780019015,None,,,,,,,[1.26881579],2.700000000000002,0.7631578947368421,11027,002,2024_Jan_10_1335,MFTM_A_new1021,2021.2.3,59.63772473752085,
,,,,,,,,stim/Instruction_adaptive.png,conditions/adaptive.xlsx,test,0.6,0.6,0.6,-0.6,-0.6,right,R,,,,,0,1,1,1,0,76,76,26,,,,,,,,,,,,,,,,,,,,,,,,,,,,,,,,,,,,,,,,,,,,415.4958093999885,None,right,1,0.8744916999712586,415.99645560001954,417.5155605999753,415.99645560001954,417.01531260018237,415.99645560001954,417.01531260018237,415.99645560001954,417.01531260018237,415.99645560001954,417.01531260018237,415.99645560001954,417.01531260018237,416.9814061000943,417.48289550002664,416.9814061000943,417.48289550002664,416.9814061000943,417.48289550002664,416.9814061000943,417.48289550002664,416.9814061000943,417.48289550002664,416.9814061000943,417.48289550002664,416.9814061000943,417.48289550002664,416.9814061000943,417.48289550002664,415.99645560001954,None,417.48289550002664,418.7677019999828,1.0100000000000007,418.7839671000838,None,419.53587869997136,None,,,,,,,[1.27168831],2.720000000000002,0.7662337662337663,11027,002,2024_Jan_10_1335,MFTM_A_new1021,2021.2.3,59.63772473752085,
,,,,,,,,stim/Instruction_adaptive.png,conditions/adaptive.xlsx,test,0.6,0.6,0.6,-0.6,-0.6,right,R,,,,,0,1,1,1,0,77,77,84,,,,,,,,,,,,,,,,,,,,,,,,,,,,,,,,,,,,,,,,,,,,420.03593000001274,None,right,1,0.8947453000582755,420.5364437000826,422.0387560001109,420.5364437000826,421.53807200002484,420.5364437000826,421.53807200002484,420.5364437000826,421.53807200002484,420.5364437000826,421.53807200002484,420.5364437000826,421.53807200002484,421.5215603001416,422.022176500177,421.5215603001416,422.022176500177,421.5215603001416,422.022176500177,421.5215603001416,422.022176500177,421.5215603001416,422.022176500177,421.5215603001416,422.022176500177,421.5215603001416,422.022176500177,421.5215603001416,422.022176500177,420.5364437000826,None,422.022176500177,423.30735880020075,1.0000000000000007,423.3249880000949,None,424.0751371001825,None,,,,,,,[1.27461538],2.7500000000000018,0.7692307692307693,11027,002,2024_Jan_10_1335,MFTM_A_new1021,2021.2.3,59.63772473752085,
,,,,,,,,stim/Instruction_adaptive.png,conditions/adaptive.xlsx,test,-0.6,-0.6,-0.6,0.6,0.6,left,L,,,,,0,1,1,1,0,78,78,61,,,,,,,,,,,,,,,,,,,,,,,,,,,,,,,,,,,,,,,,,,,,424.57723340019584,None,left,1,0.9782066000625491,425.076917800121,426.5622847999912,425.076917800121,426.0614708000794,425.076917800121,426.0614708000794,425.076917800121,426.0614708000794,425.076917800121,426.0614708000794,425.076917800121,426.0614708000794,426.0447524001356,426.54580970015377,426.0447524001356,426.54580970015377,426.0447524001356,426.54580970015377,426.0447524001356,426.54580970015377,426.0447524001356,426.54580970015377,426.0447524001356,426.54580970015377,426.0447524001356,426.54580970015377,426.0447524001356,426.54580970015377,425.076917800121,None,426.54580970015377,427.83126870007254,0.9800000000000006,427.84719510003924,None,428.5983254001476,None,,,,,,,[1.27772152],2.7700000000000022,0.7721518987341772,11027,002,2024_Jan_10_1335,MFTM_A_new1021,2021.2.3,59.63772473752085,
,,,,,,,,stim/Instruction_adaptive.png,conditions/adaptive.xlsx,test,-0.6,-0.6,-0.6,0.6,0.6,left,L,,,,,0,1,1,1,0,79,79,15,,,,,,,,,,,,,,,,,,,,,,,,,,,,,,,,,,,,,,,,,,,,429.09983750013635,None,left,1,1.374895399902016,429.60014590015635,431.06936240009964,429.60014590015635,430.5681357001886,429.60014590015635,430.5681357001886,429.60014590015635,430.5681357001886,429.60014590015635,430.5681357001886,429.60014590015635,430.5681357001886,430.55153230018914,431.0522641001735,430.55153230018914,431.0522641001735,430.55153230018914,431.0522641001735,430.55153230018914,431.0522641001735,430.55153230018914,431.0522641001735,430.55153230018914,431.0522641001735,430.55153230018914,431.0522641001735,430.55153230018914,431.0522641001735,429.60014590015635,None,431.0522641001735,432.3377010000404,0.9600000000000006,432.354077400174,None,433.1055099000223,None,,,,,,,[1.281],2.800000000000002,0.775,11027,002,2024_Jan_10_1335,MFTM_A_new1021,2021.2.3,59.63772473752085,
,,,,,,,,stim/Instruction_adaptive.png,conditions/adaptive.xlsx,test,0.6,0.6,0.6,-0.6,-0.6,right,R,,,,,0,1,1,1,0,80,80,44,,,,,,,,,,,,,,,,,,,,,,,,,,,,,,,,,,,,,,,,,,,,433.6065355001483,None,right,1,1.6693647999782115,434.10650490014814,435.5587765001692,434.10650490014814,435.0582711000461,434.10650490014814,435.0582711000461,434.10650490014814,435.0582711000461,434.10650490014814,435.0582711000461,434.10650490014814,435.0582711000461,435.0260071000084,435.525930600008,435.0260071000084,435.525930600008,435.0260071000084,435.525930600008,435.0260071000084,435.525930600008,435.0260071000084,435.525930600008,435.0260071000084,435.525930600008,435.0260071000084,435.525930600008,435.0260071000084,435.525930600008,434.10650490014814,None,435.525930600008,436.81087440019473,0.9400000000000006,436.84390750015154,None,437.5950395001564,None,,,,,,,[1.28444444],2.820000000000002,0.7777777777777778,11027,002,2024_Jan_10_1335,MFTM_A_new1021,2021.2.3,59.63772473752085,
,,,,,,,,stim/Instruction_adaptive.png,conditions/adaptive.xlsx,test,-0.6,-0.6,-0.6,0.6,0.6,left,L,,,,,0,1,1,1,0,81,81,81,,,,,,,,,,,,,,,,,,,,,,,,,,,,,,,,,,,,,,,,,,,,438.09597470005974,None,right,0,2.162476500030607,438.59662980004214,440.0322748001199,438.59662980004214,439.5314462999813,438.59662980004214,439.5314462999813,438.59662980004214,439.5314462999813,438.59662980004214,439.5314462999813,438.59662980004214,439.5314462999813,439.51465030014515,440.01547220000066,439.51465030014515,440.01547220000066,439.51465030014515,440.01547220000066,439.51465030014515,440.01547220000066,439.51465030014515,440.01547220000066,439.51465030014515,440.01547220000066,439.51465030014515,440.01547220000066,439.51465030014515,440.01547220000066,438.59662980004214,None,440.01547220000066,None,0.9300000000000006,441.31738100014627,None,442.0685281001497,None,,,,,,,[1.28792683],2.7500000000000018,0.7682926829268293,11027,002,2024_Jan_10_1335,MFTM_A_new1021,2021.2.3,59.63772473752085,
,,,,,,,,stim/Instruction_adaptive.png,conditions/adaptive.xlsx,test,-0.6,-0.6,-0.6,0.6,0.6,left,L,,,,,0,1,1,1,0,82,82,99,,,,,,,,,,,,,,,,,,,,,,,,,,,,,,,,,,,,,,,,,,,,442.5695659001358,None,left,1,1.6570093999616802,443.06998520018533,444.55542350001633,443.06998520018533,444.0549127999693,443.06998520018533,444.0549127999693,443.06998520018533,444.0549127999693,443.06998520018533,444.0549127999693,443.06998520018533,444.0549127999693,444.03805830003694,444.53902050014585,444.03805830003694,444.53902050014585,444.03805830003694,444.53902050014585,444.03805830003694,444.53902050014585,444.03805830003694,444.53902050014585,444.03805830003694,444.53902050014585,444.03805830003694,444.53902050014585,444.03805830003694,444.53902050014585,443.06998520018533,None,444.53902050014585,None,0.9800000000000006,445.8405625000596,None,446.5927602001466,None,,,,,,,[1.29072289],2.7700000000000022,0.7710843373493976,11027,002,2024_Jan_10_1335,MFTM_A_new1021,2021.2.3,59.63772473752085,
,,,,,,,,stim/Instruction_adaptive.png,conditions/adaptive.xlsx,test,-0.6,-0.6,-0.6,0.6,0.6,left,L,,,,,0,1,1,1,0,83,83,13,,,,,,,,,,,,,,,,,,,,,,,,,,,,,,,,,,,,,,,,,,,,447.0934789001476,None,left,1,1.58959829993546,447.5934131999966,449.0622094999999,447.5934131999966,448.56188639998436,447.5934131999966,448.56188639998436,447.5934131999966,448.56188639998436,447.5934131999966,448.56188639998436,447.5934131999966,448.56188639998436,448.52805780014023,449.02920470014215,448.52805780014023,449.02920470014215,448.52805780014023,449.02920470014215,448.52805780014023,449.02920470014215,448.52805780014023,449.02920470014215,448.52805780014023,449.02920470014215,448.52805780014023,449.02920470014215,448.52805780014023,449.02920470014215,447.5934131999966,None,449.02920470014215,450.3323519001715,0.9600000000000006,450.3474213001318,None,451.09955210005865,None,,,,,,,[1.29369048],2.800000000000002,0.7738095238095238,11027,002,2024_Jan_10_1335,MFTM_A_new1021,2021.2.3,59.63772473752085,
,,,,,,,,stim/Instruction_adaptive.png,conditions/adaptive.xlsx,test,0.6,0.6,0.6,-0.6,-0.6,right,R,,,,,0,1,1,1,0,84,84,42,,,,,,,,,,,,,,,,,,,,,,,,,,,,,,,,,,,,,,,,,,,,451.5998043001164,None,left,0,1.1309803000185639,452.09993420005776,453.55212110001594,452.09993420005776,453.05140570015647,452.09993420005776,453.05140570015647,452.09993420005776,453.05140570015647,452.09993420005776,453.05140570015647,452.09993420005776,453.05140570015647,453.0180959000718,453.51873480016366,453.0180959000718,453.51873480016366,453.0180959000718,453.51873480016366,453.0180959000718,453.51873480016366,453.0180959000718,453.51873480016366,453.0180959000718,453.51873480016366,453.0180959000718,453.51873480016366,453.0180959000718,453.51873480016366,452.09993420005776,None,453.51873480016366,454.8204924000893,0.9400000000000006,454.83721400005743,None,455.58922660001554,None,,,,,,,[1.29682353],2.730000000000002,0.7647058823529411,11027,002,2024_Jan_10_1335,MFTM_A_new1021,2021.2.3,59.63772473752085,
,,,,,,,,stim/Instruction_adaptive.png,conditions/adaptive.xlsx,test,-0.6,-0.6,-0.6,0.6,0.6,left,L,,,,,0,1,1,1,0,85,85,51,,,,,,,,,,,,,,,,,,,,,,,,,,,,,,,,,,,,,,,,,,,,456.0903733000159,None,right,0,2.4252158999443054,456.590334800072,458.09301740000956,456.590334800072,457.59206000017,456.590334800072,457.59206000017,456.590334800072,457.59206000017,456.590334800072,457.59206000017,456.590334800072,457.59206000017,457.55880770017393,458.05948090017773,457.55880770017393,458.05948090017773,457.55880770017393,458.05948090017773,457.55880770017393,458.05948090017773,457.55880770017393,458.05948090017773,457.55880770017393,458.05948090017773,457.55880770017393,458.05948090017773,457.55880770017393,458.05948090017773,456.590334800072,None,458.05948090017773,459.36114839999937,0.9900000000000007,459.3945786000695,None,460.1450871000998,None,,,,,,,[1.29930233],2.660000000000002,0.7558139534883721,11027,002,2024_Jan_10_1335,MFTM_A_new1021,2021.2.3,59.63772473752085,
,,,,,,,,stim/Instruction_adaptive.png,conditions/adaptive.xlsx,test,-0.6,-0.6,-0.6,0.6,0.6,left,L,,,,,0,1,1,1,0,86,86,57,,,,,,,,,,,,,,,,,,,,,,,,,,,,,,,,,,,,,,,,,,,,460.64670890010893,None,right,0,2.628340900177136,461.14667779998854,462.6991505001206,461.14667779998854,462.2000798000954,461.14667779998854,462.2000798000954,461.14667779998854,462.2000798000954,461.14667779998854,462.2000798000954,461.14667779998854,462.2000798000954,462.1649935001042,462.66604190017097,462.1649935001042,462.66604190017097,462.1649935001042,462.66604190017097,462.1649935001042,462.66604190017097,462.1649935001042,462.66604190017097,462.1649935001042,462.66604190017097,462.1649935001042,462.66604190017097,462.1649935001042,462.66604190017097,461.14667779998854,None,462.66604190017097,463.96770799998194,1.0400000000000007,464.0007913999725,None,464.7520235001575,None,,,,,,,[1.30114943],2.5900000000000016,0.7471264367816092,11027,002,2024_Jan_10_1335,MFTM_A_new1021,2021.2.3,59.63772473752085,
,,,,,,,,stim/Instruction_adaptive.png,conditions/adaptive.xlsx,test,0.6,0.6,0.6,-0.6,-0.6,right,R,,,,,0,1,1,1,0,87,87,98,,,,,,,,,,,,,,,,,,,,,,,,,,,,,,,,,,,,,,,,,,,,465.2529096000362,None,right,1,1.533868599915877,465.7536500999704,467.35701710009016,465.7536500999704,466.85533490008675,465.7536500999704,466.85533490008675,465.7536500999704,466.85533490008675,465.7536500999704,466.85533490008675,465.7536500999704,466.85533490008675,466.821820900077,467.3238203001674,466.821820900077,467.3238203001674,466.821820900077,467.3238203001674,466.821820900077,467.3238203001674,466.821820900077,467.3238203001674,466.821820900077,467.3238203001674,466.821820900077,467.3238203001674,466.821820900077,467.3238203001674,465.7536500999704,None,467.3238203001674,468.6427904001903,1.0900000000000007,468.6576833000872,None,469.40900900005363,None,,,,,,,[1.30238636],2.620000000000002,0.75,11027,002,2024_Jan_10_1335,MFTM_A_new1021,2021.2.3,59.63772473752085,
,,,,,,,,stim/Instruction_adaptive.png,conditions/adaptive.xlsx,test,0.6,0.6,0.6,-0.6,-0.6,right,R,,,,,0,1,1,1,0,88,88,68,,,,,,,,,,,,,,,,,,,,,,,,,,,,,,,,,,,,,,,,,,,,469.90972090000287,None,left,0,1.5716426998842508,470.4114217001479,471.9968010999728,470.4114217001479,471.49657390010543,470.4114217001479,471.49657390010543,470.4114217001479,471.49657390010543,470.4114217001479,471.49657390010543,470.4114217001479,471.49657390010543,471.46209180005826,471.9630587999709,471.46209180005826,471.9630587999709,471.46209180005826,471.9630587999709,471.46209180005826,471.9630587999709,471.46209180005826,471.9630587999709,471.46209180005826,471.9630587999709,471.46209180005826,471.9630587999709,471.46209180005826,471.9630587999709,470.4114217001479,None,471.9630587999709,473.2814347001258,1.0700000000000007,473.2982517001219,None,474.0492736999877,None,,,,,,,[1.30382022],2.540000000000002,0.7415730337078652,11027,002,2024_Jan_10_1335,MFTM_A_new1021,2021.2.3,59.63772473752085,
,,,,,,,,stim/Instruction_adaptive.png,conditions/adaptive.xlsx,test,-0.6,-0.6,-0.6,0.6,0.6,left,L,,,,,0,1,1,1,0,89,89,35,,,,,,,,,,,,,,,,,,,,,,,,,,,,,,,,,,,,,,,,,,,,474.5500467000529,None,left,1,2.6925655999220908,475.0506113001611,476.6872473000549,475.0506113001611,476.1857092999853,475.0506113001611,476.1857092999853,475.0506113001611,476.1857092999853,475.0506113001611,476.1857092999853,475.0506113001611,476.1857092999853,476.1690601001028,476.6699667000212,476.1690601001028,476.6699667000212,476.1690601001028,476.6699667000212,476.1690601001028,476.6699667000212,476.1690601001028,476.6699667000212,476.1690601001028,476.6699667000212,476.1690601001028,476.6699667000212,476.1690601001028,476.6699667000212,475.0506113001611,None,476.6699667000212,None,1.1300000000000008,477.9883755000774,None,478.73988840007223,None,,,,,,,[1.30455556],2.570000000000002,0.7444444444444445,11027,002,2024_Jan_10_1335,MFTM_A_new1021,2021.2.3,59.63772473752085,
,,,,,,,,stim/Instruction_adaptive.png,conditions/adaptive.xlsx,test,0.6,0.6,0.6,-0.6,-0.6,right,R,,,,,0,1,1,1,0,90,90,6,,,,,,,,,,,,,,,,,,,,,,,,,,,,,,,,,,,,,,,,,,,,479.24018310010433,None,right,1,2.0740593001246452,479.7410564001184,481.3601341000758,479.7410564001184,480.85952779999934,479.7410564001184,480.85952779999934,479.7410564001184,480.85952779999934,479.7410564001184,480.85952779999934,479.7410564001184,480.85952779999934,480.82611740007997,481.32712050015107,480.82611740007997,481.32712050015107,480.82611740007997,481.32712050015107,480.82611740007997,481.32712050015107,480.82611740007997,481.32712050015107,480.82611740007997,481.32712050015107,480.82611740007997,481.32712050015107,480.82611740007997,481.32712050015107,479.7410564001184,None,481.32712050015107,482.64579270011745,1.1100000000000008,482.66231240006164,None,483.41348360013217,None,,,,,,,[1.30549451],2.5900000000000016,0.7472527472527473,11027,002,2024_Jan_10_1335,MFTM_A_new1021,2021.2.3,59.63772473752085,
,,,,,,,,stim/Instruction_adaptive.png,conditions/adaptive.xlsx,test,-0.6,-0.6,-0.6,0.6,0.6,left,L,,,,,0,1,1,1,0,91,91,53,,,,,,,,,,,,,,,,,,,,,,,,,,,,,,,,,,,,,,,,,,,,483.9140252000652,None,left,1,1.7524718001950532,484.41496490011923,486.016854000045,484.41496490011923,485.51697280001827,484.41496490011923,485.51697280001827,484.41496490011923,485.51697280001827,484.41496490011923,485.51697280001827,484.41496490011923,485.51697280001827,485.48308360017836,485.98389160004444,485.48308360017836,485.98389160004444,485.48308360017836,485.98389160004444,485.48308360017836,485.98389160004444,485.48308360017836,485.98389160004444,485.48308360017836,485.98389160004444,485.48308360017836,485.98389160004444,485.48308360017836,485.98389160004444,484.41496490011923,None,485.98389160004444,487.3029418999795,1.0900000000000007,487.3188064000569,None,488.07037710002623,None,,,,,,,[1.30663043],2.620000000000002,0.75,11027,002,2024_Jan_10_1335,MFTM_A_new1021,2021.2.3,59.63772473752085,
,,,,,,,,stim/Instruction_adaptive.png,conditions/adaptive.xlsx,test,0.6,0.6,0.6,-0.6,-0.6,right,R,,,,,0,1,1,1,0,92,92,22,,,,,,,,,,,,,,,,,,,,,,,,,,,,,,,,,,,,,,,,,,,,488.5705573000014,None,left,0,1.5595168001018465,489.0715324000921,490.65829260018654,489.0715324000921,490.1564358000178,489.0715324000921,490.1564358000178,489.0715324000921,490.1564358000178,489.0715324000921,490.1564358000178,489.0715324000921,490.1564358000178,490.1229934000876,490.6237004001159,490.1229934000876,490.6237004001159,490.1229934000876,490.6237004001159,490.1229934000876,490.6237004001159,490.1229934000876,490.6237004001159,490.1229934000876,490.6237004001159,490.1229934000876,490.6237004001159,490.1229934000876,490.6237004001159,489.0715324000921,None,490.6237004001159,491.94241000013426,1.0700000000000007,491.9590720999986,None,492.7108506001532,None,,,,,,,[1.30795699],2.5500000000000016,0.7419354838709677,11027,002,2024_Jan_10_1335,MFTM_A_new1021,2021.2.3,59.63772473752085,
,,,,,,,,stim/Instruction_adaptive.png,conditions/adaptive.xlsx,test,0.6,0.6,0.6,-0.6,-0.6,right,R,,,,,0,1,1,1,0,93,93,58,,,,,,,,,,,,,,,,,,,,,,,,,,,,,,,,,,,,,,,,,,,,493.2113465999719,None,right,1,2.831474600126967,493.71158240013756,495.3309183001984,493.71158240013756,494.8469246001914,493.71158240013756,494.8469246001914,493.71158240013756,494.8469246001914,493.71158240013756,494.8469246001914,493.71158240013756,494.8469246001914,494.8135842999909,495.314118700102,494.8135842999909,495.314118700102,494.8135842999909,495.314118700102,494.8135842999909,495.314118700102,494.8135842999909,495.314118700102,494.8135842999909,495.314118700102,494.8135842999909,495.314118700102,494.8135842999909,495.314118700102,493.71158240013756,None,495.314118700102,496.6327337999828,1.1200000000000008,496.6492267001886,None,497.40069969999604,None,,,,,,,[1.3087234],2.570000000000002,0.7446808510638298,11027,002,2024_Jan_10_1335,MFTM_A_new1021,2021.2.3,59.63772473752085,
