arrwidth1,arrwidth2,arrwidth3,arrwidth4,arrwidth5,keyb,type,orientation,instruction_image,block_filename,block_type,arrow11,arrow22,arrow33,arrow44,arrow55,keyb_3,orientation3,trials.thisRepN,trials.thisTrialN,trials.thisN,trials.thisIndex,trials_3.thisRepN,trials_3.thisTrialN,trials_3.thisN,trials_3.thisIndex,trials_2.thisRepN,trials_2.thisTrialN,trials_2.thisN,trials_2.thisIndex,welcome.started,welcome.stopped,key_resp.keys,key_resp.rt,key_resp.started,key_resp.stopped,instruction_example.started,instruction_example.stopped,key_resp_3.keys,key_resp_3.rt,key_resp_3.started,key_resp_3.stopped,instruction_task.started,instruction_task.stopped,key_resp_2.keys,key_resp_2.rt,key_resp_2.started,key_resp_2.stopped,text_2.started,text_2.stopped,A1.started,A1.stopped,A2.started,A2.stopped,A3.started,A3.stopped,A4.started,A4.stopped,A5.started,A5.stopped,key_resp_4.keys,key_resp_4.corr,key_resp_4.rt,key_resp_4.started,key_resp_4.stopped,fb.started,fb.stopped,instruction_block.started,instruction_block.stopped,key_resp_8.keys,key_resp_8.rt,key_resp_8.started,key_resp_8.stopped,text_8.started,text_8.stopped,key_resp_9.keys,key_resp_9.corr,key_resp_9.rt,text_5.started,text_5.stopped,A11_3.started,A11_3.stopped,A22_2.started,A22_2.stopped,A33_2.started,A33_2.stopped,A44_2.started,A44_2.stopped,A55_2.started,A55_2.stopped,M1_3.started,M1_3.stopped,M2_2.started,M2_2.stopped,M3_2.started,M3_2.stopped,M4_2.started,M4_2.stopped,M5_2.started,M5_2.stopped,M6_2.started,M6_2.stopped,M7_2.started,M7_2.stopped,M8_2.started,M8_2.stopped,key_resp_9.started,key_resp_9.stopped,fixation.started,fixation.stopped,ET,fb_3.started,fb_3.stopped,text_9.started,text_9.stopped,fb_4.started,fb_4.stopped,text_7.started,text_7.stopped,endtext.started,endtext.stopped,fixation_ITI,CCC,Acc,participant,session,date,expName,psychopyVersion,frameRate
,,,,,,,,,,,,,,,,,,,,,,,,,,,,,,10.9922385,None,space,16.6161176,10.9922385,None,,,,,,,,,,,,,,,,,,,,,,,,,,,,,,,,,,,,,,,,,,,,,,,,,,,,,,,,,,,,,,,,,,,,,,,,,,,,,,,,,,,,,,,,,11024,2,2024_Jan_07_1540,MFTM_A_new1021,2021.2.3,60.10117432
,,,,,,,,,,,,,,,,,,,,,,,,,,,,,,,,,,,,27.6336845,None,space,1.9106209,27.6336845,None,,,,,,,,,,,,,,,,,,,,,,,,,,,,,,,,,,,,,,,,,,,,,,,,,,,,,,,,,,,,,,,,,,,,,,,,,,,,,,,,,,,11024,2,2024_Jan_07_1540,MFTM_A_new1021,2021.2.3,60.10117432
,,,,,,,,,,,,,,,,,,,,,,,,,,,,,,,,,,,,,,,,,,29.5698486,None,space,1.6626234,29.5698486,None,,,,,,,,,,,,,,,,,,,,,,,,,,,,,,,,,,,,,,,,,,,,,,,,,,,,,,,,,,,,,,,,,,,,,,,,,,,,,11024,2,2024_Jan_07_1540,MFTM_A_new1021,2021.2.3,60.10117432
-0.6,-0.6,-0.6,0.6,0.6,left,3:02,L,,,,,,,,,,,0,0,0,1,,,,,,,,,,,,,,,,,,,,,,,,,,,31.273028,None,31.273028,None,31.273028,None,31.273028,None,31.273028,None,31.273028,None,left,1,2.0952663,31.273028,None,33.3916644,None,,,,,,,,,,,,,,,,,,,,,,,,,,,,,,,,,,,,,,,,,,,,,,,,,,,,,,,,,,11024,2,2024_Jan_07_1540,MFTM_A_new1021,2021.2.3,60.10117432
0.6,0.6,0.6,-0.6,-0.6,right,3:02,R,,,,,,,,,,,0,1,1,0,,,,,,,,,,,,,,,,,,,,,,,,,,,34.1442025,None,34.1442025,None,34.1442025,None,34.1442025,None,34.1442025,None,34.1442025,None,right,1,1.4163893,34.1442025,None,35.5788604,None,,,,,,,,,,,,,,,,,,,,,,,,,,,,,,,,,,,,,,,,,,,,,,,,,,,,,,,,,,11024,2,2024_Jan_07_1540,MFTM_A_new1021,2021.2.3,60.10117432
-0.6,-0.6,-0.6,0.6,0.6,left,3:02,L,,,,,,,,,,,1,0,2,1,,,,,,,,,,,,,,,,,,,,,,,,,,,36.3296306,None,36.3296306,None,36.3296306,None,36.3296306,None,36.3296306,None,36.3296306,None,left,1,1.8867933,36.3296306,None,38.2328358,None,,,,,,,,,,,,,,,,,,,,,,,,,,,,,,,,,,,,,,,,,,,,,,,,,,,,,,,,,,11024,2,2024_Jan_07_1540,MFTM_A_new1021,2021.2.3,60.10117432
0.6,0.6,0.6,-0.6,-0.6,right,3:02,R,,,,,,,,,,,1,1,3,0,,,,,,,,,,,,,,,,,,,,,,,,,,,38.9844161,None,38.9844161,None,38.9844161,None,38.9844161,None,38.9844161,None,38.9844161,None,right,1,1.4323687,38.9844161,None,40.4358314,None,,,,,,,,,,,,,,,,,,,,,,,,,,,,,,,,,,,,,,,,,,,,,,,,,,,,,,,,,,11024,2,2024_Jan_07_1540,MFTM_A_new1021,2021.2.3,60.10117432
,,,,,,,,stim/Instruction_mask.png,conditions/adaptive.xlsx,practice,-0.6,-0.6,-0.6,0.6,0.6,left,L,,,,,0,0,0,0,0,0,0,89,,,,,,,,,,,,,,,,,,,,,,,,,,,,,,,,,,,,,,41.3873322,None,space,3.0131579,41.3873322,None,44.4916046,None,left,1,1.5686327,44.9436674,None,44.9436674,47.9471699,44.9436674,47.9471699,44.9436674,47.9471699,44.9436674,47.9471699,44.9436674,47.9471699,47.9302997,48.4316815,47.9302997,48.4316815,47.9302997,48.4316815,47.9302997,48.4316815,47.9302997,48.4316815,47.9302997,48.4316815,47.9302997,48.4316815,47.9302997,48.4316815,44.9436674,None,48.4143257,48.4143257,3,48.4476537,None,49.1993494,None,,,,,,,,,,11024,2,2024_Jan_07_1540,MFTM_A_new1021,2021.2.3,60.10117432
,,,,,,,,stim/Instruction_mask.png,conditions/adaptive.xlsx,practice,0.6,0.6,0.6,-0.6,-0.6,right,R,,,,,0,0,0,0,0,1,1,70,,,,,,,,,,,,,,,,,,,,,,,,,,,,,,,,,,,,,,,,,,,,49.6995922,None,right,1,1.8241618,50.200399,52.2042081,50.200399,51.7025509,50.200399,51.7025509,50.200399,51.7025509,50.200399,51.7025509,50.200399,51.7025509,51.6864948,52.1874209,51.6864948,52.1874209,51.6864948,52.1874209,51.6864948,52.1874209,51.6864948,52.1874209,51.6864948,52.1874209,51.6864948,52.1874209,51.6864948,52.1874209,50.200399,None,52.1874209,53.6895457,1.5,53.706494,None,54.4574668,None,,,,,,,,,,11024,2,2024_Jan_07_1540,MFTM_A_new1021,2021.2.3,60.10117432
,,,,,,,,stim/Instruction_mask.png,conditions/adaptive.xlsx,practice,0.6,0.6,0.6,-0.6,-0.6,right,R,,,,,0,0,0,0,0,2,2,52,,,,,,,,,,,,,,,,,,,,,,,,,,,,,,,,,,,,,,,,,,,,54.9574475,None,right,1,1.2702247,55.4587459,56.7600981,55.4587459,56.2599685,55.4587459,56.2599685,55.4587459,56.2599685,55.4587459,56.2599685,55.4587459,56.2599685,56.2429411,56.7434155,56.2429411,56.7434155,56.2429411,56.7434155,56.2429411,56.7434155,56.2429411,56.7434155,56.2429411,56.7434155,56.2429411,56.7434155,56.2429411,56.7434155,55.4587459,None,56.7434155,58.9482743,0.8,58.9640076,None,59.7151673,None,,,,,,,,,,11024,2,2024_Jan_07_1540,MFTM_A_new1021,2021.2.3,60.10117432
,,,,,,,,stim/Instruction_mask.png,conditions/adaptive.xlsx,practice,0.6,0.6,0.6,-0.6,-0.6,right,R,,,,,0,0,0,0,0,3,3,88,,,,,,,,,,,,,,,,,,,,,,,,,,,,,,,,,,,,,,,,,,,,60.2152618,None,left,0,0.69269,60.7157652,61.4671104,60.7157652,60.9664349,60.7157652,60.9664349,60.7157652,60.9664349,60.7157652,60.9664349,60.7157652,60.9664349,60.9498973,61.4509953,60.9498973,61.4509953,60.9498973,61.4509953,60.9498973,61.4509953,60.9498973,61.4509953,60.9498973,61.4509953,60.9498973,61.4509953,60.9498973,61.4509953,60.7157652,None,61.4509953,64.2046244,3,64.2212919,None,64.9735538,None,,,,,,,,,,11024,2,2024_Jan_07_1540,MFTM_A_new1021,2021.2.3,60.10117432
,,,,,,,,stim/Instruction_mask.png,conditions/adaptive.xlsx,practice,,,,,,,,,,,,0,0,0,0,,,,,,,,,,,,,,,,,,,,,,,,,,,,,,,,,,,,,,,,,,,,,,,,,,,,,,,,,,,,,,,,,,,,,,,,,,,,,,,,,,,,,,,,,,65.4897115,66.4919551,66.4579045,66.4579045,66.4579045,None,,,,11024,2,2024_Jan_07_1540,MFTM_A_new1021,2021.2.3,60.10117432
,,,,,,,,stim/Instruction_adaptive.png,conditions/adaptive.xlsx,test,-0.6,-0.6,-0.6,0.6,0.6,left,L,,,,,0,1,1,1,0,0,0,3,,,,,,,,,,,,,,,,,,,,,,,,,,,,,,,,,,,,,,69.5790148,None,v,6.0693948,69.5790148,None,75.7549336,None,left,1,1.6679823,76.1889098,None,76.1889098,79.194171,76.1889098,79.194171,76.1889098,79.194171,76.1889098,79.194171,76.1889098,79.194171,79.1774184,79.6778506,79.1774184,79.6778506,79.1774184,79.6778506,79.1774184,79.6778506,79.1774184,79.6778506,79.1774184,79.6778506,79.1774184,79.6778506,79.1774184,79.6778506,76.1889098,None,79.6778506,79.6778506,3,79.6940194,None,80.4451994,None,,,,,,,0,6,1,11024,2,2024_Jan_07_1540,MFTM_A_new1021,2021.2.3,60.10117432
,,,,,,,,stim/Instruction_adaptive.png,conditions/adaptive.xlsx,test,0.6,0.6,0.6,-0.6,-0.6,right,R,,,,,0,1,1,1,0,1,1,38,,,,,,,,,,,,,,,,,,,,,,,,,,,,,,,,,,,,,,,,,,,,80.9458739,None,right,1,1.1936172,81.4467098,82.1978728,81.4467098,81.6969159,81.4467098,81.6969159,81.4467098,81.6969159,81.4467098,81.6969159,81.4467098,81.6969159,81.680822,82.1819311,81.680822,82.1819311,81.680822,82.1819311,81.680822,82.1819311,81.680822,82.1819311,81.680822,82.1819311,81.680822,82.1819311,81.680822,82.1819311,81.4467098,None,82.1819311,83.0657937,0.25,83.0827921,None,83.8340393,None,,,,,,,[0.875],6,1,11024,2,2024_Jan_07_1540,MFTM_A_new1021,2021.2.3,60.10117432
,,,,,,,,stim/Instruction_adaptive.png,conditions/adaptive.xlsx,test,-0.6,-0.6,-0.6,0.6,0.6,left,L,,,,,0,1,1,1,0,2,2,49,,,,,,,,,,,,,,,,,,,,,,,,,,,,,,,,,,,,,,,,,,,,84.3348072,None,left,1,0.5174098,84.835263,85.5862235,84.835263,85.0852944,84.835263,85.0852944,84.835263,85.0852944,84.835263,85.0852944,84.835263,85.0852944,85.0687383,85.5694259,85.0687383,85.5694259,85.0687383,85.5694259,85.0687383,85.5694259,85.0687383,85.5694259,85.0687383,85.5694259,85.0687383,85.5694259,85.0687383,85.5694259,84.835263,None,85.5694259,86.9049275,0.25,86.9213748,None,87.6724153,None,,,,,,,[1.33333333],6,1,11024,2,2024_Jan_07_1540,MFTM_A_new1021,2021.2.3,60.10117432
,,,,,,,,stim/Instruction_adaptive.png,conditions/adaptive.xlsx,test,-0.6,-0.6,-0.6,0.6,0.6,left,L,,,,,0,1,1,1,0,3,3,65,,,,,,,,,,,,,,,,,,,,,,,,,,,,,,,,,,,,,,,,,,,,88.1734526,None,right,0,0.5347979,88.6740193,89.425548,88.6740193,88.9250132,88.6740193,88.9250132,88.6740193,88.9250132,88.6740193,88.9250132,88.6740193,88.9250132,88.9078008,89.4085902,88.9078008,89.4085902,88.9078008,89.4085902,88.9078008,89.4085902,88.9078008,89.4085902,88.9078008,89.4085902,88.9078008,89.4085902,88.9078008,89.4085902,88.6740193,None,89.4085902,90.9774095,0.25,90.9939165,None,91.7453983,None,,,,,,,[1.5625],4.03,0.75,11024,2,2024_Jan_07_1540,MFTM_A_new1021,2021.2.3,60.10117432
,,,,,,,,stim/Instruction_adaptive.png,conditions/adaptive.xlsx,test,0.6,0.6,0.6,-0.6,-0.6,right,R,,,,,0,1,1,1,0,4,4,14,,,,,,,,,,,,,,,,,,,,,,,,,,,,,,,,,,,,,,,,,,,,92.2459822,None,right,1,0.5092804,92.747155,93.648118,92.747155,93.1476131,92.747155,93.1476131,92.747155,93.1476131,92.747155,93.1476131,92.747155,93.1476131,93.131129,93.6323683,93.131129,93.6323683,93.131129,93.6323683,93.131129,93.6323683,93.131129,93.6323683,93.131129,93.6323683,93.131129,93.6323683,93.131129,93.6323683,92.747155,None,93.6323683,None,0.4,95.3173099,None,96.0684314,None,,,,,,,[1.67],4.7,0.8,11024,2,2024_Jan_07_1540,MFTM_A_new1021,2021.2.3,60.10117432
,,,,,,,,stim/Instruction_adaptive.png,conditions/adaptive.xlsx,test,0.6,0.6,0.6,-0.6,-0.6,right,R,,,,,0,1,1,1,0,5,5,42,,,,,,,,,,,,,,,,,,,,,,,,,,,,,,,,,,,,,,,,,,,,96.5695944,None,left,0,0.418589,97.0697903,97.8220166,97.0697903,97.320802,97.0697903,97.320802,97.0697903,97.320802,97.0697903,97.320802,97.0697903,97.320802,97.304197,97.8044312,97.304197,97.8044312,97.304197,97.8044312,97.304197,97.8044312,97.304197,97.8044312,97.304197,97.8044312,97.304197,97.8044312,97.304197,97.8044312,97.0697903,None,97.8044312,99.5738232,0.25,99.5902587,None,100.3413604,None,,,,,,,[1.76666667],3.56,0.666666667,11024,2,2024_Jan_07_1540,MFTM_A_new1021,2021.2.3,60.10117432
,,,,,,,,stim/Instruction_adaptive.png,conditions/adaptive.xlsx,test,-0.6,-0.6,-0.6,0.6,0.6,left,L,,,,,0,1,1,1,0,6,6,5,,,,,,,,,,,,,,,,,,,,,,,,,,,,,,,,,,,,,,,,,,,,100.8428294,None,right,0,0.4408553,101.3435036,102.4117501,101.3435036,101.9107921,101.3435036,101.9107921,101.3435036,101.9107921,101.3435036,101.9107921,101.3435036,101.9107921,101.8936641,102.3947332,101.8936641,102.3947332,101.8936641,102.3947332,101.8936641,102.3947332,101.8936641,102.3947332,101.8936641,102.3947332,101.8936641,102.3947332,101.8936641,102.3947332,101.3435036,None,102.378512,104.180316,0.56,104.1968257,None,104.9482068,None,,,,,,,[1.79142857],2.23,0.571428571,11024,2,2024_Jan_07_1540,MFTM_A_new1021,2021.2.3,60.10117432
,,,,,,,,stim/Instruction_adaptive.png,conditions/adaptive.xlsx,test,0.6,0.6,0.6,-0.6,-0.6,right,R,,,,,0,1,1,1,0,7,7,26,,,,,,,,,,,,,,,,,,,,,,,,,,,,,,,,,,,,,,,,,,,,105.4496975,None,left,0,0.5070227,105.9497178,107.8522699,105.9497178,107.3526723,105.9497178,107.3526723,105.9497178,107.3526723,105.9497178,107.3526723,105.9497178,107.3526723,107.3350602,107.8357478,107.3350602,107.8357478,107.3350602,107.8357478,107.3350602,107.8357478,107.3350602,107.8357478,107.3350602,107.8357478,107.3350602,107.8357478,107.3350602,107.8357478,105.9497178,None,107.8357478,108.9381935,1.4,108.9539324,None,109.7050323,None,,,,,,,[[1.1]],0.5,0.5,11024,2,2024_Jan_07_1540,MFTM_A_new1021,2021.2.3,60.10117432
,,,,,,,,stim/Instruction_adaptive.png,conditions/adaptive.xlsx,test,0.6,0.6,0.6,-0.6,-0.6,right,R,,,,,0,1,1,1,0,8,8,50,,,,,,,,,,,,,,,,,,,,,,,,,,,,,,,,,,,,,,,,,,,,110.2067717,None,left,0,1.1813315,110.7073303,None,110.7073303,113.7116511,110.7073303,113.7116511,110.7073303,113.7116511,110.7073303,113.7116511,110.7073303,113.7116511,113.6945623,114.1959269,113.6945623,114.1959269,113.6945623,114.1959269,113.6945623,114.1959269,113.6945623,114.1959269,113.6945623,114.1959269,113.6945623,114.1959269,113.6945623,114.1959269,110.7073303,None,114.1959269,114.1959269,3,114.211983,None,114.9632111,None,,,,,,,0,0.5,0.444444444,11024,2,2024_Jan_07_1540,MFTM_A_new1021,2021.2.3,60.10117432
,,,,,,,,stim/Instruction_adaptive.png,conditions/adaptive.xlsx,test,0.6,0.6,0.6,-0.6,-0.6,right,R,,,,,0,1,1,1,0,9,9,88,,,,,,,,,,,,,,,,,,,,,,,,,,,,,,,,,,,,,,,,,,,,115.4639182,None,right,1,1.9240409,115.9644008,None,115.9644008,118.9698767,115.9644008,118.9698767,115.9644008,118.9698767,115.9644008,118.9698767,115.9644008,118.9698767,118.9522916,119.453584,118.9522916,119.453584,118.9522916,119.453584,118.9522916,119.453584,118.9522916,119.453584,118.9522916,119.453584,118.9522916,119.453584,118.9522916,119.453584,115.9644008,None,119.453584,119.453584,3,119.4696099,None,120.2208489,None,,,,,,,0,0.5,0.5,11024,2,2024_Jan_07_1540,MFTM_A_new1021,2021.2.3,60.10117432
,,,,,,,,stim/Instruction_adaptive.png,conditions/adaptive.xlsx,test,0.6,0.6,0.6,-0.6,-0.6,right,R,,,,,0,1,1,1,0,10,10,16,,,,,,,,,,,,,,,,,,,,,,,,,,,,,,,,,,,,,,,,,,,,120.7224945,None,left,0,2.6662168,121.2221958,None,121.2221958,124.2279663,121.2221958,124.2279663,121.2221958,124.2279663,121.2221958,124.2279663,121.2221958,124.2279663,124.2100967,124.7116182,124.2100967,124.7116182,124.2100967,124.7116182,124.2100967,124.7116182,124.2100967,124.7116182,124.2100967,124.7116182,124.2100967,124.7116182,124.2100967,124.7116182,121.2221958,None,124.7116182,124.7116182,3,124.7281109,None,125.4786344,None,,,,,,,0,0.5,0.454545455,11024,2,2024_Jan_07_1540,MFTM_A_new1021,2021.2.3,60.10117432
,,,,,,,,stim/Instruction_adaptive.png,conditions/adaptive.xlsx,test,-0.6,-0.6,-0.6,0.6,0.6,left,L,,,,,0,1,1,1,0,11,11,55,,,,,,,,,,,,,,,,,,,,,,,,,,,,,,,,,,,,,,,,,,,,125.9792866,None,right,0,2.1851135,126.4800205,None,126.4800205,129.4847954,126.4800205,129.4847954,126.4800205,129.4847954,126.4800205,129.4847954,126.4800205,129.4847954,129.4678251,129.9693045,129.4678251,129.9693045,129.4678251,129.9693045,129.4678251,129.9693045,129.4678251,129.9693045,129.4678251,129.9693045,129.4678251,129.9693045,129.4678251,129.9693045,126.4800205,None,129.9693045,129.9693045,3,129.9859311,None,130.737244,None,,,,,,,0,0.5,0.416666667,11024,2,2024_Jan_07_1540,MFTM_A_new1021,2021.2.3,60.10117432
,,,,,,,,stim/Instruction_adaptive.png,conditions/adaptive.xlsx,test,0.6,0.6,0.6,-0.6,-0.6,right,R,,,,,0,1,1,1,0,12,12,76,,,,,,,,,,,,,,,,,,,,,,,,,,,,,,,,,,,,,,,,,,,,131.2377725,None,left,0,2.5829193,131.737919,None,131.737919,134.7430639,131.737919,134.7430639,131.737919,134.7430639,131.737919,134.7430639,131.737919,134.7430639,134.7263176,135.2266371,134.7263176,135.2266371,134.7263176,135.2266371,134.7263176,135.2266371,134.7263176,135.2266371,134.7263176,135.2266371,134.7263176,135.2266371,134.7263176,135.2266371,131.737919,None,135.2266371,135.2266371,3,135.243477,None,135.9941513,None,,,,,,,0,0.5,0.384615385,11024,2,2024_Jan_07_1540,MFTM_A_new1021,2021.2.3,60.10117432
,,,,,,,,stim/Instruction_adaptive.png,conditions/adaptive.xlsx,test,-0.6,-0.6,-0.6,0.6,0.6,left,L,,,,,0,1,1,1,0,13,13,25,,,,,,,,,,,,,,,,,,,,,,,,,,,,,,,,,,,,,,,,,,,,136.4949679,None,left,1,1.109049,136.9956008,None,136.9956008,140.0007809,136.9956008,140.0007809,136.9956008,140.0007809,136.9956008,140.0007809,136.9956008,140.0007809,139.9840547,140.4847909,139.9840547,140.4847909,139.9840547,140.4847909,139.9840547,140.4847909,139.9840547,140.4847909,139.9840547,140.4847909,139.9840547,140.4847909,139.9840547,140.4847909,136.9956008,None,140.4847909,140.4847909,3,140.5007009,None,141.2519732,None,,,,,,,0,0.5,0.428571429,11024,2,2024_Jan_07_1540,MFTM_A_new1021,2021.2.3,60.10117432
,,,,,,,,stim/Instruction_adaptive.png,conditions/adaptive.xlsx,test,-0.6,-0.6,-0.6,0.6,0.6,left,L,,,,,0,1,1,1,0,14,14,97,,,,,,,,,,,,,,,,,,,,,,,,,,,,,,,,,,,,,,,,,,,,141.7534521,None,left,1,1.867764,142.2535047,None,142.2535047,145.2579362,142.2535047,145.2579362,142.2535047,145.2579362,142.2535047,145.2579362,142.2535047,145.2579362,145.2412623,145.7420157,145.2412623,145.7420157,145.2412623,145.7420157,145.2412623,145.7420157,145.2412623,145.7420157,145.2412623,145.7420157,145.2412623,145.7420157,145.2412623,145.7420157,142.2535047,None,145.7420157,145.7420157,3,145.758641,None,146.5104095,None,,,,,,,0,0.5,0.466666667,11024,2,2024_Jan_07_1540,MFTM_A_new1021,2021.2.3,60.10117432
,,,,,,,,stim/Instruction_adaptive.png,conditions/adaptive.xlsx,test,-0.6,-0.6,-0.6,0.6,0.6,left,L,,,,,0,1,1,1,0,15,15,43,,,,,,,,,,,,,,,,,,,,,,,,,,,,,,,,,,,,,,,,,,,,147.0109634,None,left,1,1.7691364,147.5117059,None,147.5117059,150.5161674,147.5117059,150.5161674,147.5117059,150.5161674,147.5117059,150.5161674,147.5117059,150.5161674,150.4989823,151.0003307,150.4989823,151.0003307,150.4989823,151.0003307,150.4989823,151.0003307,150.4989823,151.0003307,150.4989823,151.0003307,150.4989823,151.0003307,150.4989823,151.0003307,147.5117059,None,151.0003307,151.0003307,3,151.0166665,None,151.767442,None,,,,,,,0,0.5,0.5,11024,2,2024_Jan_07_1540,MFTM_A_new1021,2021.2.3,60.10117432
,,,,,,,,stim/Instruction_adaptive.png,conditions/adaptive.xlsx,test,0.6,0.6,0.6,-0.6,-0.6,right,R,,,,,0,1,1,1,0,16,16,60,,,,,,,,,,,,,,,,,,,,,,,,,,,,,,,,,,,,,,,,,,,,152.2685249,None,right,1,2.8309194,152.7695966,None,152.7695966,155.7735147,152.7695966,155.7735147,152.7695966,155.7735147,152.7695966,155.7735147,152.7695966,155.7735147,155.7566527,156.2574738,155.7566527,156.2574738,155.7566527,156.2574738,155.7566527,156.2574738,155.7566527,156.2574738,155.7566527,156.2574738,155.7566527,156.2574738,155.7566527,156.2574738,152.7695966,None,156.2574738,156.2574738,3,156.2744181,None,157.0264669,None,,,,,,,0,0.5,0.529411765,11024,2,2024_Jan_07_1540,MFTM_A_new1021,2021.2.3,60.10117432
,,,,,,,,stim/Instruction_adaptive.png,conditions/adaptive.xlsx,test,-0.6,-0.6,-0.6,0.6,0.6,left,L,,,,,0,1,1,1,0,17,17,89,,,,,,,,,,,,,,,,,,,,,,,,,,,,,,,,,,,,,,,,,,,,157.5271721,None,left,1,1.0936734,158.0268476,None,158.0268476,161.0325354,158.0268476,161.0325354,158.0268476,161.0325354,158.0268476,161.0325354,158.0268476,161.0325354,161.0146541,161.5152779,161.0146541,161.5152779,161.0146541,161.5152779,161.0146541,161.5152779,161.0146541,161.5152779,161.0146541,161.5152779,161.0146541,161.5152779,161.0146541,161.5152779,158.0268476,None,161.5152779,161.5152779,3,161.532744,None,162.2840758,None,,,,,,,0,0.5,0.555555556,11024,2,2024_Jan_07_1540,MFTM_A_new1021,2021.2.3,60.10117432
,,,,,,,,stim/Instruction_adaptive.png,conditions/adaptive.xlsx,test,0.6,0.6,0.6,-0.6,-0.6,right,R,,,,,0,1,1,1,0,18,18,20,,,,,,,,,,,,,,,,,,,,,,,,,,,,,,,,,,,,,,,,,,,,162.7846686,None,right,1,3.050898,163.2858892,None,163.2858892,166.2898347,163.2858892,166.2898347,163.2858892,166.2898347,163.2858892,166.2898347,163.2858892,166.2898347,166.2723369,166.7741837,166.2723369,166.7741837,166.2723369,166.7741837,166.2723369,166.7741837,166.2723369,166.7741837,166.2723369,166.7741837,166.2723369,166.7741837,166.2723369,166.7741837,163.2858892,None,166.7741837,166.7741837,3,166.7905226,None,167.5414175,None,,,,,,,0,0.5,0.578947368,11024,2,2024_Jan_07_1540,MFTM_A_new1021,2021.2.3,60.10117432
,,,,,,,,stim/Instruction_adaptive.png,conditions/adaptive.xlsx,test,0.6,0.6,0.6,-0.6,-0.6,right,R,,,,,0,1,1,1,0,19,19,64,,,,,,,,,,,,,,,,,,,,,,,,,,,,,,,,,,,,,,,,,,,,168.0415779,None,right,1,1.7058877,168.5427622,None,168.5427622,171.5478856,168.5427622,171.5478856,168.5427622,171.5478856,168.5427622,171.5478856,168.5427622,171.5478856,171.5310435,172.0312904,171.5310435,172.0312904,171.5310435,172.0312904,171.5310435,172.0312904,171.5310435,172.0312904,171.5310435,172.0312904,171.5310435,172.0312904,171.5310435,172.0312904,168.5427622,None,172.0312904,172.0312904,3,172.0473664,None,172.8005598,None,,,,,,,0,0.5,0.6,11024,2,2024_Jan_07_1540,MFTM_A_new1021,2021.2.3,60.10117432
,,,,,,,,stim/Instruction_adaptive.png,conditions/adaptive.xlsx,test,0.6,0.6,0.6,-0.6,-0.6,right,R,,,,,0,1,1,1,0,20,20,18,,,,,,,,,,,,,,,,,,,,,,,,,,,,,,,,,,,,,,,,,,,,173.3003697,None,left,0,2.5207988,173.8002366,None,173.8002366,176.8054086,173.8002366,176.8054086,173.8002366,176.8054086,173.8002366,176.8054086,173.8002366,176.8054086,176.7887653,177.2892174,176.7887653,177.2892174,176.7887653,177.2892174,176.7887653,177.2892174,176.7887653,177.2892174,176.7887653,177.2892174,176.7887653,177.2892174,176.7887653,177.2892174,173.8002366,None,177.2892174,177.2892174,3,177.3053919,None,178.0569848,None,,,,,,,0,0.5,0.571428571,11024,2,2024_Jan_07_1540,MFTM_A_new1021,2021.2.3,60.10117432
,,,,,,,,stim/Instruction_adaptive.png,conditions/adaptive.xlsx,test,-0.6,-0.6,-0.6,0.6,0.6,left,L,,,,,0,1,1,1,0,21,21,35,,,,,,,,,,,,,,,,,,,,,,,,,,,,,,,,,,,,,,,,,,,,178.5574785,None,left,1,2.0709161,179.0578653,None,179.0578653,182.0624595,179.0578653,182.0624595,179.0578653,182.0624595,179.0578653,182.0624595,179.0578653,182.0624595,182.0466104,182.5465597,182.0466104,182.5465597,182.0466104,182.5465597,182.0466104,182.5465597,182.0466104,182.5465597,182.0466104,182.5465597,182.0466104,182.5465597,182.0466104,182.5465597,179.0578653,None,182.5465597,182.5465597,3,182.5632438,None,183.3148721,None,,,,,,,0,0.5,0.590909091,11024,2,2024_Jan_07_1540,MFTM_A_new1021,2021.2.3,60.10117432
,,,,,,,,stim/Instruction_adaptive.png,conditions/adaptive.xlsx,test,-0.6,-0.6,-0.6,0.6,0.6,left,L,,,,,0,1,1,1,0,22,22,91,,,,,,,,,,,,,,,,,,,,,,,,,,,,,,,,,,,,,,,,,,,,183.8161229,None,left,1,2.0047264,184.3157162,None,184.3157162,187.3201583,184.3157162,187.3201583,184.3157162,187.3201583,184.3157162,187.3201583,184.3157162,187.3201583,187.3045175,187.80442,187.3045175,187.80442,187.3045175,187.80442,187.3045175,187.80442,187.3045175,187.80442,187.3045175,187.80442,187.3045175,187.80442,187.3045175,187.80442,184.3157162,None,187.80442,187.80442,3,187.8209695,None,188.5718755,None,,,,,,,0,0.5,0.608695652,11024,2,2024_Jan_07_1540,MFTM_A_new1021,2021.2.3,60.10117432
,,,,,,,,stim/Instruction_adaptive.png,conditions/adaptive.xlsx,test,-0.6,-0.6,-0.6,0.6,0.6,left,L,,,,,0,1,1,1,0,23,23,47,,,,,,,,,,,,,,,,,,,,,,,,,,,,,,,,,,,,,,,,,,,,189.0728505,None,left,1,1.6196027,189.5735431,None,189.5735431,192.5780225,189.5735431,192.5780225,189.5735431,192.5780225,189.5735431,192.5780225,189.5735431,192.5780225,192.5614728,193.062113,192.5614728,193.062113,192.5614728,193.062113,192.5614728,193.062113,192.5614728,193.062113,192.5614728,193.062113,192.5614728,193.062113,192.5614728,193.062113,189.5735431,None,193.062113,193.062113,3,193.0788161,None,193.8305413,None,,,,,,,0,0.54,0.625,11024,2,2024_Jan_07_1540,MFTM_A_new1021,2021.2.3,60.10117432
,,,,,,,,stim/Instruction_adaptive.png,conditions/adaptive.xlsx,test,-0.6,-0.6,-0.6,0.6,0.6,left,L,,,,,0,1,1,1,0,24,24,85,,,,,,,,,,,,,,,,,,,,,,,,,,,,,,,,,,,,,,,,,,,,194.3305861,None,left,1,2.1438979,194.83268,None,194.83268,197.837172,194.83268,197.837172,194.83268,197.837172,194.83268,197.837172,194.83268,197.837172,197.8191678,198.319817,197.8191678,198.319817,197.8191678,198.319817,197.8191678,198.319817,197.8191678,198.319817,197.8191678,198.319817,197.8191678,198.319817,197.8191678,198.319817,194.83268,None,198.319817,198.319817,3,198.336374,None,199.0883673,None,,,,,,,0,0.7,0.64,11024,2,2024_Jan_07_1540,MFTM_A_new1021,2021.2.3,60.10117432
,,,,,,,,stim/Instruction_adaptive.png,conditions/adaptive.xlsx,test,0.6,0.6,0.6,-0.6,-0.6,right,R,,,,,0,1,1,1,0,25,25,40,,,,,,,,,,,,,,,,,,,,,,,,,,,,,,,,,,,,,,,,,,,,199.5893172,None,right,1,2.7038459,200.0899158,None,200.0899158,203.0943269,200.0899158,203.0943269,200.0899158,203.0943269,200.0899158,203.0943269,200.0899158,203.0943269,203.0768911,203.5785386,203.0768911,203.5785386,203.0768911,203.5785386,203.0768911,203.5785386,203.0768911,203.5785386,203.0768911,203.5785386,203.0768911,203.5785386,203.0768911,203.5785386,200.0899158,None,203.5785386,203.5785386,3,203.5944547,None,204.3454235,None,,,,,,,0,0.84,0.653846154,11024,2,2024_Jan_07_1540,MFTM_A_new1021,2021.2.3,60.10117432
,,,,,,,,stim/Instruction_adaptive.png,conditions/adaptive.xlsx,test,0.6,0.6,0.6,-0.6,-0.6,right,R,,,,,0,1,1,1,0,26,26,12,,,,,,,,,,,,,,,,,,,,,,,,,,,,,,,,,,,,,,,,,,,,204.8471308,None,right,1,1.9335726,205.3472545,None,205.3472545,208.3514507,205.3472545,208.3514507,205.3472545,208.3514507,205.3472545,208.3514507,205.3472545,208.3514507,208.3347287,208.8362882,208.3347287,208.8362882,208.3347287,208.8362882,208.3347287,208.8362882,208.3347287,208.8362882,208.3347287,208.8362882,208.3347287,208.8362882,208.3347287,208.8362882,205.3472545,None,208.8362882,208.8362882,3,208.8523604,None,209.6034321,None,,,,,,,0,0.96,0.666666667,11024,2,2024_Jan_07_1540,MFTM_A_new1021,2021.2.3,60.10117432
,,,,,,,,stim/Instruction_adaptive.png,conditions/adaptive.xlsx,test,-0.6,-0.6,-0.6,0.6,0.6,left,L,,,,,0,1,1,1,0,27,27,51,,,,,,,,,,,,,,,,,,,,,,,,,,,,,,,,,,,,,,,,,,,,210.1040251,None,left,1,1.6280538,210.6047811,None,210.6047811,213.6098668,210.6047811,213.6098668,210.6047811,213.6098668,210.6047811,213.6098668,210.6047811,213.6098668,213.5932528,214.0955515,213.5932528,214.0955515,213.5932528,214.0955515,213.5932528,214.0955515,213.5932528,214.0955515,213.5932528,214.0955515,213.5932528,214.0955515,213.5932528,214.0955515,210.6047811,None,214.0955515,214.0955515,3,214.1098927,None,214.8610028,None,,,,,,,0,1.07,0.678571429,11024,2,2024_Jan_07_1540,MFTM_A_new1021,2021.2.3,60.10117432
,,,,,,,,stim/Instruction_adaptive.png,conditions/adaptive.xlsx,test,-0.6,-0.6,-0.6,0.6,0.6,left,L,,,,,0,1,1,1,0,28,28,21,,,,,,,,,,,,,,,,,,,,,,,,,,,,,,,,,,,,,,,,,,,,215.3617425,None,left,1,1.8667546,215.8625639,None,215.8625639,218.8672637,215.8625639,218.8672637,215.8625639,218.8672637,215.8625639,218.8672637,215.8625639,218.8672637,218.8514535,219.351575,218.8514535,219.351575,218.8514535,219.351575,218.8514535,219.351575,218.8514535,219.351575,218.8514535,219.351575,218.8514535,219.351575,218.8514535,219.351575,215.8625639,None,219.351575,219.351575,3,219.3676263,None,220.1186233,None,,,,,,,0,1.16,0.689655172,11024,2,2024_Jan_07_1540,MFTM_A_new1021,2021.2.3,60.10117432
,,,,,,,,stim/Instruction_adaptive.png,conditions/adaptive.xlsx,test,-0.6,-0.6,-0.6,0.6,0.6,left,L,,,,,0,1,1,1,0,29,29,61,,,,,,,,,,,,,,,,,,,,,,,,,,,,,,,,,,,,,,,,,,,,220.6202985,None,left,1,1.6642172,221.1203227,None,221.1203227,224.0752528,221.1203227,224.0752528,221.1203227,224.0752528,221.1203227,224.0752528,221.1203227,224.0752528,224.041323,224.5423221,224.041323,224.5423221,224.041323,224.5423221,224.041323,224.5423221,224.041323,224.5423221,224.041323,224.5423221,224.041323,224.5423221,224.041323,224.5423221,221.1203227,None,224.5423221,224.5423221,2.94,224.5753587,None,225.3266102,None,,,,,,,0,1.25,0.7,11024,2,2024_Jan_07_1540,MFTM_A_new1021,2021.2.3,60.10117432
,,,,,,,,stim/Instruction_adaptive.png,conditions/adaptive.xlsx,test,-0.6,-0.6,-0.6,0.6,0.6,left,L,,,,,0,1,1,1,0,30,30,11,,,,,,,,,,,,,,,,,,,,,,,,,,,,,,,,,,,,,,,,,,,,225.8284745,None,left,1,1.8645326,226.3285028,None,226.3285028,229.0987889,226.3285028,229.0987889,226.3285028,229.0987889,226.3285028,229.0987889,226.3285028,229.0987889,229.0828603,229.5834686,229.0828603,229.5834686,229.0828603,229.5834686,229.0828603,229.5834686,229.0828603,229.5834686,229.0828603,229.5834686,229.0828603,229.5834686,229.0828603,229.5834686,226.3285028,None,229.5834686,229.5834686,2.77,229.5998252,None,230.3508066,None,,,,,,,0,1.32,0.709677419,11024,2,2024_Jan_07_1540,MFTM_A_new1021,2021.2.3,60.10117432
,,,,,,,,stim/Instruction_adaptive.png,conditions/adaptive.xlsx,test,0.6,0.6,0.6,-0.6,-0.6,right,R,,,,,0,1,1,1,0,31,31,24,,,,,,,,,,,,,,,,,,,,,,,,,,,,,,,,,,,,,,,,,,,,230.8523499,None,left,0,2.2880944,231.3527368,None,231.3527368,234.0068159,231.3527368,234.0068159,231.3527368,234.0068159,231.3527368,234.0068159,231.3527368,234.0068159,233.9730019,234.4747502,233.9730019,234.4747502,233.9730019,234.4747502,233.9730019,234.4747502,233.9730019,234.4747502,233.9730019,234.4747502,233.9730019,234.4747502,233.9730019,234.4747502,231.3527368,None,234.4747502,234.4747502,2.64,234.5062077,None,235.2587557,None,,,,,,,0,1.11,0.6875,11024,2,2024_Jan_07_1540,MFTM_A_new1021,2021.2.3,60.10117432
,,,,,,,,stim/Instruction_adaptive.png,conditions/adaptive.xlsx,test,0.6,0.6,0.6,-0.6,-0.6,right,R,,,,,0,1,1,1,0,32,32,28,,,,,,,,,,,,,,,,,,,,,,,,,,,,,,,,,,,,,,,,,,,,235.7595308,None,right,1,2.7177828,236.2592591,None,236.2592591,239.2648924,236.2592591,239.2648924,236.2592591,239.2648924,236.2592591,239.2648924,236.2592591,239.2648924,239.2471321,239.7478206,239.2471321,239.7478206,239.2471321,239.7478206,239.2471321,239.7478206,239.2471321,239.7478206,239.2471321,239.7478206,239.2471321,239.7478206,239.2471321,239.7478206,236.2592591,None,239.7478206,239.7478206,3,239.7647973,None,240.5157921,None,,,,,,,0,1.19,0.696969697,11024,2,2024_Jan_07_1540,MFTM_A_new1021,2021.2.3,60.10117432
,,,,,,,,stim/Instruction_adaptive.png,conditions/adaptive.xlsx,test,-0.6,-0.6,-0.6,0.6,0.6,left,L,,,,,0,1,1,1,0,33,33,69,,,,,,,,,,,,,,,,,,,,,,,,,,,,,,,,,,,,,,,,,,,,241.0169184,None,left,1,1.9391941,241.5172997,None,241.5172997,244.4053511,241.5172997,244.4053511,241.5172997,244.4053511,241.5172997,244.4053511,241.5172997,244.4053511,244.3880901,244.8887927,244.3880901,244.8887927,244.3880901,244.8887927,244.3880901,244.8887927,244.3880901,244.8887927,244.3880901,244.8887927,244.3880901,244.8887927,244.3880901,244.8887927,241.5172997,None,244.8887927,244.8887927,2.88,244.9056058,None,245.6567217,None,,,,,,,0,1.26,0.705882353,11024,2,2024_Jan_07_1540,MFTM_A_new1021,2021.2.3,60.10117432
,,,,,,,,stim/Instruction_adaptive.png,conditions/adaptive.xlsx,test,-0.6,-0.6,-0.6,0.6,0.6,left,L,,,,,0,1,1,1,0,34,34,57,,,,,,,,,,,,,,,,,,,,,,,,,,,,,,,,,,,,,,,,,,,,246.1576831,None,left,1,2.0305118,246.6582808,None,246.6582808,249.4123033,246.6582808,249.4123033,246.6582808,249.4123033,246.6582808,249.4123033,246.6582808,249.4123033,249.3966602,249.8969793,249.3966602,249.8969793,249.3966602,249.8969793,249.3966602,249.8969793,249.3966602,249.8969793,249.3966602,249.8969793,249.3966602,249.8969793,249.3966602,249.8969793,246.6582808,None,249.8969793,249.8969793,2.75,249.9129239,None,250.6660801,None,,,,,,,0,1.32,0.714285714,11024,2,2024_Jan_07_1540,MFTM_A_new1021,2021.2.3,60.10117432
,,,,,,,,stim/Instruction_adaptive.png,conditions/adaptive.xlsx,test,0.6,0.6,0.6,-0.6,-0.6,right,R,,,,,0,1,1,1,0,35,35,96,,,,,,,,,,,,,,,,,,,,,,,,,,,,,,,,,,,,,,,,,,,,251.181934,None,right,1,2.022561,251.6821266,None,251.6821266,254.3365834,251.6821266,254.3365834,251.6821266,254.3365834,251.6821266,254.3365834,251.6821266,254.3365834,254.3029174,254.8039314,254.3029174,254.8039314,254.3029174,254.8039314,254.3029174,254.8039314,254.3029174,254.8039314,254.3029174,254.8039314,254.3029174,254.8039314,254.3029174,254.8039314,251.6821266,None,254.8039314,254.8039314,2.64,254.8370272,None,255.5886281,None,,,,,,,0,1.39,0.722222222,11024,2,2024_Jan_07_1540,MFTM_A_new1021,2021.2.3,60.10117432
,,,,,,,,stim/Instruction_adaptive.png,conditions/adaptive.xlsx,test,0.6,0.6,0.6,-0.6,-0.6,right,R,,,,,0,1,1,1,0,36,36,90,,,,,,,,,,,,,,,,,,,,,,,,,,,,,,,,,,,,,,,,,,,,256.0895904,None,right,1,1.4907863,256.5900904,None,256.5900904,259.1110549,256.5900904,259.1110549,256.5900904,259.1110549,256.5900904,259.1110549,256.5900904,259.1110549,259.0773208,259.5784931,259.0773208,259.5784931,259.0773208,259.5784931,259.0773208,259.5784931,259.0773208,259.5784931,259.0773208,259.5784931,259.0773208,259.5784931,259.0773208,259.5784931,256.5900904,None,259.5784931,259.5784931,2.51,259.6100664,None,260.3620245,None,,,,,,,0,1.44,0.72972973,11024,2,2024_Jan_07_1540,MFTM_A_new1021,2021.2.3,60.10117432
,,,,,,,,stim/Instruction_adaptive.png,conditions/adaptive.xlsx,test,-0.6,-0.6,-0.6,0.6,0.6,left,L,,,,,0,1,1,1,0,37,37,7,,,,,,,,,,,,,,,,,,,,,,,,,,,,,,,,,,,,,,,,,,,,260.8630075,None,left,1,1.413136,261.3637338,264.2849523,261.3637338,263.7842714,261.3637338,263.7842714,261.3637338,263.7842714,261.3637338,263.7842714,261.3637338,263.7842714,263.7667268,264.2682254,263.7667268,264.2682254,263.7667268,264.2682254,263.7667268,264.2682254,263.7667268,264.2682254,263.7667268,264.2682254,263.7667268,264.2682254,263.7667268,264.2682254,261.3637338,None,264.2682254,264.3019348,2.42,264.3183153,None,265.0694321,None,,,,,,,[0.02868421],1.5,0.736842105,11024,2,2024_Jan_07_1540,MFTM_A_new1021,2021.2.3,60.10117432
,,,,,,,,stim/Instruction_adaptive.png,conditions/adaptive.xlsx,test,0.6,0.6,0.6,-0.6,-0.6,right,R,,,,,0,1,1,1,0,38,38,44,,,,,,,,,,,,,,,,,,,,,,,,,,,,,,,,,,,,,,,,,,,,265.5699427,None,right,1,1.6023167,266.0705731,268.9086733,266.0705731,268.4083603,266.0705731,268.4083603,266.0705731,268.4083603,266.0705731,268.4083603,266.0705731,268.4083603,268.391387,268.8910744,268.391387,268.8910744,268.391387,268.8910744,268.391387,268.8910744,268.391387,268.8910744,268.391387,268.8910744,268.391387,268.8910744,268.391387,268.8910744,266.0705731,None,268.8910744,268.9255112,2.33,268.9423052,None,269.6934889,None,,,,,,,[0.03230769],1.55,0.743589744,11024,2,2024_Jan_07_1540,MFTM_A_new1021,2021.2.3,60.10117432
,,,,,,,,stim/Instruction_adaptive.png,conditions/adaptive.xlsx,test,0.6,0.6,0.6,-0.6,-0.6,right,R,,,,,0,1,1,1,0,39,39,58,,,,,,,,,,,,,,,,,,,,,,,,,,,,,,,,,,,,,,,,,,,,270.1935407,None,right,1,2.8267099,270.6938851,273.4478079,270.6938851,272.9471312,270.6938851,272.9471312,270.6938851,272.9471312,270.6938851,272.9471312,270.6938851,272.9471312,272.9302422,273.4311912,272.9302422,273.4311912,272.9302422,273.4311912,272.9302422,273.4311912,272.9302422,273.4311912,272.9302422,273.4311912,272.9302422,273.4311912,272.9302422,273.4311912,270.6938851,None,273.4311912,273.5488211,2.25,273.5646339,None,274.316547,None,,,,,,,[0.03775],1.6,0.75,11024,2,2024_Jan_07_1540,MFTM_A_new1021,2021.2.3,60.10117432
,,,,,,,,stim/Instruction_adaptive.png,conditions/adaptive.xlsx,test,-0.6,-0.6,-0.6,0.6,0.6,left,L,,,,,0,1,1,1,0,40,40,73,,,,,,,,,,,,,,,,,,,,,,,,,,,,,,,,,,,,,,,,,,,,274.8166163,None,left,1,1.7875418,275.3171431,277.9879334,275.3171431,277.4879528,275.3171431,277.4879528,275.3171431,277.4879528,275.3171431,277.4879528,275.3171431,277.4879528,277.4710543,277.9714017,277.4710543,277.9714017,277.4710543,277.9714017,277.4710543,277.9714017,277.4710543,277.9714017,277.4710543,277.9714017,277.4710543,277.9714017,277.4710543,277.9714017,275.3171431,None,277.9714017,278.0213315,2.17,278.0381901,None,278.7897337,None,,,,,,,[0.04487805],1.64,0.756097561,11024,2,2024_Jan_07_1540,MFTM_A_new1021,2021.2.3,60.10117432
,,,,,,,,stim/Instruction_adaptive.png,conditions/adaptive.xlsx,test,0.6,0.6,0.6,-0.6,-0.6,right,R,,,,,0,1,1,1,0,41,41,4,,,,,,,,,,,,,,,,,,,,,,,,,,,,,,,,,,,,,,,,,,,,279.2904434,None,right,1,2.6185831,279.7906045,282.4111405,279.7906045,281.9102485,279.7906045,281.9102485,279.7906045,281.9102485,279.7906045,281.9102485,279.7906045,281.9102485,281.8776426,282.37845,281.8776426,282.37845,281.8776426,282.37845,281.8776426,282.37845,281.8776426,282.37845,281.8776426,282.37845,281.8776426,282.37845,281.8776426,282.37845,279.7906045,None,282.37845,282.4445279,2.11,282.4613074,None,283.2133495,None,,,,,,,[0.05309524],1.69,0.761904762,11024,2,2024_Jan_07_1540,MFTM_A_new1021,2021.2.3,60.10117432
,,,,,,,,stim/Instruction_adaptive.png,conditions/adaptive.xlsx,test,-0.6,-0.6,-0.6,0.6,0.6,left,L,,,,,0,1,1,1,0,42,42,87,,,,,,,,,,,,,,,,,,,,,,,,,,,,,,,,,,,,,,,,,,,,283.7131621,None,left,1,1.7387309,284.2138409,286.767831,284.2138409,286.267266,284.2138409,286.267266,284.2138409,286.267266,284.2138409,286.267266,284.2138409,286.267266,286.2340876,286.7351247,286.2340876,286.7351247,286.2340876,286.7351247,286.2340876,286.7351247,286.2340876,286.7351247,286.2340876,286.7351247,286.2340876,286.7351247,286.2340876,286.7351247,284.2138409,None,286.7351247,286.801634,2.04,286.8177081,None,287.5688792,None,,,,,,,[0.06255814],1.73,0.76744186,11024,2,2024_Jan_07_1540,MFTM_A_new1021,2021.2.3,60.10117432
,,,,,,,,stim/Instruction_adaptive.png,conditions/adaptive.xlsx,test,-0.6,-0.6,-0.6,0.6,0.6,left,L,,,,,0,1,1,1,0,43,43,33,,,,,,,,,,,,,,,,,,,,,,,,,,,,,,,,,,,,,,,,,,,,288.0696122,None,left,1,1.2784332,288.5703616,291.0580999,288.5703616,290.5574326,288.5703616,290.5574326,288.5703616,290.5574326,288.5703616,290.5574326,288.5703616,290.5574326,290.5397273,291.0412961,290.5397273,291.0412961,290.5397273,291.0412961,290.5397273,291.0412961,290.5397273,291.0412961,290.5397273,291.0412961,290.5397273,291.0412961,290.5397273,291.0412961,288.5703616,None,291.0412961,None,1.98,291.1239524,None,291.8764173,None,,,,,,,[0.07295455],1.77,0.772727273,11024,2,2024_Jan_07_1540,MFTM_A_new1021,2021.2.3,60.10117432
,,,,,,,,stim/Instruction_adaptive.png,conditions/adaptive.xlsx,test,-0.6,-0.6,-0.6,0.6,0.6,left,L,,,,,0,1,1,1,0,44,44,19,,,,,,,,,,,,,,,,,,,,,,,,,,,,,,,,,,,,,,,,,,,,292.3757743,None,left,1,1.4514622,292.8773153,295.3138232,292.8773153,294.8140705,292.8773153,294.8140705,292.8773153,294.8140705,292.8773153,294.8140705,292.8773153,294.8140705,294.7961188,295.2979728,294.7961188,295.2979728,294.7961188,295.2979728,294.7961188,295.2979728,294.7961188,295.2979728,294.7961188,295.2979728,294.7961188,295.2979728,294.7961188,295.2979728,292.8773153,None,295.2979728,295.3817051,1.93,295.3975485,None,296.1481564,None,,,,,,,[0.084],1.81,0.777777778,11024,2,2024_Jan_07_1540,MFTM_A_new1021,2021.2.3,60.10117432
,,,,,,,,stim/Instruction_adaptive.png,conditions/adaptive.xlsx,test,0.6,0.6,0.6,-0.6,-0.6,right,R,,,,,0,1,1,1,0,45,45,74,,,,,,,,,,,,,,,,,,,,,,,,,,,,,,,,,,,,,,,,,,,,296.6489935,None,right,1,1.3071105,297.1496125,299.5364713,297.1496125,299.0360088,297.1496125,299.0360088,297.1496125,299.0360088,297.1496125,299.0360088,297.1496125,299.0360088,299.020081,299.5205862,299.020081,299.5205862,299.020081,299.5205862,299.020081,299.5205862,299.020081,299.5205862,299.020081,299.5205862,299.020081,299.5205862,299.020081,299.5205862,297.1496125,None,299.5205862,299.6199633,1.88,299.6367232,None,300.3887433,None,,,,,,,[0.09565217],1.84,0.782608696,11024,2,2024_Jan_07_1540,MFTM_A_new1021,2021.2.3,60.10117432
,,,,,,,,stim/Instruction_adaptive.png,conditions/adaptive.xlsx,test,0.6,0.6,0.6,-0.6,-0.6,right,R,,,,,0,1,1,1,0,46,46,66,,,,,,,,,,,,,,,,,,,,,,,,,,,,,,,,,,,,,,,,,,,,300.8900504,None,right,1,1.1075754,301.3892983,303.7437193,301.3892983,303.2418971,301.3892983,303.2418971,301.3892983,303.2418971,301.3892983,303.2418971,301.3892983,303.2418971,303.2084583,303.7094522,303.2084583,303.7094522,303.2084583,303.7094522,303.2084583,303.7094522,303.2084583,303.7094522,303.2084583,303.7094522,303.2084583,303.7094522,303.2084583,303.7094522,301.3892983,None,303.7094522,303.8262092,1.84,303.8427994,None,304.5945895,None,,,,,,,[0.10765957],1.88,0.787234043,11024,2,2024_Jan_07_1540,MFTM_A_new1021,2021.2.3,60.10117432
,,,,,,,,stim/Instruction_adaptive.png,conditions/adaptive.xlsx,test,0.6,0.6,0.6,-0.6,-0.6,right,R,,,,,0,1,1,1,0,47,47,34,,,,,,,,,,,,,,,,,,,,,,,,,,,,,,,,,,,,,,,,,,,,305.0963497,None,right,1,1.4370954,305.5956531,307.8993526,305.5956531,307.3989825,305.5956531,307.3989825,305.5956531,307.3989825,305.5956531,307.3989825,305.5956531,307.3989825,307.3648408,307.8661523,307.3648408,307.8661523,307.3648408,307.8661523,307.3648408,307.8661523,307.3648408,307.8661523,307.3648408,307.8661523,307.3648408,307.8661523,307.3648408,307.8661523,305.5956531,None,307.8661523,307.9989831,1.79,308.0166615,None,308.7669054,None,,,,,,,[0.12020833],1.91,0.791666667,11024,2,2024_Jan_07_1540,MFTM_A_new1021,2021.2.3,60.10117432
,,,,,,,,stim/Instruction_adaptive.png,conditions/adaptive.xlsx,test,-0.6,-0.6,-0.6,0.6,0.6,left,L,,,,,0,1,1,1,0,48,48,79,,,,,,,,,,,,,,,,,,,,,,,,,,,,,,,,,,,,,,,,,,,,309.267491,None,left,1,1.4954687,309.7696443,312.0227071,309.7696443,311.5221812,309.7696443,311.5221812,309.7696443,311.5221812,309.7696443,311.5221812,309.7696443,311.5221812,311.5043778,312.0049346,311.5043778,312.0049346,311.5043778,312.0049346,311.5043778,312.0049346,311.5043778,312.0049346,311.5043778,312.0049346,311.5043778,312.0049346,311.5043778,312.0049346,309.7696443,None,312.0049346,312.1387566,1.75,312.1553339,None,312.9062935,None,,,,,,,[0.13306122],1.95,0.795918367,11024,2,2024_Jan_07_1540,MFTM_A_new1021,2021.2.3,60.10117432
,,,,,,,,stim/Instruction_adaptive.png,conditions/adaptive.xlsx,test,-0.6,-0.6,-0.6,0.6,0.6,left,L,,,,,0,1,1,1,0,49,49,77,,,,,,,,,,,,,,,,,,,,,,,,,,,,,,,,,,,,,,,,,,,,313.4076125,None,left,1,1.4686821,313.9083554,316.1114225,313.9083554,315.6109883,313.9083554,315.6109883,313.9083554,315.6109883,313.9083554,315.6109883,313.9083554,315.6109883,315.5933331,316.0950758,315.5933331,316.0950758,315.5933331,316.0950758,315.5933331,316.0950758,315.5933331,316.0950758,315.5933331,316.0950758,315.5933331,316.0950758,315.5933331,316.0950758,313.9083554,None,316.0950758,316.2444443,1.7,316.2611897,None,317.0124013,None,,,,,,,[0.1464],1.98,0.8,11024,2,2024_Jan_07_1540,MFTM_A_new1021,2021.2.3,60.10117432
,,,,,,,,stim/Instruction_adaptive.png,conditions/adaptive.xlsx,test,-0.6,-0.6,-0.6,0.6,0.6,left,L,,,,,0,1,1,1,0,50,50,71,,,,,,,,,,,,,,,,,,,,,,,,,,,,,,,,,,,,,,,,,,,,317.5141291,None,left,1,1.178781,318.0139929,320.1836893,318.0139929,319.683314,318.0139929,319.683314,318.0139929,319.683314,318.0139929,319.683314,318.0139929,319.683314,319.6664178,320.1667693,319.6664178,320.1667693,319.6664178,320.1667693,319.6664178,320.1667693,319.6664178,320.1667693,319.6664178,320.1667693,319.6664178,320.1667693,319.6664178,320.1667693,318.0139929,None,320.1667693,320.3344676,1.67,320.3506993,None,321.1023144,None,,,,,,,[0.15980392],2.01,0.803921569,11024,2,2024_Jan_07_1540,MFTM_A_new1021,2021.2.3,60.10117432
,,,,,,,,stim/Instruction_adaptive.png,conditions/adaptive.xlsx,test,-0.6,-0.6,-0.6,0.6,0.6,left,L,,,,,0,1,1,1,0,51,51,81,,,,,,,,,,,,,,,,,,,,,,,,,,,,,,,,,,,,,,,,,,,,321.6025329,None,left,1,1.9455848,322.1032254,324.2397873,322.1032254,323.7389449,322.1032254,323.7389449,322.1032254,323.7389449,322.1032254,323.7389449,322.1032254,323.7389449,323.722509,324.2230913,323.722509,324.2230913,323.722509,324.2230913,323.722509,324.2230913,323.722509,324.2230913,323.722509,324.2230913,323.722509,324.2230913,323.722509,324.2230913,322.1032254,None,324.2230913,None,1.63,324.4067915,None,325.1578898,None,,,,,,,[0.17346154],2.04,0.807692308,11024,2,2024_Jan_07_1540,MFTM_A_new1021,2021.2.3,60.10117432
,,,,,,,,stim/Instruction_adaptive.png,conditions/adaptive.xlsx,test,-0.6,-0.6,-0.6,0.6,0.6,left,L,,,,,0,1,1,1,0,52,52,31,,,,,,,,,,,,,,,,,,,,,,,,,,,,,,,,,,,,,,,,,,,,325.6600828,None,left,1,1.1134953,326.1596017,328.2634782,326.1596017,327.7628629,326.1596017,327.7628629,326.1596017,327.7628629,326.1596017,327.7628629,326.1596017,327.7628629,327.7450024,328.2465547,327.7450024,328.2465547,327.7450024,328.2465547,327.7450024,328.2465547,327.7450024,328.2465547,327.7450024,328.2465547,327.7450024,328.2465547,327.7450024,328.2465547,326.1596017,None,328.2465547,None,1.6,328.4470148,None,329.1981423,None,,,,,,,[0.18716981],2.07,0.811320755,11024,2,2024_Jan_07_1540,MFTM_A_new1021,2021.2.3,60.10117432
,,,,,,,,stim/Instruction_adaptive.png,conditions/adaptive.xlsx,test,-0.6,-0.6,-0.6,0.6,0.6,left,L,,,,,0,1,1,1,0,53,53,15,,,,,,,,,,,,,,,,,,,,,,,,,,,,,,,,,,,,,,,,,,,,329.6984993,None,left,1,1.8422861,330.198486,332.2683677,330.198486,331.7676021,330.198486,331.7676021,330.198486,331.7676021,330.198486,331.7676021,330.198486,331.7676021,331.7512763,332.2516061,331.7512763,332.2516061,331.7512763,332.2516061,331.7512763,332.2516061,331.7512763,332.2516061,331.7512763,332.2516061,331.7512763,332.2516061,331.7512763,332.2516061,330.198486,None,332.2516061,332.4542657,1.57,332.469005,None,333.2198353,None,,,,,,,[0.20092593],2.1,0.814814815,11024,2,2024_Jan_07_1540,MFTM_A_new1021,2021.2.3,60.10117432
,,,,,,,,stim/Instruction_adaptive.png,conditions/adaptive.xlsx,test,0.6,0.6,0.6,-0.6,-0.6,right,R,,,,,0,1,1,1,0,54,54,54,,,,,,,,,,,,,,,,,,,,,,,,,,,,,,,,,,,,,,,,,,,,333.7209455,None,right,1,1.6842075,334.2212609,336.2576351,334.2212609,335.7574148,334.2212609,335.7574148,334.2212609,335.7574148,334.2212609,335.7574148,334.2212609,335.7574148,335.740855,336.2408245,335.740855,336.2408245,335.740855,336.2408245,335.740855,336.2408245,335.740855,336.2408245,335.740855,336.2408245,335.740855,336.2408245,335.740855,336.2408245,334.2212609,None,336.2408245,336.4579416,1.53,336.4745023,None,337.2263407,None,,,,,,,[0.21490909],2.13,0.818181818,11024,2,2024_Jan_07_1540,MFTM_A_new1021,2021.2.3,60.10117432
,,,,,,,,stim/Instruction_adaptive.png,conditions/adaptive.xlsx,test,-0.6,-0.6,-0.6,0.6,0.6,left,L,,,,,0,1,1,1,0,55,55,27,,,,,,,,,,,,,,,,,,,,,,,,,,,,,,,,,,,,,,,,,,,,337.7275233,None,left,1,1.5576219,338.2270019,340.2305667,338.2270019,339.729456,338.2270019,339.729456,338.2270019,339.729456,338.2270019,339.729456,338.2270019,339.729456,339.7126804,340.2139324,339.7126804,340.2139324,339.7126804,340.2139324,339.7126804,340.2139324,339.7126804,340.2139324,339.7126804,340.2139324,339.7126804,340.2139324,339.7126804,340.2139324,338.2270019,None,340.2139324,340.4470917,1.5,340.4637557,None,341.2161477,None,,,,,,,[0.22892857],2.15,0.821428571,11024,2,2024_Jan_07_1540,MFTM_A_new1021,2021.2.3,60.10117432
,,,,,,,,stim/Instruction_adaptive.png,conditions/adaptive.xlsx,test,0.6,0.6,0.6,-0.6,-0.6,right,R,,,,,0,1,1,1,0,56,56,92,,,,,,,,,,,,,,,,,,,,,,,,,,,,,,,,,,,,,,,,,,,,341.7166768,None,right,1,1.5111911,342.2175149,344.2028666,342.2175149,343.7023987,342.2175149,343.7023987,342.2175149,343.7023987,342.2175149,343.7023987,342.2175149,343.7023987,343.6857695,344.1866023,343.6857695,344.1866023,343.6857695,344.1866023,343.6857695,344.1866023,343.6857695,344.1866023,343.6857695,344.1866023,343.6857695,344.1866023,343.6857695,344.1866023,342.2175149,None,344.169289,344.4198909,1.48,344.4530964,None,345.2040168,None,,,,,,,[0.24280702],2.18,0.824561404,11024,2,2024_Jan_07_1540,MFTM_A_new1021,2021.2.3,60.10117432
,,,,,,,,stim/Instruction_adaptive.png,conditions/adaptive.xlsx,test,0.6,0.6,0.6,-0.6,-0.6,right,R,,,,,0,1,1,1,0,57,57,78,,,,,,,,,,,,,,,,,,,,,,,,,,,,,,,,,,,,,,,,,,,,345.7056252,None,right,1,1.1155527,346.2056929,348.1585105,346.2056929,347.6578658,346.2056929,347.6578658,346.2056929,347.6578658,346.2056929,347.6578658,346.2056929,347.6578658,347.6410296,348.1424648,347.6410296,348.1424648,347.6410296,348.1424648,347.6410296,348.1424648,347.6410296,348.1424648,347.6410296,348.1424648,347.6410296,348.1424648,347.6410296,348.1424648,346.2056929,None,348.1424648,348.4095999,1.45,348.4263012,None,349.1773339,None,,,,,,,[0.25672414],2.21,0.827586207,11024,2,2024_Jan_07_1540,MFTM_A_new1021,2021.2.3,60.10117432
,,,,,,,,stim/Instruction_adaptive.png,conditions/adaptive.xlsx,test,0.6,0.6,0.6,-0.6,-0.6,right,R,,,,,0,1,1,1,0,58,58,22,,,,,,,,,,,,,,,,,,,,,,,,,,,,,,,,,,,,,,,,,,,,349.6780696,None,right,1,1.5497778,350.1792594,352.0985584,350.1792594,351.6146693,350.1792594,351.6146693,350.1792594,351.6146693,350.1792594,351.6146693,350.1792594,351.6146693,351.5804707,352.0817911,351.5804707,352.0817911,351.5804707,352.0817911,351.5804707,352.0817911,351.5804707,352.0817911,351.5804707,352.0817911,351.5804707,352.0817911,351.5804707,352.0817911,350.1792594,None,352.0817911,352.3654241,1.42,352.3813596,None,353.1325059,None,,,,,,,[0.27067797],2.23,0.830508475,11024,2,2024_Jan_07_1540,MFTM_A_new1021,2021.2.3,60.10117432
,,,,,,,,stim/Instruction_adaptive.png,conditions/adaptive.xlsx,test,0.6,0.6,0.6,-0.6,-0.6,right,R,,,,,0,1,1,1,0,59,59,0,,,,,,,,,,,,,,,,,,,,,,,,,,,,,,,,,,,,,,,,,,,,353.6331666,None,left,0,1.1698893,354.1348317,356.0373093,354.1348317,355.5367018,354.1348317,355.5367018,354.1348317,355.5367018,354.1348317,355.5367018,354.1348317,355.5367018,355.5194571,356.0202144,355.5194571,356.0202144,355.5194571,356.0202144,355.5194571,356.0202144,355.5194571,356.0202144,355.5194571,356.0202144,355.5194571,356.0202144,355.5194571,356.0202144,354.1348317,None,356.0202144,356.3048628,1.4,356.3207079,None,357.0723896,None,,,,,,,[0.2845],2.16,0.816666667,11024,2,2024_Jan_07_1540,MFTM_A_new1021,2021.2.3,60.10117432
,,,,,,,,stim/Instruction_adaptive.png,conditions/adaptive.xlsx,test,0.6,0.6,0.6,-0.6,-0.6,right,R,,,,,0,1,1,1,0,60,60,98,,,,,,,,,,,,,,,,,,,,,,,,,,,,,,,,,,,,,,,,,,,,357.573108,None,right,1,1.567884,358.0732853,360.0428082,358.0732853,359.5421642,358.0732853,359.5421642,358.0732853,359.5421642,358.0732853,359.5421642,358.0732853,359.5421642,359.526222,360.0268689,359.526222,360.0268689,359.526222,360.0268689,359.526222,360.0268689,359.526222,360.0268689,359.526222,360.0268689,359.526222,360.0268689,359.526222,360.0268689,358.0732853,None,360.0268689,360.3270212,1.47,360.3432607,None,361.0951706,None,,,,,,,[0.29672131],2.18,0.819672131,11024,2,2024_Jan_07_1540,MFTM_A_new1021,2021.2.3,60.10117432
,,,,,,,,stim/Instruction_adaptive.png,conditions/adaptive.xlsx,test,0.6,0.6,0.6,-0.6,-0.6,right,R,,,,,0,1,1,1,0,61,61,6,,,,,,,,,,,,,,,,,,,,,,,,,,,,,,,,,,,,,,,,,,,,361.5951055,None,left,0,1.608971,362.0958707,364.0495138,362.0958707,363.5485192,362.0958707,363.5485192,362.0958707,363.5485192,362.0958707,363.5485192,362.0958707,363.5485192,363.5320403,364.0329766,363.5320403,364.0329766,363.5320403,364.0329766,363.5320403,364.0329766,363.5320403,364.0329766,363.5320403,364.0329766,363.5320403,364.0329766,363.5320403,364.0329766,362.0958707,None,364.0329766,364.3500017,1.45,364.3658649,None,365.1172989,None,,,,,,,[0.30887097],2.11,0.806451613,11024,2,2024_Jan_07_1540,MFTM_A_new1021,2021.2.3,60.10117432
,,,,,,,,stim/Instruction_adaptive.png,conditions/adaptive.xlsx,test,-0.6,-0.6,-0.6,0.6,0.6,left,L,,,,,0,1,1,1,0,62,62,45,,,,,,,,,,,,,,,,,,,,,,,,,,,,,,,,,,,,,,,,,,,,365.617844,None,left,1,1.2192991,366.1183633,368.1387818,366.1183633,367.6382059,366.1183633,367.6382059,366.1183633,367.6382059,366.1183633,367.6382059,366.1183633,367.6382059,367.6207441,368.1218469,367.6207441,368.1218469,367.6207441,368.1218469,367.6207441,368.1218469,367.6207441,368.1218469,367.6207441,368.1218469,367.6207441,368.1218469,367.6207441,368.1218469,366.1183633,None,368.1218469,368.4564735,1.52,368.4716004,None,369.2229212,None,,,,,,,[0.31952381],2.14,0.80952381,11024,2,2024_Jan_07_1540,MFTM_A_new1021,2021.2.3,60.10117432
,,,,,,,,stim/Instruction_adaptive.png,conditions/adaptive.xlsx,test,0.6,0.6,0.6,-0.6,-0.6,right,R,,,,,0,1,1,1,0,63,63,52,,,,,,,,,,,,,,,,,,,,,,,,,,,,,,,,,,,,,,,,,,,,369.7246364,None,right,1,1.472516,370.224211,372.2275921,370.224211,371.7273008,370.224211,371.7273008,370.224211,371.7273008,370.224211,371.7273008,370.224211,371.7273008,371.6935765,372.1943159,371.6935765,372.1943159,371.6935765,372.1943159,371.6935765,372.1943159,371.6935765,372.1943159,371.6935765,372.1943159,371.6935765,372.1943159,371.6935765,372.1943159,370.224211,None,372.1943159,372.5297304,1.49,372.5452626,None,373.2957329,None,,,,,,,[0.3303125],2.16,0.8125,11024,2,2024_Jan_07_1540,MFTM_A_new1021,2021.2.3,60.10117432
,,,,,,,,stim/Instruction_adaptive.png,conditions/adaptive.xlsx,test,-0.6,-0.6,-0.6,0.6,0.6,left,L,,,,,0,1,1,1,0,64,64,17,,,,,,,,,,,,,,,,,,,,,,,,,,,,,,,,,,,,,,,,,,,,373.7966577,None,left,1,1.7518512,374.297926,376.2839948,374.297926,375.7835765,374.297926,375.7835765,374.297926,375.7835765,374.297926,375.7835765,374.297926,375.7835765,375.7500341,376.2501934,375.7500341,376.2501934,375.7500341,376.2501934,375.7500341,376.2501934,375.7500341,376.2501934,375.7500341,376.2501934,375.7500341,376.2501934,375.7500341,376.2501934,374.297926,None,376.2501934,376.6006135,1.47,376.6172548,None,377.3686783,None,,,,,,,[0.34107692],2.18,0.815384615,11024,2,2024_Jan_07_1540,MFTM_A_new1021,2021.2.3,60.10117432
,,,,,,,,stim/Instruction_adaptive.png,conditions/adaptive.xlsx,test,0.6,0.6,0.6,-0.6,-0.6,right,R,,,,,0,1,1,1,0,65,65,8,,,,,,,,,,,,,,,,,,,,,,,,,,,,,,,,,,,,,,,,,,,,377.8702928,None,left,0,1.7576907,378.3714261,380.3229574,378.3714261,379.8223345,378.3714261,379.8223345,378.3714261,379.8223345,378.3714261,379.8223345,378.3714261,379.8223345,379.8054818,380.3063892,379.8054818,380.3063892,379.8054818,380.3063892,379.8054818,380.3063892,379.8054818,380.3063892,379.8054818,380.3063892,379.8054818,380.3063892,379.8054818,380.3063892,378.3714261,None,380.3063892,380.6581375,1.45,380.6727394,None,381.4251486,None,,,,,,,[0.35181818],2.11,0.803030303,11024,2,2024_Jan_07_1540,MFTM_A_new1021,2021.2.3,60.10117432
,,,,,,,,stim/Instruction_adaptive.png,conditions/adaptive.xlsx,test,-0.6,-0.6,-0.6,0.6,0.6,left,L,,,,,0,1,1,1,0,66,66,13,,,,,,,,,,,,,,,,,,,,,,,,,,,,,,,,,,,,,,,,,,,,381.9262635,None,left,1,1.2301081,382.4266987,384.4628142,382.4266987,383.9620594,382.4266987,383.9620594,382.4266987,383.9620594,382.4266987,383.9620594,382.4266987,383.9620594,383.9284679,384.4288815,383.9284679,384.4288815,383.9284679,384.4288815,383.9284679,384.4288815,383.9284679,384.4288815,383.9284679,384.4288815,383.9284679,384.4288815,383.9284679,384.4288815,382.4266987,None,384.4288815,384.7962876,1.52,384.8127336,None,385.5638295,None,,,,,,,[0.36119403],2.14,0.805970149,11024,2,2024_Jan_07_1540,MFTM_A_new1021,2021.2.3,60.10117432
,,,,,,,,stim/Instruction_adaptive.png,conditions/adaptive.xlsx,test,-0.6,-0.6,-0.6,0.6,0.6,left,L,,,,,0,1,1,1,0,67,67,23,,,,,,,,,,,,,,,,,,,,,,,,,,,,,,,,,,,,,,,,,,,,386.0653534,None,right,0,1.4268717,386.5659228,388.568441,386.5659228,388.0683625,386.5659228,388.0683625,386.5659228,388.0683625,386.5659228,388.0683625,386.5659228,388.0683625,388.0345417,388.5351639,388.0345417,388.5351639,388.0345417,388.5351639,388.0345417,388.5351639,388.0345417,388.5351639,388.0345417,388.5351639,388.0345417,388.5351639,388.0345417,388.5351639,386.5659228,None,388.5351639,388.9190444,1.49,388.9357703,None,389.6869973,None,,,,,,,[0.37073529],2.07,0.794117647,11024,2,2024_Jan_07_1540,MFTM_A_new1021,2021.2.3,60.10117432
,,,,,,,,stim/Instruction_adaptive.png,conditions/adaptive.xlsx,test,-0.6,-0.6,-0.6,0.6,0.6,left,L,,,,,0,1,1,1,0,68,68,37,,,,,,,,,,,,,,,,,,,,,,,,,,,,,,,,,,,,,,,,,,,,390.1886112,None,left,1,1.0886201,390.6883617,392.7589576,390.6883617,392.2744474,390.6883617,392.2744474,390.6883617,392.2744474,390.6883617,392.2744474,390.6883617,392.2744474,392.240616,392.742402,392.240616,392.742402,392.240616,392.742402,392.240616,392.742402,392.240616,392.742402,392.240616,392.742402,392.240616,392.742402,392.240616,392.742402,390.6883617,None,392.742402,393.1255676,1.57,393.1419503,None,393.89319,None,,,,,,,[0.37884058],2.09,0.797101449,11024,2,2024_Jan_07_1540,MFTM_A_new1021,2021.2.3,60.10117432
,,,,,,,,stim/Instruction_adaptive.png,conditions/adaptive.xlsx,test,0.6,0.6,0.6,-0.6,-0.6,right,R,,,,,0,1,1,1,0,69,69,80,,,,,,,,,,,,,,,,,,,,,,,,,,,,,,,,,,,,,,,,,,,,394.3944936,None,left,0,1.1624491,394.8951865,396.9499926,394.8951865,396.4473191,394.8951865,396.4473191,394.8951865,396.4473191,394.8951865,396.4473191,394.8951865,396.4473191,396.4300388,396.9307712,396.4300388,396.9307712,396.4300388,396.9307712,396.4300388,396.9307712,396.4300388,396.9307712,396.4300388,396.9307712,396.4300388,396.9307712,396.4300388,396.9307712,394.8951865,None,396.9307712,None,1.55,397.3324692,None,398.0826587,None,,,,,,,[0.387],2.02,0.785714286,11024,2,2024_Jan_07_1540,MFTM_A_new1021,2021.2.3,60.10117432
,,,,,,,,stim/Instruction_adaptive.png,conditions/adaptive.xlsx,test,-0.6,-0.6,-0.6,0.6,0.6,left,L,,,,,0,1,1,1,0,70,70,75,,,,,,,,,,,,,,,,,,,,,,,,,,,,,,,,,,,,,,,,,,,,398.583066,None,left,1,1.0681131,399.0846524,401.2048979,399.0846524,400.7203462,399.0846524,400.7203462,399.0846524,400.7203462,399.0846524,400.7203462,399.0846524,400.7203462,400.6867111,401.1872406,400.6867111,401.1872406,400.6867111,401.1872406,400.6867111,401.1872406,400.6867111,401.1872406,400.6867111,401.1872406,400.6867111,401.1872406,400.6867111,401.1872406,399.0846524,None,401.1872406,401.5893928,1.62,401.6043807,None,402.3562216,None,,,,,,,[0.39394366],2.04,0.788732394,11024,2,2024_Jan_07_1540,MFTM_A_new1021,2021.2.3,60.10117432
,,,,,,,,stim/Instruction_adaptive.png,conditions/adaptive.xlsx,test,-0.6,-0.6,-0.6,0.6,0.6,left,L,,,,,0,1,1,1,0,71,71,83,,,,,,,,,,,,,,,,,,,,,,,,,,,,,,,,,,,,,,,,,,,,402.8568418,None,left,1,0.7643224,403.3568046,405.4607182,403.3568046,404.9594808,403.3568046,404.9594808,403.3568046,404.9594808,403.3568046,404.9594808,403.3568046,404.9594808,404.9428321,405.4435517,404.9428321,405.4435517,404.9428321,405.4435517,404.9428321,405.4435517,404.9428321,405.4435517,404.9428321,405.4435517,404.9428321,405.4435517,404.9428321,405.4435517,403.3568046,None,405.4435517,405.8467774,1.6,405.8605633,None,406.6126913,None,,,,,,,[0.40097222],2.07,0.791666667,11024,2,2024_Jan_07_1540,MFTM_A_new1021,2021.2.3,60.10117432
,,,,,,,,stim/Instruction_adaptive.png,conditions/adaptive.xlsx,test,0.6,0.6,0.6,-0.6,-0.6,right,R,,,,,0,1,1,1,0,72,72,10,,,,,,,,,,,,,,,,,,,,,,,,,,,,,,,,,,,,,,,,,,,,407.113255,None,right,1,0.8201817,407.613177,409.6846556,407.613177,409.1824023,407.613177,409.1824023,407.613177,409.1824023,407.613177,409.1824023,407.613177,409.1824023,409.1657488,409.6669533,409.1657488,409.6669533,409.1657488,409.6669533,409.1657488,409.6669533,409.1657488,409.6669533,409.1657488,409.6669533,409.1657488,409.6669533,409.1657488,409.6669533,407.613177,None,409.6669533,410.0845018,1.57,410.1004438,None,410.8513858,None,,,,,,,[0.40821918],2.09,0.794520548,11024,2,2024_Jan_07_1540,MFTM_A_new1021,2021.2.3,60.10117432
,,,,,,,,stim/Instruction_adaptive.png,conditions/adaptive.xlsx,test,0.6,0.6,0.6,-0.6,-0.6,right,R,,,,,0,1,1,1,0,73,73,72,,,,,,,,,,,,,,,,,,,,,,,,,,,,,,,,,,,,,,,,,,,,411.3524005,None,right,1,1.2520443,411.8530045,413.9067837,411.8530045,413.4063382,411.8530045,413.4063382,411.8530045,413.4063382,411.8530045,413.4063382,411.8530045,413.4063382,413.3887474,413.8898928,413.3887474,413.8898928,413.3887474,413.8898928,413.3887474,413.8898928,413.3887474,413.8898928,413.3887474,413.8898928,413.3887474,413.8898928,413.3887474,413.8898928,411.8530045,None,413.8898928,414.3076468,1.55,414.3239257,None,415.0743508,None,,,,,,,[0.41554054],2.11,0.797297297,11024,2,2024_Jan_07_1540,MFTM_A_new1021,2021.2.3,60.10117432
,,,,,,,,stim/Instruction_adaptive.png,conditions/adaptive.xlsx,test,-0.6,-0.6,-0.6,0.6,0.6,left,L,,,,,0,1,1,1,0,74,74,67,,,,,,,,,,,,,,,,,,,,,,,,,,,,,,,,,,,,,,,,,,,,415.5758947,None,left,1,1.5569852,416.0758145,418.0962402,416.0758145,417.5956115,416.0758145,417.5956115,416.0758145,417.5956115,416.0758145,417.5956115,416.0758145,417.5956115,417.5788341,418.0801442,417.5788341,418.0801442,417.5788341,418.0801442,417.5788341,418.0801442,417.5788341,418.0801442,417.5788341,418.0801442,417.5788341,418.0801442,417.5788341,418.0801442,416.0758145,None,418.0801442,418.5134874,1.52,418.5302313,None,419.2814936,None,,,,,,,[0.42306667],2.14,0.8,11024,2,2024_Jan_07_1540,MFTM_A_new1021,2021.2.3,60.10117432
,,,,,,,,stim/Instruction_adaptive.png,conditions/adaptive.xlsx,test,-0.6,-0.6,-0.6,0.6,0.6,left,L,,,,,0,1,1,1,0,75,75,93,,,,,,,,,,,,,,,,,,,,,,,,,,,,,,,,,,,,,,,,,,,,419.7821448,None,left,1,0.8214373,420.2834461,422.2859259,420.2834461,421.7843834,420.2834461,421.7843834,420.2834461,421.7843834,420.2834461,421.7843834,420.2834461,421.7843834,421.7515311,422.2523489,421.7515311,422.2523489,421.7515311,422.2523489,421.7515311,422.2523489,421.7515311,422.2523489,421.7515311,422.2523489,421.7515311,422.2523489,421.7515311,422.2523489,420.2834461,None,422.2523489,422.6856248,1.49,422.719077,None,423.4705896,None,,,,,,,[0.43078947],2.16,0.802631579,11024,2,2024_Jan_07_1540,MFTM_A_new1021,2021.2.3,60.10117432
,,,,,,,,stim/Instruction_adaptive.png,conditions/adaptive.xlsx,test,0.6,0.6,0.6,-0.6,-0.6,right,R,,,,,0,1,1,1,0,76,76,62,,,,,,,,,,,,,,,,,,,,,,,,,,,,,,,,,,,,,,,,,,,,423.9711201,None,right,1,1.5213278,424.4714559,426.4419201,424.4714559,425.940374,424.4714559,425.940374,424.4714559,425.940374,424.4714559,425.940374,424.4714559,425.940374,425.9239567,426.4245675,425.9239567,426.4245675,425.9239567,426.4245675,425.9239567,426.4245675,425.9239567,426.4245675,425.9239567,426.4245675,425.9239567,426.4245675,425.9239567,426.4245675,424.4714559,None,426.4245675,426.8752237,1.47,426.8919809,None,427.6435676,None,,,,,,,[0.43857143],2.18,0.805194805,11024,2,2024_Jan_07_1540,MFTM_A_new1021,2021.2.3,60.10117432
,,,,,,,,stim/Instruction_adaptive.png,conditions/adaptive.xlsx,test,0.6,0.6,0.6,-0.6,-0.6,right,R,,,,,0,1,1,1,0,77,77,32,,,,,,,,,,,,,,,,,,,,,,,,,,,,,,,,,,,,,,,,,,,,428.1443818,None,right,1,1.5079248,428.6450288,430.5982697,428.6450288,430.0969477,428.6450288,430.0969477,428.6450288,430.0969477,428.6450288,430.0969477,428.6450288,430.0969477,430.0808094,430.5807793,430.0808094,430.5807793,430.0808094,430.5807793,430.0808094,430.5807793,430.0808094,430.5807793,430.0808094,430.5807793,430.0808094,430.5807793,430.0808094,430.5807793,428.6450288,None,430.5807793,431.0321624,1.45,431.0487727,None,431.8006426,None,,,,,,,[0.44641026],2.2,0.807692308,11024,2,2024_Jan_07_1540,MFTM_A_new1021,2021.2.3,60.10117432
,,,,,,,,stim/Instruction_adaptive.png,conditions/adaptive.xlsx,test,0.6,0.6,0.6,-0.6,-0.6,right,R,,,,,0,1,1,1,0,78,78,36,,,,,,,,,,,,,,,,,,,,,,,,,,,,,,,,,,,,,,,,,,,,432.2999836,None,right,1,1.1433842,432.801452,434.7377145,432.801452,434.2362904,432.801452,434.2362904,432.801452,434.2362904,432.801452,434.2362904,432.801452,434.2362904,434.219372,434.7209264,434.219372,434.7209264,434.219372,434.7209264,434.219372,434.7209264,434.219372,434.7209264,434.219372,434.7209264,434.219372,434.7209264,434.219372,434.7209264,432.801452,None,434.7209264,None,1.43,435.1877916,None,435.9393427,None,,,,,,,[0.4543038],2.22,0.810126582,11024,2,2024_Jan_07_1540,MFTM_A_new1021,2021.2.3,60.10117432
,,,,,,,,stim/Instruction_adaptive.png,conditions/adaptive.xlsx,test,0.6,0.6,0.6,-0.6,-0.6,right,R,,,,,0,1,1,1,0,79,79,86,,,,,,,,,,,,,,,,,,,,,,,,,,,,,,,,,,,,,,,,,,,,436.4398004,None,right,1,1.2692085,436.9399633,438.8617591,436.9399633,438.359236,436.9399633,438.359236,436.9399633,438.359236,436.9399633,438.359236,436.9399633,438.359236,438.3256928,438.826413,438.3256928,438.826413,438.3256928,438.826413,438.3256928,438.826413,438.3256928,438.826413,438.3256928,438.826413,438.3256928,438.826413,438.3256928,438.826413,436.9399633,None,438.826413,439.2938081,1.41,439.3270036,None,440.0787356,None,,,,,,,[0.46225],2.24,0.8125,11024,2,2024_Jan_07_1540,MFTM_A_new1021,2021.2.3,60.10117432
,,,,,,,,stim/Instruction_adaptive.png,conditions/adaptive.xlsx,test,-0.6,-0.6,-0.6,0.6,0.6,left,L,,,,,0,1,1,1,0,80,80,9,,,,,,,,,,,,,,,,,,,,,,,,,,,,,,,,,,,,,,,,,,,,440.5797566,None,left,1,0.945241,441.0796711,442.9834612,441.0796711,442.4816778,441.0796711,442.4816778,441.0796711,442.4816778,441.0796711,442.4816778,441.0796711,442.4816778,442.4481885,442.9488818,442.4481885,442.9488818,442.4481885,442.9488818,442.4481885,442.9488818,442.4481885,442.9488818,442.4481885,442.9488818,442.4481885,442.9488818,442.4481885,442.9488818,441.0796711,None,442.9488818,443.4331595,1.39,443.4498403,None,444.2013868,None,,,,,,,[0.47024691],2.26,0.814814815,11024,2,2024_Jan_07_1540,MFTM_A_new1021,2021.2.3,60.10117432
,,,,,,,,stim/Instruction_adaptive.png,conditions/adaptive.xlsx,test,0.6,0.6,0.6,-0.6,-0.6,right,R,,,,,0,1,1,1,0,81,81,2,,,,,,,,,,,,,,,,,,,,,,,,,,,,,,,,,,,,,,,,,,,,444.702191,None,right,1,1.5029664,445.2022598,447.0725387,445.2022598,446.5715134,445.2022598,446.5715134,445.2022598,446.5715134,445.2022598,446.5715134,445.2022598,446.5715134,446.5546237,447.0564033,446.5546237,447.0564033,446.5546237,447.0564033,446.5546237,447.0564033,446.5546237,447.0564033,446.5546237,447.0564033,446.5546237,447.0564033,446.5546237,447.0564033,445.2022598,None,447.0564033,447.5400808,1.37,447.5556003,None,448.3072845,None,,,,,,,[0.47829268],2.28,0.817073171,11024,2,2024_Jan_07_1540,MFTM_A_new1021,2021.2.3,60.10117432
,,,,,,,,stim/Instruction_adaptive.png,conditions/adaptive.xlsx,test,-0.6,-0.6,-0.6,0.6,0.6,left,L,,,,,0,1,1,1,0,82,82,99,,,,,,,,,,,,,,,,,,,,,,,,,,,,,,,,,,,,,,,,,,,,448.8086381,None,right,0,1.0199538,449.3089938,451.1613391,449.3089938,450.6604,449.3089938,450.6604,449.3089938,450.6604,449.3089938,450.6604,449.3089938,450.6604,450.643828,451.1451109,450.643828,451.1451109,450.643828,451.1451109,450.643828,451.1451109,450.643828,451.1451109,450.643828,451.1451109,450.643828,451.1451109,450.643828,451.1451109,449.3089938,None,451.1451109,None,1.35,451.6453998,None,452.3969123,None,,,,,,,[0.48638554],2.22,0.807228916,11024,2,2024_Jan_07_1540,MFTM_A_new1021,2021.2.3,60.10117432
,,,,,,,,stim/Instruction_adaptive.png,conditions/adaptive.xlsx,test,0.6,0.6,0.6,-0.6,-0.6,right,R,,,,,0,1,1,1,0,83,83,30,,,,,,,,,,,,,,,,,,,,,,,,,,,,,,,,,,,,,,,,,,,,452.8978561,None,right,1,1.6198238,453.3978502,455.3173324,453.3978502,454.8172541,453.3978502,454.8172541,453.3978502,454.8172541,453.3978502,454.8172541,453.3978502,454.8172541,454.7833862,455.2839536,454.7833862,455.2839536,454.7833862,455.2839536,454.7833862,455.2839536,454.7833862,455.2839536,454.7833862,455.2839536,454.7833862,455.2839536,454.7833862,455.2839536,453.3978502,None,455.2839536,455.7850917,1.41,455.8015211,None,456.5534122,None,,,,,,,[0.49357143],2.24,0.80952381,11024,2,2024_Jan_07_1540,MFTM_A_new1021,2021.2.3,60.10117432
,,,,,,,,stim/Instruction_adaptive.png,conditions/adaptive.xlsx,test,0.6,0.6,0.6,-0.6,-0.6,right,R,,,,,0,1,1,1,0,84,84,46,,,,,,,,,,,,,,,,,,,,,,,,,,,,,,,,,,,,,,,,,,,,457.0541089,None,right,1,1.1428683,457.5539886,459.4576283,457.5539886,458.9573382,457.5539886,458.9573382,457.5539886,458.9573382,457.5539886,458.9573382,457.5539886,458.9573382,458.9241165,459.4241919,458.9241165,459.4241919,458.9241165,459.4241919,458.9241165,459.4241919,458.9241165,459.4241919,458.9241165,459.4241919,458.9241165,459.4241919,458.9241165,459.4241919,457.5539886,None,459.4241919,459.9242191,1.39,459.9582406,None,460.7087441,None,,,,,,,[0.50082353],2.26,0.811764706,11024,2,2024_Jan_07_1540,MFTM_A_new1021,2021.2.3,60.10117432
,,,,,,,,stim/Instruction_adaptive.png,conditions/adaptive.xlsx,test,-0.6,-0.6,-0.6,0.6,0.6,left,L,,,,,0,1,1,1,0,85,85,41,,,,,,,,,,,,,,,,,,,,,,,,,,,,,,,,,,,,,,,,,,,,461.210255,None,left,1,1.4739915,461.7112287,463.5801614,461.7112287,463.0965199,461.7112287,463.0965199,461.7112287,463.0965199,461.7112287,463.0965199,461.7112287,463.0965199,463.0629675,463.564133,463.0629675,463.564133,463.0629675,463.564133,463.0629675,463.564133,463.0629675,463.564133,463.0629675,463.564133,463.0629675,463.564133,463.0629675,463.564133,461.7112287,None,463.564133,464.0802537,1.37,464.0969114,None,464.8493979,None,,,,,,,[0.50813953],2.28,0.813953488,11024,2,2024_Jan_07_1540,MFTM_A_new1021,2021.2.3,60.10117432
,,,,,,,,stim/Instruction_adaptive.png,conditions/adaptive.xlsx,test,0.6,0.6,0.6,-0.6,-0.6,right,R,,,,,0,1,1,1,0,86,86,70,,,,,,,,,,,,,,,,,,,,,,,,,,,,,,,,,,,,,,,,,,,,465.3495159,None,right,1,1.4144715,465.8507284,467.7031316,465.8507284,467.2015786,465.8507284,467.2015786,465.8507284,467.2015786,465.8507284,467.2015786,465.8507284,467.2015786,467.1850289,467.6867954,467.1850289,467.6867954,467.1850289,467.6867954,467.1850289,467.6867954,467.1850289,467.6867954,467.1850289,467.6867954,467.1850289,467.6867954,467.1850289,467.6867954,465.8507284,None,467.6867954,468.2039046,1.35,468.2198339,None,468.9720701,None,,,,,,,[0.51551724],2.3,0.816091954,11024,2,2024_Jan_07_1540,MFTM_A_new1021,2021.2.3,60.10117432
,,,,,,,,stim/Instruction_adaptive.png,conditions/adaptive.xlsx,test,0.6,0.6,0.6,-0.6,-0.6,right,R,,,,,0,1,1,1,0,87,87,82,,,,,,,,,,,,,,,,,,,,,,,,,,,,,,,,,,,,,,,,,,,,469.4717469,None,right,1,1.0602491,469.9726664,471.8251841,469.9726664,471.3244666,469.9726664,471.3244666,469.9726664,471.3244666,469.9726664,471.3244666,469.9726664,471.3244666,471.2909959,471.7927024,471.2909959,471.7927024,471.2909959,471.7927024,471.2909959,471.7927024,471.2909959,471.7927024,471.2909959,471.7927024,471.2909959,471.7927024,471.2909959,471.7927024,469.9726664,None,471.7927024,472.3268643,1.34,472.3430232,None,473.0948057,None,,,,,,,[0.52284091],2.31,0.818181818,11024,2,2024_Jan_07_1540,MFTM_A_new1021,2021.2.3,60.10117432
,,,,,,,,stim/Instruction_adaptive.png,conditions/adaptive.xlsx,test,0.6,0.6,0.6,-0.6,-0.6,right,R,,,,,0,1,1,1,0,88,88,48,,,,,,,,,,,,,,,,,,,,,,,,,,,,,,,,,,,,,,,,,,,,473.5950701,None,right,1,1.0662683,474.0952973,475.9318563,474.0952973,475.4304235,474.0952973,475.4304235,474.0952973,475.4304235,474.0952973,475.4304235,474.0952973,475.4304235,475.4143791,475.9147147,475.4143791,475.9147147,475.4143791,475.9147147,475.4143791,475.9147147,475.4143791,475.9147147,475.4143791,475.9147147,475.4143791,475.9147147,475.4143791,475.9147147,474.0952973,None,475.9147147,476.44913,1.33,476.4660304,None,477.2174703,None,,,,,,,[0.53011236],2.33,0.820224719,11024,2,2024_Jan_07_1540,MFTM_A_new1021,2021.2.3,60.10117432
,,,,,,,,stim/Instruction_adaptive.png,conditions/adaptive.xlsx,test,0.6,0.6,0.6,-0.6,-0.6,right,R,,,,,0,1,1,1,0,89,89,94,,,,,,,,,,,,,,,,,,,,,,,,,,,,,,,,,,,,,,,,,,,,477.7172482,None,right,1,0.9754144,478.2177957,480.0379325,478.2177957,479.5372887,478.2177957,479.5372887,478.2177957,479.5372887,478.2177957,479.5372887,478.2177957,479.5372887,479.5032684,480.0048612,479.5032684,480.0048612,479.5032684,480.0048612,479.5032684,480.0048612,479.5032684,480.0048612,479.5032684,480.0048612,479.5032684,480.0048612,479.5032684,480.0048612,478.2177957,None,480.0048612,480.5546191,1.31,480.5723144,None,481.3233864,None,,,,,,,[0.53744444],2.35,0.822222222,11024,2,2024_Jan_07_1540,MFTM_A_new1021,2021.2.3,60.10117432
,,,,,,,,stim/Instruction_adaptive.png,conditions/adaptive.xlsx,test,0.6,0.6,0.6,-0.6,-0.6,right,R,,,,,0,1,1,1,0,90,90,68,,,,,,,,,,,,,,,,,,,,,,,,,,,,,,,,,,,,,,,,,,,,481.8240906,None,right,1,1.3731868,482.3241062,484.1268113,482.3241062,483.6268837,482.3241062,483.6268837,482.3241062,483.6268837,482.3241062,483.6268837,482.3241062,483.6268837,483.5933177,484.093701,483.5933177,484.093701,483.5933177,484.093701,483.5933177,484.093701,483.5933177,484.093701,483.5933177,484.093701,483.5933177,484.093701,483.5933177,484.093701,482.3241062,None,484.093701,484.6466087,1.29,484.6601967,None,485.4125635,None,,,,,,,[0.54483516],2.37,0.824175824,11024,2,2024_Jan_07_1540,MFTM_A_new1021,2021.2.3,60.10117432
,,,,,,,,stim/Instruction_adaptive.png,conditions/adaptive.xlsx,test,0.6,0.6,0.6,-0.6,-0.6,right,R,,,,,0,1,1,1,0,91,91,84,,,,,,,,,,,,,,,,,,,,,,,,,,,,,,,,,,,,,,,,,,,,485.9127301,None,left,0,1.0689613,486.413436,488.1832688,486.413436,487.6993866,486.413436,487.6993866,486.413436,487.6993866,486.413436,487.6993866,486.413436,487.6993866,487.6653544,488.1667367,487.6653544,488.1667367,487.6653544,488.1667367,487.6653544,488.1667367,487.6653544,488.1667367,487.6653544,488.1667367,487.6653544,488.1667367,487.6653544,488.1667367,486.413436,None,488.1667367,488.7335637,1.27,488.7503236,None,489.5020144,None,,,,,,,[0.55228261],2.32,0.815217391,11024,2,2024_Jan_07_1540,MFTM_A_new1021,2021.2.3,60.10117432
,,,,,,,,stim/Instruction_adaptive.png,conditions/adaptive.xlsx,test,-0.6,-0.6,-0.6,0.6,0.6,left,L,,,,,0,1,1,1,0,92,92,63,,,,,,,,,,,,,,,,,,,,,,,,,,,,,,,,,,,,,,,,,,,,490.0027269,None,right,0,1.1293135,490.5038296,492.3389337,490.5038296,491.8380812,490.5038296,491.8380812,490.5038296,491.8380812,490.5038296,491.8380812,490.5038296,491.8380812,491.8052613,492.3057024,491.8052613,492.3057024,491.8052613,492.3057024,491.8052613,492.3057024,491.8052613,492.3057024,491.8052613,492.3057024,491.8052613,492.3057024,491.8052613,492.3057024,490.5038296,None,492.3057024,492.8746219,1.32,492.8891564,None,493.6419416,None,,,,,,,[0.55903226],2.27,0.806451613,11024,2,2024_Jan_07_1540,MFTM_A_new1021,2021.2.3,60.10117432
,,,,,,,,stim/Instruction_adaptive.png,conditions/adaptive.xlsx,test,-0.6,-0.6,-0.6,0.6,0.6,left,L,,,,,0,1,1,1,0,93,93,53,,,,,,,,,,,,,,,,,,,,,,,,,,,,,,,,,,,,,,,,,,,,494.1415694,None,right,0,1.5429452,494.6424126,496.5131194,494.6424126,496.0113555,494.6424126,496.0113555,494.6424126,496.0113555,494.6424126,496.0113555,494.6424126,496.0113555,495.9941832,496.4955591,495.9941832,496.4955591,495.9941832,496.4955591,495.9941832,496.4955591,495.9941832,496.4955591,495.9941832,496.4955591,495.9941832,496.4955591,495.9941832,496.4955591,494.6424126,None,496.4955591,497.0626201,1.36,497.0790142,None,497.8312299,None,,,,,,,[0.56521277],2.21,0.79787234,11024,2,2024_Jan_07_1540,MFTM_A_new1021,2021.2.3,60.10117432
,,,,,,,,stim/Instruction_adaptive.png,conditions/adaptive.xlsx,test,-0.6,-0.6,-0.6,0.6,0.6,left,L,,,,,0,1,1,1,0,94,94,29,,,,,,,,,,,,,,,,,,,,,,,,,,,,,,,,,,,,,,,,,,,,498.3320266,None,left,1,1.1134828,498.831833,500.752338,498.831833,500.2513371,498.831833,500.2513371,498.831833,500.2513371,498.831833,500.2513371,498.831833,500.2513371,500.2346922,500.7353952,500.2346922,500.7353952,500.2346922,500.7353952,500.2346922,500.7353952,500.2346922,500.7353952,500.2346922,500.7353952,500.2346922,500.7353952,500.2346922,500.7353952,498.831833,None,500.7353952,501.3199846,1.42,501.3353598,None,502.0874817,None,,,,,,,[0.57063158],2.23,0.8,11024,2,2024_Jan_07_1540,MFTM_A_new1021,2021.2.3,60.10117432
,,,,,,,,stim/Instruction_adaptive.png,conditions/adaptive.xlsx,test,0.6,0.6,0.6,-0.6,-0.6,right,R,,,,,0,1,1,1,0,95,95,56,,,,,,,,,,,,,,,,,,,,,,,,,,,,,,,,,,,,,,,,,,,,502.5873082,None,right,1,0.9133157,503.0882883,504.990969,503.0882883,504.4909333,503.0882883,504.4909333,503.0882883,504.4909333,503.0882883,504.4909333,503.0882883,504.4909333,504.4742849,504.974149,504.4742849,504.974149,504.4742849,504.974149,504.4742849,504.974149,504.4742849,504.974149,504.4742849,504.974149,504.4742849,504.974149,504.4742849,504.974149,503.0882883,None,504.974149,505.5584217,1.4,505.5750414,None,506.3263156,None,,,,,,,[0.57614583],2.25,0.802083333,11024,2,2024_Jan_07_1540,MFTM_A_new1021,2021.2.3,60.10117432
,,,,,,,,stim/Instruction_adaptive.png,conditions/adaptive.xlsx,test,-0.6,-0.6,-0.6,0.6,0.6,left,L,,,,,0,1,1,1,0,96,96,59,,,,,,,,,,,,,,,,,,,,,,,,,,,,,,,,,,,,,,,,,,,,506.8274471,None,left,1,0.7049515,507.3285617,509.2137814,507.3285617,508.7137857,507.3285617,508.7137857,507.3285617,508.7137857,507.3285617,508.7137857,507.3285617,508.7137857,508.6964706,509.1971833,508.6964706,509.1971833,508.6964706,509.1971833,508.6964706,509.1971833,508.6964706,509.1971833,508.6964706,509.1971833,508.6964706,509.1971833,508.6964706,509.1971833,507.3285617,None,509.1971833,509.7826712,1.38,509.7980548,None,510.5498956,None,,,,,,,[0.58175258],2.27,0.804123711,11024,2,2024_Jan_07_1540,MFTM_A_new1021,2021.2.3,60.10117432
,,,,,,,,stim/Instruction_adaptive.png,conditions/adaptive.xlsx,test,-0.6,-0.6,-0.6,0.6,0.6,left,L,,,,,0,1,1,1,0,97,97,1,,,,,,,,,,,,,,,,,,,,,,,,,,,,,,,,,,,,,,,,,,,,511.0497681,None,left,1,1.5622786,511.5506684,513.4206751,511.5506684,512.9201696,511.5506684,512.9201696,511.5506684,512.9201696,511.5506684,512.9201696,511.5506684,512.9201696,512.8869792,513.387384,512.8869792,513.387384,512.8869792,513.387384,512.8869792,513.387384,512.8869792,513.387384,512.8869792,513.387384,512.8869792,513.387384,512.8869792,513.387384,511.5506684,None,513.387384,513.9887546,1.36,514.0046132,None,514.7561234,None,,,,,,,[0.58744898],2.28,0.806122449,11024,2,2024_Jan_07_1540,MFTM_A_new1021,2021.2.3,60.10117432
,,,,,,,,stim/Instruction_adaptive.png,conditions/adaptive.xlsx,test,-0.6,-0.6,-0.6,0.6,0.6,left,L,,,,,0,1,1,1,0,98,98,39,,,,,,,,,,,,,,,,,,,,,,,,,,,,,,,,,,,,,,,,,,,,515.2570101,None,right,0,1.074741,515.7582547,517.6098057,515.7582547,517.1087688,515.7582547,517.1087688,515.7582547,517.1087688,515.7582547,517.1087688,515.7582547,517.1087688,517.0921025,517.5937991,517.0921025,517.5937991,517.0921025,517.5937991,517.0921025,517.5937991,517.0921025,517.5937991,517.0921025,517.5937991,517.0921025,517.5937991,517.0921025,517.5937991,515.7582547,None,517.5937991,518.1938996,1.35,518.211705,None,518.9620042,None,,,,,,,[0.59313131],2.23,0.797979798,11024,2,2024_Jan_07_1540,MFTM_A_new1021,2021.2.3,60.10117432
,,,,,,,,stim/Instruction_adaptive.png,conditions/adaptive.xlsx,test,-0.6,-0.6,-0.6,0.6,0.6,left,L,,,,,0,1,1,1,0,99,99,95,,,,,,,,,,,,,,,,,,,,,,,,,,,,,,,,,,,,,,,,,,,,519.4633483,None,left,1,1.2864595,519.9631676,521.8671821,519.9631676,521.3654621,519.9631676,521.3654621,519.9631676,521.3654621,519.9631676,521.3654621,519.9631676,521.3654621,521.3484606,521.8496958,521.3484606,521.8496958,521.3484606,521.8496958,521.3484606,521.8496958,521.3484606,521.8496958,521.3484606,521.8496958,521.3484606,521.8496958,521.3484606,521.8496958,519.9631676,None,521.8496958,522.4512428,1.4,522.466812,None,523.2196319,None,,,,,,,[0.5982],2.25,0.8,11024,2,2024_Jan_07_1540,MFTM_A_new1021,2021.2.3,60.10117432
,,,,,,,,stim/Instruction_adaptive.png,conditions/adaptive.xlsx,test,-0.6,-0.6,-0.6,0.6,0.6,left,L,,,,,0,1,1,1,1,0,100,77,,,,,,,,,,,,,,,,,,,,,,,,,,,,,,,,,,,,,,,,,,,,523.7201303,None,right,0,1.3577949,524.2193251,526.1063631,524.2193251,525.6049845,524.2193251,525.6049845,524.2193251,525.6049845,524.2193251,525.6049845,524.2193251,525.6049845,525.588061,526.0899394,525.588061,526.0899394,525.588061,526.0899394,525.588061,526.0899394,525.588061,526.0899394,525.588061,526.0899394,525.588061,526.0899394,525.588061,526.0899394,524.2193251,None,526.0899394,None,1.38,526.7064061,None,527.4577046,None,,,,,,,[0.60336634],2.2,0.792079208,11024,2,2024_Jan_07_1540,MFTM_A_new1021,2021.2.3,60.10117432
,,,,,,,,stim/Instruction_adaptive.png,conditions/adaptive.xlsx,test,0.6,0.6,0.6,-0.6,-0.6,right,R,,,,,0,1,1,1,1,1,101,94,,,,,,,,,,,,,,,,,,,,,,,,,,,,,,,,,,,,,,,,,,,,527.9587617,None,left,0,1.2939987,528.4589733,530.3962736,528.4589733,529.8949038,528.4589733,529.8949038,528.4589733,529.8949038,528.4589733,529.8949038,528.4589733,529.8949038,529.8792846,530.3791219,529.8792846,530.3791219,529.8792846,530.3791219,529.8792846,530.3791219,529.8792846,530.3791219,529.8792846,530.3791219,529.8792846,530.3791219,529.8792846,530.3791219,528.4589733,None,530.3791219,None,1.43,530.9962298,None,531.7471152,None,,,,,,,[0.60794118],2.15,0.784313725,11024,2,2024_Jan_07_1540,MFTM_A_new1021,2021.2.3,60.10117432
,,,,,,,,stim/Instruction_adaptive.png,conditions/adaptive.xlsx,test,-0.6,-0.6,-0.6,0.6,0.6,left,L,,,,,0,1,1,1,1,2,102,85,,,,,,,,,,,,,,,,,,,,,,,,,,,,,,,,,,,,,,,,,,,,532.2481307,None,left,1,1.0527444,532.7487967,534.7350783,532.7487967,534.2353034,532.7487967,534.2353034,532.7487967,534.2353034,532.7487967,534.2353034,532.7487967,534.2353034,534.217719,534.7191487,534.217719,534.7191487,534.217719,534.7191487,534.217719,534.7191487,534.217719,534.7191487,534.217719,534.7191487,534.217719,534.7191487,534.217719,534.7191487,532.7487967,None,534.7191487,535.3359947,1.48,535.35278,None,536.1044952,None,,,,,,,[0.61194175],2.17,0.786407767,11024,2,2024_Jan_07_1540,MFTM_A_new1021,2021.2.3,60.10117432
,,,,,,,,stim/Instruction_adaptive.png,conditions/adaptive.xlsx,test,-0.6,-0.6,-0.6,0.6,0.6,left,L,,,,,0,1,1,1,1,3,103,95,,,,,,,,,,,,,,,,,,,,,,,,,,,,,,,,,,,,,,,,,,,,536.6053145,None,left,1,1.304073,537.1051109,539.0748635,537.1051109,538.5741706,537.1051109,538.5741706,537.1051109,538.5741706,537.1051109,538.5741706,537.1051109,538.5741706,538.5405603,539.0424276,538.5405603,539.0424276,538.5405603,539.0424276,538.5405603,539.0424276,538.5405603,539.0424276,538.5405603,539.0424276,538.5405603,539.0424276,538.5405603,539.0424276,537.1051109,None,539.0424276,539.6589564,1.46,539.6928995,None,540.4441534,None,,,,,,,[0.61605769],2.18,0.788461538,11024,2,2024_Jan_07_1540,MFTM_A_new1021,2021.2.3,60.10117432
,,,,,,,,stim/Instruction_adaptive.png,conditions/adaptive.xlsx,test,-0.6,-0.6,-0.6,0.6,0.6,left,L,,,,,0,1,1,1,1,4,104,43,,,,,,,,,,,,,,,,,,,,,,,,,,,,,,,,,,,,,,,,,,,,540.9451217,None,left,1,1.1242146,541.4449942,543.3986237,541.4449942,542.897457,541.4449942,542.897457,541.4449942,542.897457,541.4449942,542.897457,541.4449942,542.897457,542.8805908,543.3820188,542.8805908,543.3820188,542.8805908,543.3820188,542.8805908,543.3820188,542.8805908,543.3820188,542.8805908,543.3820188,542.8805908,543.3820188,542.8805908,543.3820188,541.4449942,None,543.3820188,None,1.45,544.0160248,None,544.7666551,None,,,,,,,[0.62019048],2.2,0.79047619,11024,2,2024_Jan_07_1540,MFTM_A_new1021,2021.2.3,60.10117432
,,,,,,,,stim/Instruction_adaptive.png,conditions/adaptive.xlsx,test,-0.6,-0.6,-0.6,0.6,0.6,left,L,,,,,0,1,1,1,1,5,105,33,,,,,,,,,,,,,,,,,,,,,,,,,,,,,,,,,,,,,,,,,,,,545.2681652,None,left,1,1.057092,545.7680783,547.7060544,545.7680783,547.2034228,545.7680783,547.2034228,545.7680783,547.2034228,545.7680783,547.2034228,545.7680783,547.2034228,547.1866913,547.6875056,547.1866913,547.6875056,547.1866913,547.6875056,547.1866913,547.6875056,547.1866913,547.6875056,547.1866913,547.6875056,547.1866913,547.6875056,547.1866913,547.6875056,545.7680783,None,547.6875056,None,1.43,548.3218195,None,549.0736491,None,,,,,,,[0.62443396],2.22,0.79245283,11024,2,2024_Jan_07_1540,MFTM_A_new1021,2021.2.3,60.10117432
,,,,,,,,stim/Instruction_adaptive.png,conditions/adaptive.xlsx,test,-0.6,-0.6,-0.6,0.6,0.6,left,L,,,,,0,1,1,1,1,6,106,81,,,,,,,,,,,,,,,,,,,,,,,,,,,,,,,,,,,,,,,,,,,,549.5747551,None,left,1,1.485834,550.0751025,551.9953729,550.0751025,551.4932149,550.0751025,551.4932149,550.0751025,551.4932149,550.0751025,551.4932149,550.0751025,551.4932149,551.4599115,551.9615613,551.4599115,551.9615613,551.4599115,551.9615613,551.4599115,551.9615613,551.4599115,551.9615613,551.4599115,551.9615613,551.4599115,551.9615613,551.4599115,551.9615613,550.0751025,None,551.9615613,552.5949581,1.41,552.628856,None,553.3798415,None,,,,,,,[0.62878505],2.23,0.794392523,11024,2,2024_Jan_07_1540,MFTM_A_new1021,2021.2.3,60.10117432
,,,,,,,,stim/Instruction_adaptive.png,conditions/adaptive.xlsx,test,0.6,0.6,0.6,-0.6,-0.6,right,R,,,,,0,1,1,1,1,7,107,76,,,,,,,,,,,,,,,,,,,,,,,,,,,,,,,,,,,,,,,,,,,,553.880174,None,right,1,1.1564591,554.3807936,556.283658,554.3807936,555.782905,554.3807936,555.782905,554.3807936,555.782905,554.3807936,555.782905,554.3807936,555.782905,555.7672616,556.266997,555.7672616,556.266997,555.7672616,556.266997,555.7672616,556.266997,555.7672616,556.266997,555.7672616,556.266997,555.7672616,556.266997,555.7672616,556.266997,554.3807936,None,556.266997,556.9014369,1.4,556.917888,None,557.6691145,None,,,,,,,[0.63314815],2.25,0.796296296,11024,2,2024_Jan_07_1540,MFTM_A_new1021,2021.2.3,60.10117432
,,,,,,,,stim/Instruction_adaptive.png,conditions/adaptive.xlsx,test,0.6,0.6,0.6,-0.6,-0.6,right,R,,,,,0,1,1,1,1,8,108,54,,,,,,,,,,,,,,,,,,,,,,,,,,,,,,,,,,,,,,,,,,,,558.1697697,None,right,1,0.7224862,558.6706291,560.5576176,558.6706291,560.0561014,558.6706291,560.0561014,558.6706291,560.0561014,558.6706291,560.0561014,558.6706291,560.0561014,560.0404675,560.5398639,560.0404675,560.5398639,560.0404675,560.5398639,560.0404675,560.5398639,560.0404675,560.5398639,560.0404675,560.5398639,560.0404675,560.5398639,560.0404675,560.5398639,558.6706291,None,560.5398639,None,1.38,561.1909314,None,561.9423688,None,,,,,,,[0.63761468],2.26,0.798165138,11024,2,2024_Jan_07_1540,MFTM_A_new1021,2021.2.3,60.10117432
,,,,,,,,stim/Instruction_adaptive.png,conditions/adaptive.xlsx,test,-0.6,-0.6,-0.6,0.6,0.6,left,L,,,,,0,1,1,1,1,9,109,89,,,,,,,,,,,,,,,,,,,,,,,,,,,,,,,,,,,,,,,,,,,,562.4432729,None,right,0,1.3936289,562.9433832,564.812915,562.9433832,564.3290565,562.9433832,564.3290565,562.9433832,564.3290565,562.9433832,564.3290565,562.9433832,564.3290565,564.2955949,564.7960928,564.2955949,564.7960928,564.2955949,564.7960928,564.2955949,564.7960928,564.2955949,564.7960928,564.2955949,564.7960928,564.2955949,564.7960928,564.2955949,564.7960928,562.9433832,None,564.7960928,565.4479845,1.37,565.4640163,None,566.2156572,None,,,,,,,[0.64209091],2.22,0.790909091,11024,2,2024_Jan_07_1540,MFTM_A_new1021,2021.2.3,60.10117432
,,,,,,,,stim/Instruction_adaptive.png,conditions/adaptive.xlsx,test,0.6,0.6,0.6,-0.6,-0.6,right,R,,,,,0,1,1,1,1,10,110,90,,,,,,,,,,,,,,,,,,,,,,,,,,,,,,,,,,,,,,,,,,,,566.7158103,None,right,1,1.2729115,567.216411,569.1362001,567.216411,568.6352175,567.216411,568.6352175,567.216411,568.6352175,567.216411,568.6352175,567.216411,568.6352175,568.6021502,569.1032138,568.6021502,569.1032138,568.6021502,569.1032138,568.6021502,569.1032138,568.6021502,569.1032138,568.6021502,569.1032138,568.6021502,569.1032138,568.6021502,569.1032138,567.216411,None,569.1032138,569.7542543,1.41,569.7862916,None,570.5387809,None,,,,,,,[0.64612613],2.23,0.792792793,11024,2,2024_Jan_07_1540,MFTM_A_new1021,2021.2.3,60.10117432
,,,,,,,,stim/Instruction_adaptive.png,conditions/adaptive.xlsx,test,0.6,0.6,0.6,-0.6,-0.6,right,R,,,,,0,1,1,1,1,11,111,92,,,,,,,,,,,,,,,,,,,,,,,,,,,,,,,,,,,,,,,,,,,,571.0389306,None,right,1,1.6934646,571.53958,573.4426377,571.53958,572.9416683,571.53958,572.9416683,571.53958,572.9416683,571.53958,572.9416683,571.53958,572.9416683,572.9249309,573.4257907,572.9249309,573.4257907,572.9249309,573.4257907,572.9249309,573.4257907,572.9249309,573.4257907,572.9249309,573.4257907,572.9249309,573.4257907,572.9249309,573.4257907,571.53958,None,573.4257907,574.077118,1.4,574.0934113,None,574.845442,None,,,,,,,[0.65017857],2.25,0.794642857,11024,2,2024_Jan_07_1540,MFTM_A_new1021,2021.2.3,60.10117432
,,,,,,,,stim/Instruction_adaptive.png,conditions/adaptive.xlsx,test,0.6,0.6,0.6,-0.6,-0.6,right,R,,,,,0,1,1,1,1,12,112,10,,,,,,,,,,,,,,,,,,,,,,,,,,,,,,,,,,,,,,,,,,,,575.3461665,None,right,1,1.4350519,575.8461221,577.7331254,575.8461221,577.2314581,575.8461221,577.2314581,575.8461221,577.2314581,575.8461221,577.2314581,575.8461221,577.2314581,577.2147657,577.7160035,577.2147657,577.7160035,577.2147657,577.7160035,577.2147657,577.7160035,577.2147657,577.7160035,577.2147657,577.7160035,577.2147657,577.7160035,577.2147657,577.7160035,575.8461221,None,577.7160035,None,1.38,578.3831953,None,579.1342142,None,,,,,,,[0.65433628],2.26,0.796460177,11024,2,2024_Jan_07_1540,MFTM_A_new1021,2021.2.3,60.10117432
,,,,,,,,stim/Instruction_adaptive.png,conditions/adaptive.xlsx,test,-0.6,-0.6,-0.6,0.6,0.6,left,L,,,,,0,1,1,1,1,13,113,37,,,,,,,,,,,,,,,,,,,,,,,,,,,,,,,,,,,,,,,,,,,,579.6357469,None,left,1,1.1134591,580.1357739,582.0061758,580.1357739,581.5046383,580.1357739,581.5046383,580.1357739,581.5046383,580.1357739,581.5046383,580.1357739,581.5046383,581.488679,581.9883332,581.488679,581.9883332,581.488679,581.9883332,581.488679,581.9883332,581.488679,581.9883332,581.488679,581.9883332,581.488679,581.9883332,581.488679,581.9883332,580.1357739,None,581.9883332,582.6567986,1.37,582.6728392,None,583.4246413,None,,,,,,,[0.65850877],2.28,0.798245614,11024,2,2024_Jan_07_1540,MFTM_A_new1021,2021.2.3,60.10117432
,,,,,,,,stim/Instruction_adaptive.png,conditions/adaptive.xlsx,test,-0.6,-0.6,-0.6,0.6,0.6,left,L,,,,,0,1,1,1,1,14,114,67,,,,,,,,,,,,,,,,,,,,,,,,,,,,,,,,,,,,,,,,,,,,583.9251367,None,right,0,1.2866464,584.4264151,586.2792663,584.4264151,585.77801,584.4264151,585.77801,584.4264151,585.77801,584.4264151,585.77801,584.4264151,585.77801,585.760903,586.2626694,585.760903,586.2626694,585.760903,586.2626694,585.760903,586.2626694,585.760903,586.2626694,585.760903,586.2626694,585.760903,586.2626694,585.760903,586.2626694,584.4264151,None,586.2626694,586.9291584,1.35,586.9464592,None,587.6968589,None,,,,,,,[0.66278261],2.24,0.791304348,11024,2,2024_Jan_07_1540,MFTM_A_new1021,2021.2.3,60.10117432
,,,,,,,,stim/Instruction_adaptive.png,conditions/adaptive.xlsx,test,-0.6,-0.6,-0.6,0.6,0.6,left,L,,,,,0,1,1,1,1,15,115,5,,,,,,,,,,,,,,,,,,,,,,,,,,,,,,,,,,,,,,,,,,,,588.1977312,None,right,0,1.5026737,588.6984381,590.6013441,588.6984381,590.1016009,588.6984381,590.1016009,588.6984381,590.1016009,588.6984381,590.1016009,588.6984381,590.1016009,590.0677509,590.5686899,590.0677509,590.5686899,590.0677509,590.5686899,590.0677509,590.5686899,590.0677509,590.5686899,590.0677509,590.5686899,590.0677509,590.5686899,590.0677509,590.5686899,588.6984381,None,590.5686899,591.2372367,1.39,591.2694961,None,592.0200116,None,,,,,,,[0.66663793],2.19,0.784482759,11024,2,2024_Jan_07_1540,MFTM_A_new1021,2021.2.3,60.10117432
,,,,,,,,stim/Instruction_adaptive.png,conditions/adaptive.xlsx,test,0.6,0.6,0.6,-0.6,-0.6,right,R,,,,,0,1,1,1,1,16,116,42,,,,,,,,,,,,,,,,,,,,,,,,,,,,,,,,,,,,,,,,,,,,592.5206812,None,right,1,1.4837636,593.0213543,594.9750519,593.0213543,594.4734357,593.0213543,594.4734357,593.0213543,594.4734357,593.0213543,594.4734357,593.0213543,594.4734357,594.4402786,594.9409017,594.4402786,594.9409017,594.4402786,594.9409017,594.4402786,594.9409017,594.4402786,594.9409017,594.4402786,594.9409017,594.4402786,594.9409017,594.4402786,594.9409017,593.0213543,None,594.9409017,595.625956,1.44,595.642036,None,596.3934436,None,,,,,,,[0.67],2.21,0.786324786,11024,2,2024_Jan_07_1540,MFTM_A_new1021,2021.2.3,60.10117432
,,,,,,,,stim/Instruction_adaptive.png,conditions/adaptive.xlsx,test,0.6,0.6,0.6,-0.6,-0.6,right,R,,,,,0,1,1,1,1,17,117,60,,,,,,,,,,,,,,,,,,,,,,,,,,,,,,,,,,,,,,,,,,,,596.8941428,None,left,0,1.1989087,597.3945553,599.3143805,597.3945553,598.8140828,597.3945553,598.8140828,597.3945553,598.8140828,597.3945553,598.8140828,597.3945553,598.8140828,598.7974067,599.2974411,598.7974067,599.2974411,598.7974067,599.2974411,598.7974067,599.2974411,598.7974067,599.2974411,598.7974067,599.2974411,598.7974067,599.2974411,598.7974067,599.2974411,597.3945553,None,599.2974411,599.9826009,1.42,599.9985488,None,600.7494924,None,,,,,,,[0.67347458],2.16,0.779661017,11024,2,2024_Jan_07_1540,MFTM_A_new1021,2021.2.3,60.10117432
,,,,,,,,stim/Instruction_adaptive.png,conditions/adaptive.xlsx,test,0.6,0.6,0.6,-0.6,-0.6,right,R,,,,,0,1,1,1,1,18,118,14,,,,,,,,,,,,,,,,,,,,,,,,,,,,,,,,,,,,,,,,,,,,601.251069,None,right,1,1.0906522,601.7510938,603.7213895,601.7510938,603.2366346,601.7510938,603.2366346,601.7510938,603.2366346,601.7510938,603.2366346,601.7510938,603.2366346,603.2031972,603.7045346,603.2031972,603.7045346,603.2031972,603.7045346,603.2031972,603.7045346,603.2031972,603.7045346,603.2031972,603.7045346,603.2031972,603.7045346,603.2031972,603.7045346,601.7510938,None,603.7045346,604.3881376,1.47,604.404828,None,605.1568862,None,,,,,,,[0.67647059],2.18,0.781512605,11024,2,2024_Jan_07_1540,MFTM_A_new1021,2021.2.3,60.10117432
,,,,,,,,stim/Instruction_adaptive.png,conditions/adaptive.xlsx,test,-0.6,-0.6,-0.6,0.6,0.6,left,L,,,,,0,1,1,1,1,19,119,51,,,,,,,,,,,,,,,,,,,,,,,,,,,,,,,,,,,,,,,,,,,,605.6568532,None,left,1,1.3794473,606.1576305,608.1112512,606.1576305,607.6105005,606.1576305,607.6105005,606.1576305,607.6105005,606.1576305,607.6105005,606.1576305,607.6105005,607.5929664,608.0937408,607.5929664,608.0937408,607.5929664,608.0937408,607.5929664,608.0937408,607.5929664,608.0937408,607.5929664,608.0937408,607.5929664,608.0937408,607.5929664,608.0937408,606.1576305,None,608.0937408,608.7789497,1.45,608.7956049,None,609.5460222,None,,,,,,,[0.67958333],2.19,0.783333333,11024,2,2024_Jan_07_1540,MFTM_A_new1021,2021.2.3,60.10117432
,,,,,,,,stim/Instruction_adaptive.png,conditions/adaptive.xlsx,test,0.6,0.6,0.6,-0.6,-0.6,right,R,,,,,0,1,1,1,1,20,120,22,,,,,,,,,,,,,,,,,,,,,,,,,,,,,,,,,,,,,,,,,,,,610.0466869,None,right,1,1.1810474,610.5481975,612.5004456,610.5481975,611.9996129,610.5481975,611.9996129,610.5481975,611.9996129,610.5481975,611.9996129,610.5481975,611.9996129,611.966201,612.4679549,611.966201,612.4679549,611.966201,612.4679549,611.966201,612.4679549,611.966201,612.4679549,611.966201,612.4679549,611.966201,612.4679549,611.966201,612.4679549,610.5481975,None,612.4679549,613.1523707,1.44,613.1851833,None,613.9363113,None,,,,,,,[0.68272727],2.21,0.785123967,11024,2,2024_Jan_07_1540,MFTM_A_new1021,2021.2.3,60.10117432
,,,,,,,,stim/Instruction_adaptive.png,conditions/adaptive.xlsx,test,0.6,0.6,0.6,-0.6,-0.6,right,R,,,,,0,1,1,1,1,21,121,28,,,,,,,,,,,,,,,,,,,,,,,,,,,,,,,,,,,,,,,,,,,,614.4377562,None,left,0,1.192124,614.9372643,616.857001,614.9372643,616.373468,614.9372643,616.373468,614.9372643,616.373468,614.9372643,616.373468,614.9372643,616.373468,616.3394116,616.8403215,616.3394116,616.8403215,616.3394116,616.8403215,616.3394116,616.8403215,616.3394116,616.8403215,616.3394116,616.8403215,616.3394116,616.8403215,616.3394116,616.8403215,614.9372643,None,616.8403215,617.5417726,1.42,617.557755,None,618.3103877,None,,,,,,,[0.68598361],2.16,0.778688525,11024,2,2024_Jan_07_1540,MFTM_A_new1021,2021.2.3,60.10117432
,,,,,,,,stim/Instruction_adaptive.png,conditions/adaptive.xlsx,test,-0.6,-0.6,-0.6,0.6,0.6,left,L,,,,,0,1,1,1,1,22,122,97,,,,,,,,,,,,,,,,,,,,,,,,,,,,,,,,,,,,,,,,,,,,618.8098359,None,left,1,0.9948417,619.3103191,621.2801024,619.3103191,620.7791512,619.3103191,620.7791512,619.3103191,620.7791512,619.3103191,620.7791512,619.3103191,620.7791512,620.7632056,621.2633079,620.7632056,621.2633079,620.7632056,621.2633079,620.7632056,621.2633079,620.7632056,621.2633079,620.7632056,621.2633079,620.7632056,621.2633079,620.7632056,621.2633079,619.3103191,None,621.2633079,621.9650052,1.47,621.9807601,None,622.7321768,None,,,,,,,[0.68878049],2.18,0.780487805,11024,2,2024_Jan_07_1540,MFTM_A_new1021,2021.2.3,60.10117432
,,,,,,,,stim/Instruction_adaptive.png,conditions/adaptive.xlsx,test,-0.6,-0.6,-0.6,0.6,0.6,left,L,,,,,0,1,1,1,1,23,123,47,,,,,,,,,,,,,,,,,,,,,,,,,,,,,,,,,,,,,,,,,,,,623.2337893,None,left,1,1.3071461,623.7342981,625.6889694,623.7342981,625.1857792,623.7342981,625.1857792,623.7342981,625.1857792,623.7342981,625.1857792,623.7342981,625.1857792,625.1692709,625.6696263,625.1692709,625.6696263,625.1692709,625.6696263,625.1692709,625.6696263,625.1692709,625.6696263,625.1692709,625.6696263,625.1692709,625.6696263,625.1692709,625.6696263,623.7342981,None,625.6696263,626.3708655,1.45,626.3873853,None,627.1388008,None,,,,,,,[0.69169355],2.19,0.782258065,11024,2,2024_Jan_07_1540,MFTM_A_new1021,2021.2.3,60.10117432
,,,,,,,,stim/Instruction_adaptive.png,conditions/adaptive.xlsx,test,-0.6,-0.6,-0.6,0.6,0.6,left,L,,,,,0,1,1,1,1,24,124,65,,,,,,,,,,,,,,,,,,,,,,,,,,,,,,,,,,,,,,,,,,,,627.6401396,None,left,1,1.4690508,628.1404833,630.0943503,628.1404833,629.5922625,628.1404833,629.5922625,628.1404833,629.5922625,628.1404833,629.5922625,628.1404833,629.5922625,629.5590715,630.0596003,629.5590715,630.0596003,629.5590715,630.0596003,629.5590715,630.0596003,629.5590715,630.0596003,629.5590715,630.0596003,629.5590715,630.0596003,629.5590715,630.0596003,628.1404833,None,630.0596003,630.7608442,1.44,630.777306,None,631.5292658,None,,,,,,,[0.69464],2.21,0.784,11024,2,2024_Jan_07_1540,MFTM_A_new1021,2021.2.3,60.10117432
,,,,,,,,stim/Instruction_adaptive.png,conditions/adaptive.xlsx,test,0.6,0.6,0.6,-0.6,-0.6,right,R,,,,,0,1,1,1,1,25,125,50,,,,,,,,,,,,,,,,,,,,,,,,,,,,,,,,,,,,,,,,,,,,632.0298429,None,right,1,1.1199457,632.5299605,634.4500137,632.5299605,633.9653968,632.5299605,633.9653968,632.5299605,633.9653968,632.5299605,633.9653968,632.5299605,633.9653968,633.9319634,634.4334848,633.9319634,634.4334848,633.9319634,634.4334848,633.9319634,634.4334848,633.9319634,634.4334848,633.9319634,634.4334848,633.9319634,634.4334848,633.9319634,634.4334848,632.5299605,None,634.4334848,635.1347829,1.42,635.1511871,None,635.9027508,None,,,,,,,[0.69769841],2.22,0.785714286,11024,2,2024_Jan_07_1540,MFTM_A_new1021,2021.2.3,60.10117432
,,,,,,,,stim/Instruction_adaptive.png,conditions/adaptive.xlsx,test,0.6,0.6,0.6,-0.6,-0.6,right,R,,,,,0,1,1,1,1,26,126,98,,,,,,,,,,,,,,,,,,,,,,,,,,,,,,,,,,,,,,,,,,,,636.4030638,None,right,1,1.2568247,636.9044662,638.8226822,636.9044662,638.3216918,636.9044662,638.3216918,636.9044662,638.3216918,636.9044662,638.3216918,636.9044662,638.3216918,638.2892232,638.7899591,638.2892232,638.7899591,638.2892232,638.7899591,638.2892232,638.7899591,638.2892232,638.7899591,638.2892232,638.7899591,638.2892232,638.7899591,638.2892232,638.7899591,636.9044662,None,638.7899591,639.4903939,1.41,639.5237409,None,640.2757251,None,,,,,,,[0.7007874],2.23,0.787401575,11024,2,2024_Jan_07_1540,MFTM_A_new1021,2021.2.3,60.10117432
,,,,,,,,stim/Instruction_adaptive.png,conditions/adaptive.xlsx,test,-0.6,-0.6,-0.6,0.6,0.6,left,L,,,,,0,1,1,1,1,27,127,69,,,,,,,,,,,,,,,,,,,,,,,,,,,,,,,,,,,,,,,,,,,,640.7755641,None,right,0,1.6849641,641.2761694,643.1795551,641.2761694,642.6783522,641.2761694,642.6783522,641.2761694,642.6783522,641.2761694,642.6783522,641.2761694,642.6783522,642.662112,643.1628846,642.662112,643.1628846,642.662112,643.1628846,642.662112,643.1628846,642.662112,643.1628846,642.662112,643.1628846,642.662112,643.1628846,642.662112,643.1628846,641.2761694,None,643.1628846,None,1.4,643.8802046,None,644.6313742,None,,,,,,,[0.70390625],2.19,0.78125,11024,2,2024_Jan_07_1540,MFTM_A_new1021,2021.2.3,60.10117432
,,,,,,,,stim/Instruction_adaptive.png,conditions/adaptive.xlsx,test,0.6,0.6,0.6,-0.6,-0.6,right,R,,,,,0,1,1,1,1,28,128,30,,,,,,,,,,,,,,,,,,,,,,,,,,,,,,,,,,,,,,,,,,,,645.1320705,None,right,1,1.2396538,645.6334243,647.585804,645.6334243,647.0855721,645.6334243,647.0855721,645.6334243,647.0855721,645.6334243,647.0855721,645.6334243,647.0855721,647.052294,647.5525905,647.052294,647.5525905,647.052294,647.5525905,647.052294,647.5525905,647.052294,647.5525905,647.052294,647.5525905,647.052294,647.5525905,647.052294,647.5525905,645.6334243,None,647.5525905,648.2698872,1.44,648.2870568,None,649.0383023,None,,,,,,,[0.70666667],2.21,0.782945736,11024,2,2024_Jan_07_1540,MFTM_A_new1021,2021.2.3,60.10117432
,,,,,,,,stim/Instruction_adaptive.png,conditions/adaptive.xlsx,test,0.6,0.6,0.6,-0.6,-0.6,right,R,,,,,0,1,1,1,1,29,129,84,,,,,,,,,,,,,,,,,,,,,,,,,,,,,,,,,,,,,,,,,,,,649.5394946,None,right,1,1.4018495,650.0394816,651.9605542,650.0394816,651.4748041,650.0394816,651.4748041,650.0394816,651.4748041,650.0394816,651.4748041,650.0394816,651.4748041,651.4413305,651.9421149,651.4413305,651.9421149,651.4413305,651.9421149,651.4413305,651.9421149,651.4413305,651.9421149,651.4413305,651.9421149,651.4413305,651.9421149,651.4413305,651.9421149,650.0394816,None,651.9421149,652.6606327,1.42,652.6764836,None,653.428321,None,,,,,,,[0.70953846],2.22,0.784615385,11024,2,2024_Jan_07_1540,MFTM_A_new1021,2021.2.3,60.10117432
,,,,,,,,stim/Instruction_adaptive.png,conditions/adaptive.xlsx,test,0.6,0.6,0.6,-0.6,-0.6,right,R,,,,,0,1,1,1,1,30,130,40,,,,,,,,,,,,,,,,,,,,,,,,,,,,,,,,,,,,,,,,,,,,653.9282607,None,right,1,1.1803669,654.4291934,656.3498894,654.4291934,655.8478028,654.4291934,655.8478028,654.4291934,655.8478028,654.4291934,655.8478028,654.4291934,655.8478028,655.8328704,656.332026,655.8328704,656.332026,655.8328704,656.332026,655.8328704,656.332026,655.8328704,656.332026,655.8328704,656.332026,655.8328704,656.332026,655.8328704,656.332026,654.4291934,None,656.332026,657.0503006,1.41,657.0674277,None,657.8187944,None,,,,,,,[0.71244275],2.23,0.786259542,11024,2,2024_Jan_07_1540,MFTM_A_new1021,2021.2.3,60.10117432
,,,,,,,,stim/Instruction_adaptive.png,conditions/adaptive.xlsx,test,0.6,0.6,0.6,-0.6,-0.6,right,R,,,,,0,1,1,1,1,31,131,46,,,,,,,,,,,,,,,,,,,,,,,,,,,,,,,,,,,,,,,,,,,,658.3180651,None,left,0,1.5025933,658.8189421,660.7218015,658.8189421,660.2212501,658.8189421,660.2212501,658.8189421,660.2212501,658.8189421,660.2212501,658.8189421,660.2212501,660.2044305,660.7052656,660.2044305,660.7052656,660.2044305,660.7052656,660.2044305,660.7052656,660.2044305,660.7052656,660.2044305,660.7052656,660.2044305,660.7052656,660.2044305,660.7052656,658.8189421,None,660.7052656,661.4236104,1.4,661.4402371,None,662.1912643,None,,,,,,,[0.71537879],2.19,0.78030303,11024,2,2024_Jan_07_1540,MFTM_A_new1021,2021.2.3,60.10117432
,,,,,,,,stim/Instruction_adaptive.png,conditions/adaptive.xlsx,test,0.6,0.6,0.6,-0.6,-0.6,right,R,,,,,0,1,1,1,1,32,132,32,,,,,,,,,,,,,,,,,,,,,,,,,,,,,,,,,,,,,,,,,,,,662.6919947,None,right,1,1.1533025,663.1922361,665.1473821,663.1922361,664.644545,663.1922361,664.644545,663.1922361,664.644545,663.1922361,664.644545,663.1922361,664.644545,664.6115628,665.1124386,664.6115628,665.1124386,664.6115628,665.1124386,664.6115628,665.1124386,664.6115628,665.1124386,664.6115628,665.1124386,664.6115628,665.1124386,664.6115628,665.1124386,663.1922361,None,665.1124386,665.8305104,1.44,665.8627437,None,666.6150867,None,,,,,,,[0.71796992],2.21,0.781954887,11024,2,2024_Jan_07_1540,MFTM_A_new1021,2021.2.3,60.10117432
