arrwidth1,arrwidth2,arrwidth3,arrwidth4,arrwidth5,keyb,type,orientation,instruction_image,block_filename,block_type,arrow11,arrow22,arrow33,arrow44,arrow55,keyb_3,orientation3,trials.thisRepN,trials.thisTrialN,trials.thisN,trials.thisIndex,trials_3.thisRepN,trials_3.thisTrialN,trials_3.thisN,trials_3.thisIndex,trials_2.thisRepN,trials_2.thisTrialN,trials_2.thisN,trials_2.thisIndex,welcome.started,welcome.stopped,key_resp.keys,key_resp.rt,key_resp.started,key_resp.stopped,instruction_example.started,instruction_example.stopped,key_resp_3.keys,key_resp_3.rt,key_resp_3.started,key_resp_3.stopped,instruction_task.started,instruction_task.stopped,key_resp_2.keys,key_resp_2.rt,key_resp_2.started,key_resp_2.stopped,text_2.started,text_2.stopped,A1.started,A1.stopped,A2.started,A2.stopped,A3.started,A3.stopped,A4.started,A4.stopped,A5.started,A5.stopped,key_resp_4.keys,key_resp_4.corr,key_resp_4.rt,key_resp_4.started,key_resp_4.stopped,fb.started,fb.stopped,instruction_block.started,instruction_block.stopped,key_resp_8.keys,key_resp_8.rt,key_resp_8.started,key_resp_8.stopped,text_8.started,text_8.stopped,key_resp_9.keys,key_resp_9.corr,key_resp_9.rt,text_5.started,text_5.stopped,A11_3.started,A11_3.stopped,A22_2.started,A22_2.stopped,A33_2.started,A33_2.stopped,A44_2.started,A44_2.stopped,A55_2.started,A55_2.stopped,M1_3.started,M1_3.stopped,M2_2.started,M2_2.stopped,M3_2.started,M3_2.stopped,M4_2.started,M4_2.stopped,M5_2.started,M5_2.stopped,M6_2.started,M6_2.stopped,M7_2.started,M7_2.stopped,M8_2.started,M8_2.stopped,key_resp_9.started,key_resp_9.stopped,fixation.started,fixation.stopped,ET,fb_3.started,fb_3.stopped,text_9.started,text_9.stopped,fb_4.started,fb_4.stopped,text_7.started,text_7.stopped,endtext.started,endtext.stopped,fixation_ITI,CCC,Acc,participant,session,date,expName,psychopyVersion,frameRate,
,,,,,,,,,,,,,,,,,,,,,,,,,,,,,,14.210351099958643,None,space,10.168488399824128,14.210351099958643,None,,,,,,,,,,,,,,,,,,,,,,,,,,,,,,,,,,,,,,,,,,,,,,,,,,,,,,,,,,,,,,,,,,,,,,,,,,,,,,,,,,,,,,,,,11028,002,2024_Jan_10_1808,MFTM_A_new1021,2021.2.3,60.08882328939536,
,,,,,,,,,,,,,,,,,,,,,,,,,,,,,,,,,,,,24.409924099920318,None,space,11.553124299971387,24.409924099920318,None,,,,,,,,,,,,,,,,,,,,,,,,,,,,,,,,,,,,,,,,,,,,,,,,,,,,,,,,,,,,,,,,,,,,,,,,,,,,,,,,,,,11028,002,2024_Jan_10_1808,MFTM_A_new1021,2021.2.3,60.08882328939536,
,,,,,,,,,,,,,,,,,,,,,,,,,,,,,,,,,,,,,,,,,,35.993469200097024,None,space,3.5133373998105526,35.993469200097024,None,,,,,,,,,,,,,,,,,,,,,,,,,,,,,,,,,,,,,,,,,,,,,,,,,,,,,,,,,,,,,,,,,,,,,,,,,,,,,11028,002,2024_Jan_10_1808,MFTM_A_new1021,2021.2.3,60.08882328939536,
0.6,0.6,0.6,-0.6,-0.6,right,3:2,R,,,,,,,,,,,0,0,0,0,,,,,,,,,,,,,,,,,,,,,,,,,,,39.54917929996736,None,39.54917929996736,None,39.54917929996736,None,39.54917929996736,None,39.54917929996736,None,39.54917929996736,None,left,0,1.1576495999470353,39.54917929996736,None,40.75148850004189,None,,,,,,,,,,,,,,,,,,,,,,,,,,,,,,,,,,,,,,,,,,,,,,,,,,,,,,,,,,11028,002,2024_Jan_10_1808,MFTM_A_new1021,2021.2.3,60.08882328939536,
-0.6,-0.6,-0.6,0.6,0.6,left,3:2,L,,,,,,,,,,,0,1,1,1,,,,,,,,,,,,,,,,,,,,,,,,,,,41.50194250000641,None,41.50194250000641,None,41.50194250000641,None,41.50194250000641,None,41.50194250000641,None,41.50194250000641,None,left,1,1.1337089999578893,41.50194250000641,None,42.653427799930796,None,,,,,,,,,,,,,,,,,,,,,,,,,,,,,,,,,,,,,,,,,,,,,,,,,,,,,,,,,,11028,002,2024_Jan_10_1808,MFTM_A_new1021,2021.2.3,60.08882328939536,
-0.6,-0.6,-0.6,0.6,0.6,left,3:2,L,,,,,,,,,,,1,0,2,1,,,,,,,,,,,,,,,,,,,,,,,,,,,43.40543349995278,None,43.40543349995278,None,43.40543349995278,None,43.40543349995278,None,43.40543349995278,None,43.40543349995278,None,left,1,1.134097200119868,43.40543349995278,None,44.556127900024876,None,,,,,,,,,,,,,,,,,,,,,,,,,,,,,,,,,,,,,,,,,,,,,,,,,,,,,,,,,,11028,002,2024_Jan_10_1808,MFTM_A_new1021,2021.2.3,60.08882328939536,
0.6,0.6,0.6,-0.6,-0.6,right,3:2,R,,,,,,,,,,,1,1,3,0,,,,,,,,,,,,,,,,,,,,,,,,,,,45.30767249991186,None,45.30767249991186,None,45.30767249991186,None,45.30767249991186,None,45.30767249991186,None,45.30767249991186,None,right,1,1.0311839000787586,45.30767249991186,None,46.35865580011159,None,,,,,,,,,,,,,,,,,,,,,,,,,,,,,,,,,,,,,,,,,,,,,,,,,,,,,,,,,,11028,002,2024_Jan_10_1808,MFTM_A_new1021,2021.2.3,60.08882328939536,
,,,,,,,,stim/Instruction_mask.png,conditions/adaptive.xlsx,practice,0.6,0.6,0.6,-0.6,-0.6,right,R,,,,,0,0,0,0,0,0,0,80,,,,,,,,,,,,,,,,,,,,,,,,,,,,,,,,,,,,,,47.40957930008881,None,space,3.729616899974644,47.40957930008881,None,51.250497499946505,None,left,0,2.447461900068447,51.68354710005224,None,51.68354710005224,54.68900420004502,51.68354710005224,54.68900420004502,51.68354710005224,54.68900420004502,51.68354710005224,54.68900420004502,51.68354710005224,54.68900420004502,54.67103870003484,55.17189410002902,54.67103870003484,55.17189410002902,54.67103870003484,55.17189410002902,54.67103870003484,55.17189410002902,54.67103870003484,55.17189410002902,54.67103870003484,55.17189410002902,54.67103870003484,55.17189410002902,54.67103870003484,55.17189410002902,51.68354710005224,None,55.17189410002902,55.17189410002902,3,55.18867489998229,None,55.93985250010155,None,,,,,,,,,,11028,002,2024_Jan_10_1808,MFTM_A_new1021,2021.2.3,60.08882328939536,
,,,,,,,,stim/Instruction_mask.png,conditions/adaptive.xlsx,practice,-0.6,-0.6,-0.6,0.6,0.6,left,L,,,,,0,0,0,0,0,1,1,75,,,,,,,,,,,,,,,,,,,,,,,,,,,,,,,,,,,,,,,,,,,,56.44103280012496,None,left,1,1.2132396001834422,56.941623399965465,58.944204800063744,56.941623399965465,58.44354710006155,56.941623399965465,58.44354710006155,56.941623399965465,58.44354710006155,56.941623399965465,58.44354710006155,56.941623399965465,58.44354710006155,58.426808800082654,58.92761790007353,58.426808800082654,58.92761790007353,58.426808800082654,58.92761790007353,58.426808800082654,58.92761790007353,58.426808800082654,58.92761790007353,58.426808800082654,58.92761790007353,58.426808800082654,58.92761790007353,58.426808800082654,58.92761790007353,56.941623399965465,None,58.92761790007353,60.42973620002158,1.5,60.446078799897805,None,61.198757600039244,None,,,,,,,,,,11028,002,2024_Jan_10_1808,MFTM_A_new1021,2021.2.3,60.08882328939536,
,,,,,,,,stim/Instruction_mask.png,conditions/adaptive.xlsx,practice,-0.6,-0.6,-0.6,0.6,0.6,left,L,,,,,0,0,0,0,0,2,2,99,,,,,,,,,,,,,,,,,,,,,,,,,,,,,,,,,,,,,,,,,,,,61.69943400006741,None,left,1,0.9403421999886632,62.199200900038704,63.50165059999563,62.199200900038704,63.001086300006136,62.199200900038704,63.001086300006136,62.199200900038704,63.001086300006136,62.199200900038704,63.001086300006136,62.199200900038704,63.001086300006136,62.983314299955964,63.484802399994805,62.983314299955964,63.484802399994805,62.983314299955964,63.484802399994805,62.983314299955964,63.484802399994805,62.983314299955964,63.484802399994805,62.983314299955964,63.484802399994805,62.983314299955964,63.484802399994805,62.983314299955964,63.484802399994805,62.199200900038704,None,63.484802399994805,65.68770219990984,0.8,65.7046475999523,None,66.45584390009753,None,,,,,,,,,,11028,002,2024_Jan_10_1808,MFTM_A_new1021,2021.2.3,60.08882328939536,
,,,,,,,,stim/Instruction_mask.png,conditions/adaptive.xlsx,practice,-0.6,-0.6,-0.6,0.6,0.6,left,L,,,,,0,0,0,0,0,3,3,93,,,,,,,,,,,,,,,,,,,,,,,,,,,,,,,,,,,,,,,,,,,,66.95641919993795,None,right,0,1.219378599897027,67.45657730009407,68.20822330005467,67.45657730009407,67.7078297000844,67.45657730009407,67.7078297000844,67.45657730009407,67.7078297000844,67.45657730009407,67.7078297000844,67.45657730009407,67.7078297000844,67.69065540004522,68.19186470005661,67.69065540004522,68.19186470005661,67.69065540004522,68.19186470005661,67.69065540004522,68.19186470005661,67.69065540004522,68.19186470005661,67.69065540004522,68.19186470005661,67.69065540004522,68.19186470005661,67.69065540004522,68.19186470005661,67.45657730009407,None,68.19186470005661,70.94584960001521,3,70.96185640012845,None,71.7132147999946,None,,,,,,,,,,11028,002,2024_Jan_10_1808,MFTM_A_new1021,2021.2.3,60.08882328939536,
,,,,,,,,stim/Instruction_mask.png,conditions/adaptive.xlsx,practice,,,,,,,,,,,,0,0,0,0,,,,,,,,,,,,,,,,,,,,,,,,,,,,,,,,,,,,,,,,,,,,,,,,,,,,,,,,,,,,,,,,,,,,,,,,,,,,,,,,,,,,,,,,,,72.23043269990012,73.23451390000992,73.21586090000346,73.21586090000346,73.21586090000346,None,,,,11028,002,2024_Jan_10_1808,MFTM_A_new1021,2021.2.3,60.08882328939536,
,,,,,,,,stim/Instruction_adaptive.png,conditions/adaptive.xlsx,test,0.6,0.6,0.6,-0.6,-0.6,right,R,,,,,0,1,1,1,0,0,0,90,,,,,,,,,,,,,,,,,,,,,,,,,,,,,,,,,,,,,,76.38663089997135,None,space,10.152367800008506,76.38663089997135,None,86.58537489990704,None,right,1,1.6220860998146236,87.08573659998365,None,87.08573659998365,90.09082709997892,87.08573659998365,90.09082709997892,87.08573659998365,90.09082709997892,87.08573659998365,90.09082709997892,87.08573659998365,90.09082709997892,90.07356219994836,90.57450810004957,90.07356219994836,90.57450810004957,90.07356219994836,90.57450810004957,90.07356219994836,90.57450810004957,90.07356219994836,90.57450810004957,90.07356219994836,90.57450810004957,90.07356219994836,90.57450810004957,90.07356219994836,90.57450810004957,87.08573659998365,None,90.57450810004957,90.57450810004957,3,90.5909069001209,None,91.34205619990826,None,,,,,,,0,6.000000000000005,1.0,11028,002,2024_Jan_10_1808,MFTM_A_new1021,2021.2.3,60.08882328939536,
,,,,,,,,stim/Instruction_adaptive.png,conditions/adaptive.xlsx,test,-0.6,-0.6,-0.6,0.6,0.6,left,L,,,,,0,1,1,1,0,1,1,39,,,,,,,,,,,,,,,,,,,,,,,,,,,,,,,,,,,,,,,,,,,,91.84279070002958,None,left,1,0.8356911998707801,92.34379080007784,93.09452209994197,92.34379080007784,92.59447410004213,92.34379080007784,92.59447410004213,92.34379080007784,92.59447410004213,92.34379080007784,92.59447410004213,92.34379080007784,92.59447410004213,92.57741770008579,93.07788160000928,92.57741770008579,93.07788160000928,92.57741770008579,93.07788160000928,92.57741770008579,93.07788160000928,92.57741770008579,93.07788160000928,92.57741770008579,93.07788160000928,92.57741770008579,93.07788160000928,92.57741770008579,93.07788160000928,92.34379080007784,None,93.07788160000928,93.96379079995677,0.25,93.9792275999207,None,94.73104529990815,None,,,,,,,[0.875],6.000000000000005,1.0,11028,002,2024_Jan_10_1808,MFTM_A_new1021,2021.2.3,60.08882328939536,
,,,,,,,,stim/Instruction_adaptive.png,conditions/adaptive.xlsx,test,0.6,0.6,0.6,-0.6,-0.6,right,R,,,,,0,1,1,1,0,2,2,30,,,,,,,,,,,,,,,,,,,,,,,,,,,,,,,,,,,,,,,,,,,,95.23126549995504,None,right,1,0.7030305000953376,95.73189070005901,96.4848732999526,95.73189070005901,95.98312540003099,95.73189070005901,95.98312540003099,95.73189070005901,95.98312540003099,95.73189070005901,95.98312540003099,95.73189070005901,95.98312540003099,95.96593190007843,96.46653959993273,95.96593190007843,96.46653959993273,95.96593190007843,96.46653959993273,95.96593190007843,96.46653959993273,95.96593190007843,96.46653959993273,95.96593190007843,96.46653959993273,95.96593190007843,96.46653959993273,95.96593190007843,96.46653959993273,95.73189070005901,None,96.46653959993273,97.80165569996461,0.25,97.81834469991736,None,98.56915979995392,None,,,,,,,[1.33333333],6.000000000000005,1.0,11028,002,2024_Jan_10_1808,MFTM_A_new1021,2021.2.3,60.08882328939536,
,,,,,,,,stim/Instruction_adaptive.png,conditions/adaptive.xlsx,test,0.6,0.6,0.6,-0.6,-0.6,right,R,,,,,0,1,1,1,0,3,3,36,,,,,,,,,,,,,,,,,,,,,,,,,,,,,,,,,,,,,,,,,,,,99.07068710005842,None,right,1,0.7205328999552876,99.57077009999193,100.32241089991294,99.57077009999193,99.82196000008844,99.57077009999193,99.82196000008844,99.57077009999193,99.82196000008844,99.57077009999193,99.82196000008844,99.57077009999193,99.82196000008844,99.8053147001192,100.3060598000884,99.8053147001192,100.3060598000884,99.8053147001192,100.3060598000884,99.8053147001192,100.3060598000884,99.8053147001192,100.3060598000884,99.8053147001192,100.3060598000884,99.8053147001192,100.3060598000884,99.8053147001192,100.3060598000884,99.57077009999193,None,100.3060598000884,101.87520910007879,0.25,101.89099320000969,None,102.64289440005086,None,,,,,,,[1.5625],6.000000000000005,1.0,11028,002,2024_Jan_10_1808,MFTM_A_new1021,2021.2.3,60.08882328939536,
,,,,,,,,stim/Instruction_adaptive.png,conditions/adaptive.xlsx,test,0.6,0.6,0.6,-0.6,-0.6,right,R,,,,,0,1,1,1,0,4,4,24,,,,,,,,,,,,,,,,,,,,,,,,,,,,,,,,,,,,,,,,,,,,103.1436415000353,None,left,0,0.7430880998726934,103.64392699999735,104.39542230009101,103.64392699999735,103.89402989996597,103.64392699999735,103.89402989996597,103.64392699999735,103.89402989996597,103.64392699999735,103.89402989996597,103.64392699999735,103.89402989996597,103.87740270001814,104.37836099998094,103.87740270001814,104.37836099998094,103.87740270001814,104.37836099998094,103.87740270001814,104.37836099998094,103.87740270001814,104.37836099998094,103.87740270001814,104.37836099998094,103.87740270001814,104.37836099998094,103.87740270001814,104.37836099998094,103.64392699999735,None,104.37836099998094,106.08095779991709,0.25,106.09707319992594,None,106.84876379999332,None,,,,,,,[1.7],4.720000000000004,0.8,11028,002,2024_Jan_10_1808,MFTM_A_new1021,2021.2.3,60.08882328939536,
,,,,,,,,stim/Instruction_adaptive.png,conditions/adaptive.xlsx,test,0.6,0.6,0.6,-0.6,-0.6,right,R,,,,,0,1,1,1,0,5,5,46,,,,,,,,,,,,,,,,,,,,,,,,,,,,,,,,,,,,,,,,,,,,107.34920180006884,None,left,0,0.697397300042212,107.84983059996739,108.60147299990058,107.84983059996739,108.10141130001284,107.84983059996739,108.10141130001284,107.84983059996739,108.10141130001284,107.84983059996739,108.10141130001284,107.84983059996739,108.10141130001284,108.08393039996736,108.58485320000909,108.08393039996736,108.58485320000909,108.08393039996736,108.58485320000909,108.08393039996736,108.58485320000909,108.08393039996736,108.58485320000909,108.08393039996736,108.58485320000909,108.08393039996736,108.58485320000909,108.08393039996736,108.58485320000909,107.84983059996739,None,108.58485320000909,110.38761939993128,0.25,110.40358959999867,None,111.15593659994192,None,,,,,,,[1.79166667],3.4400000000000026,0.6666666666666666,11028,002,2024_Jan_10_1808,MFTM_A_new1021,2021.2.3,60.08882328939536,
,,,,,,,,stim/Instruction_adaptive.png,conditions/adaptive.xlsx,test,-0.6,-0.6,-0.6,0.6,0.6,left,L,,,,,0,1,1,1,0,6,6,33,,,,,,,,,,,,,,,,,,,,,,,,,,,,,,,,,,,,,,,,,,,,111.65630659996532,None,left,1,1.0064029998611659,112.15650380006991,113.27551269996911,112.15650380006991,112.77513749990612,112.15650380006991,112.77513749990612,112.15650380006991,112.77513749990612,112.15650380006991,112.77513749990612,112.15650380006991,112.77513749990612,112.74059729999863,113.24139360012487,112.74059729999863,113.24139360012487,112.74059729999863,113.24139360012487,112.74059729999863,113.24139360012487,112.74059729999863,113.24139360012487,112.74059729999863,113.24139360012487,112.74059729999863,113.24139360012487,112.74059729999863,113.24139360012487,112.15650380006991,None,113.24139360012487,115.0613333999645,0.6100000000000003,115.07709149993025,None,115.82824670011178,None,,,,,,,[1.80571429],4.030000000000003,0.7142857142857143,11028,002,2024_Jan_10_1808,MFTM_A_new1021,2021.2.3,60.08882328939536,
,,,,,,,,stim/Instruction_adaptive.png,conditions/adaptive.xlsx,test,-0.6,-0.6,-0.6,0.6,0.6,left,L,,,,,0,1,1,1,0,7,7,97,,,,,,,,,,,,,,,,,,,,,,,,,,,,,,,,,,,,,,,,,,,,116.32945160008967,None,right,0,1.0772531998809427,116.82983800000511,117.73144720005803,116.82983800000511,117.23052789992653,116.82983800000511,117.23052789992653,116.82983800000511,117.23052789992653,116.82983800000511,117.23052789992653,116.82983800000511,117.23052789992653,117.21448269998655,117.71483190008439,117.21448269998655,117.71483190008439,117.21448269998655,117.71483190008439,117.21448269998655,117.71483190008439,117.21448269998655,117.71483190008439,117.21448269998655,117.71483190008439,117.21448269998655,117.71483190008439,117.21448269998655,117.71483190008439,116.82983800000511,None,117.71483190008439,119.56738599995151,0.40000000000000013,119.58453259989619,None,120.33565009990707,None,,,,,,,[1.8425],2.990000000000002,0.625,11028,002,2024_Jan_10_1808,MFTM_A_new1021,2021.2.3,60.08882328939536,
,,,,,,,,stim/Instruction_adaptive.png,conditions/adaptive.xlsx,test,0.6,0.6,0.6,-0.6,-0.6,right,R,,,,,0,1,1,1,0,8,8,96,,,,,,,,,,,,,,,,,,,,,,,,,,,,,,,,,,,,,,,,,,,,120.8357603000477,None,left,0,1.809748499887064,121.3372780000791,122.67207650002092,121.3372780000791,122.17116679996252,121.3372780000791,122.17116679996252,121.3372780000791,122.17116679996252,121.3372780000791,122.17116679996252,121.3372780000791,122.17116679996252,122.15434479992837,122.65607660007663,122.15434479992837,122.65607660007663,122.15434479992837,122.65607660007663,122.15434479992837,122.65607660007663,122.15434479992837,122.65607660007663,122.15434479992837,122.65607660007663,122.15434479992837,122.65607660007663,122.15434479992837,122.65607660007663,121.3372780000791,None,122.65607660007663,None,0.8300000000000005,124.34139199997298,None,125.09261510008946,None,,,,,,,[[1.67]],1.670000000000001,0.5555555555555556,11028,002,2024_Jan_10_1808,MFTM_A_new1021,2021.2.3,60.08882328939536,
,,,,,,,,stim/Instruction_adaptive.png,conditions/adaptive.xlsx,test,0.6,0.6,0.6,-0.6,-0.6,right,R,,,,,0,1,1,1,0,9,9,84,,,,,,,,,,,,,,,,,,,,,,,,,,,,,,,,,,,,,,,,,,,,125.5927560001146,None,right,1,1.1340902000665665,126.09381320001557,128.66502989991568,126.09381320001557,128.16345659992658,126.09381320001557,128.16345659992658,126.09381320001557,128.16345659992658,126.09381320001557,128.16345659992658,126.09381320001557,128.16345659992658,128.14652470010333,128.64727600011975,128.14652470010333,128.64727600011975,128.14652470010333,128.64727600011975,128.14652470010333,128.64727600011975,128.14652470010333,128.64727600011975,128.14652470010333,128.64727600011975,128.14652470010333,128.64727600011975,128.14652470010333,128.64727600011975,126.09381320001557,None,128.64727600011975,129.08139980002306,2.0700000000000016,129.09802930010483,None,129.84944620006718,None,,,,,,,[[0.43]],2.290000000000002,0.6,11028,002,2024_Jan_10_1808,MFTM_A_new1021,2021.2.3,60.08882328939536,
,,,,,,,,stim/Instruction_adaptive.png,conditions/adaptive.xlsx,test,-0.6,-0.6,-0.6,0.6,0.6,left,L,,,,,0,1,1,1,0,10,10,17,,,,,,,,,,,,,,,,,,,,,,,,,,,,,,,,,,,,,,,,,,,,130.34989750012755,None,left,1,2.5914181999396533,130.8517227000557,132.70419050008059,130.8517227000557,132.20328349992633,130.8517227000557,132.20328349992633,130.8517227000557,132.20328349992633,130.8517227000557,132.20328349992633,130.8517227000557,132.20328349992633,132.18590319994837,132.6873157999944,132.18590319994837,132.6873157999944,132.18590319994837,132.6873157999944,132.18590319994837,132.6873157999944,132.18590319994837,132.6873157999944,132.18590319994837,132.6873157999944,132.18590319994837,132.6873157999944,132.18590319994837,132.6873157999944,130.8517227000557,None,132.6873157999944,133.83828800008632,1.350000000000001,133.85532120009884,None,134.6064073999878,None,,,,,,,[[1.15]],2.650000000000002,0.6363636363636364,11028,002,2024_Jan_10_1808,MFTM_A_new1021,2021.2.3,60.08882328939536,
,,,,,,,,stim/Instruction_adaptive.png,conditions/adaptive.xlsx,test,-0.6,-0.6,-0.6,0.6,0.6,left,L,,,,,0,1,1,1,0,11,11,79,,,,,,,,,,,,,,,,,,,,,,,,,,,,,,,,,,,,,,,,,,,,135.10795550001785,None,left,1,0.9800510001368821,135.60752049996518,137.16008580010384,135.60752049996518,136.6599045000039,135.60752049996518,136.6599045000039,135.60752049996518,136.6599045000039,135.60752049996518,136.6599045000039,135.60752049996518,136.6599045000039,136.64252769993618,137.14331219997257,136.64252769993618,137.14331219997257,136.64252769993618,137.14331219997257,136.64252769993618,137.14331219997257,136.64252769993618,137.14331219997257,136.64252769993618,137.14331219997257,136.64252769993618,137.14331219997257,136.64252769993618,137.14331219997257,135.60752049996518,None,137.14331219997257,138.59661239990965,1.0500000000000007,138.6121799000539,None,139.36346219992265,None,,,,,,,[[1.45]],2.910000000000002,0.6666666666666666,11028,002,2024_Jan_10_1808,MFTM_A_new1021,2021.2.3,60.08882328939536,
,,,,,,,,stim/Instruction_adaptive.png,conditions/adaptive.xlsx,test,0.6,0.6,0.6,-0.6,-0.6,right,R,,,,,0,1,1,1,0,12,12,48,,,,,,,,,,,,,,,,,,,,,,,,,,,,,,,,,,,,,,,,,,,,139.86492679989897,None,right,1,0.941465999931097,140.36544999992475,141.75077580008656,140.36544999992475,141.24994049989618,140.36544999992475,141.24994049989618,140.36544999992475,141.24994049989618,140.36544999992475,141.24994049989618,140.36544999992475,141.24994049989618,141.23329670005478,141.73434130009264,141.23329670005478,141.73434130009264,141.23329670005478,141.73434130009264,141.23329670005478,141.73434130009264,141.23329670005478,141.73434130009264,141.23329670005478,141.73434130009264,141.23329670005478,141.73434130009264,141.23329670005478,141.73434130009264,140.36544999992475,None,141.73434130009264,None,0.8800000000000006,143.36918399995193,None,144.12038420001045,None,,,,,,,[[1.62]],3.1300000000000026,0.6923076923076923,11028,002,2024_Jan_10_1808,MFTM_A_new1021,2021.2.3,60.08882328939536,
,,,,,,,,stim/Instruction_adaptive.png,conditions/adaptive.xlsx,test,0.6,0.6,0.6,-0.6,-0.6,right,R,,,,,0,1,1,1,0,13,13,70,,,,,,,,,,,,,,,,,,,,,,,,,,,,,,,,,,,,,,,,,,,,144.62079369998537,None,right,1,0.8340733000077307,145.12192950001918,146.37429700000212,145.12192950001918,145.87408410012722,145.12192950001918,145.87408410012722,145.12192950001918,145.87408410012722,145.12192950001918,145.87408410012722,145.12192950001918,145.87408410012722,145.85659460001625,146.35724840010516,145.85659460001625,146.35724840010516,145.85659460001625,146.35724840010516,145.85659460001625,146.35724840010516,145.85659460001625,146.35724840010516,145.85659460001625,146.35724840010516,145.85659460001625,146.35724840010516,145.85659460001625,146.35724840010516,145.12192950001918,None,146.35724840010516,147.99332359991968,0.7500000000000004,148.00937200011685,None,148.76044439990073,None,,,,,,,[1.62928571],3.3000000000000025,0.7142857142857143,11028,002,2024_Jan_10_1808,MFTM_A_new1021,2021.2.3,60.08882328939536,
,,,,,,,,stim/Instruction_adaptive.png,conditions/adaptive.xlsx,test,0.6,0.6,0.6,-0.6,-0.6,right,R,,,,,0,1,1,1,0,14,14,80,,,,,,,,,,,,,,,,,,,,,,,,,,,,,,,,,,,,,,,,,,,,149.26208309992217,None,right,1,1.2329275999218225,149.76240159990266,150.94786439999007,149.76240159990266,150.4469169001095,149.76240159990266,150.4469169001095,149.76240159990266,150.4469169001095,149.76240159990266,150.4469169001095,149.76240159990266,150.4469169001095,150.4132672001142,150.91433329996653,150.4132672001142,150.91433329996653,150.4132672001142,150.91433329996653,150.4132672001142,150.91433329996653,150.4132672001142,150.91433329996653,150.4132672001142,150.91433329996653,150.4132672001142,150.91433329996653,150.4132672001142,150.91433329996653,149.76240159990266,None,150.91433329996653,152.56752200005576,0.6700000000000004,152.58280800003558,None,153.33404550002888,None,,,,,,,[1.64266667],3.4600000000000026,0.7333333333333333,11028,002,2024_Jan_10_1808,MFTM_A_new1021,2021.2.3,60.08882328939536,
,,,,,,,,stim/Instruction_adaptive.png,conditions/adaptive.xlsx,test,0.6,0.6,0.6,-0.6,-0.6,right,R,,,,,0,1,1,1,0,15,15,0,,,,,,,,,,,,,,,,,,,,,,,,,,,,,,,,,,,,,,,,,,,,153.83467909996398,None,left,0,1.0519328000955284,154.33537689992227,155.43827869999222,154.33537689992227,154.93630310008302,154.33537689992227,154.93630310008302,154.33537689992227,154.93630310008302,154.33537689992227,154.93630310008302,154.33537689992227,154.93630310008302,154.91948339994997,155.42133500007913,154.91948339994997,155.42133500007913,154.91948339994997,155.42133500007913,154.91948339994997,155.42133500007913,154.91948339994997,155.42133500007913,154.91948339994997,155.42133500007913,154.91948339994997,155.42133500007913,154.91948339994997,155.42133500007913,154.33537689992227,None,155.42133500007913,157.08936350001022,0.6000000000000003,157.10616299998946,None,157.85757600003853,None,,,,,,,[1.65875],3.0600000000000023,0.6875,11028,002,2024_Jan_10_1808,MFTM_A_new1021,2021.2.3,60.08882328939536,
,,,,,,,,stim/Instruction_adaptive.png,conditions/adaptive.xlsx,test,0.6,0.6,0.6,-0.6,-0.6,right,R,,,,,0,1,1,1,0,16,16,26,,,,,,,,,,,,,,,,,,,,,,,,,,,,,,,,,,,,,,,,,,,,158.35838790005073,None,right,1,1.7755921999923885,158.85949359997176,160.16158560011536,158.85949359997176,159.65990979992785,158.85949359997176,159.65990979992785,158.85949359997176,159.65990979992785,158.85949359997176,159.65990979992785,158.85949359997176,159.65990979992785,159.62776440009475,160.12732500000857,159.62776440009475,160.12732500000857,159.62776440009475,160.12732500000857,159.62776440009475,160.12732500000857,159.62776440009475,160.12732500000857,159.62776440009475,160.12732500000857,159.62776440009475,160.12732500000857,159.62776440009475,160.12732500000857,158.85949359997176,None,160.12732500000857,161.79680650006048,0.7900000000000005,161.8128168999683,None,162.56537629989907,None,,,,,,,[1.66176471],3.2100000000000026,0.7058823529411765,11028,002,2024_Jan_10_1808,MFTM_A_new1021,2021.2.3,60.08882328939536,
,,,,,,,,stim/Instruction_adaptive.png,conditions/adaptive.xlsx,test,-0.6,-0.6,-0.6,0.6,0.6,left,L,,,,,0,1,1,1,0,17,17,41,,,,,,,,,,,,,,,,,,,,,,,,,,,,,,,,,,,,,,,,,,,,163.06573370005935,None,right,0,1.189700699876994,163.56563020008616,164.78465789998882,163.56563020008616,164.28385409992188,163.56563020008616,164.28385409992188,163.56563020008616,164.28385409992188,163.56563020008616,164.28385409992188,163.56563020008616,164.28385409992188,164.25108189997263,164.7517105001025,164.25108189997263,164.7517105001025,164.25108189997263,164.7517105001025,164.25108189997263,164.7517105001025,164.25108189997263,164.7517105001025,164.25108189997263,164.7517105001025,164.25108189997263,164.7517105001025,164.25108189997263,164.7517105001025,163.56563020008616,None,164.7517105001025,166.42064539995044,0.7100000000000004,166.45320599991828,None,167.205626900075,None,,,,,,,[1.66888889],2.830000000000002,0.6666666666666666,11028,002,2024_Jan_10_1808,MFTM_A_new1021,2021.2.3,60.08882328939536,
,,,,,,,,stim/Instruction_adaptive.png,conditions/adaptive.xlsx,test,-0.6,-0.6,-0.6,0.6,0.6,left,L,,,,,0,1,1,1,0,18,18,9,,,,,,,,,,,,,,,,,,,,,,,,,,,,,,,,,,,,,,,,,,,,167.7059542001225,None,left,1,0.6293754999060184,168.20650390000083,169.6416967001278,168.20650390000083,169.1410376999993,168.20650390000083,169.1410376999993,168.20650390000083,169.1410376999993,168.20650390000083,169.1410376999993,168.20650390000083,169.1410376999993,169.12390229990706,169.62550420011394,169.12390229990706,169.62550420011394,169.12390229990706,169.62550420011394,169.12390229990706,169.62550420011394,169.12390229990706,169.62550420011394,169.12390229990706,169.62550420011394,169.12390229990706,169.62550420011394,169.12390229990706,169.62550420011394,168.20650390000083,None,169.62550420011394,171.19441460003145,0.9300000000000006,171.2102135999594,None,171.96156709990464,None,,,,,,,[[1.57]],2.9700000000000024,0.6842105263157895,11028,002,2024_Jan_10_1808,MFTM_A_new1021,2021.2.3,60.08882328939536,
,,,,,,,,stim/Instruction_adaptive.png,conditions/adaptive.xlsx,test,0.6,0.6,0.6,-0.6,-0.6,right,R,,,,,0,1,1,1,0,19,19,74,,,,,,,,,,,,,,,,,,,,,,,,,,,,,,,,,,,,,,,,,,,,172.46337449993007,None,right,1,0.992347399936989,172.96300740004517,174.3160184000153,172.96300740004517,173.81444120011292,172.96300740004517,173.81444120011292,172.96300740004517,173.81444120011292,172.96300740004517,173.81444120011292,172.96300740004517,173.81444120011292,173.7807320000138,174.2817371999845,173.7807320000138,174.2817371999845,173.7807320000138,174.2817371999845,173.7807320000138,174.2817371999845,173.7807320000138,174.2817371999845,173.7807320000138,174.2817371999845,173.7807320000138,174.2817371999845,173.7807320000138,174.2817371999845,172.96300740004517,None,174.2817371999845,175.9532594999764,0.8400000000000005,175.96741169993766,None,176.71856330009177,None,,,,,,,[[1.66]],3.1000000000000023,0.7,11028,002,2024_Jan_10_1808,MFTM_A_new1021,2021.2.3,60.08882328939536,
,,,,,,,,stim/Instruction_adaptive.png,conditions/adaptive.xlsx,test,0.6,0.6,0.6,-0.6,-0.6,right,R,,,,,0,1,1,1,0,20,20,62,,,,,,,,,,,,,,,,,,,,,,,,,,,,,,,,,,,,,,,,,,,,177.22027139994316,None,right,1,0.7070347999688238,177.72002919996157,178.98940870002843,177.72002919996157,178.50570499990135,177.72002919996157,178.50570499990135,177.72002919996157,178.50570499990135,177.72002919996157,178.50570499990135,177.72002919996157,178.50570499990135,178.47114760009572,178.97268759994768,178.47114760009572,178.97268759994768,178.47114760009572,178.97268759994768,178.47114760009572,178.97268759994768,178.47114760009572,178.97268759994768,178.47114760009572,178.97268759994768,178.47114760009572,178.97268759994768,178.47114760009572,178.97268759994768,177.72002919996157,None,178.97268759994768,180.6418320001103,0.7700000000000005,180.657151899999,None,181.40950850001536,None,,,,,,,[1.66666667],3.2100000000000026,0.7142857142857143,11028,002,2024_Jan_10_1808,MFTM_A_new1021,2021.2.3,60.08882328939536,
,,,,,,,,stim/Instruction_adaptive.png,conditions/adaptive.xlsx,test,0.6,0.6,0.6,-0.6,-0.6,right,R,,,,,0,1,1,1,0,21,21,98,,,,,,,,,,,,,,,,,,,,,,,,,,,,,,,,,,,,,,,,,,,,181.90976019995287,None,right,1,0.6408358998596668,182.4103463999927,183.6288391998969,182.4103463999927,183.12789290002547,182.4103463999927,183.12789290002547,182.4103463999927,183.12789290002547,182.4103463999927,183.12789290002547,182.4103463999927,183.12789290002547,183.09479540004395,183.59596169996075,183.09479540004395,183.59596169996075,183.09479540004395,183.59596169996075,183.09479540004395,183.59596169996075,183.09479540004395,183.59596169996075,183.09479540004395,183.59596169996075,183.09479540004395,183.59596169996075,183.09479540004395,183.59596169996075,182.4103463999927,None,183.59596169996075,185.28124519996345,0.7100000000000004,185.2982781000901,None,186.05001259990968,None,,,,,,,[1.67227273],3.3100000000000023,0.7272727272727273,11028,002,2024_Jan_10_1808,MFTM_A_new1021,2021.2.3,60.08882328939536,
,,,,,,,,stim/Instruction_adaptive.png,conditions/adaptive.xlsx,test,0.6,0.6,0.6,-0.6,-0.6,right,R,,,,,0,1,1,1,0,22,22,28,,,,,,,,,,,,,,,,,,,,,,,,,,,,,,,,,,,,,,,,,,,,186.55047319992445,None,right,1,0.9693690000567585,187.05052520008758,188.21979769994505,187.05052520008758,187.7180252999533,187.05052520008758,187.7180252999533,187.05052520008758,187.7180252999533,187.05052520008758,187.7180252999533,187.05052520008758,187.7180252999533,187.68485440011136,188.18578890012577,187.68485440011136,188.18578890012577,187.68485440011136,188.18578890012577,187.68485440011136,188.18578890012577,187.68485440011136,188.18578890012577,187.68485440011136,188.18578890012577,187.68485440011136,188.18578890012577,187.68485440011136,188.18578890012577,187.05052520008758,None,188.18578890012577,189.87198700010777,0.6600000000000004,189.90479249996133,None,190.65606740000658,None,,,,,,,[1.67956522],3.4000000000000026,0.7391304347826086,11028,002,2024_Jan_10_1808,MFTM_A_new1021,2021.2.3,60.08882328939536,
,,,,,,,,stim/Instruction_adaptive.png,conditions/adaptive.xlsx,test,-0.6,-0.6,-0.6,0.6,0.6,left,L,,,,,0,1,1,1,0,23,23,91,,,,,,,,,,,,,,,,,,,,,,,,,,,,,,,,,,,,,,,,,,,,191.15733570000157,None,left,1,0.5772881000302732,191.6579307001084,192.79314110009,191.6579307001084,192.2923002000898,191.6579307001084,192.2923002000898,191.6579307001084,192.2923002000898,191.6579307001084,192.2923002000898,191.6579307001084,192.2923002000898,192.25889330008067,192.75962370005436,192.25889330008067,192.75962370005436,192.25889330008067,192.75962370005436,192.25889330008067,192.75962370005436,192.25889330008067,192.75962370005436,192.25889330008067,192.75962370005436,192.25889330008067,192.75962370005436,192.25889330008067,192.75962370005436,191.6579307001084,None,192.75962370005436,194.462239400018,0.6200000000000003,194.47865929990076,None,195.23015920002945,None,,,,,,,[1.68791667],3.490000000000003,0.75,11028,002,2024_Jan_10_1808,MFTM_A_new1021,2021.2.3,60.08882328939536,
,,,,,,,,stim/Instruction_adaptive.png,conditions/adaptive.xlsx,test,-0.6,-0.6,-0.6,0.6,0.6,left,L,,,,,0,1,1,1,0,24,24,35,,,,,,,,,,,,,,,,,,,,,,,,,,,,,,,,,,,,,,,,,,,,195.73056389996782,None,left,1,0.484410900156945,196.23085419996642,197.33298070007004,196.23085419996642,196.8324825000018,196.23085419996642,196.8324825000018,196.23085419996642,196.8324825000018,196.23085419996642,196.8324825000018,196.23085419996642,196.8324825000018,196.79860990005545,197.30014030006714,196.79860990005545,197.30014030006714,196.79860990005545,197.30014030006714,196.79860990005545,197.30014030006714,196.79860990005545,197.30014030006714,196.79860990005545,197.30014030006714,196.79860990005545,197.30014030006714,196.79860990005545,197.30014030006714,196.23085419996642,None,197.30014030006714,199.00218100007623,0.5900000000000003,199.0188694000244,None,199.77005920000374,None,,,,,,,[1.6968],3.570000000000003,0.76,11028,002,2024_Jan_10_1808,MFTM_A_new1021,2021.2.3,60.08882328939536,
,,,,,,,,stim/Instruction_adaptive.png,conditions/adaptive.xlsx,test,0.6,0.6,0.6,-0.6,-0.6,right,R,,,,,0,1,1,1,0,25,25,14,,,,,,,,,,,,,,,,,,,,,,,,,,,,,,,,,,,,,,,,,,,,200.2705848000478,None,right,1,0.7909039999358356,200.77216290007345,201.82249159994535,200.77216290007345,201.32176230009645,200.77216290007345,201.32176230009645,200.77216290007345,201.32176230009645,200.77216290007345,201.32176230009645,200.77216290007345,201.32176230009645,201.30529160005972,201.80604880000465,201.30529160005972,201.80604880000465,201.30529160005972,201.80604880000465,201.30529160005972,201.80604880000465,201.30529160005972,201.80604880000465,201.30529160005972,201.80604880000465,201.30529160005972,201.80604880000465,201.30529160005972,201.80604880000465,200.77216290007345,None,201.80604880000465,203.52541369991377,0.5500000000000003,203.54163990006782,None,204.29339789994992,None,,,,,,,[1.70653846],3.640000000000003,0.7692307692307693,11028,002,2024_Jan_10_1808,MFTM_A_new1021,2021.2.3,60.08882328939536,
,,,,,,,,stim/Instruction_adaptive.png,conditions/adaptive.xlsx,test,0.6,0.6,0.6,-0.6,-0.6,right,R,,,,,0,1,1,1,0,26,26,94,,,,,,,,,,,,,,,,,,,,,,,,,,,,,,,,,,,,,,,,,,,,204.7933765000198,None,right,1,0.7490886999294162,205.29434820008464,206.32997249998152,205.29434820008464,205.83021089993417,205.29434820008464,205.83021089993417,205.29434820008464,205.83021089993417,205.29434820008464,205.83021089993417,205.29434820008464,205.83021089993417,205.81172430003062,206.31304430007003,205.81172430003062,206.31304430007003,205.81172430003062,206.31304430007003,205.81172430003062,206.31304430007003,205.81172430003062,206.31304430007003,205.81172430003062,206.31304430007003,205.81172430003062,206.31304430007003,205.81172430003062,206.31304430007003,205.29434820008464,None,206.31304430007003,208.03198769991286,0.5300000000000002,208.04846190009266,None,208.80002800002694,None,,,,,,,[1.7162963],3.7100000000000026,0.7777777777777778,11028,002,2024_Jan_10_1808,MFTM_A_new1021,2021.2.3,60.08882328939536,
,,,,,,,,stim/Instruction_adaptive.png,conditions/adaptive.xlsx,test,-0.6,-0.6,-0.6,0.6,0.6,left,L,,,,,0,1,1,1,0,27,27,93,,,,,,,,,,,,,,,,,,,,,,,,,,,,,,,,,,,,,,,,,,,,209.30029939999804,None,left,1,0.5299913000781089,209.80102219991386,210.80353170004673,209.80102219991386,210.3015409000218,209.80102219991386,210.3015409000218,209.80102219991386,210.3015409000218,209.80102219991386,210.3015409000218,209.80102219991386,210.3015409000218,210.2847822001204,210.78666260000318,210.2847822001204,210.78666260000318,210.2847822001204,210.78666260000318,210.2847822001204,210.78666260000318,210.2847822001204,210.78666260000318,210.2847822001204,210.78666260000318,210.2847822001204,210.78666260000318,210.2847822001204,210.78666260000318,209.80102219991386,None,210.78666260000318,212.52275449992158,0.5000000000000002,212.53837760002352,None,213.2896589001175,None,,,,,,,[1.72642857],3.770000000000003,0.7857142857142857,11028,002,2024_Jan_10_1808,MFTM_A_new1021,2021.2.3,60.08882328939536,
,,,,,,,,stim/Instruction_adaptive.png,conditions/adaptive.xlsx,test,-0.6,-0.6,-0.6,0.6,0.6,left,L,,,,,0,1,1,1,0,28,28,37,,,,,,,,,,,,,,,,,,,,,,,,,,,,,,,,,,,,,,,,,,,,213.79000929999165,None,left,1,0.6320879999548197,214.29096870007925,215.27846940001473,214.29096870007925,214.77498230012134,214.29096870007925,214.77498230012134,214.29096870007925,214.77498230012134,214.29096870007925,214.77498230012134,214.29096870007925,214.77498230012134,214.75851620011963,215.25925990007818,214.75851620011963,215.25925990007818,214.75851620011963,215.25925990007818,214.75851620011963,215.25925990007818,214.75851620011963,215.25925990007818,214.75851620011963,215.25925990007818,214.75851620011963,215.25925990007818,214.75851620011963,215.25925990007818,214.29096870007925,None,215.25925990007818,216.994965699967,0.4800000000000002,217.01164619997144,None,217.76364529994316,None,,,,,,,[1.73655172],3.8300000000000027,0.7931034482758621,11028,002,2024_Jan_10_1808,MFTM_A_new1021,2021.2.3,60.08882328939536,
,,,,,,,,stim/Instruction_adaptive.png,conditions/adaptive.xlsx,test,0.6,0.6,0.6,-0.6,-0.6,right,R,,,,,0,1,1,1,0,29,29,82,,,,,,,,,,,,,,,,,,,,,,,,,,,,,,,,,,,,,,,,,,,,218.26402510004118,None,left,0,0.4549851999618113,218.76407720008865,219.73259279993363,218.76407720008865,219.23166309995577,218.76407720008865,219.23166309995577,218.76407720008865,219.23166309995577,218.76407720008865,219.23166309995577,218.76407720008865,219.23166309995577,219.19835110008717,219.70012319996022,219.19835110008717,219.70012319996022,219.19835110008717,219.70012319996022,219.19835110008717,219.70012319996022,219.19835110008717,219.70012319996022,219.19835110008717,219.70012319996022,219.19835110008717,219.70012319996022,219.19835110008717,219.70012319996022,218.76407720008865,None,219.70012319996022,221.45226279995404,0.4600000000000002,221.48481910000555,None,222.23665559990332,None,,,,,,,[1.74666667],3.660000000000003,0.7666666666666667,11028,002,2024_Jan_10_1808,MFTM_A_new1021,2021.2.3,60.08882328939536,
,,,,,,,,stim/Instruction_adaptive.png,conditions/adaptive.xlsx,test,-0.6,-0.6,-0.6,0.6,0.6,left,L,,,,,0,1,1,1,0,30,30,49,,,,,,,,,,,,,,,,,,,,,,,,,,,,,,,,,,,,,,,,,,,,222.73714040010236,None,right,0,0.9819450001232326,223.23765529994853,224.27307899994776,223.23765529994853,223.77168820006773,223.23765529994853,223.77168820006773,223.23765529994853,223.77168820006773,223.23765529994853,223.77168820006773,223.23765529994853,223.77168820006773,223.73820449993946,224.23978659999557,223.73820449993946,224.23978659999557,223.73820449993946,224.23978659999557,223.73820449993946,224.23978659999557,223.73820449993946,224.23978659999557,223.73820449993946,224.23978659999557,223.73820449993946,224.23978659999557,223.73820449993946,224.23978659999557,223.23765529994853,None,224.23978659999557,226.01068120007403,0.5200000000000002,226.0249199999962,None,226.77684860001318,None,,,,,,,[1.75419355],3.4800000000000026,0.7419354838709677,11028,002,2024_Jan_10_1808,MFTM_A_new1021,2021.2.3,60.08882328939536,
,,,,,,,,stim/Instruction_adaptive.png,conditions/adaptive.xlsx,test,-0.6,-0.6,-0.6,0.6,0.6,left,L,,,,,0,1,1,1,0,31,31,83,,,,,,,,,,,,,,,,,,,,,,,,,,,,,,,,,,,,,,,,,,,,227.27744430000894,None,right,0,1.0343218999914825,227.77754890010692,228.8791330999229,227.77754890010692,228.37875999999233,227.77754890010692,228.37875999999233,227.77754890010692,228.37875999999233,227.77754890010692,228.37875999999233,227.77754890010692,228.37875999999233,228.34548830008134,228.84589060000144,228.34548830008134,228.84589060000144,228.34548830008134,228.84589060000144,228.34548830008134,228.84589060000144,228.34548830008134,228.84589060000144,228.34548830008134,228.84589060000144,228.34548830008134,228.84589060000144,228.34548830008134,228.84589060000144,227.77754890010692,None,228.84589060000144,230.61712609999813,0.5900000000000003,230.63222120003775,None,231.38372540008277,None,,,,,,,[1.7590625],3.2900000000000027,0.71875,11028,002,2024_Jan_10_1808,MFTM_A_new1021,2021.2.3,60.08882328939536,
,,,,,,,,stim/Instruction_adaptive.png,conditions/adaptive.xlsx,test,0.6,0.6,0.6,-0.6,-0.6,right,R,,,,,0,1,1,1,0,32,32,78,,,,,,,,,,,,,,,,,,,,,,,,,,,,,,,,,,,,,,,,,,,,231.8837111000903,None,right,1,0.9066951998975128,232.38444390008226,233.55395329999737,232.38444390008226,233.0687188000884,232.38444390008226,233.0687188000884,232.38444390008226,233.0687188000884,232.38444390008226,233.0687188000884,232.38444390008226,233.0687188000884,233.0352459999267,233.5369130000472,233.0352459999267,233.5369130000472,233.0352459999267,233.5369130000472,233.0352459999267,233.5369130000472,233.0352459999267,233.5369130000472,233.0352459999267,233.5369130000472,233.0352459999267,233.5369130000472,233.0352459999267,233.5369130000472,232.38444390008226,None,233.5369130000472,235.30638460000046,0.6700000000000004,235.32215990009718,None,236.07385269994847,None,,,,,,,[1.76121212],3.3600000000000025,0.7272727272727273,11028,002,2024_Jan_10_1808,MFTM_A_new1021,2021.2.3,60.08882328939536,
,,,,,,,,stim/Instruction_adaptive.png,conditions/adaptive.xlsx,test,-0.6,-0.6,-0.6,0.6,0.6,left,L,,,,,0,1,1,1,0,33,33,87,,,,,,,,,,,,,,,,,,,,,,,,,,,,,,,,,,,,,,,,,,,,236.57449649996124,None,left,1,0.8016731000971049,237.07464080001228,238.227262099972,237.07464080001228,237.72578420001082,237.07464080001228,237.72578420001082,237.07464080001228,237.72578420001082,237.07464080001228,237.72578420001082,237.07464080001228,237.72578420001082,237.6930337001104,238.19307749997824,237.6930337001104,238.19307749997824,237.6930337001104,238.19307749997824,237.6930337001104,238.19307749997824,237.6930337001104,238.19307749997824,237.6930337001104,238.19307749997824,237.6930337001104,238.19307749997824,237.6930337001104,238.19307749997824,237.07464080001228,None,238.19307749997824,239.96501250006258,0.6400000000000003,239.9789090999402,None,240.7307408999186,None,,,,,,,[1.76411765],3.4200000000000026,0.7352941176470589,11028,002,2024_Jan_10_1808,MFTM_A_new1021,2021.2.3,60.08882328939536,
,,,,,,,,stim/Instruction_adaptive.png,conditions/adaptive.xlsx,test,0.6,0.6,0.6,-0.6,-0.6,right,R,,,,,0,1,1,1,0,34,34,16,,,,,,,,,,,,,,,,,,,,,,,,,,,,,,,,,,,,,,,,,,,,241.23100910009816,None,right,1,0.8390771001577377,241.73214600002393,242.8507439000532,241.73214600002393,242.34932100004517,241.73214600002393,242.34932100004517,241.73214600002393,242.34932100004517,241.73214600002393,242.34932100004517,241.73214600002393,242.34932100004517,242.3325509999413,242.83384300000034,242.3325509999413,242.83384300000034,242.3325509999413,242.83384300000034,242.3325509999413,242.83384300000034,242.3325509999413,242.83384300000034,242.3325509999413,242.83384300000034,242.3325509999413,242.83384300000034,242.3325509999413,242.83384300000034,241.73214600002393,None,242.83384300000034,244.60244280006737,0.6100000000000003,244.6195312999189,None,245.37052730005234,None,,,,,,,[1.76771429],3.4800000000000026,0.7428571428571429,11028,002,2024_Jan_10_1808,MFTM_A_new1021,2021.2.3,60.08882328939536,
,,,,,,,,stim/Instruction_adaptive.png,conditions/adaptive.xlsx,test,0.6,0.6,0.6,-0.6,-0.6,right,R,,,,,0,1,1,1,0,35,35,92,,,,,,,,,,,,,,,,,,,,,,,,,,,,,,,,,,,,,,,,,,,,245.87164600007236,None,left,0,1.2384866999927908,246.37288319994695,247.4735745000653,246.37288319994695,246.97287370008416,246.37288319994695,246.97287370008416,246.37288319994695,246.97287370008416,246.37288319994695,246.97287370008416,246.37288319994695,246.97287370008416,246.93939190008678,247.44084680010565,246.93939190008678,247.44084680010565,246.93939190008678,247.44084680010565,246.93939190008678,247.44084680010565,246.93939190008678,247.44084680010565,246.93939190008678,247.44084680010565,246.93939190008678,247.44084680010565,246.93939190008678,247.44084680010565,246.37288319994695,None,247.44084680010565,249.22746740002185,0.5900000000000003,249.2424763001036,None,249.99418430007063,None,,,,,,,[1.77166667],3.3100000000000023,0.7222222222222222,11028,002,2024_Jan_10_1808,MFTM_A_new1021,2021.2.3,60.08882328939536,
,,,,,,,,stim/Instruction_adaptive.png,conditions/adaptive.xlsx,test,0.6,0.6,0.6,-0.6,-0.6,right,R,,,,,0,1,1,1,0,36,36,34,,,,,,,,,,,,,,,,,,,,,,,,,,,,,,,,,,,,,,,,,,,,250.494795500068,None,right,1,0.8959799001459032,250.99527029995807,252.16419179993682,250.99527029995807,251.66368940006942,250.99527029995807,251.66368940006942,250.99527029995807,251.66368940006942,250.99527029995807,251.66368940006942,250.99527029995807,251.66368940006942,251.6462681000121,252.14721600012854,251.6462681000121,252.14721600012854,251.6462681000121,252.14721600012854,251.6462681000121,252.14721600012854,251.6462681000121,252.14721600012854,251.6462681000121,252.14721600012854,251.6462681000121,252.14721600012854,251.6462681000121,252.14721600012854,250.99527029995807,None,252.14721600012854,None,0.6600000000000004,253.9329858000856,None,254.68440679996274,None,,,,,,,[1.77351351],3.3700000000000028,0.7297297297297297,11028,002,2024_Jan_10_1808,MFTM_A_new1021,2021.2.3,60.08882328939536,
,,,,,,,,stim/Instruction_adaptive.png,conditions/adaptive.xlsx,test,-0.6,-0.6,-0.6,0.6,0.6,left,L,,,,,0,1,1,1,0,37,37,53,,,,,,,,,,,,,,,,,,,,,,,,,,,,,,,,,,,,,,,,,,,,255.18561349995434,None,left,1,0.6775046000257134,255.68567269993946,256.83805079991,255.68567269993946,256.3373680000659,255.68567269993946,256.3373680000659,255.68567269993946,256.3373680000659,255.68567269993946,256.3373680000659,255.68567269993946,256.3373680000659,256.30322190001607,256.80461010010913,256.30322190001607,256.80461010010913,256.30322190001607,256.80461010010913,256.30322190001607,256.80461010010913,256.30322190001607,256.80461010010913,256.30322190001607,256.80461010010913,256.30322190001607,256.80461010010913,256.30322190001607,256.80461010010913,255.68567269993946,None,256.80461010010913,258.5912993999664,0.6400000000000003,258.6066223999951,None,259.3582673999481,None,,,,,,,[1.77578947],3.4300000000000024,0.7368421052631579,11028,002,2024_Jan_10_1808,MFTM_A_new1021,2021.2.3,60.08882328939536,
,,,,,,,,stim/Instruction_adaptive.png,conditions/adaptive.xlsx,test,-0.6,-0.6,-0.6,0.6,0.6,left,L,,,,,0,1,1,1,0,38,38,55,,,,,,,,,,,,,,,,,,,,,,,,,,,,,,,,,,,,,,,,,,,,259.8596604000777,None,left,1,1.13999620010145,260.35940849990584,261.47764850012027,260.35940849990584,260.9771424001083,260.35940849990584,260.9771424001083,260.35940849990584,260.9771424001083,260.35940849990584,260.9771424001083,260.35940849990584,260.9771424001083,260.9435060999822,261.4447027000133,260.9435060999822,261.4447027000133,260.9435060999822,261.4447027000133,260.9435060999822,261.4447027000133,260.9435060999822,261.4447027000133,260.9435060999822,261.4447027000133,260.9435060999822,261.4447027000133,260.9435060999822,261.4447027000133,260.35940849990584,None,261.4447027000133,263.23040420003235,0.6100000000000003,263.2468878000509,None,263.99807359999977,None,,,,,,,[1.77871795],3.4800000000000026,0.7435897435897436,11028,002,2024_Jan_10_1808,MFTM_A_new1021,2021.2.3,60.08882328939536,
,,,,,,,,stim/Instruction_adaptive.png,conditions/adaptive.xlsx,test,-0.6,-0.6,-0.6,0.6,0.6,left,L,,,,,0,1,1,1,0,39,39,1,,,,,,,,,,,,,,,,,,,,,,,,,,,,,,,,,,,,,,,,,,,,264.49933700007387,None,left,1,0.627856699982658,264.9993666000664,266.1012180999387,264.9993666000664,265.6009372000117,264.9993666000664,265.6009372000117,264.9993666000664,265.6009372000117,264.9993666000664,265.6009372000117,264.9993666000664,265.6009372000117,265.56713630002923,266.0679150999058,265.56713630002923,266.0679150999058,265.56713630002923,266.0679150999058,265.56713630002923,266.0679150999058,265.56713630002923,266.0679150999058,265.56713630002923,266.0679150999058,265.56713630002923,266.0679150999058,265.56713630002923,266.0679150999058,264.9993666000664,None,266.0679150999058,267.85482800006866,0.5900000000000003,267.87026409991086,None,268.62246340001,None,,,,,,,[1.782],3.530000000000003,0.75,11028,002,2024_Jan_10_1808,MFTM_A_new1021,2021.2.3,60.08882328939536,
,,,,,,,,stim/Instruction_adaptive.png,conditions/adaptive.xlsx,test,0.6,0.6,0.6,-0.6,-0.6,right,R,,,,,0,1,1,1,0,40,40,56,,,,,,,,,,,,,,,,,,,,,,,,,,,,,,,,,,,,,,,,,,,,269.1223158000503,None,left,0,1.0282708001323044,269.62291239993647,270.7080057999119,269.62291239993647,270.207900499925,269.62291239993647,270.207900499925,269.62291239993647,270.207900499925,269.62291239993647,270.207900499925,269.62291239993647,270.207900499925,270.17440439993516,270.67514810012653,270.17440439993516,270.67514810012653,270.17440439993516,270.67514810012653,270.17440439993516,270.67514810012653,270.17440439993516,270.67514810012653,270.17440439993516,270.67514810012653,270.17440439993516,270.67514810012653,270.17440439993516,270.67514810012653,269.62291239993647,None,270.67514810012653,272.46120509994216,0.5700000000000003,272.4769810999278,None,273.2286684999708,None,,,,,,,[1.78560976],3.3900000000000023,0.7317073170731707,11028,002,2024_Jan_10_1808,MFTM_A_new1021,2021.2.3,60.08882328939536,
,,,,,,,,stim/Instruction_adaptive.png,conditions/adaptive.xlsx,test,0.6,0.6,0.6,-0.6,-0.6,right,R,,,,,0,1,1,1,0,41,41,50,,,,,,,,,,,,,,,,,,,,,,,,,,,,,,,,,,,,,,,,,,,,273.7291335000191,None,right,1,0.8046771001536399,274.230479599908,275.36484359996393,274.230479599908,274.8639118000865,274.230479599908,274.8639118000865,274.230479599908,274.8639118000865,274.230479599908,274.8639118000865,274.230479599908,274.8639118000865,274.84777160012163,275.3480978999287,274.84777160012163,275.3480978999287,274.84777160012163,275.3480978999287,274.84777160012163,275.3480978999287,274.84777160012163,275.3480978999287,274.84777160012163,275.3480978999287,274.84777160012163,275.3480978999287,274.84777160012163,275.3480978999287,274.230479599908,None,275.3480978999287,None,0.6300000000000003,277.15108829992823,None,277.9023853999097,None,,,,,,,[1.78761905],3.4400000000000026,0.7380952380952381,11028,002,2024_Jan_10_1808,MFTM_A_new1021,2021.2.3,60.08882328939536,
,,,,,,,,stim/Instruction_adaptive.png,conditions/adaptive.xlsx,test,-0.6,-0.6,-0.6,0.6,0.6,left,L,,,,,0,1,1,1,0,42,42,21,,,,,,,,,,,,,,,,,,,,,,,,,,,,,,,,,,,,,,,,,,,,278.40322769992054,None,right,0,1.0599309001117945,278.903231699951,280.02173650008626,278.903231699951,279.5209383999463,278.903231699951,279.5209383999463,278.903231699951,279.5209383999463,278.903231699951,279.5209383999463,278.903231699951,279.5209383999463,279.50456180004403,280.00525390007533,279.50456180004403,280.00525390007533,279.50456180004403,280.00525390007533,279.50456180004403,280.00525390007533,279.50456180004403,280.00525390007533,279.50456180004403,280.00525390007533,279.50456180004403,280.00525390007533,279.50456180004403,280.00525390007533,278.903231699951,None,280.00525390007533,None,0.6100000000000003,281.80799030000344,None,282.5600264999084,None,,,,,,,[1.79],3.2900000000000027,0.7209302325581395,11028,002,2024_Jan_10_1808,MFTM_A_new1021,2021.2.3,60.08882328939536,
,,,,,,,,stim/Instruction_adaptive.png,conditions/adaptive.xlsx,test,-0.6,-0.6,-0.6,0.6,0.6,left,L,,,,,0,1,1,1,0,43,43,3,,,,,,,,,,,,,,,,,,,,,,,,,,,,,,,,,,,,,,,,,,,,283.0606144000776,None,left,1,0.7381659999955446,283.56099130003713,284.74646160006523,283.56099130003713,284.2456227000803,283.56099130003713,284.2456227000803,283.56099130003713,284.2456227000803,283.56099130003713,284.2456227000803,283.56099130003713,284.2456227000803,284.2111331000924,284.7128475001082,284.2111331000924,284.7128475001082,284.2111331000924,284.7128475001082,284.2111331000924,284.7128475001082,284.2111331000924,284.7128475001082,284.2111331000924,284.7128475001082,284.2111331000924,284.7128475001082,284.2111331000924,284.7128475001082,283.56099130003713,None,284.7128475001082,286.5157298000995,0.6700000000000004,286.53110160003416,None,287.2825599000789,None,,,,,,,[1.79090909],3.3400000000000025,0.7272727272727273,11028,002,2024_Jan_10_1808,MFTM_A_new1021,2021.2.3,60.08882328939536,
,,,,,,,,stim/Instruction_adaptive.png,conditions/adaptive.xlsx,test,-0.6,-0.6,-0.6,0.6,0.6,left,L,,,,,0,1,1,1,0,44,44,45,,,,,,,,,,,,,,,,,,,,,,,,,,,,,,,,,,,,,,,,,,,,287.783686199924,None,left,1,0.7110645000357181,288.28418050007895,289.43594210012816,288.28418050007895,288.93559919996187,288.28418050007895,288.93559919996187,288.28418050007895,288.93559919996187,288.28418050007895,288.93559919996187,288.28418050007895,288.93559919996187,288.91862759995274,289.4191904000472,288.91862759995274,289.4191904000472,288.91862759995274,289.4191904000472,288.91862759995274,289.4191904000472,288.91862759995274,289.4191904000472,288.91862759995274,289.4191904000472,288.91862759995274,289.4191904000472,288.91862759995274,289.4191904000472,288.28418050007895,None,289.4191904000472,291.221946900012,0.6500000000000004,291.2384939000476,None,291.9900056999177,None,,,,,,,[1.79222222],3.3900000000000023,0.7333333333333333,11028,002,2024_Jan_10_1808,MFTM_A_new1021,2021.2.3,60.08882328939536,
,,,,,,,,stim/Instruction_adaptive.png,conditions/adaptive.xlsx,test,0.6,0.6,0.6,-0.6,-0.6,right,R,,,,,0,1,1,1,0,45,45,60,,,,,,,,,,,,,,,,,,,,,,,,,,,,,,,,,,,,,,,,,,,,292.49120990000665,None,left,0,0.6840646998025477,292.99119900004007,294.12800569995306,292.99119900004007,293.625848100055,292.99119900004007,293.625848100055,292.99119900004007,293.625848100055,292.99119900004007,293.625848100055,292.99119900004007,293.625848100055,293.6096065000165,294.1096542000305,293.6096065000165,294.1096542000305,293.6096065000165,294.1096542000305,293.6096065000165,294.1096542000305,293.6096065000165,294.1096542000305,293.6096065000165,294.1096542000305,293.6096065000165,294.1096542000305,293.6096065000165,294.1096542000305,292.99119900004007,None,294.1096542000305,295.9120545000769,0.6300000000000003,295.9286066999193,None,296.68050320004113,None,,,,,,,[1.79391304],3.2500000000000027,0.717391304347826,11028,002,2024_Jan_10_1808,MFTM_A_new1021,2021.2.3,60.08882328939536,
,,,,,,,,stim/Instruction_adaptive.png,conditions/adaptive.xlsx,test,-0.6,-0.6,-0.6,0.6,0.6,left,L,,,,,0,1,1,1,0,46,46,29,,,,,,,,,,,,,,,,,,,,,,,,,,,,,,,,,,,,,,,,,,,,297.1808821999002,None,left,1,0.6582636998500675,297.68123070010915,298.8833043000195,297.68123070010915,298.38244959991425,297.68123070010915,298.38244959991425,297.68123070010915,298.38244959991425,297.68123070010915,298.38244959991425,297.68123070010915,298.38244959991425,298.34901469992474,298.8499547999818,298.34901469992474,298.8499547999818,298.34901469992474,298.8499547999818,298.34901469992474,298.8499547999818,298.34901469992474,298.8499547999818,298.34901469992474,298.8499547999818,298.34901469992474,298.8499547999818,298.34901469992474,298.8499547999818,297.68123070010915,None,298.8499547999818,300.65267729992047,0.6900000000000004,300.6694990999531,None,301.42024910007603,None,,,,,,,[1.79425532],3.3000000000000025,0.723404255319149,11028,002,2024_Jan_10_1808,MFTM_A_new1021,2021.2.3,60.08882328939536,
,,,,,,,,stim/Instruction_adaptive.png,conditions/adaptive.xlsx,test,0.6,0.6,0.6,-0.6,-0.6,right,R,,,,,0,1,1,1,0,47,47,58,,,,,,,,,,,,,,,,,,,,,,,,,,,,,,,,,,,,,,,,,,,,301.9213755999226,None,right,1,0.598584400024265,302.42156359995715,303.60740459989756,302.42156359995715,303.10693280003034,302.42156359995715,303.10693280003034,302.42156359995715,303.10693280003034,302.42156359995715,303.10693280003034,302.42156359995715,303.10693280003034,303.0728756999597,303.5736976999324,303.0728756999597,303.5736976999324,303.0728756999597,303.5736976999324,303.0728756999597,303.5736976999324,303.0728756999597,303.5736976999324,303.0728756999597,303.5736976999324,303.0728756999597,303.5736976999324,303.0728756999597,303.5736976999324,302.42156359995715,None,303.5736976999324,305.3758894999046,0.6700000000000004,305.39251119992696,None,306.1437502000481,None,,,,,,,[1.795],3.3500000000000023,0.7291666666666666,11028,002,2024_Jan_10_1808,MFTM_A_new1021,2021.2.3,60.08882328939536,
,,,,,,,,stim/Instruction_adaptive.png,conditions/adaptive.xlsx,test,0.6,0.6,0.6,-0.6,-0.6,right,R,,,,,0,1,1,1,0,48,48,52,,,,,,,,,,,,,,,,,,,,,,,,,,,,,,,,,,,,,,,,,,,,306.6446774001233,None,right,1,1.0261456998996437,307.14502250007354,308.296797899995,307.14502250007354,307.79725229996257,307.14502250007354,307.79725229996257,307.14502250007354,307.79725229996257,307.14502250007354,307.79725229996257,307.14502250007354,307.79725229996257,307.78060210007243,308.28090519993566,307.78060210007243,308.28090519993566,307.78060210007243,308.28090519993566,307.78060210007243,308.28090519993566,307.78060210007243,308.28090519993566,307.78060210007243,308.28090519993566,307.78060210007243,308.28090519993566,307.78060210007243,308.28090519993566,307.14502250007354,None,308.28090519993566,310.0834864999633,0.6500000000000004,310.0995644000359,None,310.8512665000744,None,,,,,,,[1.79612245],3.3900000000000023,0.7346938775510204,11028,002,2024_Jan_10_1808,MFTM_A_new1021,2021.2.3,60.08882328939536,
,,,,,,,,stim/Instruction_adaptive.png,conditions/adaptive.xlsx,test,-0.6,-0.6,-0.6,0.6,0.6,left,L,,,,,0,1,1,1,0,49,49,23,,,,,,,,,,,,,,,,,,,,,,,,,,,,,,,,,,,,,,,,,,,,311.35214630002156,None,right,0,1.27880290010944,311.8526429000776,312.9890050000977,311.8526429000776,312.4866498999763,311.8526429000776,312.4866498999763,311.8526429000776,312.4866498999763,311.8526429000776,312.4866498999763,311.8526429000776,312.4866498999763,312.47079719998874,312.97060060012154,312.47079719998874,312.97060060012154,312.47079719998874,312.97060060012154,312.47079719998874,312.97060060012154,312.47079719998874,312.97060060012154,312.47079719998874,312.97060060012154,312.47079719998874,312.97060060012154,312.47079719998874,312.97060060012154,311.8526429000776,None,312.97060060012154,314.77323790010996,0.6300000000000003,314.7903581999708,None,315.54166639992036,None,,,,,,,[1.7976],3.2700000000000022,0.72,11028,002,2024_Jan_10_1808,MFTM_A_new1021,2021.2.3,60.08882328939536,
,,,,,,,,stim/Instruction_adaptive.png,conditions/adaptive.xlsx,test,-0.6,-0.6,-0.6,0.6,0.6,left,L,,,,,0,1,1,1,0,50,50,61,,,,,,,,,,,,,,,,,,,,,,,,,,,,,,,,,,,,,,,,,,,,316.041699500056,None,left,1,0.6200701000634581,316.5431723999791,317.7286000000313,316.5431723999791,317.22702009999193,316.5431723999791,317.22702009999193,316.5431723999791,317.22702009999193,316.5431723999791,317.22702009999193,316.5431723999791,317.22702009999193,317.21022460004315,317.71133480011486,317.21022460004315,317.71133480011486,317.21022460004315,317.71133480011486,317.21022460004315,317.71133480011486,317.21022460004315,317.71133480011486,317.21022460004315,317.71133480011486,317.21022460004315,317.71133480011486,317.21022460004315,317.71133480011486,316.5431723999791,None,317.71133480011486,319.51418410008773,0.6800000000000004,319.53027389990166,None,320.28165820008144,None,,,,,,,[1.79803922],3.3100000000000023,0.7254901960784313,11028,002,2024_Jan_10_1808,MFTM_A_new1021,2021.2.3,60.08882328939536,
,,,,,,,,stim/Instruction_adaptive.png,conditions/adaptive.xlsx,test,-0.6,-0.6,-0.6,0.6,0.6,left,L,,,,,0,1,1,1,0,51,51,19,,,,,,,,,,,,,,,,,,,,,,,,,,,,,,,,,,,,,,,,,,,,320.7823125999421,None,left,1,0.8003972999285907,321.28372800000943,322.45178780006245,321.28372800000943,321.9513119000476,321.28372800000943,321.9513119000476,321.28372800000943,321.9513119000476,321.28372800000943,321.9513119000476,321.28372800000943,321.9513119000476,321.91745280008763,322.418442199938,321.91745280008763,322.418442199938,321.91745280008763,322.418442199938,321.91745280008763,322.418442199938,321.91745280008763,322.418442199938,321.91745280008763,322.418442199938,321.91745280008763,322.418442199938,321.91745280008763,322.418442199938,321.28372800000943,None,322.418442199938,324.2207172999624,0.6600000000000004,324.25412370008416,None,325.00485930009745,None,,,,,,,[1.79884615],3.3500000000000023,0.7307692307692307,11028,002,2024_Jan_10_1808,MFTM_A_new1021,2021.2.3,60.08882328939536,
,,,,,,,,stim/Instruction_adaptive.png,conditions/adaptive.xlsx,test,0.6,0.6,0.6,-0.6,-0.6,right,R,,,,,0,1,1,1,0,52,52,66,,,,,,,,,,,,,,,,,,,,,,,,,,,,,,,,,,,,,,,,,,,,325.50577830011025,None,right,1,1.0135941000189632,326.0065522999503,327.1590758000966,326.0065522999503,326.6573932999745,326.0065522999503,326.6573932999745,326.0065522999503,326.6573932999745,326.0065522999503,326.6573932999745,326.0065522999503,326.6573932999745,326.64060669997707,327.1422949999105,326.64060669997707,327.1422949999105,326.64060669997707,327.1422949999105,326.64060669997707,327.1422949999105,326.64060669997707,327.1422949999105,326.64060669997707,327.1422949999105,326.64060669997707,327.1422949999105,326.64060669997707,327.1422949999105,326.0065522999503,None,327.1422949999105,328.945491499966,0.6500000000000004,328.961819200078,None,329.7122021999676,None,,,,,,,[1.79981132],3.3900000000000023,0.7358490566037735,11028,002,2024_Jan_10_1808,MFTM_A_new1021,2021.2.3,60.08882328939536,
,,,,,,,,stim/Instruction_adaptive.png,conditions/adaptive.xlsx,test,-0.6,-0.6,-0.6,0.6,0.6,left,L,,,,,0,1,1,1,0,53,53,51,,,,,,,,,,,,,,,,,,,,,,,,,,,,,,,,,,,,,,,,,,,,330.21381129999645,None,left,1,0.8177847000770271,330.7135495999828,331.8492797999643,330.7135495999828,331.3475458000321,330.7135495999828,331.3475458000321,330.7135495999828,331.3475458000321,330.7135495999828,331.3475458000321,330.7135495999828,331.3475458000321,331.3322125999257,331.83242699992843,331.3322125999257,331.83242699992843,331.3322125999257,331.83242699992843,331.3322125999257,331.83242699992843,331.3322125999257,331.83242699992843,331.3322125999257,331.83242699992843,331.3322125999257,331.83242699992843,331.3322125999257,331.83242699992843,330.7135495999828,None,331.83242699992843,333.6348147999961,0.6300000000000003,333.65116919996217,None,334.4028982000891,None,,,,,,,[1.80111111],3.4300000000000024,0.7407407407407407,11028,002,2024_Jan_10_1808,MFTM_A_new1021,2021.2.3,60.08882328939536,
,,,,,,,,stim/Instruction_adaptive.png,conditions/adaptive.xlsx,test,-0.6,-0.6,-0.6,0.6,0.6,left,L,,,,,0,1,1,1,0,54,54,11,,,,,,,,,,,,,,,,,,,,,,,,,,,,,,,,,,,,,,,,,,,,334.9032670999877,None,right,0,0.8472285000607371,335.4042903999798,336.52267470001243,335.4042903999798,336.0215737000108,335.4042903999798,336.0215737000108,335.4042903999798,336.0215737000108,335.4042903999798,336.0215737000108,335.4042903999798,336.0215737000108,336.0053093000315,336.5053546000272,336.0053093000315,336.5053546000272,336.0053093000315,336.5053546000272,336.0053093000315,336.5053546000272,336.0053093000315,336.5053546000272,336.0053093000315,336.5053546000272,336.0053093000315,336.5053546000272,336.0053093000315,336.5053546000272,335.4042903999798,None,336.5053546000272,338.30883680004627,0.6100000000000003,338.32531099999323,None,339.0761607000604,None,,,,,,,[1.80272727],3.3200000000000025,0.7272727272727273,11028,002,2024_Jan_10_1808,MFTM_A_new1021,2021.2.3,60.08882328939536,
,,,,,,,,stim/Instruction_adaptive.png,conditions/adaptive.xlsx,test,-0.6,-0.6,-0.6,0.6,0.6,left,L,,,,,0,1,1,1,0,55,55,13,,,,,,,,,,,,,,,,,,,,,,,,,,,,,,,,,,,,,,,,,,,,339.5764784999192,None,left,1,0.685806900030002,340.07737040007487,341.246865299996,340.07737040007487,340.7457888000645,340.07737040007487,340.7457888000645,340.07737040007487,340.7457888000645,340.07737040007487,340.7457888000645,340.07737040007487,340.7457888000645,340.7296963001136,341.22962879994884,340.7296963001136,341.22962879994884,340.7296963001136,341.22962879994884,340.7296963001136,341.22962879994884,340.7296963001136,341.22962879994884,340.7296963001136,341.22962879994884,340.7296963001136,341.22962879994884,340.7296963001136,341.22962879994884,340.07737040007487,None,341.21269929991104,343.0155736000743,0.6600000000000004,343.04847949999385,None,343.8008045000024,None,,,,,,,[1.80339286],3.3600000000000025,0.7321428571428571,11028,002,2024_Jan_10_1808,MFTM_A_new1021,2021.2.3,60.08882328939536,
,,,,,,,,stim/Instruction_adaptive.png,conditions/adaptive.xlsx,test,0.6,0.6,0.6,-0.6,-0.6,right,R,,,,,0,1,1,1,0,56,56,10,,,,,,,,,,,,,,,,,,,,,,,,,,,,,,,,,,,,,,,,,,,,344.3003436999861,None,left,0,0.8344113000202924,344.80108020012267,345.9535159000661,344.80108020012267,345.45220800000243,344.80108020012267,345.45220800000243,344.80108020012267,345.45220800000243,344.80108020012267,345.45220800000243,344.80108020012267,345.45220800000243,345.4186901000794,345.9192755999975,345.4186901000794,345.9192755999975,345.4186901000794,345.9192755999975,345.4186901000794,345.9192755999975,345.4186901000794,345.9192755999975,345.4186901000794,345.9192755999975,345.4186901000794,345.9192755999975,345.4186901000794,345.9192755999975,344.80108020012267,None,345.9192755999975,347.7392325999681,0.6400000000000003,347.7548168001231,None,348.5069991000928,None,,,,,,,[1.80438596],3.2500000000000027,0.7192982456140351,11028,002,2024_Jan_10_1808,MFTM_A_new1021,2021.2.3,60.08882328939536,
,,,,,,,,stim/Instruction_adaptive.png,conditions/adaptive.xlsx,test,-0.6,-0.6,-0.6,0.6,0.6,left,L,,,,,0,1,1,1,0,57,57,95,,,,,,,,,,,,,,,,,,,,,,,,,,,,,,,,,,,,,,,,,,,,349.00809799996205,None,left,1,1.0550750999245793,349.50820880010724,350.70987870008685,349.50820880010724,350.2094143999275,349.50820880010724,350.2094143999275,349.50820880010724,350.2094143999275,349.50820880010724,350.2094143999275,349.50820880010724,350.2094143999275,350.1763848999981,350.67717540008016,350.1763848999981,350.67717540008016,350.1763848999981,350.67717540008016,350.1763848999981,350.67717540008016,350.1763848999981,350.67717540008016,350.1763848999981,350.67717540008016,350.1763848999981,350.67717540008016,350.1763848999981,350.67717540008016,349.50820880010724,None,350.67717540008016,352.4964890999254,0.6900000000000004,352.51239760010503,None,353.2643480999395,None,,,,,,,[1.80448276],3.2800000000000025,0.7241379310344828,11028,002,2024_Jan_10_1808,MFTM_A_new1021,2021.2.3,60.08882328939536,
,,,,,,,,stim/Instruction_adaptive.png,conditions/adaptive.xlsx,test,-0.6,-0.6,-0.6,0.6,0.6,left,L,,,,,0,1,1,1,0,58,58,63,,,,,,,,,,,,,,,,,,,,,,,,,,,,,,,,,,,,,,,,,,,,353.7646635998972,None,left,1,0.6585549998562783,354.26506110001355,355.45008950005285,354.26506110001355,354.9500931999646,354.26506110001355,354.9500931999646,354.26506110001355,354.9500931999646,354.26506110001355,354.9500931999646,354.26506110001355,354.9500931999646,354.9332675000187,355.43345719994977,354.9332675000187,355.43345719994977,354.9332675000187,355.43345719994977,354.9332675000187,355.43345719994977,354.9332675000187,355.43345719994977,354.9332675000187,355.43345719994977,354.9332675000187,355.43345719994977,354.9332675000187,355.43345719994977,354.26506110001355,None,355.43345719994977,None,0.6800000000000004,357.2533152999822,None,358.0044972000178,None,,,,,,,[1.80474576],3.3200000000000025,0.7288135593220338,11028,002,2024_Jan_10_1808,MFTM_A_new1021,2021.2.3,60.08882328939536,
,,,,,,,,stim/Instruction_adaptive.png,conditions/adaptive.xlsx,test,-0.6,-0.6,-0.6,0.6,0.6,left,L,,,,,0,1,1,1,0,59,59,7,,,,,,,,,,,,,,,,,,,,,,,,,,,,,,,,,,,,,,,,,,,,358.50535320001654,None,right,0,0.9500041999854147,359.005936200032,360.17443439993076,359.005936200032,359.6736475001089,359.005936200032,359.6736475001089,359.005936200032,359.6736475001089,359.005936200032,359.6736475001089,359.005936200032,359.6736475001089,359.6563170000445,360.15693709999323,359.6563170000445,360.15693709999323,359.6563170000445,360.15693709999323,359.6563170000445,360.15693709999323,359.6563170000445,360.15693709999323,359.6563170000445,360.15693709999323,359.6563170000445,360.15693709999323,359.6563170000445,360.15693709999323,359.005936200032,None,360.14123210008256,361.96087140007876,0.6600000000000004,361.97602270008065,None,362.7283936000895,None,,,,,,,[1.80533333],3.2100000000000026,0.7166666666666667,11028,002,2024_Jan_10_1808,MFTM_A_new1021,2021.2.3,60.08882328939536,
,,,,,,,,stim/Instruction_adaptive.png,conditions/adaptive.xlsx,test,-0.6,-0.6,-0.6,0.6,0.6,left,L,,,,,0,1,1,1,0,60,60,65,,,,,,,,,,,,,,,,,,,,,,,,,,,,,,,,,,,,,,,,,,,,363.228814400034,None,right,0,0.8582794999238104,363.7291127999779,364.9485846001189,363.7291127999779,364.4467984000221,363.7291127999779,364.4467984000221,363.7291127999779,364.4467984000221,363.7291127999779,364.4467984000221,363.7291127999779,364.4467984000221,364.43013669992797,364.93073730007745,364.43013669992797,364.93073730007745,364.43013669992797,364.93073730007745,364.43013669992797,364.93073730007745,364.43013669992797,364.93073730007745,364.43013669992797,364.93073730007745,364.43013669992797,364.93073730007745,364.43013669992797,364.93073730007745,363.7291127999779,None,364.93073730007745,None,0.7100000000000004,366.73420280008577,None,367.4844738000538,None,,,,,,,[[1.79]],3.1000000000000023,0.7049180327868853,11028,002,2024_Jan_10_1808,MFTM_A_new1021,2021.2.3,60.08882328939536,
,,,,,,,,stim/Instruction_adaptive.png,conditions/adaptive.xlsx,test,0.6,0.6,0.6,-0.6,-0.6,right,R,,,,,0,1,1,1,0,61,61,38,,,,,,,,,,,,,,,,,,,,,,,,,,,,,,,,,,,,,,,,,,,,367.98612689995207,None,left,0,0.9497277999762446,368.48602579999715,369.7549598000478,368.48602579999715,369.2705260999501,368.48602579999715,369.2705260999501,368.48602579999715,369.2705260999501,368.48602579999715,369.2705260999501,368.48602579999715,369.2705260999501,369.2372310999781,369.73860400007106,369.2372310999781,369.73860400007106,369.2372310999781,369.73860400007106,369.2372310999781,369.73860400007106,369.2372310999781,369.73860400007106,369.2372310999781,369.73860400007106,369.2372310999781,369.73860400007106,369.2372310999781,369.73860400007106,368.48602579999715,None,369.73860400007106,371.47475229995325,0.7700000000000005,371.491159300087,None,372.2420769999735,None,,,,,,,[[1.73]],2.9700000000000024,0.6935483870967742,11028,002,2024_Jan_10_1808,MFTM_A_new1021,2021.2.3,60.08882328939536,
,,,,,,,,stim/Instruction_adaptive.png,conditions/adaptive.xlsx,test,-0.6,-0.6,-0.6,0.6,0.6,left,L,,,,,0,1,1,1,0,62,62,69,,,,,,,,,,,,,,,,,,,,,,,,,,,,,,,,,,,,,,,,,,,,372.7430054000579,None,left,1,1.0720102000050247,373.24323890008964,374.59524790011346,373.24323890008964,374.0942269999068,373.24323890008964,374.0942269999068,373.24323890008964,374.0942269999068,373.24323890008964,374.0942269999068,373.24323890008964,374.0942269999068,374.07813680008985,374.57854510005563,374.07813680008985,374.57854510005563,374.07813680008985,374.57854510005563,374.07813680008985,374.57854510005563,374.07813680008985,374.57854510005563,374.07813680008985,374.57854510005563,374.07813680008985,374.57854510005563,374.07813680008985,374.57854510005563,373.24323890008964,None,374.56188379996456,376.23086940008216,0.8400000000000005,376.24751850008033,None,376.9990874999203,None,,,,,,,[[1.66]],3.0200000000000022,0.6984126984126984,11028,002,2024_Jan_10_1808,MFTM_A_new1021,2021.2.3,60.08882328939536,
,,,,,,,,stim/Instruction_adaptive.png,conditions/adaptive.xlsx,test,0.6,0.6,0.6,-0.6,-0.6,right,R,,,,,0,1,1,1,0,63,63,68,,,,,,,,,,,,,,,,,,,,,,,,,,,,,,,,,,,,,,,,,,,,377.4996487000026,None,right,1,1.0029649001080543,378.00032299989834,379.31926989997737,378.00032299989834,378.81868940009736,378.00032299989834,378.81868940009736,378.00032299989834,378.81868940009736,378.00032299989834,378.81868940009736,378.00032299989834,378.81868940009736,378.80154559994116,379.3028997001238,378.80154559994116,379.3028997001238,378.80154559994116,379.3028997001238,378.80154559994116,379.3028997001238,378.80154559994116,379.3028997001238,378.80154559994116,379.3028997001238,378.80154559994116,379.3028997001238,378.80154559994116,379.3028997001238,378.00032299989834,None,379.3028997001238,None,0.8100000000000005,381.0046836999245,None,381.756968599977,None,,,,,,,[[1.69]],3.0600000000000023,0.703125,11028,002,2024_Jan_10_1808,MFTM_A_new1021,2021.2.3,60.08882328939536,
,,,,,,,,stim/Instruction_adaptive.png,conditions/adaptive.xlsx,test,0.6,0.6,0.6,-0.6,-0.6,right,R,,,,,0,1,1,1,0,64,64,72,,,,,,,,,,,,,,,,,,,,,,,,,,,,,,,,,,,,,,,,,,,,382.2571650000755,None,right,1,1.135501499986276,382.7572771999985,384.05991309997626,382.7572771999985,383.55894619994797,382.7572771999985,383.55894619994797,382.7572771999985,383.55894619994797,382.7572771999985,383.55894619994797,382.7572771999985,383.55894619994797,383.5250774999149,384.02577700000256,383.5250774999149,384.02577700000256,383.5250774999149,384.02577700000256,383.5250774999149,384.02577700000256,383.5250774999149,384.02577700000256,383.5250774999149,384.02577700000256,383.5250774999149,384.02577700000256,383.5250774999149,384.02577700000256,382.7572771999985,None,384.02577700000256,385.7461510999128,0.7900000000000005,385.7623618999496,None,386.515952100046,None,,,,,,,[[1.71]],3.1000000000000023,0.7076923076923077,11028,002,2024_Jan_10_1808,MFTM_A_new1021,2021.2.3,60.08882328939536,
,,,,,,,,stim/Instruction_adaptive.png,conditions/adaptive.xlsx,test,-0.6,-0.6,-0.6,0.6,0.6,left,L,,,,,0,1,1,1,0,65,65,27,,,,,,,,,,,,,,,,,,,,,,,,,,,,,,,,,,,,,,,,,,,,387.03050319990143,None,left,1,0.8798525000456721,387.53153320006095,388.81653849990107,387.53153320006095,388.3159723000135,387.53153320006095,388.3159723000135,387.53153320006095,388.3159723000135,387.53153320006095,388.3159723000135,387.53153320006095,388.3159723000135,388.28212359989993,388.7827699999325,388.28212359989993,388.7827699999325,388.28212359989993,388.7827699999325,388.28212359989993,388.7827699999325,388.28212359989993,388.7827699999325,388.28212359989993,388.7827699999325,388.28212359989993,388.7827699999325,388.28212359989993,388.7827699999325,387.53153320006095,None,388.7827699999325,390.5194920001086,0.7700000000000005,390.5360719000455,None,391.286722100107,None,,,,,,,[[1.73]],3.1300000000000026,0.7121212121212122,11028,002,2024_Jan_10_1808,MFTM_A_new1021,2021.2.3,60.08882328939536,
,,,,,,,,stim/Instruction_adaptive.png,conditions/adaptive.xlsx,test,-0.6,-0.6,-0.6,0.6,0.6,left,L,,,,,0,1,1,1,0,66,66,81,,,,,,,,,,,,,,,,,,,,,,,,,,,,,,,,,,,,,,,,,,,,391.78789809998125,None,left,1,1.0033283000811934,392.28822789993137,393.53972229990177,392.28822789993137,393.0393322999589,392.28822789993137,393.0393322999589,392.28822789993137,393.0393322999589,392.28822789993137,393.0393322999589,392.28822789993137,393.0393322999589,393.02253339998424,393.52301359991543,393.02253339998424,393.52301359991543,393.02253339998424,393.52301359991543,393.02253339998424,393.52301359991543,393.02253339998424,393.52301359991543,393.02253339998424,393.52301359991543,393.02253339998424,393.52301359991543,393.02253339998424,393.52301359991543,392.28822789993137,None,393.52301359991543,395.2764711000491,0.7500000000000004,395.2931693000719,None,396.04386430000886,None,,,,,,,[[1.75]],3.1700000000000026,0.7164179104477612,11028,002,2024_Jan_10_1808,MFTM_A_new1021,2021.2.3,60.08882328939536,
,,,,,,,,stim/Instruction_adaptive.png,conditions/adaptive.xlsx,test,-0.6,-0.6,-0.6,0.6,0.6,left,L,,,,,0,1,1,1,0,67,67,43,,,,,,,,,,,,,,,,,,,,,,,,,,,,,,,,,,,,,,,,,,,,396.54432690003887,None,left,1,1.230585299897939,397.0450931000523,398.280198500026,397.0450931000523,397.7794194999151,397.0450931000523,397.7794194999151,397.0450931000523,397.7794194999151,397.0450931000523,397.7794194999151,397.0450931000523,397.7794194999151,397.7630352000706,398.2641749000177,397.7630352000706,398.2641749000177,397.7630352000706,398.2641749000177,397.7630352000706,398.2641749000177,397.7630352000706,398.2641749000177,397.7630352000706,398.2641749000177,397.7630352000706,398.2641749000177,397.7630352000706,398.2641749000177,397.0450931000523,None,398.2641749000177,None,0.7300000000000004,400.049619999947,None,400.80142199993134,None,,,,,,,[[1.77]],3.2000000000000024,0.7205882352941176,11028,002,2024_Jan_10_1808,MFTM_A_new1021,2021.2.3,60.08882328939536,
,,,,,,,,stim/Instruction_adaptive.png,conditions/adaptive.xlsx,test,0.6,0.6,0.6,-0.6,-0.6,right,R,,,,,0,1,1,1,0,68,68,12,,,,,,,,,,,,,,,,,,,,,,,,,,,,,,,,,,,,,,,,,,,,401.3012844999321,None,right,1,1.1209815999027342,401.802328400081,403.0379949999042,401.802328400081,402.53761809994467,401.802328400081,402.53761809994467,401.802328400081,402.53761809994467,401.802328400081,402.53761809994467,401.802328400081,402.53761809994467,402.5043886001222,403.0044980000239,402.5043886001222,403.0044980000239,402.5043886001222,403.0044980000239,402.5043886001222,403.0044980000239,402.5043886001222,403.0044980000239,402.5043886001222,403.0044980000239,402.5043886001222,403.0044980000239,402.5043886001222,403.0044980000239,401.802328400081,None,403.0044980000239,404.79049240006134,0.7200000000000004,404.80723479995504,None,405.5577998999506,None,,,,,,,[[1.78]],3.2400000000000024,0.7246376811594203,11028,002,2024_Jan_10_1808,MFTM_A_new1021,2021.2.3,60.08882328939536,
,,,,,,,,stim/Instruction_adaptive.png,conditions/adaptive.xlsx,test,0.6,0.6,0.6,-0.6,-0.6,right,R,,,,,0,1,1,1,0,69,69,86,,,,,,,,,,,,,,,,,,,,,,,,,,,,,,,,,,,,,,,,,,,,406.0590007000137,None,right,1,0.9568207000847906,406.55897210002877,407.76172020006925,406.55897210002877,407.26092820009217,406.55897210002877,407.26092820009217,406.55897210002877,407.26092820009217,406.55897210002877,407.26092820009217,406.55897210002877,407.26092820009217,407.2438471999485,407.7454087000806,407.2438471999485,407.7454087000806,407.2438471999485,407.7454087000806,407.2438471999485,407.7454087000806,407.2438471999485,407.7454087000806,407.2438471999485,407.7454087000806,407.2438471999485,407.7454087000806,407.2438471999485,407.7454087000806,406.55897210002877,None,407.7454087000806,409.54773030010983,0.7000000000000004,409.5639722000342,None,410.3146887999028,None,,,,,,,[1.79614286],3.2700000000000022,0.7285714285714285,11028,002,2024_Jan_10_1808,MFTM_A_new1021,2021.2.3,60.08882328939536,
,,,,,,,,stim/Instruction_adaptive.png,conditions/adaptive.xlsx,test,-0.6,-0.6,-0.6,0.6,0.6,left,L,,,,,0,1,1,1,0,70,70,59,,,,,,,,,,,,,,,,,,,,,,,,,,,,,,,,,,,,,,,,,,,,410.816153800115,None,left,1,0.88684539985843,411.3166821000632,412.50188390002586,411.3166821000632,412.0013159001246,411.3166821000632,412.0013159001246,411.3166821000632,412.0013159001246,411.3166821000632,412.0013159001246,411.3166821000632,412.0013159001246,411.98393870005384,412.48544550011866,411.98393870005384,412.48544550011866,411.98393870005384,412.48544550011866,411.98393870005384,412.48544550011866,411.98393870005384,412.48544550011866,411.98393870005384,412.48544550011866,411.98393870005384,412.48544550011866,411.98393870005384,412.48544550011866,411.3166821000632,None,412.48544550011866,414.2883649999276,0.6800000000000004,414.30454819998704,None,415.05557189998217,None,,,,,,,[1.79647887],3.3000000000000025,0.7323943661971831,11028,002,2024_Jan_10_1808,MFTM_A_new1021,2021.2.3,60.08882328939536,
,,,,,,,,stim/Instruction_adaptive.png,conditions/adaptive.xlsx,test,-0.6,-0.6,-0.6,0.6,0.6,left,L,,,,,0,1,1,1,0,71,71,67,,,,,,,,,,,,,,,,,,,,,,,,,,,,,,,,,,,,,,,,,,,,415.55701930006035,None,left,1,0.587129200110212,416.05662790010683,417.22565110004507,416.05662790010683,416.7410055999644,416.05662790010683,416.7410055999644,416.05662790010683,416.7410055999644,416.05662790010683,416.7410055999644,416.05662790010683,416.7410055999644,416.70763679989614,417.2093450999819,416.70763679989614,417.2093450999819,416.70763679989614,417.2093450999819,416.70763679989614,417.2093450999819,416.70763679989614,417.2093450999819,416.70763679989614,417.2093450999819,416.70763679989614,417.2093450999819,416.70763679989614,417.2093450999819,416.05662790010683,None,417.2093450999819,419.0129738000687,0.6700000000000004,419.0281001999974,None,419.77956739999354,None,,,,,,,[1.79694444],3.3300000000000027,0.7361111111111112,11028,002,2024_Jan_10_1808,MFTM_A_new1021,2021.2.3,60.08882328939536,
,,,,,,,,stim/Instruction_adaptive.png,conditions/adaptive.xlsx,test,-0.6,-0.6,-0.6,0.6,0.6,left,L,,,,,0,1,1,1,0,72,72,5,,,,,,,,,,,,,,,,,,,,,,,,,,,,,,,,,,,,,,,,,,,,420.2797956999857,None,left,1,0.7031230998691171,420.7802758999169,421.93237300007604,420.7802758999169,421.431244000094,420.7802758999169,421.431244000094,420.7802758999169,421.431244000094,420.7802758999169,421.431244000094,420.7802758999169,421.431244000094,421.4144244999625,421.91632600012235,421.4144244999625,421.91632600012235,421.4144244999625,421.91632600012235,421.4144244999625,421.91632600012235,421.4144244999625,421.91632600012235,421.4144244999625,421.91632600012235,421.4144244999625,421.91632600012235,421.4144244999625,421.91632600012235,420.7802758999169,None,421.91632600012235,423.7184001998976,0.6500000000000004,423.73470059991814,None,424.4861071999185,None,,,,,,,[1.79767123],3.3600000000000025,0.7397260273972602,11028,002,2024_Jan_10_1808,MFTM_A_new1021,2021.2.3,60.08882328939536,
,,,,,,,,stim/Instruction_adaptive.png,conditions/adaptive.xlsx,test,0.6,0.6,0.6,-0.6,-0.6,right,R,,,,,0,1,1,1,0,73,73,2,,,,,,,,,,,,,,,,,,,,,,,,,,,,,,,,,,,,,,,,,,,,424.9869649000466,None,left,0,1.060368999838829,425.48712590010837,426.6398332999088,425.48712590010837,426.1382774999365,425.48712590010837,426.1382774999365,425.48712590010837,426.1382774999365,425.48712590010837,426.1382774999365,425.48712590010837,426.1382774999365,426.10475410008803,426.6069096000865,426.10475410008803,426.6069096000865,426.10475410008803,426.6069096000865,426.10475410008803,426.6069096000865,426.10475410008803,426.6069096000865,426.10475410008803,426.6069096000865,426.10475410008803,426.6069096000865,426.10475410008803,426.6069096000865,425.48712590010837,None,426.6069096000865,428.4085713000968,0.6400000000000003,428.42491850000806,None,429.17682590009645,None,,,,,,,[1.79851351],3.2700000000000022,0.7297297297297297,11028,002,2024_Jan_10_1808,MFTM_A_new1021,2021.2.3,60.08882328939536,
,,,,,,,,stim/Instruction_adaptive.png,conditions/adaptive.xlsx,test,-0.6,-0.6,-0.6,0.6,0.6,left,L,,,,,0,1,1,1,0,74,74,75,,,,,,,,,,,,,,,,,,,,,,,,,,,,,,,,,,,,,,,,,,,,429.67757000005804,None,left,1,1.450209999922663,430.1772940000519,431.3631911999546,430.1772940000519,430.8617752001155,430.1772940000519,430.8617752001155,430.1772940000519,430.8617752001155,430.1772940000519,430.8617752001155,430.1772940000519,430.8617752001155,430.8451469000429,431.34691440011375,430.8451469000429,431.34691440011375,430.8451469000429,431.34691440011375,430.8451469000429,431.34691440011375,430.8451469000429,431.34691440011375,430.8451469000429,431.34691440011375,430.8451469000429,431.34691440011375,430.8451469000429,431.34691440011375,430.1772940000519,None,431.34691440011375,433.1498861000873,0.6800000000000004,433.16482689999975,None,433.91702709998935,None,,,,,,,[1.7988],3.3000000000000025,0.7333333333333333,11028,002,2024_Jan_10_1808,MFTM_A_new1021,2021.2.3,60.08882328939536,
,,,,,,,,stim/Instruction_adaptive.png,conditions/adaptive.xlsx,test,0.6,0.6,0.6,-0.6,-0.6,right,R,,,,,0,1,1,1,0,75,75,76,,,,,,,,,,,,,,,,,,,,,,,,,,,,,,,,,,,,,,,,,,,,434.4171694999095,None,right,1,0.8765461000148207,434.91867000004277,436.103699499974,434.91867000004277,435.6028412999585,434.91867000004277,435.6028412999585,434.91867000004277,435.6028412999585,434.91867000004277,435.6028412999585,434.91867000004277,435.6028412999585,435.5695412000641,436.07043810002506,435.5695412000641,436.07043810002506,435.5695412000641,436.07043810002506,435.5695412000641,436.07043810002506,435.5695412000641,436.07043810002506,435.5695412000641,436.07043810002506,435.5695412000641,436.07043810002506,435.5695412000641,436.07043810002506,434.91867000004277,None,436.07043810002506,437.8727593999356,0.6700000000000004,437.88881870009936,None,438.63980500004254,None,,,,,,,[1.79921053],3.3300000000000027,0.7368421052631579,11028,002,2024_Jan_10_1808,MFTM_A_new1021,2021.2.3,60.08882328939536,
,,,,,,,,stim/Instruction_adaptive.png,conditions/adaptive.xlsx,test,0.6,0.6,0.6,-0.6,-0.6,right,R,,,,,0,1,1,1,0,76,76,4,,,,,,,,,,,,,,,,,,,,,,,,,,,,,,,,,,,,,,,,,,,,439.1411764000077,None,right,1,0.6345218999776989,439.64141759998165,440.79330389993265,439.64141759998165,440.29283590009436,439.64141759998165,440.29283590009436,439.64141759998165,440.29283590009436,439.64141759998165,440.29283590009436,439.64141759998165,440.29283590009436,440.27620749990456,440.7768159999978,440.27620749990456,440.7768159999978,440.27620749990456,440.7768159999978,440.27620749990456,440.7768159999978,440.27620749990456,440.7768159999978,440.27620749990456,440.7768159999978,440.27620749990456,440.7768159999978,440.27620749990456,440.7768159999978,439.64141759998165,None,440.7768159999978,442.57947749993764,0.6500000000000004,442.59594730008394,None,443.3476943001151,None,,,,,,,[1.79987013],3.3600000000000025,0.7402597402597403,11028,002,2024_Jan_10_1808,MFTM_A_new1021,2021.2.3,60.08882328939536,
,,,,,,,,stim/Instruction_adaptive.png,conditions/adaptive.xlsx,test,-0.6,-0.6,-0.6,0.6,0.6,left,L,,,,,0,1,1,1,0,77,77,47,,,,,,,,,,,,,,,,,,,,,,,,,,,,,,,,,,,,,,,,,,,,443.8485207001213,None,right,0,0.7260590998921543,444.3493182999082,445.5004461999051,444.3493182999082,444.99956619995646,444.3493182999082,444.99956619995646,444.3493182999082,444.99956619995646,444.3493182999082,444.99956619995646,444.3493182999082,444.99956619995646,444.96634469996206,445.4677991999779,444.96634469996206,445.4677991999779,444.96634469996206,445.4677991999779,444.96634469996206,445.4677991999779,444.96634469996206,445.4677991999779,444.96634469996206,445.4677991999779,444.96634469996206,445.4677991999779,444.96634469996206,445.4677991999779,444.3493182999082,None,445.4677991999779,447.2695599999279,0.6400000000000003,447.3023075000383,None,448.0546407001093,None,,,,,,,[1.80064103],3.2800000000000025,0.7307692307692307,11028,002,2024_Jan_10_1808,MFTM_A_new1021,2021.2.3,60.08882328939536,
,,,,,,,,stim/Instruction_adaptive.png,conditions/adaptive.xlsx,test,-0.6,-0.6,-0.6,0.6,0.6,left,L,,,,,0,1,1,1,0,78,78,99,,,,,,,,,,,,,,,,,,,,,,,,,,,,,,,,,,,,,,,,,,,,448.5554625999648,None,left,1,0.6518401000648737,449.055824900046,450.241240600124,449.055824900046,449.7398226999212,449.055824900046,449.7398226999212,449.055824900046,449.7398226999212,449.055824900046,449.7398226999212,449.055824900046,449.7398226999212,449.72316269995645,450.225058699958,449.72316269995645,450.225058699958,449.72316269995645,450.225058699958,449.72316269995645,450.225058699958,449.72316269995645,450.225058699958,449.72316269995645,450.225058699958,449.72316269995645,450.225058699958,449.72316269995645,450.225058699958,449.055824900046,None,450.225058699958,452.0275246000383,0.6800000000000004,452.0439639999531,None,452.7941064001061,None,,,,,,,[1.80088608],3.3100000000000023,0.7341772151898734,11028,002,2024_Jan_10_1808,MFTM_A_new1021,2021.2.3,60.08882328939536,
,,,,,,,,stim/Instruction_adaptive.png,conditions/adaptive.xlsx,test,-0.6,-0.6,-0.6,0.6,0.6,left,L,,,,,0,1,1,1,0,79,79,57,,,,,,,,,,,,,,,,,,,,,,,,,,,,,,,,,,,,,,,,,,,,453.2955606000032,None,right,0,0.7429161998443305,453.7965989999939,454.964944700012,453.7965989999939,454.46338699990883,453.7965989999939,454.46338699990883,453.7965989999939,454.46338699990883,453.7965989999939,454.46338699990883,453.7965989999939,454.46338699990883,454.44673570012674,454.9479193999432,454.44673570012674,454.9479193999432,454.44673570012674,454.9479193999432,454.44673570012674,454.9479193999432,454.44673570012674,454.9479193999432,454.44673570012674,454.9479193999432,454.44673570012674,454.9479193999432,454.44673570012674,454.9479193999432,453.7965989999939,None,454.9313415000215,456.73399249999784,0.6600000000000004,456.76703190011904,None,457.5185100999661,None,,,,,,,[1.801375],3.230000000000002,0.725,11028,002,2024_Jan_10_1808,MFTM_A_new1021,2021.2.3,60.08882328939536,
,,,,,,,,stim/Instruction_adaptive.png,conditions/adaptive.xlsx,test,0.6,0.6,0.6,-0.6,-0.6,right,R,,,,,0,1,1,1,0,80,80,8,,,,,,,,,,,,,,,,,,,,,,,,,,,,,,,,,,,,,,,,,,,,458.01958080008626,None,left,0,0.9325630001258105,458.5194484000094,459.7219789000228,458.5194484000094,459.22068929998204,458.5194484000094,459.22068929998204,458.5194484000094,459.22068929998204,458.5194484000094,459.22068929998204,458.5194484000094,459.22068929998204,459.20371500006877,459.7053123000078,459.20371500006877,459.7053123000078,459.20371500006877,459.7053123000078,459.20371500006877,459.7053123000078,459.20371500006877,459.7053123000078,459.20371500006877,459.7053123000078,459.20371500006877,459.7053123000078,459.20371500006877,459.7053123000078,458.5194484000094,None,459.7053123000078,461.5079318000935,0.7000000000000004,461.52458410011604,None,462.2754872001242,None,,,,,,,[[1.8]],3.1400000000000023,0.7160493827160493,11028,002,2024_Jan_10_1808,MFTM_A_new1021,2021.2.3,60.08882328939536,
,,,,,,,,stim/Instruction_adaptive.png,conditions/adaptive.xlsx,test,0.6,0.6,0.6,-0.6,-0.6,right,R,,,,,0,1,1,1,0,81,81,42,,,,,,,,,,,,,,,,,,,,,,,,,,,,,,,,,,,,,,,,,,,,462.7759241000749,None,left,0,1.3908443998079747,463.27660190011375,464.52840210008435,463.27660190011375,464.0277036000043,463.27660190011375,464.0277036000043,463.27660190011375,464.0277036000043,463.27660190011375,464.0277036000043,463.27660190011375,464.0277036000043,464.0111680000555,464.5115670999512,464.0111680000555,464.5115670999512,464.0111680000555,464.5115670999512,464.0111680000555,464.5115670999512,464.0111680000555,464.5115670999512,464.0111680000555,464.5115670999512,464.0111680000555,464.5115670999512,464.0111680000555,464.5115670999512,463.27660190011375,None,464.5115670999512,466.26440190011635,0.7500000000000004,466.2818281999789,None,467.0330793999601,None,,,,,,,[[1.75]],3.0600000000000023,0.7073170731707317,11028,002,2024_Jan_10_1808,MFTM_A_new1021,2021.2.3,60.08882328939536,
,,,,,,,,stim/Instruction_adaptive.png,conditions/adaptive.xlsx,test,0.6,0.6,0.6,-0.6,-0.6,right,R,,,,,0,1,1,1,0,82,82,32,,,,,,,,,,,,,,,,,,,,,,,,,,,,,,,,,,,,,,,,,,,,467.5328432000242,None,right,1,0.7219074000604451,468.0336273999419,469.33626340003684,468.0336273999419,468.8350541999098,468.0336273999419,468.8350541999098,468.0336273999419,468.8350541999098,468.0336273999419,468.8350541999098,468.0336273999419,468.8350541999098,468.8017239999026,469.302243999904,468.8017239999026,469.302243999904,468.8017239999026,469.302243999904,468.8017239999026,469.302243999904,468.8017239999026,469.302243999904,468.8017239999026,469.302243999904,468.8017239999026,469.302243999904,468.8017239999026,469.302243999904,468.0336273999419,None,469.302243999904,471.02200679993257,0.7900000000000005,471.03811819991097,None,471.79003649996594,None,,,,,,,[[1.71]],3.0900000000000025,0.7108433734939759,11028,002,2024_Jan_10_1808,MFTM_A_new1021,2021.2.3,60.08882328939536,
,,,,,,,,stim/Instruction_adaptive.png,conditions/adaptive.xlsx,test,-0.6,-0.6,-0.6,0.6,0.6,left,L,,,,,0,1,1,1,0,83,83,89,,,,,,,,,,,,,,,,,,,,,,,,,,,,,,,,,,,,,,,,,,,,472.2902856001165,None,left,1,0.7406562000978738,472.79074719990604,474.06005490012467,472.79074719990604,473.5758152999915,472.79074719990604,473.5758152999915,472.79074719990604,473.5758152999915,472.79074719990604,473.5758152999915,472.79074719990604,473.5758152999915,473.5418871999718,474.04327749996446,473.5418871999718,474.04327749996446,473.5418871999718,474.04327749996446,473.5418871999718,474.04327749996446,473.5418871999718,474.04327749996446,473.5418871999718,474.04327749996446,473.5418871999718,474.04327749996446,473.5418871999718,474.04327749996446,472.79074719990604,None,474.04327749996446,475.77911700005643,0.7700000000000005,475.7951027001254,None,476.54690650012344,None,,,,,,,[[1.73]],3.1200000000000023,0.7142857142857143,11028,002,2024_Jan_10_1808,MFTM_A_new1021,2021.2.3,60.08882328939536,
,,,,,,,,stim/Instruction_adaptive.png,conditions/adaptive.xlsx,test,0.6,0.6,0.6,-0.6,-0.6,right,R,,,,,0,1,1,1,0,84,84,40,,,,,,,,,,,,,,,,,,,,,,,,,,,,,,,,,,,,,,,,,,,,477.0471781999804,None,left,0,0.7198016000911593,477.5476432000287,478.81763319997117,477.5476432000287,478.31576790008694,477.5476432000287,478.31576790008694,477.5476432000287,478.31576790008694,477.5476432000287,478.31576790008694,477.5476432000287,478.31576790008694,478.2988551000599,478.800319599919,478.2988551000599,478.800319599919,478.2988551000599,478.800319599919,478.2988551000599,478.800319599919,478.2988551000599,478.800319599919,478.2988551000599,478.800319599919,478.2988551000599,478.800319599919,478.2988551000599,478.800319599919,477.5476432000287,None,478.7832321000751,480.5362281999551,0.7600000000000005,480.5516393999569,None,481.3035293999128,None,,,,,,,[[1.74]],3.030000000000002,0.7058823529411765,11028,002,2024_Jan_10_1808,MFTM_A_new1021,2021.2.3,60.08882328939536,
,,,,,,,,stim/Instruction_adaptive.png,conditions/adaptive.xlsx,test,-0.6,-0.6,-0.6,0.6,0.6,left,L,,,,,0,1,1,1,0,85,85,15,,,,,,,,,,,,,,,,,,,,,,,,,,,,,,,,,,,,,,,,,,,,481.8039957000874,None,left,1,1.0354474999476224,482.30457330006175,483.62449429999106,482.30457330006175,483.1228948000353,482.30457330006175,483.1228948000353,482.30457330006175,483.1228948000353,482.30457330006175,483.1228948000353,482.30457330006175,483.1228948000353,483.10620209993795,483.60753759997897,483.10620209993795,483.60753759997897,483.10620209993795,483.60753759997897,483.10620209993795,483.60753759997897,483.10620209993795,483.60753759997897,483.10620209993795,483.60753759997897,483.10620209993795,483.60753759997897,483.10620209993795,483.60753759997897,482.30457330006175,None,483.59069039998576,485.2925374000333,0.8100000000000005,485.3094542999752,None,486.06072419998236,None,,,,,,,[[1.69]],3.0600000000000023,0.7093023255813954,11028,002,2024_Jan_10_1808,MFTM_A_new1021,2021.2.3,60.08882328939536,
,,,,,,,,stim/Instruction_adaptive.png,conditions/adaptive.xlsx,test,0.6,0.6,0.6,-0.6,-0.6,right,R,,,,,0,1,1,1,0,86,86,64,,,,,,,,,,,,,,,,,,,,,,,,,,,,,,,,,,,,,,,,,,,,486.5610521999188,None,left,0,1.0132615000475198,487.06236759992316,488.3645216000732,487.06236759992316,487.86308189993724,487.06236759992316,487.86308189993724,487.06236759992316,487.86308189993724,487.06236759992316,487.86308189993724,487.06236759992316,487.86308189993724,487.8295549999457,488.33049970003776,487.8295549999457,488.33049970003776,487.8295549999457,488.33049970003776,487.8295549999457,488.33049970003776,487.8295549999457,488.33049970003776,487.8295549999457,488.33049970003776,487.8295549999457,488.33049970003776,487.8295549999457,488.33049970003776,487.06236759992316,None,488.33049970003776,490.04947019997053,0.7900000000000005,490.06633400009014,None,490.818108699983,None,,,,,,,[[1.71]],2.9700000000000024,0.7011494252873564,11028,002,2024_Jan_10_1808,MFTM_A_new1021,2021.2.3,60.08882328939536,
,,,,,,,,stim/Instruction_adaptive.png,conditions/adaptive.xlsx,test,0.6,0.6,0.6,-0.6,-0.6,right,R,,,,,0,1,1,1,0,87,87,88,,,,,,,,,,,,,,,,,,,,,,,,,,,,,,,,,,,,,,,,,,,,491.3183188000694,None,left,0,0.8328986000269651,491.8188938999083,493.1713531999849,491.8188938999083,492.67057169997133,491.8188938999083,492.67057169997133,491.8188938999083,492.67057169997133,491.8188938999083,492.67057169997133,491.8188938999083,492.67057169997133,492.6374681999441,493.13772889995016,492.6374681999441,493.13772889995016,492.6374681999441,493.13772889995016,492.6374681999441,493.13772889995016,492.6374681999441,493.13772889995016,492.6374681999441,493.13772889995016,492.6374681999441,493.13772889995016,492.6374681999441,493.13772889995016,491.8188938999083,None,493.13772889995016,494.8066636000294,0.8400000000000005,494.8233859001193,None,495.57504549995065,None,,,,,,,[[1.66]],2.880000000000002,0.6931818181818182,11028,002,2024_Jan_10_1808,MFTM_A_new1021,2021.2.3,60.08882328939536,
,,,,,,,,stim/Instruction_adaptive.png,conditions/adaptive.xlsx,test,-0.6,-0.6,-0.6,0.6,0.6,left,L,,,,,0,1,1,1,0,88,88,31,,,,,,,,,,,,,,,,,,,,,,,,,,,,,,,,,,,,,,,,,,,,496.0761353999842,None,right,0,1.6915615000762045,496.57598880003206,497.97799440007657,496.57598880003206,497.47805400006473,496.57598880003206,497.47805400006473,496.57598880003206,497.47805400006473,496.57598880003206,497.47805400006473,496.57598880003206,497.47805400006473,497.4440707999747,497.94470230001025,497.4440707999747,497.94470230001025,497.4440707999747,497.94470230001025,497.4440707999747,497.94470230001025,497.4440707999747,497.94470230001025,497.4440707999747,497.94470230001025,497.4440707999747,497.94470230001025,497.4440707999747,497.94470230001025,496.57598880003206,None,497.94470230001025,499.5643428999465,0.8900000000000006,499.5805764000397,None,500.33217369997874,None,,,,,,,[[1.61]],2.780000000000002,0.6853932584269663,11028,002,2024_Jan_10_1808,MFTM_A_new1021,2021.2.3,60.08882328939536,
,,,,,,,,stim/Instruction_adaptive.png,conditions/adaptive.xlsx,test,-0.6,-0.6,-0.6,0.6,0.6,left,L,,,,,0,1,1,1,0,89,89,85,,,,,,,,,,,,,,,,,,,,,,,,,,,,,,,,,,,,,,,,,,,,500.83327800012194,None,left,1,1.9742140001617372,501.3333201999776,502.80269649997354,501.3333201999776,502.30093170003965,501.3333201999776,502.30093170003965,501.3333201999776,502.30093170003965,501.3333201999776,502.30093170003965,501.3333201999776,502.30093170003965,502.2842351999134,502.7859420001041,502.2842351999134,502.7859420001041,502.2842351999134,502.7859420001041,502.2842351999134,502.7859420001041,502.2842351999134,502.7859420001041,502.2842351999134,502.7859420001041,502.2842351999134,502.7859420001041,502.2842351999134,502.7859420001041,501.3333201999776,None,502.7859420001041,None,0.9600000000000006,504.33716250001453,None,505.0883424000349,None,,,,,,,[[1.54]],2.820000000000002,0.6888888888888889,11028,002,2024_Jan_10_1808,MFTM_A_new1021,2021.2.3,60.08882328939536,
,,,,,,,,stim/Instruction_adaptive.png,conditions/adaptive.xlsx,test,-0.6,-0.6,-0.6,0.6,0.6,left,L,,,,,0,1,1,1,0,90,90,73,,,,,,,,,,,,,,,,,,,,,,,,,,,,,,,,,,,,,,,,,,,,505.59007130004466,None,left,1,1.1616666000336409,506.0900646999944,507.5259557000827,506.0900646999944,507.02547429990955,506.0900646999944,507.02547429990955,506.0900646999944,507.02547429990955,506.0900646999944,507.02547429990955,506.0900646999944,507.02547429990955,507.00839779991657,507.50938390009105,507.00839779991657,507.50938390009105,507.00839779991657,507.50938390009105,507.00839779991657,507.50938390009105,507.00839779991657,507.50938390009105,507.00839779991657,507.50938390009105,507.00839779991657,507.50938390009105,507.00839779991657,507.50938390009105,506.0900646999944,None,507.50938390009105,None,0.9300000000000006,509.09425420011394,None,509.84569890005514,None,,,,,,,[[1.57]],2.8500000000000023,0.6923076923076923,11028,002,2024_Jan_10_1808,MFTM_A_new1021,2021.2.3,60.08882328939536,
,,,,,,,,stim/Instruction_adaptive.png,conditions/adaptive.xlsx,test,-0.6,-0.6,-0.6,0.6,0.6,left,L,,,,,0,1,1,1,0,91,91,25,,,,,,,,,,,,,,,,,,,,,,,,,,,,,,,,,,,,,,,,,,,,510.3468917000573,None,left,1,0.7077820000704378,510.84769550012425,512.2663561000954,510.84769550012425,511.76587580004707,510.84769550012425,511.76587580004707,510.84769550012425,511.76587580004707,510.84769550012425,511.76587580004707,510.84769550012425,511.76587580004707,511.7322635001037,512.2335332999937,511.7322635001037,512.2335332999937,511.7322635001037,512.2335332999937,511.7322635001037,512.2335332999937,511.7322635001037,512.2335332999937,511.7322635001037,512.2335332999937,511.7322635001037,512.2335332999937,511.7322635001037,512.2335332999937,510.84769550012425,None,512.2335332999937,513.8350426000543,0.9100000000000006,513.8512874001171,None,514.6026405999437,None,,,,,,,[[1.59]],2.880000000000002,0.6956521739130435,11028,002,2024_Jan_10_1808,MFTM_A_new1021,2021.2.3,60.08882328939536,
,,,,,,,,stim/Instruction_adaptive.png,conditions/adaptive.xlsx,test,0.6,0.6,0.6,-0.6,-0.6,right,R,,,,,0,1,1,1,0,92,92,18,,,,,,,,,,,,,,,,,,,,,,,,,,,,,,,,,,,,,,,,,,,,515.1040252000093,None,right,1,0.8788697000127286,515.6048389000352,517.0060825000983,515.6048389000352,516.5058939999435,515.6048389000352,516.5058939999435,515.6048389000352,516.5058939999435,515.6048389000352,516.5058939999435,515.6048389000352,516.5058939999435,516.4726446999703,516.9726386999246,516.4726446999703,516.9726386999246,516.4726446999703,516.9726386999246,516.4726446999703,516.9726386999246,516.4726446999703,516.9726386999246,516.4726446999703,516.9726386999246,516.4726446999703,516.9726386999246,516.4726446999703,516.9726386999246,515.6048389000352,None,516.9726386999246,518.5919111999683,0.8900000000000006,518.6085475999862,None,519.3613889999688,None,,,,,,,[[1.61]],2.910000000000002,0.6989247311827957,11028,002,2024_Jan_10_1808,MFTM_A_new1021,2021.2.3,60.08882328939536,
