arrwidth1,arrwidth2,arrwidth3,arrwidth4,arrwidth5,keyb,type,orientation,instruction_image,block_filename,block_type,arrow11,arrow22,arrow33,arrow44,arrow55,keyb_3,orientation3,trials.thisRepN,trials.thisTrialN,trials.thisN,trials.thisIndex,trials_3.thisRepN,trials_3.thisTrialN,trials_3.thisN,trials_3.thisIndex,trials_2.thisRepN,trials_2.thisTrialN,trials_2.thisN,trials_2.thisIndex,welcome.started,welcome.stopped,key_resp.keys,key_resp.rt,key_resp.started,key_resp.stopped,instruction_example.started,instruction_example.stopped,key_resp_3.keys,key_resp_3.rt,key_resp_3.started,key_resp_3.stopped,instruction_task.started,instruction_task.stopped,key_resp_2.keys,key_resp_2.rt,key_resp_2.started,key_resp_2.stopped,text_2.started,text_2.stopped,A1.started,A1.stopped,A2.started,A2.stopped,A3.started,A3.stopped,A4.started,A4.stopped,A5.started,A5.stopped,key_resp_4.keys,key_resp_4.corr,key_resp_4.rt,key_resp_4.started,key_resp_4.stopped,fb.started,fb.stopped,instruction_block.started,instruction_block.stopped,key_resp_8.keys,key_resp_8.rt,key_resp_8.started,key_resp_8.stopped,text_8.started,text_8.stopped,key_resp_9.keys,key_resp_9.corr,key_resp_9.rt,text_5.started,text_5.stopped,A11_3.started,A11_3.stopped,A22_2.started,A22_2.stopped,A33_2.started,A33_2.stopped,A44_2.started,A44_2.stopped,A55_2.started,A55_2.stopped,M1_3.started,M1_3.stopped,M2_2.started,M2_2.stopped,M3_2.started,M3_2.stopped,M4_2.started,M4_2.stopped,M5_2.started,M5_2.stopped,M6_2.started,M6_2.stopped,M7_2.started,M7_2.stopped,M8_2.started,M8_2.stopped,key_resp_9.started,key_resp_9.stopped,fixation.started,fixation.stopped,ET,fb_3.started,fb_3.stopped,text_9.started,text_9.stopped,fb_4.started,fb_4.stopped,text_7.started,text_7.stopped,endtext.started,endtext.stopped,fixation_ITI,CCC,Acc,participant,session,date,expName,psychopyVersion,frameRate,
,,,,,,,,,,,,,,,,,,,,,,,,,,,,,,11.206191600067541,None,left,3.6895703999325633,11.206191600067541,None,,,,,,,,,,,,,,,,,,,,,,,,,,,,,,,,,,,,,,,,,,,,,,,,,,,,,,,,,,,,,,,,,,,,,,,,,,,,,,,,,,,,,,,,,11028,001,2024_Jan_10_1401,MFTM_A_new1021,2021.2.3,59.85540137700998,
,,,,,,,,,,,,,,,,,,,,,,,,,,,,,,,,,,,,14.911997300107032,None,right,22.095205399906263,14.911997300107032,None,,,,,,,,,,,,,,,,,,,,,,,,,,,,,,,,,,,,,,,,,,,,,,,,,,,,,,,,,,,,,,,,,,,,,,,,,,,,,,,,,,,11028,001,2024_Jan_10_1401,MFTM_A_new1021,2021.2.3,59.85540137700998,
,,,,,,,,,,,,,,,,,,,,,,,,,,,,,,,,,,,,,,,,,,37.0284369001165,None,right,19.082751299953088,37.0284369001165,None,,,,,,,,,,,,,,,,,,,,,,,,,,,,,,,,,,,,,,,,,,,,,,,,,,,,,,,,,,,,,,,,,,,,,,,,,,,,,11028,001,2024_Jan_10_1401,MFTM_A_new1021,2021.2.3,59.85540137700998,
0.6,0.6,0.6,-0.6,-0.6,right,3:2,R,,,,,,,,,,,0,0,0,0,,,,,,,,,,,,,,,,,,,,,,,,,,,56.15723350015469,None,56.15723350015469,None,56.15723350015469,None,56.15723350015469,None,56.15723350015469,None,56.15723350015469,None,right,1,3.1619299000594765,56.15723350015469,None,59.36223169998266,None,,,,,,,,,,,,,,,,,,,,,,,,,,,,,,,,,,,,,,,,,,,,,,,,,,,,,,,,,,11028,001,2024_Jan_10_1401,MFTM_A_new1021,2021.2.3,59.85540137700998,
-0.6,-0.6,-0.6,0.6,0.6,left,3:2,L,,,,,,,,,,,0,1,1,1,,,,,,,,,,,,,,,,,,,,,,,,,,,60.11254370003007,None,60.11254370003007,None,60.11254370003007,None,60.11254370003007,None,60.11254370003007,None,60.11254370003007,None,left,1,2.206618200056255,60.11254370003007,None,62.348968300037086,None,,,,,,,,,,,,,,,,,,,,,,,,,,,,,,,,,,,,,,,,,,,,,,,,,,,,,,,,,,11028,001,2024_Jan_10_1401,MFTM_A_new1021,2021.2.3,59.85540137700998,
0.6,0.6,0.6,-0.6,-0.6,right,3:2,R,,,,,,,,,,,1,0,2,0,,,,,,,,,,,,,,,,,,,,,,,,,,,63.09997690003365,None,63.09997690003365,None,63.09997690003365,None,63.09997690003365,None,63.09997690003365,None,63.09997690003365,None,right,1,2.12310259998776,63.09997690003365,None,65.25330290012062,None,,,,,,,,,,,,,,,,,,,,,,,,,,,,,,,,,,,,,,,,,,,,,,,,,,,,,,,,,,11028,001,2024_Jan_10_1401,MFTM_A_new1021,2021.2.3,59.85540137700998,
-0.6,-0.6,-0.6,0.6,0.6,left,3:2,L,,,,,,,,,,,1,1,3,1,,,,,,,,,,,,,,,,,,,,,,,,,,,66.004401500104,None,66.004401500104,None,66.004401500104,None,66.004401500104,None,66.004401500104,None,66.004401500104,None,left,1,1.4509951998479664,66.004401500104,None,67.47328340006061,None,,,,,,,,,,,,,,,,,,,,,,,,,,,,,,,,,,,,,,,,,,,,,,,,,,,,,,,,,,11028,001,2024_Jan_10_1401,MFTM_A_new1021,2021.2.3,59.85540137700998,
,,,,,,,,stim/Instruction_mask.png,conditions/adaptive.xlsx,practice,0.6,0.6,0.6,-0.6,-0.6,right,R,,,,,0,0,0,0,0,0,0,58,,,,,,,,,,,,,,,,,,,,,,,,,,,,,,,,,,,,,,68.4591558999382,None,right,40.34013279993087,68.4591558999382,None,108.90135110006668,None,right,1,1.5039425999857485,109.33504070015624,None,109.33504070015624,112.3401051000692,109.33504070015624,112.3401051000692,109.33504070015624,112.3401051000692,109.33504070015624,112.3401051000692,109.33504070015624,112.3401051000692,112.32300309999846,112.82455289992504,112.32300309999846,112.82455289992504,112.32300309999846,112.82455289992504,112.32300309999846,112.82455289992504,112.32300309999846,112.82455289992504,112.32300309999846,112.82455289992504,112.32300309999846,112.82455289992504,112.32300309999846,112.82455289992504,109.33504070015624,None,112.82455289992504,112.82455289992504,3,112.84039240004495,None,113.59223620011471,None,,,,,,,,,,11028,001,2024_Jan_10_1401,MFTM_A_new1021,2021.2.3,59.85540137700998,
,,,,,,,,stim/Instruction_mask.png,conditions/adaptive.xlsx,practice,-0.6,-0.6,-0.6,0.6,0.6,left,L,,,,,0,0,0,0,0,1,1,95,,,,,,,,,,,,,,,,,,,,,,,,,,,,,,,,,,,,,,,,,,,,114.0929648000747,None,left,1,0.8701283999253064,114.59303540014662,116.59603270003572,114.59303540014662,116.09558339999057,114.59303540014662,116.09558339999057,114.59303540014662,116.09558339999057,114.59303540014662,116.09558339999057,114.59303540014662,116.09558339999057,116.0786047000438,116.57980230008252,116.0786047000438,116.57980230008252,116.0786047000438,116.57980230008252,116.0786047000438,116.57980230008252,116.0786047000438,116.57980230008252,116.0786047000438,116.57980230008252,116.0786047000438,116.57980230008252,116.0786047000438,116.57980230008252,114.59303540014662,None,116.57980230008252,118.081764300121,1.5,118.09833960002288,None,118.84995830012485,None,,,,,,,,,,11028,001,2024_Jan_10_1401,MFTM_A_new1021,2021.2.3,59.85540137700998,
,,,,,,,,stim/Instruction_mask.png,conditions/adaptive.xlsx,practice,-0.6,-0.6,-0.6,0.6,0.6,left,L,,,,,0,0,0,0,0,2,2,3,,,,,,,,,,,,,,,,,,,,,,,,,,,,,,,,,,,,,,,,,,,,119.35120770009235,None,left,1,1.5084987999871373,119.85078070010059,121.1527963001281,119.85078070010059,120.65303410007618,119.85078070010059,120.65303410007618,119.85078070010059,120.65303410007618,119.85078070010059,120.65303410007618,119.85078070010059,120.65303410007618,120.63569490006194,121.13601120002568,120.63569490006194,121.13601120002568,120.63569490006194,121.13601120002568,120.63569490006194,121.13601120002568,120.63569490006194,121.13601120002568,120.63569490006194,121.13601120002568,120.63569490006194,121.13601120002568,120.63569490006194,121.13601120002568,119.85078070010059,None,121.13601120002568,123.33989070006646,0.8,123.35602620011196,None,124.10718769999221,None,,,,,,,,,,11028,001,2024_Jan_10_1401,MFTM_A_new1021,2021.2.3,59.85540137700998,
,,,,,,,,stim/Instruction_mask.png,conditions/adaptive.xlsx,practice,0.6,0.6,0.6,-0.6,-0.6,right,R,,,,,0,0,0,0,0,3,3,92,,,,,,,,,,,,,,,,,,,,,,,,,,,,,,,,,,,,,,,,,,,,124.60784030007198,None,right,1,0.9618799001909792,125.10958599997684,125.85959330014884,125.10958599997684,125.35970679996535,125.10958599997684,125.35970679996535,125.10958599997684,125.35970679996535,125.10958599997684,125.35970679996535,125.10958599997684,125.35970679996535,125.34264079993591,125.84293040004559,125.34264079993591,125.84293040004559,125.34264079993591,125.84293040004559,125.34264079993591,125.84293040004559,125.34264079993591,125.84293040004559,125.34264079993591,125.84293040004559,125.34264079993591,125.84293040004559,125.34264079993591,125.84293040004559,125.10958599997684,None,125.84293040004559,128.59778890013695,3,128.61380930012092,None,129.364954699995,None,,,,,,,,,,11028,001,2024_Jan_10_1401,MFTM_A_new1021,2021.2.3,59.85540137700998,
,,,,,,,,stim/Instruction_mask.png,conditions/adaptive.xlsx,practice,,,,,,,,,,,,0,0,0,0,,,,,,,,,,,,,,,,,,,,,,,,,,,,,,,,,,,,,,,,,,,,,,,,,,,,,,,,,,,,,,,,,,,,,,,,,,,,,,,,,,,,,,,,,,129.88233439996839,130.88377930014394,130.8508485001512,130.8508485001512,130.8508485001512,None,,,,11028,001,2024_Jan_10_1401,MFTM_A_new1021,2021.2.3,59.85540137700998,
,,,,,,,,stim/Instruction_adaptive.png,conditions/adaptive.xlsx,test,-0.6,-0.6,-0.6,0.6,0.6,left,L,,,,,0,1,1,1,0,0,0,25,,,,,,,,,,,,,,,,,,,,,,,,,,,,,,,,,,,,,,134.00506470003165,None,right,27.69079120014794,134.00506470003165,None,161.72933669993654,None,left,1,2.0487140000332147,162.23054419993423,None,162.23054419993423,165.23483179998584,162.23054419993423,165.23483179998584,162.23054419993423,165.23483179998584,162.23054419993423,165.23483179998584,162.23054419993423,165.23483179998584,165.21807830012403,165.71923630009405,165.21807830012403,165.71923630009405,165.21807830012403,165.71923630009405,165.21807830012403,165.71923630009405,165.21807830012403,165.71923630009405,165.21807830012403,165.71923630009405,165.21807830012403,165.71923630009405,165.21807830012403,165.71923630009405,162.23054419993423,None,165.71923630009405,165.71923630009405,3,165.73600460006855,None,166.4870052000042,None,,,,,,,0,6.000000000000005,1.0,11028,001,2024_Jan_10_1401,MFTM_A_new1021,2021.2.3,59.85540137700998,
,,,,,,,,stim/Instruction_adaptive.png,conditions/adaptive.xlsx,test,0.6,0.6,0.6,-0.6,-0.6,right,R,,,,,0,1,1,1,0,1,1,0,,,,,,,,,,,,,,,,,,,,,,,,,,,,,,,,,,,,,,,,,,,,166.98803040012717,None,left,0,1.0391536999959499,167.4882066999562,168.23923870013095,167.4882066999562,167.73862700001337,167.4882066999562,167.73862700001337,167.4882066999562,167.73862700001337,167.4882066999562,167.73862700001337,167.4882066999562,167.73862700001337,167.7217505001463,168.22334200004116,167.7217505001463,168.22334200004116,167.7217505001463,168.22334200004116,167.7217505001463,168.22334200004116,167.7217505001463,168.22334200004116,167.7217505001463,168.22334200004116,167.7217505001463,168.22334200004116,167.7217505001463,168.22334200004116,167.4882066999562,None,168.22334200004116,169.10723090008833,0.25,169.12326020002365,None,169.87478050007485,None,,,,,,,[0.875],2.570000000000002,0.5,11028,001,2024_Jan_10_1401,MFTM_A_new1021,2021.2.3,59.85540137700998,
,,,,,,,,stim/Instruction_adaptive.png,conditions/adaptive.xlsx,test,-0.6,-0.6,-0.6,0.6,0.6,left,L,,,,,0,1,1,1,0,2,2,61,,,,,,,,,,,,,,,,,,,,,,,,,,,,,,,,,,,,,,,,,,,,170.3758211999666,None,right,0,1.7947472999803722,170.87646139995195,172.49739890010096,170.87646139995195,171.99524060008116,170.87646139995195,171.99524060008116,170.87646139995195,171.99524060008116,170.87646139995195,171.99524060008116,170.87646139995195,171.99524060008116,171.96140359994024,172.46210950007662,171.96140359994024,172.46210950007662,171.96140359994024,172.46210950007662,171.96140359994024,172.46210950007662,171.96140359994024,172.46210950007662,171.96140359994024,172.46210950007662,171.96140359994024,172.46210950007662,171.96140359994024,172.46210950007662,170.87646139995195,None,172.46210950007662,173.5154292001389,1.1100000000000008,173.54688960011117,None,174.29837540001608,None,,,,,,,[1.04666667],0.5800000000000001,0.3333333333333333,11028,001,2024_Jan_10_1401,MFTM_A_new1021,2021.2.3,59.85540137700998,
,,,,,,,,stim/Instruction_adaptive.png,conditions/adaptive.xlsx,test,-0.6,-0.6,-0.6,0.6,0.6,left,L,,,,,0,1,1,1,0,3,3,21,,,,,,,,,,,,,,,,,,,,,,,,,,,,,,,,,,,,,,,,,,,,174.79903040011413,None,left,1,1.4114699999336153,175.29977459996007,None,175.29977459996007,178.30534330010414,175.29977459996007,178.30534330010414,175.29977459996007,178.30534330010414,175.29977459996007,178.30534330010414,175.29977459996007,178.30534330010414,178.28775060013868,178.78901690011844,178.28775060013868,178.78901690011844,178.28775060013868,178.78901690011844,178.28775060013868,178.78901690011844,178.28775060013868,178.78901690011844,178.28775060013868,178.78901690011844,178.28775060013868,178.78901690011844,178.28775060013868,178.78901690011844,175.29977459996007,None,178.78901690011844,178.78901690011844,3.0000000000000027,178.8047809000127,None,179.5559994999785,None,,,,,,,0,1.660000000000001,0.5,11028,001,2024_Jan_10_1401,MFTM_A_new1021,2021.2.3,59.85540137700998,
,,,,,,,,stim/Instruction_adaptive.png,conditions/adaptive.xlsx,test,-0.6,-0.6,-0.6,0.6,0.6,left,L,,,,,0,1,1,1,0,4,4,13,,,,,,,,,,,,,,,,,,,,,,,,,,,,,,,,,,,,,,,,,,,,180.0570660000667,None,left,1,1.2258146998938173,180.5574885001406,183.14510780014098,180.5574885001406,182.64392619999126,180.5574885001406,182.64392619999126,180.5574885001406,182.64392619999126,180.5574885001406,182.64392619999126,180.5574885001406,182.64392619999126,182.62722599995323,183.12849749997258,182.62722599995323,183.12849749997258,182.62722599995323,183.12849749997258,182.62722599995323,183.12849749997258,182.62722599995323,183.12849749997258,182.62722599995323,183.12849749997258,182.62722599995323,183.12849749997258,182.62722599995323,183.12849749997258,180.5574885001406,None,183.12849749997258,None,2.080000000000002,183.56249490007758,None,184.31309389998205,None,,,,,,,[[0.42]],2.1200000000000014,0.6,11028,001,2024_Jan_10_1401,MFTM_A_new1021,2021.2.3,59.85540137700998,
,,,,,,,,stim/Instruction_adaptive.png,conditions/adaptive.xlsx,test,0.6,0.6,0.6,-0.6,-0.6,right,R,,,,,0,1,1,1,0,5,5,96,,,,,,,,,,,,,,,,,,,,,,,,,,,,,,,,,,,,,,,,,,,,184.81421929993667,None,right,1,1.572989899897948,185.3143643999938,187.33423779997975,185.3143643999938,186.83343030000106,185.3143643999938,186.83343030000106,185.3143643999938,186.83343030000106,185.3143643999938,186.83343030000106,185.3143643999938,186.83343030000106,186.79995879996568,187.30127330007963,186.79995879996568,187.30127330007963,186.79995879996568,187.30127330007963,186.79995879996568,187.30127330007963,186.79995879996568,187.30127330007963,186.79995879996568,187.30127330007963,186.79995879996568,187.30127330007963,186.79995879996568,187.30127330007963,185.3143643999938,None,187.30127330007963,187.98518449999392,1.5100000000000011,188.0017912001349,None,188.7532081999816,None,,,,,,,[0.675],2.450000000000002,0.6666666666666666,11028,001,2024_Jan_10_1401,MFTM_A_new1021,2021.2.3,59.85540137700998,
,,,,,,,,stim/Instruction_adaptive.png,conditions/adaptive.xlsx,test,0.6,0.6,0.6,-0.6,-0.6,right,R,,,,,0,1,1,1,0,6,6,80,,,,,,,,,,,,,,,,,,,,,,,,,,,,,,,,,,,,,,,,,,,,189.25443840003572,None,left,0,1.6209664999041706,189.75434159999713,191.45785990008153,189.75434159999713,190.9560080000665,189.75434159999713,190.9560080000665,189.75434159999713,190.9560080000665,189.75434159999713,190.9560080000665,189.75434159999713,190.9560080000665,190.94016450014897,191.4408478999976,190.94016450014897,191.4408478999976,190.94016450014897,191.4408478999976,190.94016450014897,191.4408478999976,190.94016450014897,191.4408478999976,190.94016450014897,191.4408478999976,190.94016450014897,191.4408478999976,190.94016450014897,191.4408478999976,189.75434159999713,None,191.4408478999976,192.20812220009975,1.2000000000000008,192.2245195999276,None,192.97624290012754,None,,,,,,,[0.76428571],1.730000000000001,0.5714285714285714,11028,001,2024_Jan_10_1401,MFTM_A_new1021,2021.2.3,59.85540137700998,
,,,,,,,,stim/Instruction_adaptive.png,conditions/adaptive.xlsx,test,0.6,0.6,0.6,-0.6,-0.6,right,R,,,,,0,1,1,1,0,7,7,76,,,,,,,,,,,,,,,,,,,,,,,,,,,,,,,,,,,,,,,,,,,,193.4766337000765,None,right,1,0.9347755000926554,193.9772960001137,196.46567540010437,193.9772960001137,195.96355800004676,193.9772960001137,195.96355800004676,193.9772960001137,195.96355800004676,193.9772960001137,195.96355800004676,193.9772960001137,195.96355800004676,195.94687169999816,196.44805380003527,195.94687169999816,196.44805380003527,195.94687169999816,196.44805380003527,195.94687169999816,196.44805380003527,195.94687169999816,196.44805380003527,195.94687169999816,196.44805380003527,195.94687169999816,196.44805380003527,195.94687169999816,196.44805380003527,193.9772960001137,None,196.44805380003527,None,1.9800000000000015,196.98179939994588,None,197.733135699993,None,,,,,,,[[0.52]],2.030000000000001,0.625,11028,001,2024_Jan_10_1401,MFTM_A_new1021,2021.2.3,59.85540137700998,
,,,,,,,,stim/Instruction_adaptive.png,conditions/adaptive.xlsx,test,-0.6,-0.6,-0.6,0.6,0.6,left,L,,,,,0,1,1,1,0,8,8,39,,,,,,,,,,,,,,,,,,,,,,,,,,,,,,,,,,,,,,,,,,,,198.2337492001243,None,left,1,0.9215327000711113,198.73436790006235,200.85398399992846,198.73436790006235,200.35349610005505,198.73436790006235,200.35349610005505,198.73436790006235,200.35349610005505,198.73436790006235,200.35349610005505,198.73436790006235,200.35349610005505,200.32028189999983,200.8209212999791,200.32028189999983,200.8209212999791,200.32028189999983,200.8209212999791,200.32028189999983,200.8209212999791,200.32028189999983,200.8209212999791,200.32028189999983,200.8209212999791,200.32028189999983,200.8209212999791,200.32028189999983,200.8209212999791,198.73436790006235,None,200.8209212999791,201.57231199997477,1.6100000000000012,201.6061086000409,None,202.35650689993054,None,,,,,,,[0.75111111],2.2500000000000018,0.6666666666666666,11028,001,2024_Jan_10_1401,MFTM_A_new1021,2021.2.3,59.85540137700998,
,,,,,,,,stim/Instruction_adaptive.png,conditions/adaptive.xlsx,test,-0.6,-0.6,-0.6,0.6,0.6,left,L,,,,,0,1,1,1,0,9,9,53,,,,,,,,,,,,,,,,,,,,,,,,,,,,,,,,,,,,,,,,,,,,202.8571937000379,None,right,0,1.2249687002040446,203.35858420003206,205.24406059994362,203.35858420003206,204.74316700012423,203.35858420003206,204.74316700012423,203.35858420003206,204.74316700012423,203.35858420003206,204.74316700012423,203.35858420003206,204.74316700012423,204.72706590010785,205.22741089994088,204.72706590010785,205.22741089994088,204.72706590010785,205.22741089994088,204.72706590010785,205.22741089994088,204.72706590010785,205.22741089994088,204.72706590010785,205.22741089994088,204.72706590010785,205.22741089994088,204.72706590010785,205.22741089994088,203.35858420003206,None,205.22741089994088,None,1.380000000000001,206.0286700001452,None,206.77959119994193,None,,,,,,,[0.788],1.700000000000001,0.6,11028,001,2024_Jan_10_1401,MFTM_A_new1021,2021.2.3,59.85540137700998,
,,,,,,,,stim/Instruction_adaptive.png,conditions/adaptive.xlsx,test,0.6,0.6,0.6,-0.6,-0.6,right,R,,,,,0,1,1,1,0,10,10,74,,,,,,,,,,,,,,,,,,,,,,,,,,,,,,,,,,,,,,,,,,,,207.28031880012713,None,right,1,2.097785099875182,207.7814387001563,210.3015515001025,207.7814387001563,209.80128520005383,207.7814387001563,209.80128520005383,207.7814387001563,209.80128520005383,207.7814387001563,209.80128520005383,207.7814387001563,209.80128520005383,209.78454479994252,210.28484029998071,209.78454479994252,210.28484029998071,209.78454479994252,210.28484029998071,209.78454479994252,210.28484029998071,209.78454479994252,210.28484029998071,209.78454479994252,210.28484029998071,209.78454479994252,210.28484029998071,209.78454479994252,210.28484029998071,207.7814387001563,None,210.28484029998071,210.76875369995832,2.0200000000000014,210.7857808000408,None,211.53675139998086,None,,,,,,,[[0.48]],1.9300000000000013,0.6363636363636364,11028,001,2024_Jan_10_1401,MFTM_A_new1021,2021.2.3,59.85540137700998,
,,,,,,,,stim/Instruction_adaptive.png,conditions/adaptive.xlsx,test,0.6,0.6,0.6,-0.6,-0.6,right,R,,,,,0,1,1,1,0,11,11,26,,,,,,,,,,,,,,,,,,,,,,,,,,,,,,,,,,,,,,,,,,,,212.03731420007534,None,right,1,1.4602675000205636,212.5389746001456,214.77603520010598,212.5389746001456,214.27471340005286,212.5389746001456,214.27471340005286,212.5389746001456,214.27471340005286,212.5389746001456,214.27471340005286,212.5389746001456,214.27471340005286,214.2572864999529,214.75814100005664,214.2572864999529,214.75814100005664,214.2572864999529,214.75814100005664,214.2572864999529,214.75814100005664,214.2572864999529,214.75814100005664,214.2572864999529,214.75814100005664,214.2572864999529,214.75814100005664,214.2572864999529,214.75814100005664,212.5389746001456,None,214.74153789994307,215.5100924000144,1.7300000000000013,215.54279510001652,None,216.2936698999256,None,,,,,,,[0.76083333],2.1000000000000014,0.6666666666666666,11028,001,2024_Jan_10_1401,MFTM_A_new1021,2021.2.3,59.85540137700998,
,,,,,,,,stim/Instruction_adaptive.png,conditions/adaptive.xlsx,test,-0.6,-0.6,-0.6,0.6,0.6,left,L,,,,,0,1,1,1,0,12,12,23,,,,,,,,,,,,,,,,,,,,,,,,,,,,,,,,,,,,,,,,,,,,216.7944523000624,None,right,0,1.799485299969092,217.29581720009446,219.33254289999604,217.29581720009446,218.83067049994133,217.29581720009446,218.83067049994133,217.29581720009446,218.83067049994133,217.29581720009446,218.83067049994133,217.29581720009446,218.83067049994133,218.79776709992439,219.29887009994127,218.79776709992439,219.29887009994127,218.79776709992439,219.29887009994127,218.79776709992439,219.29887009994127,218.79776709992439,219.29887009994127,218.79776709992439,219.29887009994127,218.79776709992439,219.29887009994127,218.79776709992439,219.29887009994127,217.29581720009446,None,219.29887009994127,220.0829735000152,1.5300000000000011,220.11551699996926,None,220.86719879996963,None,,,,,,,[0.77692308],1.650000000000001,0.6153846153846154,11028,001,2024_Jan_10_1401,MFTM_A_new1021,2021.2.3,59.85540137700998,
,,,,,,,,stim/Instruction_adaptive.png,conditions/adaptive.xlsx,test,-0.6,-0.6,-0.6,0.6,0.6,left,L,,,,,0,1,1,1,0,13,13,17,,,,,,,,,,,,,,,,,,,,,,,,,,,,,,,,,,,,,,,,,,,,221.3689365000464,None,left,1,1.3620262001641095,221.8693653999362,224.47260900004767,221.8693653999362,223.97181580006145,221.8693653999362,223.97181580006145,221.8693653999362,223.97181580006145,221.8693653999362,223.97181580006145,221.8693653999362,223.97181580006145,223.95494900015183,224.4564784001559,223.95494900015183,224.4564784001559,223.95494900015183,224.4564784001559,223.95494900015183,224.4564784001559,223.95494900015183,224.4564784001559,223.95494900015183,224.4564784001559,223.95494900015183,224.4564784001559,223.95494900015183,224.4564784001559,221.8693653999362,None,224.4564784001559,224.8568667001091,2.1000000000000014,224.8730651999358,None,225.62411740003154,None,,,,,,,[[0.4]],1.8300000000000012,0.6428571428571429,11028,001,2024_Jan_10_1401,MFTM_A_new1021,2021.2.3,59.85540137700998,
,,,,,,,,stim/Instruction_adaptive.png,conditions/adaptive.xlsx,test,-0.6,-0.6,-0.6,0.6,0.6,left,L,,,,,0,1,1,1,0,14,14,31,,,,,,,,,,,,,,,,,,,,,,,,,,,,,,,,,,,,,,,,,,,,226.1251457000617,None,left,1,1.3334630001336336,226.62582259997725,228.9815700999461,226.62582259997725,228.47856190009043,226.62582259997725,228.47856190009043,226.62582259997725,228.47856190009043,226.62582259997725,228.47856190009043,226.62582259997725,228.47856190009043,228.46181989996694,228.9627384999767,228.46181989996694,228.9627384999767,228.46181989996694,228.9627384999767,228.46181989996694,228.9627384999767,228.46181989996694,228.9627384999767,228.46181989996694,228.9627384999767,228.46181989996694,228.9627384999767,228.46181989996694,228.9627384999767,226.62582259997725,None,228.9627384999767,229.6134691000916,1.8500000000000014,229.6300427999813,None,230.3814089000225,None,,,,,,,[[0.65]],1.9700000000000013,0.6666666666666666,11028,001,2024_Jan_10_1401,MFTM_A_new1021,2021.2.3,59.85540137700998,
,,,,,,,,stim/Instruction_adaptive.png,conditions/adaptive.xlsx,test,-0.6,-0.6,-0.6,0.6,0.6,left,L,,,,,0,1,1,1,0,15,15,3,,,,,,,,,,,,,,,,,,,,,,,,,,,,,,,,,,,,,,,,,,,,230.88274200004525,None,left,1,0.960517899831757,231.38289980008267,233.56999729992822,231.38289980008267,233.06923709996045,231.38289980008267,233.06923709996045,231.38289980008267,233.06923709996045,231.38289980008267,233.06923709996045,231.38289980008267,233.06923709996045,233.05211789999157,233.5541006999556,233.05211789999157,233.5541006999556,233.05211789999157,233.5541006999556,233.05211789999157,233.5541006999556,233.05211789999157,233.5541006999556,233.05211789999157,233.5541006999556,233.05211789999157,233.5541006999556,233.05211789999157,233.5541006999556,231.38289980008267,None,233.5541006999556,234.30412490013987,1.6800000000000013,234.32046840013936,None,235.07192740007304,None,,,,,,,[0.748125],2.1000000000000014,0.6875,11028,001,2024_Jan_10_1401,MFTM_A_new1021,2021.2.3,59.85540137700998,
,,,,,,,,stim/Instruction_adaptive.png,conditions/adaptive.xlsx,test,0.6,0.6,0.6,-0.6,-0.6,right,R,,,,,0,1,1,1,0,16,16,8,,,,,,,,,,,,,,,,,,,,,,,,,,,,,,,,,,,,,,,,,,,,235.5730038001202,None,right,1,1.37398979999125,236.07347590010613,238.1094043001067,236.07347590010613,237.60888350009918,236.07347590010613,237.60888350009918,236.07347590010613,237.60888350009918,236.07347590010613,237.60888350009918,236.07347590010613,237.60888350009918,237.5921652999241,238.09294210001826,237.5921652999241,238.09294210001826,237.5921652999241,238.09294210001826,237.5921652999241,238.09294210001826,237.5921652999241,238.09294210001826,237.5921652999241,238.09294210001826,237.5921652999241,238.09294210001826,237.5921652999241,238.09294210001826,236.07347590010613,None,238.09294210001826,238.86078230012208,1.5300000000000011,238.8773539001122,None,239.62851210008375,None,,,,,,,[0.76117647],2.2100000000000017,0.7058823529411765,11028,001,2024_Jan_10_1401,MFTM_A_new1021,2021.2.3,59.85540137700998,
,,,,,,,,stim/Instruction_adaptive.png,conditions/adaptive.xlsx,test,-0.6,-0.6,-0.6,0.6,0.6,left,L,,,,,0,1,1,1,0,17,17,1,,,,,,,,,,,,,,,,,,,,,,,,,,,,,,,,,,,,,,,,,,,,240.1292501001153,None,left,1,0.7693473999388516,240.63008849998005,242.54946619994007,240.63008849998005,242.06576370005496,240.63008849998005,242.06576370005496,240.63008849998005,242.06576370005496,240.63008849998005,242.06576370005496,240.63008849998005,242.06576370005496,242.0322847000789,242.5327870999463,242.0322847000789,242.5327870999463,242.0322847000789,242.5327870999463,242.0322847000789,242.5327870999463,242.0322847000789,242.5327870999463,242.0322847000789,242.5327870999463,242.0322847000789,242.5327870999463,242.0322847000789,242.5327870999463,240.63008849998005,None,242.5327870999463,243.31725680013187,1.420000000000001,243.33418230013922,None,244.08560390002094,None,,,,,,,[0.77888889],2.3100000000000014,0.7222222222222222,11028,001,2024_Jan_10_1401,MFTM_A_new1021,2021.2.3,59.85540137700998,
,,,,,,,,stim/Instruction_adaptive.png,conditions/adaptive.xlsx,test,-0.6,-0.6,-0.6,0.6,0.6,left,L,,,,,0,1,1,1,0,18,18,83,,,,,,,,,,,,,,,,,,,,,,,,,,,,,,,,,,,,,,,,,,,,244.58702610014006,None,left,1,1.5449572999496013,245.08651540009305,246.92242010007612,245.08651540009305,246.42199310008436,245.08651540009305,246.42199310008436,245.08651540009305,246.42199310008436,245.08651540009305,246.42199310008436,245.08651540009305,246.42199310008436,246.40527760004625,246.9055596999824,246.40527760004625,246.9055596999824,246.40527760004625,246.9055596999824,246.40527760004625,246.9055596999824,246.40527760004625,246.9055596999824,246.40527760004625,246.9055596999824,246.40527760004625,246.9055596999824,246.40527760004625,246.9055596999824,245.08651540009305,None,246.9055596999824,247.70771540002897,1.330000000000001,247.72395989997312,None,248.47484049992636,None,,,,,,,[0.79947368],2.4000000000000017,0.7368421052631579,11028,001,2024_Jan_10_1401,MFTM_A_new1021,2021.2.3,59.85540137700998,
,,,,,,,,stim/Instruction_adaptive.png,conditions/adaptive.xlsx,test,0.6,0.6,0.6,-0.6,-0.6,right,R,,,,,0,1,1,1,0,19,19,50,,,,,,,,,,,,,,,,,,,,,,,,,,,,,,,,,,,,,,,,,,,,248.97610329999588,None,left,0,1.530682599870488,249.47663499996997,251.22939290013164,249.47663499996997,250.72816410008818,249.47663499996997,250.72816410008818,249.47663499996997,250.72816410008818,249.47663499996997,250.72816410008818,249.47663499996997,250.72816410008818,250.7113648999948,251.21205820003524,250.7113648999948,251.21205820003524,250.7113648999948,251.21205820003524,250.7113648999948,251.21205820003524,250.7113648999948,251.21205820003524,250.7113648999948,251.21205820003524,250.7113648999948,251.21205820003524,250.7113648999948,251.21205820003524,249.47663499996997,None,251.21205820003524,252.0468961999286,1.2500000000000009,252.06340109999292,None,252.81445479998365,None,,,,,,,[0.822],2.1500000000000012,0.7,11028,001,2024_Jan_10_1401,MFTM_A_new1021,2021.2.3,59.85540137700998,
,,,,,,,,stim/Instruction_adaptive.png,conditions/adaptive.xlsx,test,0.6,0.6,0.6,-0.6,-0.6,right,R,,,,,0,1,1,1,0,20,20,68,,,,,,,,,,,,,,,,,,,,,,,,,,,,,,,,,,,,,,,,,,,,253.31640999997035,None,right,1,2.2955908998847008,253.8159054000862,255.802310799947,253.8159054000862,255.30137260002084,253.8159054000862,255.30137260002084,253.8159054000862,255.30137260002084,253.8159054000862,255.30137260002084,253.8159054000862,255.30137260002084,255.28500590007752,255.78609480010346,255.28500590007752,255.78609480010346,255.28500590007752,255.78609480010346,255.28500590007752,255.78609480010346,255.28500590007752,255.78609480010346,255.28500590007752,255.78609480010346,255.28500590007752,255.78609480010346,255.28500590007752,255.78609480010346,253.8159054000862,None,255.76886050007306,256.6036416001152,1.480000000000001,256.6367103001103,None,257.38786919997074,None,,,,,,,[0.83142857],2.2400000000000015,0.7142857142857143,11028,001,2024_Jan_10_1401,MFTM_A_new1021,2021.2.3,59.85540137700998,
,,,,,,,,stim/Instruction_adaptive.png,conditions/adaptive.xlsx,test,0.6,0.6,0.6,-0.6,-0.6,right,R,,,,,0,1,1,1,0,21,21,60,,,,,,,,,,,,,,,,,,,,,,,,,,,,,,,,,,,,,,,,,,,,257.8886562001426,None,right,1,1.7373227002099156,258.39029250014573,260.29212619992904,258.39029250014573,259.7915729000233,258.39029250014573,259.7915729000233,258.39029250014573,259.7915729000233,258.39029250014573,259.7915729000233,258.39029250014573,259.7915729000233,259.75803670007735,260.2589936000295,259.75803670007735,260.2589936000295,259.75803670007735,260.2589936000295,259.75803670007735,260.2589936000295,259.75803670007735,260.2589936000295,259.75803670007735,260.2589936000295,259.75803670007735,260.2589936000295,259.75803670007735,260.2589936000295,258.39029250014573,None,260.2589936000295,261.11005869996734,1.390000000000001,261.12676819995977,None,261.8780434001237,None,,,,,,,[0.84409091],2.330000000000002,0.7272727272727273,11028,001,2024_Jan_10_1401,MFTM_A_new1021,2021.2.3,59.85540137700998,
,,,,,,,,stim/Instruction_adaptive.png,conditions/adaptive.xlsx,test,0.6,0.6,0.6,-0.6,-0.6,right,R,,,,,0,1,1,1,0,22,22,4,,,,,,,,,,,,,,,,,,,,,,,,,,,,,,,,,,,,,,,,,,,,262.37875219993293,None,right,1,1.3194312998093665,262.8797724000178,264.69874699995853,262.8797724000178,264.1979600000195,262.8797724000178,264.1979600000195,262.8797724000178,264.1979600000195,262.8797724000178,264.1979600000195,262.8797724000178,264.1979600000195,264.1645688000135,264.6654944999609,264.1645688000135,264.6654944999609,264.1645688000135,264.6654944999609,264.1645688000135,264.6654944999609,264.1645688000135,264.6654944999609,264.1645688000135,264.6654944999609,264.1645688000135,264.6654944999609,264.1645688000135,264.6654944999609,262.8797724000178,None,264.6654944999609,265.53385909995995,1.310000000000001,265.5506796000991,None,266.30123240011744,None,,,,,,,[0.85913043],2.4000000000000017,0.7391304347826086,11028,001,2024_Jan_10_1401,MFTM_A_new1021,2021.2.3,59.85540137700998,
,,,,,,,,stim/Instruction_adaptive.png,conditions/adaptive.xlsx,test,0.6,0.6,0.6,-0.6,-0.6,right,R,,,,,0,1,1,1,0,23,23,84,,,,,,,,,,,,,,,,,,,,,,,,,,,,,,,,,,,,,,,,,,,,266.8022044999525,None,right,1,1.6892294001299888,267.3026405000128,269.05529520008713,267.3026405000128,268.55490210000426,267.3026405000128,268.55490210000426,267.3026405000128,268.55490210000426,267.3026405000128,268.55490210000426,267.3026405000128,268.55490210000426,268.53769499994814,269.0387886001263,268.53769499994814,269.0387886001263,268.53769499994814,269.0387886001263,268.53769499994814,269.0387886001263,268.53769499994814,269.0387886001263,268.53769499994814,269.0387886001263,268.53769499994814,269.0387886001263,268.53769499994814,269.0387886001263,267.3026405000128,None,269.0387886001263,269.92427850002423,1.2500000000000009,269.93989620008506,None,270.6912014000118,None,,,,,,,[0.87541667],2.4700000000000015,0.75,11028,001,2024_Jan_10_1401,MFTM_A_new1021,2021.2.3,59.85540137700998,
,,,,,,,,stim/Instruction_adaptive.png,conditions/adaptive.xlsx,test,-0.6,-0.6,-0.6,0.6,0.6,left,L,,,,,0,1,1,1,0,24,24,85,,,,,,,,,,,,,,,,,,,,,,,,,,,,,,,,,,,,,,,,,,,,271.19241910008714,None,left,1,1.7871483000926673,271.6924356999807,273.39507080009207,271.6924356999807,272.8944590999745,271.6924356999807,272.8944590999745,271.6924356999807,272.8944590999745,271.6924356999807,272.8944590999745,271.6924356999807,272.8944590999745,272.8608705000952,273.36169879999943,272.8608705000952,273.36169879999943,272.8608705000952,273.36169879999943,272.8608705000952,273.36169879999943,272.8608705000952,273.36169879999943,272.8608705000952,273.36169879999943,272.8608705000952,273.36169879999943,272.8608705000952,273.36169879999943,271.6924356999807,None,273.36169879999943,274.26414990006015,1.1900000000000008,274.27959090005606,None,275.0307489000261,None,,,,,,,[0.8928],2.540000000000002,0.76,11028,001,2024_Jan_10_1401,MFTM_A_new1021,2021.2.3,59.85540137700998,
,,,,,,,,stim/Instruction_adaptive.png,conditions/adaptive.xlsx,test,0.6,0.6,0.6,-0.6,-0.6,right,R,,,,,0,1,1,1,0,25,25,54,,,,,,,,,,,,,,,,,,,,,,,,,,,,,,,,,,,,,,,,,,,,275.5323982001282,None,left,0,1.5670270000118762,276.0323189001065,277.66864060005173,276.0323189001065,277.1675233999267,276.0323189001065,277.1675233999267,276.0323189001065,277.1675233999267,276.0323189001065,277.1675233999267,276.0323189001065,277.1675233999267,277.15034710010514,277.6519949999638,277.15034710010514,277.6519949999638,277.15034710010514,277.6519949999638,277.15034710010514,277.6519949999638,277.15034710010514,277.6519949999638,277.15034710010514,277.6519949999638,277.15034710010514,277.6519949999638,277.15034710010514,277.6519949999638,276.0323189001065,None,277.6519949999638,278.56975820008665,1.1300000000000008,278.5860892001074,None,279.3370888000354,None,,,,,,,[0.91115385],2.3500000000000014,0.7307692307692307,11028,001,2024_Jan_10_1401,MFTM_A_new1021,2021.2.3,59.85540137700998,
,,,,,,,,stim/Instruction_adaptive.png,conditions/adaptive.xlsx,test,-0.6,-0.6,-0.6,0.6,0.6,left,L,,,,,0,1,1,1,0,26,26,33,,,,,,,,,,,,,,,,,,,,,,,,,,,,,,,,,,,,,,,,,,,,279.8385532000102,None,left,1,0.9248887000139803,280.3388690999709,282.1424378999509,280.3388690999709,281.6405935001094,280.3388690999709,281.6405935001094,280.3388690999709,281.6405935001094,280.3388690999709,281.6405935001094,280.3388690999709,281.6405935001094,281.6072987001389,282.10836070007645,281.6072987001389,282.10836070007645,281.6072987001389,282.10836070007645,281.6072987001389,282.10836070007645,281.6072987001389,282.10836070007645,281.6072987001389,282.10836070007645,281.6072987001389,282.10836070007645,281.6072987001389,282.10836070007645,280.3388690999709,None,282.10836070007645,283.0425543000456,1.290000000000001,283.0594331000466,None,283.8112890999764,None,,,,,,,[0.92222222],2.4200000000000017,0.7407407407407407,11028,001,2024_Jan_10_1401,MFTM_A_new1021,2021.2.3,59.85540137700998,
,,,,,,,,stim/Instruction_adaptive.png,conditions/adaptive.xlsx,test,-0.6,-0.6,-0.6,0.6,0.6,left,L,,,,,0,1,1,1,0,27,27,75,,,,,,,,,,,,,,,,,,,,,,,,,,,,,,,,,,,,,,,,,,,,284.3112838999368,None,right,0,1.7713699000887573,284.8120297000278,286.548170800088,284.8120297000278,286.0471101999283,284.8120297000278,286.0471101999283,284.8120297000278,286.0471101999283,284.8120297000278,286.0471101999283,284.8120297000278,286.0471101999283,286.03053270000964,286.5311440001242,286.03053270000964,286.5311440001242,286.03053270000964,286.5311440001242,286.03053270000964,286.5311440001242,286.03053270000964,286.5311440001242,286.03053270000964,286.5311440001242,286.03053270000964,286.5311440001242,286.03053270000964,286.5311440001242,284.8120297000278,None,286.5311440001242,287.46721590007655,1.2300000000000009,287.4825116000138,None,288.233935700031,None,,,,,,,[0.93464286],2.2300000000000013,0.7142857142857143,11028,001,2024_Jan_10_1401,MFTM_A_new1021,2021.2.3,59.85540137700998,
,,,,,,,,stim/Instruction_adaptive.png,conditions/adaptive.xlsx,test,0.6,0.6,0.6,-0.6,-0.6,right,R,,,,,0,1,1,1,0,28,28,36,,,,,,,,,,,,,,,,,,,,,,,,,,,,,,,,,,,,,,,,,,,,288.7346655000001,None,right,1,1.5081643001176417,289.23550499998964,291.1379984000232,289.23550499998964,290.6373187000863,289.23550499998964,290.6373187000863,289.23550499998964,290.6373187000863,289.23550499998964,290.6373187000863,289.23550499998964,290.6373187000863,290.62062150007114,291.12209540000185,290.62062150007114,291.12209540000185,290.62062150007114,291.12209540000185,290.62062150007114,291.12209540000185,290.62062150007114,291.12209540000185,290.62062150007114,291.12209540000185,290.62062150007114,291.12209540000185,290.62062150007114,291.12209540000185,289.23550499998964,None,291.12209540000185,292.0730988001451,1.400000000000001,292.0893677000422,None,292.8411964001134,None,,,,,,,[0.94034483],2.3000000000000016,0.7241379310344828,11028,001,2024_Jan_10_1401,MFTM_A_new1021,2021.2.3,59.85540137700998,
,,,,,,,,stim/Instruction_adaptive.png,conditions/adaptive.xlsx,test,-0.6,-0.6,-0.6,0.6,0.6,left,L,,,,,0,1,1,1,0,29,29,29,,,,,,,,,,,,,,,,,,,,,,,,,,,,,,,,,,,,,,,,,,,,293.3412127001211,None,left,1,1.182116499869153,293.8418113000225,295.6946561001241,293.8418113000225,295.1946139000356,293.8418113000225,295.1946139000356,293.8418113000225,295.1946139000356,293.8418113000225,295.1946139000356,293.8418113000225,295.1946139000356,295.16071350011043,295.6614588999655,295.16071350011043,295.6614588999655,295.16071350011043,295.6614588999655,295.16071350011043,295.6614588999655,295.16071350011043,295.6614588999655,295.16071350011043,295.6614588999655,295.16071350011043,295.6614588999655,295.16071350011043,295.6614588999655,293.8418113000225,None,295.6614588999655,296.61276710010134,1.340000000000001,296.6295783999376,None,297.38082560012117,None,,,,,,,[0.94766667],2.3600000000000017,0.7333333333333333,11028,001,2024_Jan_10_1401,MFTM_A_new1021,2021.2.3,59.85540137700998,
,,,,,,,,stim/Instruction_adaptive.png,conditions/adaptive.xlsx,test,-0.6,-0.6,-0.6,0.6,0.6,left,L,,,,,0,1,1,1,0,30,30,7,,,,,,,,,,,,,,,,,,,,,,,,,,,,,,,,,,,,,,,,,,,,297.88130060001276,None,right,0,1.3133585001341999,298.38213220005855,300.16844959999435,298.38213220005855,299.66746390005574,298.38213220005855,299.66746390005574,298.38213220005855,299.66746390005574,298.38213220005855,299.66746390005574,298.38213220005855,299.66746390005574,299.6506934000645,300.15165150002576,299.6506934000645,300.15165150002576,299.6506934000645,300.15165150002576,299.6506934000645,300.15165150002576,299.6506934000645,300.15165150002576,299.6506934000645,300.15165150002576,299.6506934000645,300.15165150002576,299.6506934000645,300.15165150002576,298.38213220005855,None,300.15165150002576,None,1.280000000000001,301.1192912000697,None,301.87118989997543,None,,,,,,,[0.95645161],2.1900000000000013,0.7096774193548387,11028,001,2024_Jan_10_1401,MFTM_A_new1021,2021.2.3,59.85540137700998,
,,,,,,,,stim/Instruction_adaptive.png,conditions/adaptive.xlsx,test,-0.6,-0.6,-0.6,0.6,0.6,left,L,,,,,0,1,1,1,0,31,31,19,,,,,,,,,,,,,,,,,,,,,,,,,,,,,,,,,,,,,,,,,,,,302.37231120001525,None,left,1,0.8320756999310106,302.8719071999658,304.82587580010295,302.8719071999658,304.32410810003057,302.8719071999658,304.32410810003057,302.8719071999658,304.32410810003057,302.8719071999658,304.32410810003057,302.8719071999658,304.32410810003057,304.29145919997245,304.79174310015514,304.29145919997245,304.79174310015514,304.29145919997245,304.79174310015514,304.29145919997245,304.79174310015514,304.29145919997245,304.79174310015514,304.29145919997245,304.79174310015514,304.29145919997245,304.79174310015514,304.29145919997245,304.79174310015514,302.8719071999658,None,304.79174310015514,305.76113829994574,1.440000000000001,305.7764038001187,None,306.52799700014293,None,,,,,,,[0.9596875],2.2500000000000018,0.71875,11028,001,2024_Jan_10_1401,MFTM_A_new1021,2021.2.3,59.85540137700998,
,,,,,,,,stim/Instruction_adaptive.png,conditions/adaptive.xlsx,test,-0.6,-0.6,-0.6,0.6,0.6,left,L,,,,,0,1,1,1,0,32,32,81,,,,,,,,,,,,,,,,,,,,,,,,,,,,,,,,,,,,,,,,,,,,307.0288377001416,None,left,1,1.0064528998918831,307.5290310999844,309.4152852999978,307.5290310999844,308.9153468001168,307.5290310999844,308.9153468001168,307.5290310999844,308.9153468001168,307.5290310999844,308.9153468001168,307.5290310999844,308.9153468001168,308.8977403999306,309.3990997001529,308.8977403999306,309.3990997001529,308.8977403999306,309.3990997001529,308.8977403999306,309.3990997001529,308.8977403999306,309.3990997001529,308.8977403999306,309.3990997001529,308.8977403999306,309.3990997001529,308.8977403999306,309.3990997001529,307.5290310999844,None,309.3990997001529,310.3667596001178,1.380000000000001,310.38321979995817,None,311.1342079001479,None,,,,,,,[0.96454545],2.3100000000000014,0.7272727272727273,11028,001,2024_Jan_10_1401,MFTM_A_new1021,2021.2.3,59.85540137700998,
,,,,,,,,stim/Instruction_adaptive.png,conditions/adaptive.xlsx,test,-0.6,-0.6,-0.6,0.6,0.6,left,L,,,,,0,1,1,1,0,33,33,11,,,,,,,,,,,,,,,,,,,,,,,,,,,,,,,,,,,,,,,,,,,,311.6351181000937,None,left,1,0.8320393001195043,312.13581719994545,313.9731753000524,312.13581719994545,313.4710824000649,312.13581719994545,313.4710824000649,312.13581719994545,313.4710824000649,312.13581719994545,313.4710824000649,312.13581719994545,313.4710824000649,313.4544925999362,313.9555977000855,313.4544925999362,313.9555977000855,313.4544925999362,313.9555977000855,313.4544925999362,313.9555977000855,313.4544925999362,313.9555977000855,313.4544925999362,313.9555977000855,313.4544925999362,313.9555977000855,313.4544925999362,313.9555977000855,312.13581719994545,None,313.9555977000855,None,1.330000000000001,314.9403365000617,None,315.69114310014993,None,,,,,,,[0.97058824],2.3600000000000017,0.7352941176470589,11028,001,2024_Jan_10_1401,MFTM_A_new1021,2021.2.3,59.85540137700998,
,,,,,,,,stim/Instruction_adaptive.png,conditions/adaptive.xlsx,test,0.6,0.6,0.6,-0.6,-0.6,right,R,,,,,0,1,1,1,0,34,34,66,,,,,,,,,,,,,,,,,,,,,,,,,,,,,,,,,,,,,,,,,,,,316.1918467001524,None,right,1,1.7307350998744369,316.69277140009217,318.47873080009595,316.69277140009217,317.9779775000643,316.69277140009217,317.9779775000643,316.69277140009217,317.9779775000643,316.69277140009217,317.9779775000643,316.69277140009217,317.9779775000643,317.96189779997803,318.46297980006784,317.96189779997803,318.46297980006784,317.96189779997803,318.46297980006784,317.96189779997803,318.46297980006784,317.96189779997803,318.46297980006784,317.96189779997803,318.46297980006784,317.96189779997803,318.46297980006784,317.96189779997803,318.46297980006784,316.69277140009217,None,318.46297980006784,319.4471321001183,1.280000000000001,319.46331220003776,None,320.2144971000962,None,,,,,,,[0.97771429],2.4200000000000017,0.7428571428571429,11028,001,2024_Jan_10_1401,MFTM_A_new1021,2021.2.3,59.85540137700998,
,,,,,,,,stim/Instruction_adaptive.png,conditions/adaptive.xlsx,test,-0.6,-0.6,-0.6,0.6,0.6,left,L,,,,,0,1,1,1,0,35,35,67,,,,,,,,,,,,,,,,,,,,,,,,,,,,,,,,,,,,,,,,,,,,320.7154939000029,None,left,1,0.7849521001335233,321.2156776001211,322.9525957000442,321.2156776001211,322.4510906999931,321.2156776001211,322.4510906999931,321.2156776001211,322.4510906999931,321.2156776001211,322.4510906999931,321.2156776001211,322.4510906999931,322.4344923000317,322.9354095000308,322.4344923000317,322.9354095000308,322.4344923000317,322.9354095000308,322.4344923000317,322.9354095000308,322.4344923000317,322.9354095000308,322.4344923000317,322.9354095000308,322.4344923000317,322.9354095000308,322.4344923000317,322.9354095000308,321.2156776001211,None,322.9354095000308,None,1.2300000000000009,323.9368384000845,None,324.6876459000632,None,,,,,,,[0.98583333],2.4600000000000017,0.75,11028,001,2024_Jan_10_1401,MFTM_A_new1021,2021.2.3,59.85540137700998,
,,,,,,,,stim/Instruction_adaptive.png,conditions/adaptive.xlsx,test,0.6,0.6,0.6,-0.6,-0.6,right,R,,,,,0,1,1,1,0,36,36,72,,,,,,,,,,,,,,,,,,,,,,,,,,,,,,,,,,,,,,,,,,,,325.18839460005984,None,left,0,0.5666411998681724,325.6893194001168,327.39242250006646,325.6893194001168,326.89180129999295,325.6893194001168,326.89180129999295,325.6893194001168,326.89180129999295,325.6893194001168,326.89180129999295,325.6893194001168,326.89180129999295,326.87478670012206,327.3751813999843,326.87478670012206,327.3751813999843,326.87478670012206,327.3751813999843,326.87478670012206,327.3751813999843,326.87478670012206,327.3751813999843,326.87478670012206,327.3751813999843,326.87478670012206,327.3751813999843,326.87478670012206,327.3751813999843,325.6893194001168,None,327.3751813999843,328.3787102000788,1.2000000000000008,328.3929926001001,None,329.1445263000205,None,,,,,,,[0.99432432],2.3200000000000016,0.7297297297297297,11028,001,2024_Jan_10_1401,MFTM_A_new1021,2021.2.3,59.85540137700998,
,,,,,,,,stim/Instruction_adaptive.png,conditions/adaptive.xlsx,test,-0.6,-0.6,-0.6,0.6,0.6,left,L,,,,,0,1,1,1,0,37,37,73,,,,,,,,,,,,,,,,,,,,,,,,,,,,,,,,,,,,,,,,,,,,329.64566899999045,None,right,0,1.0298990001901984,330.14548970013857,331.96573569998145,330.14548970013857,331.4655663999729,330.14548970013857,331.4655663999729,330.14548970013857,331.4655663999729,330.14548970013857,331.4655663999729,330.14548970013857,331.4655663999729,331.4485303000547,331.94947970006615,331.4485303000547,331.94947970006615,331.4485303000547,331.94947970006615,331.4485303000547,331.94947970006615,331.4485303000547,331.94947970006615,331.4485303000547,331.94947970006615,331.4485303000547,331.94947970006615,331.4485303000547,331.94947970006615,330.14548970013857,None,331.94947970006615,332.94983910000883,1.320000000000001,332.96658410015516,None,333.7177226000931,None,,,,,,,[0.99921053],2.1700000000000017,0.7105263157894737,11028,001,2024_Jan_10_1401,MFTM_A_new1021,2021.2.3,59.85540137700998,
,,,,,,,,stim/Instruction_adaptive.png,conditions/adaptive.xlsx,test,-0.6,-0.6,-0.6,0.6,0.6,left,L,,,,,0,1,1,1,0,38,38,9,,,,,,,,,,,,,,,,,,,,,,,,,,,,,,,,,,,,,,,,,,,,334.2187149999663,None,left,1,1.5918677998706698,334.71960190008394,336.68895470001735,334.71960190008394,336.1882208001334,334.71960190008394,336.1882208001334,334.71960190008394,336.1882208001334,334.71960190008394,336.1882208001334,334.71960190008394,336.1882208001334,336.15481090010144,336.65544370003045,336.15481090010144,336.65544370003045,336.15481090010144,336.65544370003045,336.15481090010144,336.65544370003045,336.15481090010144,336.65544370003045,336.15481090010144,336.65544370003045,336.15481090010144,336.65544370003045,336.15481090010144,336.65544370003045,334.71960190008394,None,336.65544370003045,337.6568541000597,1.460000000000001,337.6900842001196,None,338.441450699931,None,,,,,,,[1.00025641],2.2200000000000015,0.717948717948718,11028,001,2024_Jan_10_1401,MFTM_A_new1021,2021.2.3,59.85540137700998,
,,,,,,,,stim/Instruction_adaptive.png,conditions/adaptive.xlsx,test,0.6,0.6,0.6,-0.6,-0.6,right,R,,,,,0,1,1,1,0,39,39,42,,,,,,,,,,,,,,,,,,,,,,,,,,,,,,,,,,,,,,,,,,,,338.94204290001653,None,right,1,0.8199866998475045,339.44352490012534,341.3630459001288,339.44352490012534,340.86272919992916,339.44352490012534,340.86272919992916,339.44352490012534,340.86272919992916,339.44352490012534,340.86272919992916,339.44352490012534,340.86272919992916,340.8282242999412,341.3300562000368,340.8282242999412,341.3300562000368,340.8282242999412,341.3300562000368,340.8282242999412,341.3300562000368,340.8282242999412,341.3300562000368,340.8282242999412,341.3300562000368,340.8282242999412,341.3300562000368,340.8282242999412,341.3300562000368,339.44352490012534,None,341.3300562000368,342.3475852000993,1.410000000000001,342.3638564001303,None,343.1151022000704,None,,,,,,,[1.0025],2.2800000000000016,0.725,11028,001,2024_Jan_10_1401,MFTM_A_new1021,2021.2.3,59.85540137700998,
,,,,,,,,stim/Instruction_adaptive.png,conditions/adaptive.xlsx,test,0.6,0.6,0.6,-0.6,-0.6,right,R,,,,,0,1,1,1,0,40,40,6,,,,,,,,,,,,,,,,,,,,,,,,,,,,,,,,,,,,,,,,,,,,343.61623529996723,None,left,0,0.9314623000100255,344.11647900007665,345.96947930008173,344.11647900007665,345.46847590012476,344.11647900007665,345.46847590012476,344.11647900007665,345.46847590012476,344.11647900007665,345.46847590012476,344.11647900007665,345.46847590012476,345.4525709000882,345.95239680004306,345.4525709000882,345.95239680004306,345.4525709000882,345.95239680004306,345.4525709000882,345.95239680004306,345.4525709000882,345.95239680004306,345.4525709000882,345.95239680004306,345.4525709000882,345.95239680004306,345.4525709000882,345.95239680004306,344.11647900007665,None,345.95239680004306,346.9726146000903,1.350000000000001,346.9872749999631,None,347.73858770006336,None,,,,,,,[1.00609756],2.1300000000000017,0.7073170731707317,11028,001,2024_Jan_10_1401,MFTM_A_new1021,2021.2.3,59.85540137700998,
,,,,,,,,stim/Instruction_adaptive.png,conditions/adaptive.xlsx,test,-0.6,-0.6,-0.6,0.6,0.6,left,L,,,,,0,1,1,1,0,41,41,95,,,,,,,,,,,,,,,,,,,,,,,,,,,,,,,,,,,,,,,,,,,,348.2392953999806,None,left,1,1.0436376000288874,348.7399977000896,350.74392240005545,348.7399977000896,350.24271439993754,348.7399977000896,350.24271439993754,348.7399977000896,350.24271439993754,348.7399977000896,350.24271439993754,348.7399977000896,350.24271439993754,350.2255708000157,350.7268354999833,350.2255708000157,350.7268354999833,350.2255708000157,350.7268354999833,350.2255708000157,350.7268354999833,350.2255708000157,350.7268354999833,350.2255708000157,350.7268354999833,350.2255708000157,350.7268354999833,350.2255708000157,350.7268354999833,348.7399977000896,None,350.7268354999833,351.72774829994887,1.500000000000001,351.7443985999562,None,352.496276400052,None,,,,,,,[[1.]],2.1800000000000015,0.7142857142857143,11028,001,2024_Jan_10_1401,MFTM_A_new1021,2021.2.3,59.85540137700998,
,,,,,,,,stim/Instruction_adaptive.png,conditions/adaptive.xlsx,test,-0.6,-0.6,-0.6,0.6,0.6,left,L,,,,,0,1,1,1,0,42,42,41,,,,,,,,,,,,,,,,,,,,,,,,,,,,,,,,,,,,,,,,,,,,352.99661489995196,None,right,0,1.1191771000158042,353.4970541000366,355.4506415000651,353.4970541000366,354.9489976000041,353.4970541000366,354.9489976000041,353.4970541000366,354.9489976000041,353.4970541000366,354.9489976000041,353.4970541000366,354.9489976000041,354.9324293001555,355.4337454000488,354.9324293001555,355.4337454000488,354.9324293001555,355.4337454000488,354.9324293001555,355.4337454000488,354.9324293001555,355.4337454000488,354.9324293001555,355.4337454000488,354.9324293001555,355.4337454000488,354.9324293001555,355.4337454000488,353.4970541000366,None,355.4337454000488,356.4513878999278,1.450000000000001,356.4680383000523,None,357.21980810002424,None,,,,,,,[1.00697674],2.0400000000000014,0.6976744186046512,11028,001,2024_Jan_10_1401,MFTM_A_new1021,2021.2.3,59.85540137700998,
,,,,,,,,stim/Instruction_adaptive.png,conditions/adaptive.xlsx,test,-0.6,-0.6,-0.6,0.6,0.6,left,L,,,,,0,1,1,1,0,43,43,35,,,,,,,,,,,,,,,,,,,,,,,,,,,,,,,,,,,,,,,,,,,,357.7207114000339,None,left,1,1.0915888999588788,358.22087480011396,360.32416790002026,358.22087480011396,359.8235091001261,358.22087480011396,359.8235091001261,358.22087480011396,359.8235091001261,358.22087480011396,359.8235091001261,358.22087480011396,359.8235091001261,359.80661069997586,360.3070690999739,359.80661069997586,360.3070690999739,359.80661069997586,360.3070690999739,359.80661069997586,360.3070690999739,359.80661069997586,360.3070690999739,359.80661069997586,360.3070690999739,359.80661069997586,360.3070690999739,359.80661069997586,360.3070690999739,358.22087480011396,None,360.3070690999739,361.20853219996206,1.6000000000000012,361.2250775001012,None,361.977141499985,None,,,,,,,[[0.9]],2.0900000000000016,0.7045454545454546,11028,001,2024_Jan_10_1401,MFTM_A_new1021,2021.2.3,59.85540137700998,
,,,,,,,,stim/Instruction_adaptive.png,conditions/adaptive.xlsx,test,0.6,0.6,0.6,-0.6,-0.6,right,R,,,,,0,1,1,1,0,44,44,82,,,,,,,,,,,,,,,,,,,,,,,,,,,,,,,,,,,,,,,,,,,,362.4784806999378,None,right,1,2.181660099886358,362.97805989999324,365.03162449994124,362.97805989999324,364.5302567000035,362.97805989999324,364.5302567000035,362.97805989999324,364.5302567000035,362.97805989999324,364.5302567000035,362.97805989999324,364.5302567000035,364.51333230012096,365.01408730004914,364.51333230012096,365.01408730004914,364.51333230012096,365.01408730004914,364.51333230012096,365.01408730004914,364.51333230012096,365.01408730004914,364.51333230012096,365.01408730004914,364.51333230012096,365.01408730004914,364.51333230012096,365.01408730004914,362.97805989999324,None,365.01408730004914,365.9664072000887,1.5500000000000012,365.9821383000817,None,366.7337375001516,None,,,,,,,[[0.95]],2.1400000000000015,0.7111111111111111,11028,001,2024_Jan_10_1401,MFTM_A_new1021,2021.2.3,59.85540137700998,
,,,,,,,,stim/Instruction_adaptive.png,conditions/adaptive.xlsx,test,0.6,0.6,0.6,-0.6,-0.6,right,R,,,,,0,1,1,1,0,45,45,46,,,,,,,,,,,,,,,,,,,,,,,,,,,,,,,,,,,,,,,,,,,,367.2345901001245,None,left,0,1.5202050998341292,367.7352684000507,369.7385959001258,367.7352684000507,369.2376192000229,367.7352684000507,369.2376192000229,367.7352684000507,369.2376192000229,367.7352684000507,369.2376192000229,367.7352684000507,369.2376192000229,369.2037192999851,369.70518180006184,369.2037192999851,369.70518180006184,369.2037192999851,369.70518180006184,369.2037192999851,369.70518180006184,369.2037192999851,369.70518180006184,369.2037192999851,369.70518180006184,369.2037192999851,369.70518180006184,369.2037192999851,369.70518180006184,367.7352684000507,None,369.70518180006184,370.72273989999667,1.490000000000001,370.73920270008966,None,371.4903128000442,None,,,,,,,[1.00347826],2.0000000000000013,0.6956521739130435,11028,001,2024_Jan_10_1401,MFTM_A_new1021,2021.2.3,59.85540137700998,
,,,,,,,,stim/Instruction_adaptive.png,conditions/adaptive.xlsx,test,-0.6,-0.6,-0.6,0.6,0.6,left,L,,,,,0,1,1,1,0,46,46,5,,,,,,,,,,,,,,,,,,,,,,,,,,,,,,,,,,,,,,,,,,,,371.9915058000479,None,left,1,1.652451999951154,372.4919336999301,374.64538930007257,372.4919336999301,374.144905900117,372.4919336999301,374.144905900117,372.4919336999301,374.144905900117,372.4919336999301,374.144905900117,372.4919336999301,374.144905900117,374.11103380005807,374.61175730009563,374.11103380005807,374.61175730009563,374.11103380005807,374.61175730009563,374.11103380005807,374.61175730009563,374.11103380005807,374.61175730009563,374.11103380005807,374.61175730009563,374.11103380005807,374.61175730009563,374.11103380005807,374.61175730009563,372.4919336999301,None,374.61175730009563,375.48011550004594,1.6400000000000012,375.49654039996676,None,376.24791710008867,None,,,,,,,[[0.86]],2.0500000000000016,0.7021276595744681,11028,001,2024_Jan_10_1401,MFTM_A_new1021,2021.2.3,59.85540137700998,
,,,,,,,,stim/Instruction_adaptive.png,conditions/adaptive.xlsx,test,0.6,0.6,0.6,-0.6,-0.6,right,R,,,,,0,1,1,1,0,47,47,48,,,,,,,,,,,,,,,,,,,,,,,,,,,,,,,,,,,,,,,,,,,,376.7483308999799,None,right,1,1.262180699966848,377.24948060000315,379.35309200012125,377.24948060000315,378.85253260005265,377.24948060000315,378.85253260005265,377.24948060000315,378.85253260005265,377.24948060000315,378.85253260005265,377.24948060000315,378.85253260005265,378.8181141000241,379.31889660004526,378.8181141000241,379.31889660004526,378.8181141000241,379.31889660004526,378.8181141000241,379.31889660004526,378.8181141000241,379.31889660004526,378.8181141000241,379.31889660004526,378.8181141000241,379.31889660004526,378.8181141000241,379.31889660004526,377.24948060000315,None,379.31889660004526,380.2385998000391,1.5900000000000012,380.2540043001063,None,381.0045753000304,None,,,,,,,[[0.91]],2.0900000000000016,0.7083333333333334,11028,001,2024_Jan_10_1401,MFTM_A_new1021,2021.2.3,59.85540137700998,
,,,,,,,,stim/Instruction_adaptive.png,conditions/adaptive.xlsx,test,-0.6,-0.6,-0.6,0.6,0.6,left,L,,,,,0,1,1,1,0,48,48,91,,,,,,,,,,,,,,,,,,,,,,,,,,,,,,,,,,,,,,,,,,,,381.5056183000561,None,left,1,1.5534540000371635,382.0060193000827,384.0598691001069,382.0060193000827,383.5585094001144,382.0060193000827,383.5585094001144,382.0060193000827,383.5585094001144,382.0060193000827,383.5585094001144,382.0060193000827,383.5585094001144,383.5424826000817,384.0431623000186,383.5424826000817,384.0431623000186,383.5424826000817,384.0431623000186,383.5424826000817,384.0431623000186,383.5424826000817,384.0431623000186,383.5424826000817,384.0431623000186,383.5424826000817,384.0431623000186,383.5424826000817,384.0431623000186,382.0060193000827,None,384.0431623000186,384.9954345000442,1.5500000000000012,385.0102612001356,None,385.7617214000784,None,,,,,,,[[0.95]],2.1400000000000015,0.7142857142857143,11028,001,2024_Jan_10_1401,MFTM_A_new1021,2021.2.3,59.85540137700998,
,,,,,,,,stim/Instruction_adaptive.png,conditions/adaptive.xlsx,test,0.6,0.6,0.6,-0.6,-0.6,right,R,,,,,0,1,1,1,0,49,49,88,,,,,,,,,,,,,,,,,,,,,,,,,,,,,,,,,,,,,,,,,,,,386.26310280011967,None,right,1,1.036418000003323,386.7630855999887,388.76607399992645,386.7630855999887,388.2654703001026,386.7630855999887,388.2654703001026,386.7630855999887,388.2654703001026,386.7630855999887,388.2654703001026,386.7630855999887,388.2654703001026,388.2321699000895,388.7325015999377,388.2321699000895,388.7325015999377,388.2321699000895,388.7325015999377,388.2321699000895,388.7325015999377,388.2321699000895,388.7325015999377,388.2321699000895,388.7325015999377,388.2321699000895,388.7325015999377,388.2321699000895,388.7325015999377,386.7630855999887,None,388.7325015999377,389.7342304000631,1.490000000000001,389.751519799931,None,390.5027179000899,None,,,,,,,[0.9978],2.1800000000000015,0.72,11028,001,2024_Jan_10_1401,MFTM_A_new1021,2021.2.3,59.85540137700998,
,,,,,,,,stim/Instruction_adaptive.png,conditions/adaptive.xlsx,test,0.6,0.6,0.6,-0.6,-0.6,right,R,,,,,0,1,1,1,0,50,50,56,,,,,,,,,,,,,,,,,,,,,,,,,,,,,,,,,,,,,,,,,,,,391.002743100049,None,right,1,1.0800268000457436,391.50340749998577,393.45614110003226,391.50340749998577,392.9559400000144,391.50340749998577,392.9559400000144,391.50340749998577,392.9559400000144,391.50340749998577,392.9559400000144,391.50340749998577,392.9559400000144,392.9390694000758,393.43964010011405,392.9390694000758,393.43964010011405,392.9390694000758,393.43964010011405,392.9390694000758,393.43964010011405,392.9390694000758,393.43964010011405,392.9390694000758,393.43964010011405,392.9390694000758,393.43964010011405,392.9390694000758,393.43964010011405,391.50340749998577,None,393.43964010011405,394.4410030001309,1.450000000000001,394.45824950002134,None,395.20902359997854,None,,,,,,,[0.99882353],2.2200000000000015,0.7254901960784313,11028,001,2024_Jan_10_1401,MFTM_A_new1021,2021.2.3,59.85540137700998,
,,,,,,,,stim/Instruction_adaptive.png,conditions/adaptive.xlsx,test,-0.6,-0.6,-0.6,0.6,0.6,left,L,,,,,0,1,1,1,0,51,51,27,,,,,,,,,,,,,,,,,,,,,,,,,,,,,,,,,,,,,,,,,,,,395.709708499955,None,left,1,1.461301799863577,396.21019220002927,398.1302404999733,396.21019220002927,397.62980929994956,396.21019220002927,397.62980929994956,396.21019220002927,397.62980929994956,396.21019220002927,397.62980929994956,396.21019220002927,397.62980929994956,397.5964091999922,398.0967588000931,397.5964091999922,398.0967588000931,397.5964091999922,398.0967588000931,397.5964091999922,398.0967588000931,397.5964091999922,398.0967588000931,397.5964091999922,398.0967588000931,397.5964091999922,398.0967588000931,397.5964091999922,398.0967588000931,396.21019220002927,None,398.0967588000931,399.09804650000297,1.410000000000001,399.13117439998314,None,399.88230430008844,None,,,,,,,[1.00057692],2.2600000000000016,0.7307692307692307,11028,001,2024_Jan_10_1401,MFTM_A_new1021,2021.2.3,59.85540137700998,
,,,,,,,,stim/Instruction_adaptive.png,conditions/adaptive.xlsx,test,-0.6,-0.6,-0.6,0.6,0.6,left,L,,,,,0,1,1,1,0,52,52,99,,,,,,,,,,,,,,,,,,,,,,,,,,,,,,,,,,,,,,,,,,,,400.38333939993754,None,left,1,1.7236966001801193,400.8839219000656,402.75366960000247,400.8839219000656,402.2692009001039,400.8839219000656,402.2692009001039,400.8839219000656,402.2692009001039,400.8839219000656,402.2692009001039,400.8839219000656,402.2692009001039,402.2361127000768,402.73708679992706,402.2361127000768,402.73708679992706,402.2361127000768,402.73708679992706,402.2361127000768,402.73708679992706,402.2361127000768,402.73708679992706,402.2361127000768,402.73708679992706,402.2361127000768,402.73708679992706,402.2361127000768,402.73708679992706,400.8839219000656,None,402.73708679992706,403.75485379993916,1.370000000000001,403.77169149997644,None,404.52273760014214,None,,,,,,,[1.00301887],2.3000000000000016,0.7358490566037735,11028,001,2024_Jan_10_1401,MFTM_A_new1021,2021.2.3,59.85540137700998,
,,,,,,,,stim/Instruction_adaptive.png,conditions/adaptive.xlsx,test,-0.6,-0.6,-0.6,0.6,0.6,left,L,,,,,0,1,1,1,0,53,53,15,,,,,,,,,,,,,,,,,,,,,,,,,,,,,,,,,,,,,,,,,,,,405.02336190012284,None,left,1,1.1952311999630183,405.52445779996924,407.3769064999651,405.52445779996924,406.87623820011504,405.52445779996924,406.87623820011504,405.52445779996924,406.87623820011504,405.52445779996924,406.87623820011504,405.52445779996924,406.87623820011504,406.84262240002863,407.34384280000813,406.84262240002863,407.34384280000813,406.84262240002863,407.34384280000813,406.84262240002863,407.34384280000813,406.84262240002863,407.34384280000813,406.84262240002863,407.34384280000813,406.84262240002863,407.34384280000813,406.84262240002863,407.34384280000813,405.52445779996924,None,407.34384280000813,408.36184630007483,1.340000000000001,408.3783855999354,None,409.12953329994343,None,,,,,,,[1.00592593],2.330000000000002,0.7407407407407407,11028,001,2024_Jan_10_1401,MFTM_A_new1021,2021.2.3,59.85540137700998,
,,,,,,,,stim/Instruction_adaptive.png,conditions/adaptive.xlsx,test,0.6,0.6,0.6,-0.6,-0.6,right,R,,,,,0,1,1,1,0,54,54,38,,,,,,,,,,,,,,,,,,,,,,,,,,,,,,,,,,,,,,,,,,,,409.63017929997295,None,right,1,1.660593400010839,410.13089630007744,411.9509251001291,410.13089630007744,411.4498578000348,410.13089630007744,411.4498578000348,410.13089630007744,411.4498578000348,410.13089630007744,411.4498578000348,410.13089630007744,411.4498578000348,411.4160271999426,411.91706459992565,411.4160271999426,411.91706459992565,411.4160271999426,411.91706459992565,411.4160271999426,411.91706459992565,411.4160271999426,411.91706459992565,411.4160271999426,411.91706459992565,411.4160271999426,411.91706459992565,411.4160271999426,411.91706459992565,410.13089630007744,None,411.91706459992565,412.93544120015576,1.310000000000001,412.9520352000836,None,413.7030079001561,None,,,,,,,[1.00927273],2.3600000000000017,0.7454545454545455,11028,001,2024_Jan_10_1401,MFTM_A_new1021,2021.2.3,59.85540137700998,
,,,,,,,,stim/Instruction_adaptive.png,conditions/adaptive.xlsx,test,-0.6,-0.6,-0.6,0.6,0.6,left,L,,,,,0,1,1,1,0,55,55,55,,,,,,,,,,,,,,,,,,,,,,,,,,,,,,,,,,,,,,,,,,,,414.20440270006657,None,left,1,1.287038000067696,414.7044836001005,416.4908320000395,414.7044836001005,415.9895117999986,414.7044836001005,415.9895117999986,414.7044836001005,415.9895117999986,414.7044836001005,415.9895117999986,414.7044836001005,415.9895117999986,415.9731050999835,416.4738942999393,415.9731050999835,416.4738942999393,415.9731050999835,416.4738942999393,415.9731050999835,416.4738942999393,415.9731050999835,416.4738942999393,415.9731050999835,416.4738942999393,415.9731050999835,416.4738942999393,415.9731050999835,416.4738942999393,414.7044836001005,None,416.4738942999393,417.4920125999488,1.280000000000001,417.5085301999934,None,418.2597695000004,None,,,,,,,[1.01303571],2.4000000000000017,0.75,11028,001,2024_Jan_10_1401,MFTM_A_new1021,2021.2.3,59.85540137700998,
,,,,,,,,stim/Instruction_adaptive.png,conditions/adaptive.xlsx,test,0.6,0.6,0.6,-0.6,-0.6,right,R,,,,,0,1,1,1,0,56,56,70,,,,,,,,,,,,,,,,,,,,,,,,,,,,,,,,,,,,,,,,,,,,418.76112639997154,None,right,1,1.273651499999687,419.2620423999615,421.01384170004167,419.2620423999615,420.5129837000277,419.2620423999615,420.5129837000277,419.2620423999615,420.5129837000277,419.2620423999615,420.5129837000277,419.2620423999615,420.5129837000277,420.4962615999393,420.9970645001158,420.4962615999393,420.9970645001158,420.4962615999393,420.9970645001158,420.4962615999393,420.9970645001158,420.4962615999393,420.9970645001158,420.4962615999393,420.9970645001158,420.4962615999393,420.9970645001158,420.4962615999393,420.9970645001158,419.2620423999615,None,420.9970645001158,422.015767800156,1.2500000000000009,422.0323465000838,None,422.78364569996484,None,,,,,,,[1.01719298],2.4300000000000015,0.7543859649122807,11028,001,2024_Jan_10_1401,MFTM_A_new1021,2021.2.3,59.85540137700998,
,,,,,,,,stim/Instruction_adaptive.png,conditions/adaptive.xlsx,test,-0.6,-0.6,-0.6,0.6,0.6,left,L,,,,,0,1,1,1,0,57,57,77,,,,,,,,,,,,,,,,,,,,,,,,,,,,,,,,,,,,,,,,,,,,423.28387490008026,None,left,1,1.1822725997772068,423.7852394999936,425.52035979996435,423.7852394999936,425.01973300008103,423.7852394999936,425.01973300008103,423.7852394999936,425.01973300008103,423.7852394999936,425.01973300008103,423.7852394999936,425.01973300008103,424.98640850000083,425.4873565000016,424.98640850000083,425.4873565000016,424.98640850000083,425.4873565000016,424.98640850000083,425.4873565000016,424.98640850000083,425.4873565000016,424.98640850000083,425.4873565000016,424.98640850000083,425.4873565000016,424.98640850000083,425.4873565000016,423.7852394999936,None,425.4873565000016,426.5220195001457,1.2200000000000009,426.53862700005993,None,427.2898059000727,None,,,,,,,[1.02172414],2.4600000000000017,0.7586206896551724,11028,001,2024_Jan_10_1401,MFTM_A_new1021,2021.2.3,59.85540137700998,
,,,,,,,,stim/Instruction_adaptive.png,conditions/adaptive.xlsx,test,-0.6,-0.6,-0.6,0.6,0.6,left,L,,,,,0,1,1,1,0,58,58,69,,,,,,,,,,,,,,,,,,,,,,,,,,,,,,,,,,,,,,,,,,,,427.79075970011763,None,left,1,0.8047795000020415,428.2910297999624,429.9944013999775,428.2910297999624,429.493630199926,428.2910297999624,429.493630199926,428.2910297999624,429.493630199926,428.2910297999624,429.493630199926,428.2910297999624,429.493630199926,429.47674140008166,429.97733470005915,429.47674140008166,429.97733470005915,429.47674140008166,429.97733470005915,429.47674140008166,429.97733470005915,429.47674140008166,429.97733470005915,429.47674140008166,429.97733470005915,429.47674140008166,429.97733470005915,429.47674140008166,429.97733470005915,428.2910297999624,None,429.97733470005915,431.01238980004564,1.2000000000000008,431.0290028001182,None,431.7805476000067,None,,,,,,,[1.02644068],2.490000000000002,0.7627118644067796,11028,001,2024_Jan_10_1401,MFTM_A_new1021,2021.2.3,59.85540137700998,
,,,,,,,,stim/Instruction_adaptive.png,conditions/adaptive.xlsx,test,0.6,0.6,0.6,-0.6,-0.6,right,R,,,,,0,1,1,1,0,59,59,32,,,,,,,,,,,,,,,,,,,,,,,,,,,,,,,,,,,,,,,,,,,,432.28110940009356,None,right,1,1.2026090999133885,432.7812508000061,434.4508233999368,432.7812508000061,433.9668807000853,432.7812508000061,433.9668807000853,432.7812508000061,433.9668807000853,432.7812508000061,433.9668807000853,432.7812508000061,433.9668807000853,433.9334355001338,434.43487560003996,433.9334355001338,434.43487560003996,433.9334355001338,434.43487560003996,433.9334355001338,434.43487560003996,433.9334355001338,434.43487560003996,433.9334355001338,434.43487560003996,433.9334355001338,434.43487560003996,433.9334355001338,434.43487560003996,432.7812508000061,None,434.43487560003996,435.4691829001531,1.1700000000000008,435.48516759998165,None,436.2362715001218,None,,,,,,,[1.0315],2.520000000000002,0.7666666666666667,11028,001,2024_Jan_10_1401,MFTM_A_new1021,2021.2.3,59.85540137700998,
,,,,,,,,stim/Instruction_adaptive.png,conditions/adaptive.xlsx,test,0.6,0.6,0.6,-0.6,-0.6,right,R,,,,,0,1,1,1,0,60,60,30,,,,,,,,,,,,,,,,,,,,,,,,,,,,,,,,,,,,,,,,,,,,436.73758279997855,None,right,1,0.6417548998724669,437.23783789994195,438.8903250999283,437.23783789994195,438.3902076999657,437.23783789994195,438.3902076999657,437.23783789994195,438.3902076999657,437.23783789994195,438.3902076999657,437.23783789994195,438.3902076999657,438.373450800078,438.8736620999407,438.373450800078,438.8736620999407,438.373450800078,438.8736620999407,438.373450800078,438.8736620999407,438.373450800078,438.8736620999407,438.373450800078,438.8736620999407,438.373450800078,438.8736620999407,438.373450800078,438.8736620999407,437.23783789994195,None,438.8736620999407,None,1.1500000000000008,439.9252069001086,None,440.6765676001087,None,,,,,,,[1.03672131],2.5500000000000016,0.7704918032786885,11028,001,2024_Jan_10_1401,MFTM_A_new1021,2021.2.3,59.85540137700998,
,,,,,,,,stim/Instruction_adaptive.png,conditions/adaptive.xlsx,test,-0.6,-0.6,-0.6,0.6,0.6,left,L,,,,,0,1,1,1,0,61,61,37,,,,,,,,,,,,,,,,,,,,,,,,,,,,,,,,,,,,,,,,,,,,441.1772136001382,None,left,1,1.0580519000068307,441.677540600067,443.29773540003225,441.677540600067,442.81270710006356,441.677540600067,442.81270710006356,441.677540600067,442.81270710006356,441.677540600067,442.81270710006356,441.677540600067,442.81270710006356,442.77931899996474,443.2815944000613,442.77931899996474,443.2815944000613,442.77931899996474,443.2815944000613,442.77931899996474,443.2815944000613,442.77931899996474,443.2815944000613,442.77931899996474,443.2815944000613,442.77931899996474,443.2815944000613,442.77931899996474,443.2815944000613,441.677540600067,None,443.2815944000613,444.3322928000707,1.1200000000000008,444.34881799994037,None,445.0994696000125,None,,,,,,,[1.04225806],2.570000000000002,0.7741935483870968,11028,001,2024_Jan_10_1401,MFTM_A_new1021,2021.2.3,59.85540137700998,
,,,,,,,,stim/Instruction_adaptive.png,conditions/adaptive.xlsx,test,-0.6,-0.6,-0.6,0.6,0.6,left,L,,,,,0,1,1,1,0,62,62,93,,,,,,,,,,,,,,,,,,,,,,,,,,,,,,,,,,,,,,,,,,,,445.60088029992767,None,left,1,0.8351290000136942,446.10110049997456,447.7206204999238,446.10110049997456,447.2199081000872,446.10110049997456,447.2199081000872,446.10110049997456,447.2199081000872,446.10110049997456,447.2199081000872,446.10110049997456,447.2199081000872,447.1863069999963,447.68665640009567,447.1863069999963,447.68665640009567,447.1863069999963,447.68665640009567,447.1863069999963,447.68665640009567,447.1863069999963,447.68665640009567,447.1863069999963,447.68665640009567,447.1863069999963,447.68665640009567,447.1863069999963,447.68665640009567,446.10110049997456,None,447.68665640009567,448.7380975999404,1.1100000000000008,448.77164699998684,None,449.52353310002945,None,,,,,,,[1.04777778],2.600000000000002,0.7777777777777778,11028,001,2024_Jan_10_1401,MFTM_A_new1021,2021.2.3,59.85540137700998,
,,,,,,,,stim/Instruction_adaptive.png,conditions/adaptive.xlsx,test,-0.6,-0.6,-0.6,0.6,0.6,left,L,,,,,0,1,1,1,0,63,63,47,,,,,,,,,,,,,,,,,,,,,,,,,,,,,,,,,,,,,,,,,,,,450.0242818000261,None,left,1,0.8434745999984443,450.52409170009196,452.1269400001038,450.52409170009196,451.62584590003826,450.52409170009196,451.62584590003826,450.52409170009196,451.62584590003826,450.52409170009196,451.62584590003826,450.52409170009196,451.62584590003826,451.5925839000847,452.09320320002735,451.5925839000847,452.09320320002735,451.5925839000847,452.09320320002735,451.5925839000847,452.09320320002735,451.5925839000847,452.09320320002735,451.5925839000847,452.09320320002735,451.5925839000847,452.09320320002735,451.5925839000847,452.09320320002735,450.52409170009196,None,452.09320320002735,453.1613692000974,1.0900000000000007,453.17808310012333,None,453.92961749993265,None,,,,,,,[1.0534375],2.620000000000002,0.78125,11028,001,2024_Jan_10_1401,MFTM_A_new1021,2021.2.3,59.85540137700998,
,,,,,,,,stim/Instruction_adaptive.png,conditions/adaptive.xlsx,test,0.6,0.6,0.6,-0.6,-0.6,right,R,,,,,0,1,1,1,0,64,64,2,,,,,,,,,,,,,,,,,,,,,,,,,,,,,,,,,,,,,,,,,,,,454.42994150007144,None,left,0,1.0610036998987198,454.93082470004447,456.50037320004776,454.93082470004447,456.01555610005744,454.93082470004447,456.01555610005744,454.93082470004447,456.01555610005744,454.93082470004447,456.01555610005744,454.93082470004447,456.01555610005744,455.9823758001439,456.48378759995103,455.9823758001439,456.48378759995103,455.9823758001439,456.48378759995103,455.9823758001439,456.48378759995103,455.9823758001439,456.48378759995103,455.9823758001439,456.48378759995103,455.9823758001439,456.48378759995103,455.9823758001439,456.48378759995103,454.93082470004447,None,456.48378759995103,457.5516739001032,1.0700000000000007,457.5674644000828,None,458.31902960012667,None,,,,,,,[1.05923077],2.5500000000000016,0.7692307692307693,11028,001,2024_Jan_10_1401,MFTM_A_new1021,2021.2.3,59.85540137700998,
,,,,,,,,stim/Instruction_adaptive.png,conditions/adaptive.xlsx,test,0.6,0.6,0.6,-0.6,-0.6,right,R,,,,,0,1,1,1,0,65,65,92,,,,,,,,,,,,,,,,,,,,,,,,,,,,,,,,,,,,,,,,,,,,458.82003449997865,None,right,1,1.4003268000669777,459.32037710002623,460.9396979000885,459.32037710002623,460.4554614000954,459.32037710002623,460.4554614000954,459.32037710002623,460.4554614000954,459.32037710002623,460.4554614000954,459.32037710002623,460.4554614000954,460.4221425000578,460.92298629996367,460.4221425000578,460.92298629996367,460.4221425000578,460.92298629996367,460.4221425000578,460.92298629996367,460.4221425000578,460.92298629996367,460.4221425000578,460.92298629996367,460.4221425000578,460.92298629996367,460.4221425000578,460.92298629996367,459.32037710002623,None,460.92298629996367,461.9912132001482,1.1200000000000008,462.008285399992,None,462.7590477000922,None,,,,,,,[1.06409091],2.570000000000002,0.7727272727272727,11028,001,2024_Jan_10_1401,MFTM_A_new1021,2021.2.3,59.85540137700998,
,,,,,,,,stim/Instruction_adaptive.png,conditions/adaptive.xlsx,test,-0.6,-0.6,-0.6,0.6,0.6,left,L,,,,,0,1,1,1,0,66,66,63,,,,,,,,,,,,,,,,,,,,,,,,,,,,,,,,,,,,,,,,,,,,463.259718199959,None,right,0,1.2322037999983877,463.7604376000818,465.3805643999949,463.7604376000818,464.87882210011594,463.7604376000818,464.87882210011594,463.7604376000818,464.87882210011594,463.7604376000818,464.87882210011594,463.7604376000818,464.87882210011594,464.8621885001194,465.3630293000024,464.8621885001194,465.3630293000024,464.8621885001194,465.3630293000024,464.8621885001194,465.3630293000024,464.8621885001194,465.3630293000024,464.8621885001194,465.3630293000024,464.8621885001194,465.3630293000024,464.8621885001194,465.3630293000024,463.7604376000818,None,465.3462235000916,466.4148284001276,1.1100000000000008,466.4475589999929,None,467.19885260006413,None,,,,,,,[1.06895522],2.5000000000000018,0.7611940298507462,11028,001,2024_Jan_10_1401,MFTM_A_new1021,2021.2.3,59.85540137700998,
,,,,,,,,stim/Instruction_adaptive.png,conditions/adaptive.xlsx,test,-0.6,-0.6,-0.6,0.6,0.6,left,L,,,,,0,1,1,1,0,67,67,59,,,,,,,,,,,,,,,,,,,,,,,,,,,,,,,,,,,,,,,,,,,,467.70031410013326,None,left,1,0.7914734000805765,468.20037130010314,469.8700288000982,468.20037130010314,469.3692318999674,468.20037130010314,469.3692318999674,468.20037130010314,469.3692318999674,468.20037130010314,469.3692318999674,468.20037130010314,469.3692318999674,469.3355549001135,469.8361869000364,469.3355549001135,469.8361869000364,469.3355549001135,469.8361869000364,469.3355549001135,469.8361869000364,469.3355549001135,469.8361869000364,469.3355549001135,469.8361869000364,469.3355549001135,469.8361869000364,469.3355549001135,469.8361869000364,468.20037130010314,None,469.8361869000364,470.92106540012173,1.1600000000000008,470.9378478000872,None,471.68888070015237,None,,,,,,,[1.07294118],2.530000000000002,0.7647058823529411,11028,001,2024_Jan_10_1401,MFTM_A_new1021,2021.2.3,59.85540137700998,
,,,,,,,,stim/Instruction_adaptive.png,conditions/adaptive.xlsx,test,0.6,0.6,0.6,-0.6,-0.6,right,R,,,,,0,1,1,1,0,68,68,90,,,,,,,,,,,,,,,,,,,,,,,,,,,,,,,,,,,,,,,,,,,,472.18960199994035,None,right,1,0.9969484000466764,472.69087060005404,474.3432320000138,472.69087060005404,473.84212199994363,472.69087060005404,473.84212199994363,472.69087060005404,473.84212199994363,472.69087060005404,473.84212199994363,472.69087060005404,473.84212199994363,473.8090484000277,474.31053999997675,473.8090484000277,474.31053999997675,473.8090484000277,474.31053999997675,473.8090484000277,474.31053999997675,473.8090484000277,474.31053999997675,473.8090484000277,474.31053999997675,473.8090484000277,474.31053999997675,473.8090484000277,474.31053999997675,472.69087060005404,None,474.31053999997675,475.39420460001566,1.1400000000000008,475.4109831000678,None,476.16255090013146,None,,,,,,,[1.07710145],2.5500000000000016,0.7681159420289855,11028,001,2024_Jan_10_1401,MFTM_A_new1021,2021.2.3,59.85540137700998,
,,,,,,,,stim/Instruction_adaptive.png,conditions/adaptive.xlsx,test,-0.6,-0.6,-0.6,0.6,0.6,left,L,,,,,0,1,1,1,0,69,69,57,,,,,,,,,,,,,,,,,,,,,,,,,,,,,,,,,,,,,,,,,,,,476.663709100103,None,left,1,0.596073399996385,477.1637331000529,478.7826330999378,477.1637331000529,478.29935840005055,477.1637331000529,478.29935840005055,477.1637331000529,478.29935840005055,477.1637331000529,478.29935840005055,477.1637331000529,478.29935840005055,478.26522490009665,478.7665468000341,478.26522490009665,478.7665468000341,478.26522490009665,478.7665468000341,478.26522490009665,478.7665468000341,478.26522490009665,478.7665468000341,478.26522490009665,478.7665468000341,478.26522490009665,478.7665468000341,478.26522490009665,478.7665468000341,477.1637331000529,None,478.7665468000341,479.8507672001142,1.1200000000000008,479.8678437001072,None,480.6187444999814,None,,,,,,,[1.08142857],2.570000000000002,0.7714285714285715,11028,001,2024_Jan_10_1401,MFTM_A_new1021,2021.2.3,59.85540137700998,
,,,,,,,,stim/Instruction_adaptive.png,conditions/adaptive.xlsx,test,-0.6,-0.6,-0.6,0.6,0.6,left,L,,,,,0,1,1,1,0,70,70,87,,,,,,,,,,,,,,,,,,,,,,,,,,,,,,,,,,,,,,,,,,,,481.1202082999516,None,left,1,0.6591954999603331,481.6203203999903,483.2401052999776,481.6203203999903,482.73920760001056,481.6203203999903,482.73920760001056,481.6203203999903,482.73920760001056,481.6203203999903,482.73920760001056,481.6203203999903,482.73920760001056,482.70530329993926,483.2064112999942,482.70530329993926,483.2064112999942,482.70530329993926,483.2064112999942,482.70530329993926,483.2064112999942,482.70530329993926,483.2064112999942,482.70530329993926,483.2064112999942,482.70530329993926,483.2064112999942,482.70530329993926,483.2064112999942,481.6203203999903,None,483.2064112999942,484.30756700015627,1.1100000000000008,484.32446329994127,None,485.0759032999631,None,,,,,,,[1.08577465],2.600000000000002,0.7746478873239436,11028,001,2024_Jan_10_1401,MFTM_A_new1021,2021.2.3,59.85540137700998,
,,,,,,,,stim/Instruction_adaptive.png,conditions/adaptive.xlsx,test,0.6,0.6,0.6,-0.6,-0.6,right,R,,,,,0,1,1,1,0,71,71,62,,,,,,,,,,,,,,,,,,,,,,,,,,,,,,,,,,,,,,,,,,,,485.576753300149,None,right,1,0.6354338999371976,486.0769502001349,487.67948010005057,486.0769502001349,487.1792077999562,486.0769502001349,487.1792077999562,486.0769502001349,487.1792077999562,486.0769502001349,487.1792077999562,486.0769502001349,487.1792077999562,487.14525920012966,487.64588989992626,487.14525920012966,487.64588989992626,487.14525920012966,487.64588989992626,487.14525920012966,487.64588989992626,487.14525920012966,487.64588989992626,487.14525920012966,487.64588989992626,487.14525920012966,487.64588989992626,487.14525920012966,487.64588989992626,486.0769502001349,None,487.64588989992626,488.7492764000781,1.0900000000000007,488.7642209001351,None,489.51556670013815,None,,,,,,,[1.09027778],2.620000000000002,0.7777777777777778,11028,001,2024_Jan_10_1401,MFTM_A_new1021,2021.2.3,59.85540137700998,
,,,,,,,,stim/Instruction_adaptive.png,conditions/adaptive.xlsx,test,-0.6,-0.6,-0.6,0.6,0.6,left,L,,,,,0,1,1,1,0,72,72,51,,,,,,,,,,,,,,,,,,,,,,,,,,,,,,,,,,,,,,,,,,,,490.01604280015454,None,left,1,0.98690430005081,490.5167471000459,492.08588690008037,490.5167471000459,491.60176700004376,490.5167471000459,491.60176700004376,490.5167471000459,491.60176700004376,490.5167471000459,491.60176700004376,490.5167471000459,491.60176700004376,491.5683027000632,492.0691224001348,491.5683027000632,492.0691224001348,491.5683027000632,492.0691224001348,491.5683027000632,492.0691224001348,491.5683027000632,492.0691224001348,491.5683027000632,492.0691224001348,491.5683027000632,492.0691224001348,491.5683027000632,492.0691224001348,490.5167471000459,None,492.0691224001348,493.1714578999672,1.0700000000000007,493.1878224001266,None,493.9386998999398,None,,,,,,,[1.09493151],2.640000000000002,0.7808219178082192,11028,001,2024_Jan_10_1401,MFTM_A_new1021,2021.2.3,59.85540137700998,
,,,,,,,,stim/Instruction_adaptive.png,conditions/adaptive.xlsx,test,0.6,0.6,0.6,-0.6,-0.6,right,R,,,,,0,1,1,1,0,73,73,34,,,,,,,,,,,,,,,,,,,,,,,,,,,,,,,,,,,,,,,,,,,,494.43921630014665,None,right,1,0.6916336000431329,494.94001580006443,496.5101063000038,494.94001580006443,496.0090710001532,494.94001580006443,496.0090710001532,494.94001580006443,496.0090710001532,494.94001580006443,496.0090710001532,494.94001580006443,496.0090710001532,495.97470240015537,496.47566949995235,495.97470240015537,496.47566949995235,495.97470240015537,496.47566949995235,495.97470240015537,496.47566949995235,495.97470240015537,496.47566949995235,495.97470240015537,496.47566949995235,495.97470240015537,496.47566949995235,495.97470240015537,496.47566949995235,494.94001580006443,None,496.47566949995235,497.5775051000528,1.0600000000000007,497.6107310000807,None,498.3618876999244,None,,,,,,,[1.09959459],2.6700000000000017,0.7837837837837838,11028,001,2024_Jan_10_1401,MFTM_A_new1021,2021.2.3,59.85540137700998,
,,,,,,,,stim/Instruction_adaptive.png,conditions/adaptive.xlsx,test,-0.6,-0.6,-0.6,0.6,0.6,left,L,,,,,0,1,1,1,0,74,74,71,,,,,,,,,,,,,,,,,,,,,,,,,,,,,,,,,,,,,,,,,,,,498.86284570000134,None,left,1,1.1086548001039773,499.36316730012186,500.89885929995216,499.36316730012186,500.39812480006367,499.36316730012186,500.39812480006367,499.36316730012186,500.39812480006367,499.36316730012186,500.39812480006367,499.36316730012186,500.39812480006367,500.38130120001733,500.8832153000403,500.38130120001733,500.8832153000403,500.38130120001733,500.8832153000403,500.38130120001733,500.8832153000403,500.38130120001733,500.8832153000403,500.38130120001733,500.8832153000403,500.38130120001733,500.8832153000403,500.38130120001733,500.8832153000403,499.36316730012186,None,500.8832153000403,None,1.0300000000000007,502.00052130012773,None,502.75231130002066,None,,,,,,,[1.10453333],2.690000000000002,0.7866666666666666,11028,001,2024_Jan_10_1401,MFTM_A_new1021,2021.2.3,59.85540137700998,
,,,,,,,,stim/Instruction_adaptive.png,conditions/adaptive.xlsx,test,-0.6,-0.6,-0.6,0.6,0.6,left,L,,,,,0,1,1,1,0,75,75,65,,,,,,,,,,,,,,,,,,,,,,,,,,,,,,,,,,,,,,,,,,,,503.2525078000035,None,left,1,0.8705234001390636,503.7531302999705,505.28882999997586,503.7531302999705,504.7880079001188,503.7531302999705,504.7880079001188,503.7531302999705,504.7880079001188,503.7531302999705,504.7880079001188,503.7531302999705,504.7880079001188,504.754615599988,505.25530820013955,504.754615599988,505.25530820013955,504.754615599988,505.25530820013955,504.754615599988,505.25530820013955,504.754615599988,505.25530820013955,504.754615599988,505.25530820013955,504.754615599988,505.25530820013955,504.754615599988,505.25530820013955,503.7531302999705,None,505.25530820013955,506.3735944000073,1.0200000000000007,506.39048440009356,None,507.141806300031,None,,,,,,,[1.10947368],2.7100000000000017,0.7894736842105263,11028,001,2024_Jan_10_1401,MFTM_A_new1021,2021.2.3,59.85540137700998,
,,,,,,,,stim/Instruction_adaptive.png,conditions/adaptive.xlsx,test,0.6,0.6,0.6,-0.6,-0.6,right,R,,,,,0,1,1,1,0,76,76,24,,,,,,,,,,,,,,,,,,,,,,,,,,,,,,,,,,,,,,,,,,,,507.64278470003046,None,right,1,0.6972161000594497,508.1437556000892,509.66248359996825,508.1437556000892,509.161467500031,508.1437556000892,509.161467500031,508.1437556000892,509.161467500031,508.1437556000892,509.161467500031,508.1437556000892,509.161467500031,509.12789300014265,509.6292103000451,509.12789300014265,509.6292103000451,509.12789300014265,509.6292103000451,509.12789300014265,509.6292103000451,509.12789300014265,509.6292103000451,509.12789300014265,509.6292103000451,509.12789300014265,509.6292103000451,509.12789300014265,509.6292103000451,508.1437556000892,None,509.6292103000451,510.7468213001266,1.0100000000000007,510.78054219996557,None,511.53132650000043,None,,,,,,,[1.11441558],2.730000000000002,0.7922077922077922,11028,001,2024_Jan_10_1401,MFTM_A_new1021,2021.2.3,59.85540137700998,
,,,,,,,,stim/Instruction_adaptive.png,conditions/adaptive.xlsx,test,0.6,0.6,0.6,-0.6,-0.6,right,R,,,,,0,1,1,1,0,77,77,12,,,,,,,,,,,,,,,,,,,,,,,,,,,,,,,,,,,,,,,,,,,,512.0324421999976,None,right,1,0.5149278999306262,512.5327515001409,514.0354921000544,512.5327515001409,513.5349795999937,512.5327515001409,513.5349795999937,512.5327515001409,513.5349795999937,512.5327515001409,513.5349795999937,512.5327515001409,513.5349795999937,513.5012477999553,514.002791600069,513.5012477999553,514.002791600069,513.5012477999553,514.002791600069,513.5012477999553,514.002791600069,513.5012477999553,514.002791600069,513.5012477999553,514.002791600069,513.5012477999553,514.002791600069,513.5012477999553,514.002791600069,512.5327515001409,None,514.002791600069,515.1372984999325,0.9900000000000007,515.1539235999808,None,515.904702299973,None,,,,,,,[1.11948718],2.7500000000000018,0.7948717948717948,11028,001,2024_Jan_10_1401,MFTM_A_new1021,2021.2.3,59.85540137700998,
,,,,,,,,stim/Instruction_adaptive.png,conditions/adaptive.xlsx,test,0.6,0.6,0.6,-0.6,-0.6,right,R,,,,,0,1,1,1,0,78,78,10,,,,,,,,,,,,,,,,,,,,,,,,,,,,,,,,,,,,,,,,,,,,516.4052723001223,None,left,0,0.8778974001761526,516.905787799973,518.3925145999528,516.905787799973,517.8908876001369,516.905787799973,517.8908876001369,516.905787799973,517.8908876001369,516.905787799973,517.8908876001369,516.905787799973,517.8908876001369,517.873904600041,518.3752311000135,517.873904600041,518.3752311000135,517.873904600041,518.3752311000135,517.873904600041,518.3752311000135,517.873904600041,518.3752311000135,517.873904600041,518.3752311000135,517.873904600041,518.3752311000135,517.873904600041,518.3752311000135,516.905787799973,None,518.3752311000135,None,0.9800000000000006,519.5092003999744,None,520.2611567000858,None,,,,,,,[1.12455696],2.690000000000002,0.7848101265822784,11028,001,2024_Jan_10_1401,MFTM_A_new1021,2021.2.3,59.85540137700998,
,,,,,,,,stim/Instruction_adaptive.png,conditions/adaptive.xlsx,test,0.6,0.6,0.6,-0.6,-0.6,right,R,,,,,0,1,1,1,0,79,79,94,,,,,,,,,,,,,,,,,,,,,,,,,,,,,,,,,,,,,,,,,,,,520.7618229000363,None,left,0,0.8573956000618637,521.2624258000869,522.7982239001431,521.2624258000869,522.2973053001333,521.2624258000869,522.2973053001333,521.2624258000869,522.2973053001333,521.2624258000869,522.2973053001333,521.2624258000869,522.2973053001333,522.264058199944,522.7644724999554,522.264058199944,522.7644724999554,522.264058199944,522.7644724999554,522.264058199944,522.7644724999554,522.264058199944,522.7644724999554,522.264058199944,522.7644724999554,522.264058199944,522.7644724999554,522.264058199944,522.7644724999554,521.2624258000869,None,522.7644724999554,523.9006544000003,1.0200000000000007,523.9161960000638,None,524.6673682001419,None,,,,,,,[1.129],2.6300000000000017,0.775,11028,001,2024_Jan_10_1401,MFTM_A_new1021,2021.2.3,59.85540137700998,
,,,,,,,,stim/Instruction_adaptive.png,conditions/adaptive.xlsx,test,0.6,0.6,0.6,-0.6,-0.6,right,R,,,,,0,1,1,1,0,80,80,18,,,,,,,,,,,,,,,,,,,,,,,,,,,,,,,,,,,,,,,,,,,,525.1680855001323,None,right,1,0.9629142000339925,525.6689850999974,527.2378328000195,525.6689850999974,526.7371785000432,525.6689850999974,526.7371785000432,525.6689850999974,526.7371785000432,525.6689850999974,526.7371785000432,525.6689850999974,526.7371785000432,526.7204189000186,527.2213082001545,526.7204189000186,527.2213082001545,526.7204189000186,527.2213082001545,526.7204189000186,527.2213082001545,526.7204189000186,527.2213082001545,526.7204189000186,527.2213082001545,526.7204189000186,527.2213082001545,526.7204189000186,527.2213082001545,525.6689850999974,None,527.2213082001545,528.3564848001115,1.0600000000000007,528.3729620000813,None,529.1248222999275,None,,,,,,,[1.13283951],2.650000000000002,0.7777777777777778,11028,001,2024_Jan_10_1401,MFTM_A_new1021,2021.2.3,59.85540137700998,
,,,,,,,,stim/Instruction_adaptive.png,conditions/adaptive.xlsx,test,-0.6,-0.6,-0.6,0.6,0.6,left,L,,,,,0,1,1,1,0,81,81,49,,,,,,,,,,,,,,,,,,,,,,,,,,,,,,,,,,,,,,,,,,,,529.6247595001478,None,left,1,1.0831202000845224,530.1253422000445,531.6782112999354,530.1253422000445,531.1773540999275,530.1253422000445,531.1773540999275,530.1253422000445,531.1773540999275,530.1253422000445,531.1773540999275,530.1253422000445,531.1773540999275,531.1611268999986,531.6613493000623,531.1611268999986,531.6613493000623,531.1611268999986,531.6613493000623,531.1611268999986,531.6613493000623,531.1611268999986,531.6613493000623,531.1611268999986,531.6613493000623,531.1611268999986,531.6613493000623,531.1611268999986,531.6613493000623,530.1253422000445,None,531.6613493000623,532.7964115999639,1.0500000000000007,532.8128937999718,None,533.5639871000312,None,,,,,,,[1.13670732],2.6700000000000017,0.7804878048780488,11028,001,2024_Jan_10_1401,MFTM_A_new1021,2021.2.3,59.85540137700998,
,,,,,,,,stim/Instruction_adaptive.png,conditions/adaptive.xlsx,test,0.6,0.6,0.6,-0.6,-0.6,right,R,,,,,0,1,1,1,0,82,82,78,,,,,,,,,,,,,,,,,,,,,,,,,,,,,,,,,,,,,,,,,,,,534.0652809999883,None,left,0,0.786522600101307,534.5653691000771,536.1016770999413,534.5653691000771,535.6013422999531,534.5653691000771,535.6013422999531,534.5653691000771,535.6013422999531,534.5653691000771,535.6013422999531,534.5653691000771,535.6013422999531,535.5839668000117,536.0849870000966,535.5839668000117,536.0849870000966,535.5839668000117,536.0849870000966,535.5839668000117,536.0849870000966,535.5839668000117,536.0849870000966,535.5839668000117,536.0849870000966,535.5839668000117,536.0849870000966,535.5839668000117,536.0849870000966,534.5653691000771,None,536.0849870000966,None,1.0300000000000007,537.2360729000065,None,537.98742270004,None,,,,,,,[1.14072289],2.610000000000002,0.7710843373493976,11028,001,2024_Jan_10_1401,MFTM_A_new1021,2021.2.3,59.85540137700998,
,,,,,,,,stim/Instruction_adaptive.png,conditions/adaptive.xlsx,test,0.6,0.6,0.6,-0.6,-0.6,right,R,,,,,0,1,1,1,0,83,83,28,,,,,,,,,,,,,,,,,,,,,,,,,,,,,,,,,,,,,,,,,,,,538.4880119999871,None,left,0,0.8515440998598933,538.9887304001022,540.5752288000658,538.9887304001022,540.0742075999733,538.9887304001022,540.0742075999733,538.9887304001022,540.0742075999733,538.9887304001022,540.0742075999733,538.9887304001022,540.0742075999733,540.0569410000462,540.5575530000497,540.0569410000462,540.5575530000497,540.0569410000462,540.5575530000497,540.0569410000462,540.5575530000497,540.0569410000462,540.5575530000497,540.0569410000462,540.5575530000497,540.0569410000462,540.5575530000497,540.0569410000462,540.5575530000497,538.9887304001022,None,540.5575530000497,541.7094968999736,1.0800000000000007,541.7262315000407,None,542.4770688000135,None,,,,,,,[1.14404762],2.5500000000000016,0.7619047619047619,11028,001,2024_Jan_10_1401,MFTM_A_new1021,2021.2.3,59.85540137700998,
,,,,,,,,stim/Instruction_adaptive.png,conditions/adaptive.xlsx,test,0.6,0.6,0.6,-0.6,-0.6,right,R,,,,,0,1,1,1,0,84,84,20,,,,,,,,,,,,,,,,,,,,,,,,,,,,,,,,,,,,,,,,,,,,542.9778607001062,None,right,1,0.8014751002192497,543.4786233000923,545.0986318001524,543.4786233000923,544.613828800153,543.4786233000923,544.613828800153,543.4786233000923,544.613828800153,543.4786233000923,544.613828800153,543.4786233000923,544.613828800153,544.5803354999516,545.0813903000671,544.5803354999516,545.0813903000671,544.5803354999516,545.0813903000671,544.5803354999516,545.0813903000671,544.5803354999516,545.0813903000671,544.5803354999516,545.0813903000671,544.5803354999516,545.0813903000671,544.5803354999516,545.0813903000671,543.4786233000923,None,545.0813903000671,546.2329581000376,1.1200000000000008,546.2492860001512,None,547.0006910001393,None,,,,,,,[1.14682353],2.570000000000002,0.7647058823529411,11028,001,2024_Jan_10_1401,MFTM_A_new1021,2021.2.3,59.85540137700998,
,,,,,,,,stim/Instruction_adaptive.png,conditions/adaptive.xlsx,test,-0.6,-0.6,-0.6,0.6,0.6,left,L,,,,,0,1,1,1,0,85,85,79,,,,,,,,,,,,,,,,,,,,,,,,,,,,,,,,,,,,,,,,,,,,547.50123970001,None,right,0,0.6142992998939008,548.0019779000431,549.6210465000477,548.0019779000431,549.120812300127,548.0019779000431,549.120812300127,548.0019779000431,549.120812300127,548.0019779000431,549.120812300127,548.0019779000431,549.120812300127,549.1036847999785,549.6042417001445,549.1036847999785,549.6042417001445,549.1036847999785,549.6042417001445,549.1036847999785,549.6042417001445,549.1036847999785,549.6042417001445,549.1036847999785,549.6042417001445,549.1036847999785,549.6042417001445,549.1036847999785,549.6042417001445,548.0019779000431,None,549.5875326001551,550.7403508999851,1.1100000000000008,550.7734670001082,None,551.5248328000307,None,,,,,,,[1.14965116],2.5100000000000016,0.7558139534883721,11028,001,2024_Jan_10_1401,MFTM_A_new1021,2021.2.3,59.85540137700998,
,,,,,,,,stim/Instruction_adaptive.png,conditions/adaptive.xlsx,test,0.6,0.6,0.6,-0.6,-0.6,right,R,,,,,0,1,1,1,0,86,86,58,,,,,,,,,,,,,,,,,,,,,,,,,,,,,,,,,,,,,,,,,,,,552.024632900022,None,right,1,1.4260635999962687,552.5255895000882,554.1780441000592,552.5255895000882,553.6770937999245,552.5255895000882,553.6770937999245,552.5255895000882,553.6770937999245,552.5255895000882,553.6770937999245,552.5255895000882,553.6770937999245,553.6607272999827,554.1620294000022,553.6607272999827,554.1620294000022,553.6607272999827,554.1620294000022,553.6607272999827,554.1620294000022,553.6607272999827,554.1620294000022,553.6607272999827,554.1620294000022,553.6607272999827,554.1620294000022,553.6607272999827,554.1620294000022,552.5255895000882,None,554.1620294000022,555.3132273999508,1.1500000000000008,555.3294659000821,None,556.0806477000006,None,,,,,,,[1.15195402],2.530000000000002,0.7586206896551724,11028,001,2024_Jan_10_1401,MFTM_A_new1021,2021.2.3,59.85540137700998,
,,,,,,,,stim/Instruction_adaptive.png,conditions/adaptive.xlsx,test,0.6,0.6,0.6,-0.6,-0.6,right,R,,,,,0,1,1,1,0,87,87,14,,,,,,,,,,,,,,,,,,,,,,,,,,,,,,,,,,,,,,,,,,,,556.5812989000697,None,right,1,1.0938967999536544,557.0819691000506,558.7348003999796,557.0819691000506,558.2338064000942,557.0819691000506,558.2338064000942,557.0819691000506,558.2338064000942,557.0819691000506,558.2338064000942,557.0819691000506,558.2338064000942,558.2004782999866,558.7017677000258,558.2004782999866,558.7017677000258,558.2004782999866,558.7017677000258,558.2004782999866,558.7017677000258,558.2004782999866,558.7017677000258,558.2004782999866,558.7017677000258,558.2004782999866,558.7017677000258,558.2004782999866,558.7017677000258,557.0819691000506,None,558.7017677000258,559.8695193000603,1.1400000000000008,559.8863950001542,None,560.6380521000829,None,,,,,,,[1.15431818],2.5500000000000016,0.7613636363636364,11028,001,2024_Jan_10_1401,MFTM_A_new1021,2021.2.3,59.85540137700998,
,,,,,,,,stim/Instruction_adaptive.png,conditions/adaptive.xlsx,test,-0.6,-0.6,-0.6,0.6,0.6,left,L,,,,,0,1,1,1,0,88,88,45,,,,,,,,,,,,,,,,,,,,,,,,,,,,,,,,,,,,,,,,,,,,561.1383358000312,None,left,1,0.9535840000025928,561.6387473000214,563.2579745000694,561.6387473000214,562.7738965000026,561.6387473000214,562.7738965000026,561.6387473000214,562.7738965000026,561.6387473000214,562.7738965000026,561.6387473000214,562.7738965000026,562.7405214000028,563.2418959001079,562.7405214000028,563.2418959001079,562.7405214000028,563.2418959001079,562.7405214000028,563.2418959001079,562.7405214000028,563.2418959001079,562.7405214000028,563.2418959001079,562.7405214000028,563.2418959001079,562.7405214000028,563.2418959001079,561.6387473000214,None,563.2418959001079,564.4096319000237,1.1200000000000008,564.4262463001069,None,565.1772731000092,None,,,,,,,[1.15685393],2.570000000000002,0.7640449438202247,11028,001,2024_Jan_10_1401,MFTM_A_new1021,2021.2.3,59.85540137700998,
,,,,,,,,stim/Instruction_adaptive.png,conditions/adaptive.xlsx,test,0.6,0.6,0.6,-0.6,-0.6,right,R,,,,,0,1,1,1,0,89,89,22,,,,,,,,,,,,,,,,,,,,,,,,,,,,,,,,,,,,,,,,,,,,565.6780243001413,None,left,0,1.8121207999065518,566.1796516999602,567.7983403999824,566.1796516999602,567.2976530999877,566.1796516999602,567.2976530999877,566.1796516999602,567.2976530999877,566.1796516999602,567.2976530999877,566.1796516999602,567.2976530999877,567.2807619001251,567.7816280000843,567.2807619001251,567.7816280000843,567.2807619001251,567.7816280000843,567.2807619001251,567.7816280000843,567.2807619001251,567.7816280000843,567.2807619001251,567.7816280000843,567.2807619001251,567.7816280000843,567.2807619001251,567.7816280000843,566.1796516999602,None,567.7816280000843,None,1.1100000000000008,568.9496099001262,None,569.7011999001261,None,,,,,,,[1.15944444],2.5100000000000016,0.7555555555555555,11028,001,2024_Jan_10_1401,MFTM_A_new1021,2021.2.3,59.85540137700998,
,,,,,,,,stim/Instruction_adaptive.png,conditions/adaptive.xlsx,test,0.6,0.6,0.6,-0.6,-0.6,right,R,,,,,0,1,1,1,0,90,90,40,,,,,,,,,,,,,,,,,,,,,,,,,,,,,,,,,,,,,,,,,,,,570.2028026001062,None,right,1,0.9301978999283165,570.7021592999808,572.3552127000876,570.7021592999808,571.8546687001362,570.7021592999808,571.8546687001362,570.7021592999808,571.8546687001362,570.7021592999808,571.8546687001362,570.7021592999808,571.8546687001362,571.8373328000307,572.3390762000345,571.8373328000307,572.3390762000345,571.8373328000307,572.3390762000345,571.8373328000307,572.3390762000345,571.8373328000307,572.3390762000345,571.8373328000307,572.3390762000345,571.8373328000307,572.3390762000345,571.8373328000307,572.3390762000345,570.7021592999808,None,572.3390762000345,573.5075024000835,1.1500000000000008,573.5237191000488,None,574.2745155999437,None,,,,,,,[1.16153846],2.530000000000002,0.7582417582417582,11028,001,2024_Jan_10_1401,MFTM_A_new1021,2021.2.3,59.85540137700998,
,,,,,,,,stim/Instruction_adaptive.png,conditions/adaptive.xlsx,test,-0.6,-0.6,-0.6,0.6,0.6,left,L,,,,,0,1,1,1,0,91,91,43,,,,,,,,,,,,,,,,,,,,,,,,,,,,,,,,,,,,,,,,,,,,574.7749590000603,None,left,1,1.5399476999882609,575.2759933001362,576.9281488000415,575.2759933001362,576.427460799925,575.2759933001362,576.427460799925,575.2759933001362,576.427460799925,575.2759933001362,576.427460799925,575.2759933001362,576.427460799925,576.3940129999537,576.8945987001061,576.3940129999537,576.8945987001061,576.3940129999537,576.8945987001061,576.3940129999537,576.8945987001061,576.3940129999537,576.8945987001061,576.3940129999537,576.8945987001061,576.3940129999537,576.8945987001061,576.3940129999537,576.8945987001061,575.2759933001362,None,576.8945987001061,578.063262599986,1.1400000000000008,578.079870800022,None,578.8315006000921,None,,,,,,,[1.16369565],2.5500000000000016,0.7608695652173914,11028,001,2024_Jan_10_1401,MFTM_A_new1021,2021.2.3,59.85540137700998,
,,,,,,,,stim/Instruction_adaptive.png,conditions/adaptive.xlsx,test,0.6,0.6,0.6,-0.6,-0.6,right,R,,,,,0,1,1,1,0,92,92,52,,,,,,,,,,,,,,,,,,,,,,,,,,,,,,,,,,,,,,,,,,,,579.3322183999699,None,left,0,1.7351341999601573,579.8327965000644,581.4700927000958,579.8327965000644,580.9673766000196,579.8327965000644,580.9673766000196,579.8327965000644,580.9673766000196,579.8327965000644,580.9673766000196,579.8327965000644,580.9673766000196,580.9346215000842,581.43491489999,580.9346215000842,581.43491489999,580.9346215000842,581.43491489999,580.9346215000842,581.43491489999,580.9346215000842,581.43491489999,580.9346215000842,581.43491489999,580.9346215000842,581.43491489999,580.9346215000842,581.43491489999,579.8327965000644,None,581.43491489999,582.6033157999627,1.1200000000000008,582.6200604999904,None,583.3712266001385,None,,,,,,,[1.16602151],2.490000000000002,0.7526881720430108,11028,001,2024_Jan_10_1401,MFTM_A_new1021,2021.2.3,59.85540137700998,
