arrwidth1,arrwidth2,arrwidth3,arrwidth4,arrwidth5,keyb,type,orientation,instruction_image,block_filename,block_type,arrow11,arrow22,arrow33,arrow44,arrow55,keyb_3,orientation3,trials.thisRepN,trials.thisTrialN,trials.thisN,trials.thisIndex,trials_3.thisRepN,trials_3.thisTrialN,trials_3.thisN,trials_3.thisIndex,trials_2.thisRepN,trials_2.thisTrialN,trials_2.thisN,trials_2.thisIndex,welcome.started,welcome.stopped,key_resp.keys,key_resp.rt,key_resp.started,key_resp.stopped,instruction_example.started,instruction_example.stopped,key_resp_3.keys,key_resp_3.rt,key_resp_3.started,key_resp_3.stopped,instruction_task.started,instruction_task.stopped,key_resp_2.keys,key_resp_2.rt,key_resp_2.started,key_resp_2.stopped,text_2.started,text_2.stopped,A1.started,A1.stopped,A2.started,A2.stopped,A3.started,A3.stopped,A4.started,A4.stopped,A5.started,A5.stopped,key_resp_4.keys,key_resp_4.corr,key_resp_4.rt,key_resp_4.started,key_resp_4.stopped,fb.started,fb.stopped,instruction_block.started,instruction_block.stopped,key_resp_8.keys,key_resp_8.rt,key_resp_8.started,key_resp_8.stopped,text_8.started,text_8.stopped,key_resp_9.keys,key_resp_9.corr,key_resp_9.rt,text_5.started,text_5.stopped,A11_3.started,A11_3.stopped,A22_2.started,A22_2.stopped,A33_2.started,A33_2.stopped,A44_2.started,A44_2.stopped,A55_2.started,A55_2.stopped,M1_3.started,M1_3.stopped,M2_2.started,M2_2.stopped,M3_2.started,M3_2.stopped,M4_2.started,M4_2.stopped,M5_2.started,M5_2.stopped,M6_2.started,M6_2.stopped,M7_2.started,M7_2.stopped,M8_2.started,M8_2.stopped,key_resp_9.started,key_resp_9.stopped,fixation.started,fixation.stopped,ET,fb_3.started,fb_3.stopped,text_9.started,text_9.stopped,fb_4.started,fb_4.stopped,text_7.started,text_7.stopped,endtext.started,endtext.stopped,fixation_ITI,CCC,Acc,participant,session,date,expName,psychopyVersion,frameRate,
,,,,,,,,,,,,,,,,,,,,,,,,,,,,,,16.41325430001598,None,space,2.405057799885981,16.41325430001598,None,,,,,,,,,,,,,,,,,,,,,,,,,,,,,,,,,,,,,,,,,,,,,,,,,,,,,,,,,,,,,,,,,,,,,,,,,,,,,,,,,,,,,,,,,11021,002,2024_Jan_05_1526,MFTM_A_new1021,2021.2.3,60.48062742030141,
,,,,,,,,,,,,,,,,,,,,,,,,,,,,,,,,,,,,18.83368280006107,None,right,5.952632899978198,18.83368280006107,None,,,,,,,,,,,,,,,,,,,,,,,,,,,,,,,,,,,,,,,,,,,,,,,,,,,,,,,,,,,,,,,,,,,,,,,,,,,,,,,,,,,11021,002,2024_Jan_05_1526,MFTM_A_new1021,2021.2.3,60.48062742030141,
,,,,,,,,,,,,,,,,,,,,,,,,,,,,,,,,,,,,,,,,,,24.809926499961875,None,right,2.888551600044593,24.809926499961875,None,,,,,,,,,,,,,,,,,,,,,,,,,,,,,,,,,,,,,,,,,,,,,,,,,,,,,,,,,,,,,,,,,,,,,,,,,,,,,11021,002,2024_Jan_05_1526,MFTM_A_new1021,2021.2.3,60.48062742030141,
0.6,0.6,0.6,-0.6,-0.6,right,3:2,R,,,,,,,,,,,0,0,0,0,,,,,,,,,,,,,,,,,,,,,,,,,,,27.74813650001306,None,27.74813650001306,None,27.74813650001306,None,27.74813650001306,None,27.74813650001306,None,27.74813650001306,None,right,1,3.1183402000460774,27.74813650001306,None,30.901862900005654,None,,,,,,,,,,,,,,,,,,,,,,,,,,,,,,,,,,,,,,,,,,,,,,,,,,,,,,,,,,11021,002,2024_Jan_05_1526,MFTM_A_new1021,2021.2.3,60.48062742030141,
-0.6,-0.6,-0.6,0.6,0.6,left,3:2,L,,,,,,,,,,,0,1,1,1,,,,,,,,,,,,,,,,,,,,,,,,,,,31.653258400037885,None,31.653258400037885,None,31.653258400037885,None,31.653258400037885,None,31.653258400037885,None,31.653258400037885,None,left,1,1.5491384000051767,31.653258400037885,None,33.22181220003404,None,,,,,,,,,,,,,,,,,,,,,,,,,,,,,,,,,,,,,,,,,,,,,,,,,,,,,,,,,,11021,002,2024_Jan_05_1526,MFTM_A_new1021,2021.2.3,60.48062742030141,
-0.6,-0.6,-0.6,0.6,0.6,left,3:2,L,,,,,,,,,,,1,0,2,1,,,,,,,,,,,,,,,,,,,,,,,,,,,33.973543300060555,None,33.973543300060555,None,33.973543300060555,None,33.973543300060555,None,33.973543300060555,None,33.973543300060555,None,right,0,1.1012672000797465,33.973543300060555,None,35.09096860000864,None,,,,,,,,,,,,,,,,,,,,,,,,,,,,,,,,,,,,,,,,,,,,,,,,,,,,,,,,,,11021,002,2024_Jan_05_1526,MFTM_A_new1021,2021.2.3,60.48062742030141,
0.6,0.6,0.6,-0.6,-0.6,right,3:2,R,,,,,,,,,,,1,1,3,0,,,,,,,,,,,,,,,,,,,,,,,,,,,35.84235379996244,None,35.84235379996244,None,35.84235379996244,None,35.84235379996244,None,35.84235379996244,None,35.84235379996244,None,right,1,5.743907599942759,35.84235379996244,None,41.60080170002766,None,,,,,,,,,,,,,,,,,,,,,,,,,,,,,,,,,,,,,,,,,,,,,,,,,,,,,,,,,,11021,002,2024_Jan_05_1526,MFTM_A_new1021,2021.2.3,60.48062742030141,
,,,,,,,,stim/Instruction_mask.png,conditions/adaptive.xlsx,practice,0.6,0.6,0.6,-0.6,-0.6,right,R,,,,,0,0,0,0,0,0,0,68,,,,,,,,,,,,,,,,,,,,,,,,,,,,,,,,,,,,,,42.5347295999527,None,space,42.131654700031504,42.5347295999527,None,84.76562009996269,None,right,1,3.0671952000120655,85.19966519996524,None,85.19966519996524,88.20393459999468,85.19966519996524,88.20393459999468,85.19966519996524,88.20393459999468,85.19966519996524,88.20393459999468,85.19966519996524,88.20393459999468,88.18703170004301,88.68748530000448,88.18703170004301,88.68748530000448,88.18703170004301,88.68748530000448,88.18703170004301,88.68748530000448,88.18703170004301,88.68748530000448,88.18703170004301,88.68748530000448,88.18703170004301,88.68748530000448,88.18703170004301,88.68748530000448,85.19966519996524,None,88.68748530000448,88.68748530000448,3,88.70409530005418,None,89.45514470001217,None,,,,,,,,,,11021,002,2024_Jan_05_1526,MFTM_A_new1021,2021.2.3,60.48062742030141,
,,,,,,,,stim/Instruction_mask.png,conditions/adaptive.xlsx,practice,0.6,0.6,0.6,-0.6,-0.6,right,R,,,,,0,0,0,0,0,1,1,94,,,,,,,,,,,,,,,,,,,,,,,,,,,,,,,,,,,,,,,,,,,,89.95674809999764,None,right,1,2.3217132999561727,90.45664520002902,92.46036200004164,90.45664520002902,91.9602555000456,90.45664520002902,91.9602555000456,90.45664520002902,91.9602555000456,90.45664520002902,91.9602555000456,90.45664520002902,91.9602555000456,91.94249300006777,92.44319580006413,91.94249300006777,92.44319580006413,91.94249300006777,92.44319580006413,91.94249300006777,92.44319580006413,91.94249300006777,92.44319580006413,91.94249300006777,92.44319580006413,91.94249300006777,92.44319580006413,91.94249300006777,92.44319580006413,90.45664520002902,None,92.44319580006413,93.94513410003856,1.5,93.96182730002329,None,94.71272439998575,None,,,,,,,,,,11021,002,2024_Jan_05_1526,MFTM_A_new1021,2021.2.3,60.48062742030141,
,,,,,,,,stim/Instruction_mask.png,conditions/adaptive.xlsx,practice,0.6,0.6,0.6,-0.6,-0.6,right,R,,,,,0,0,0,0,0,2,2,48,,,,,,,,,,,,,,,,,,,,,,,,,,,,,,,,,,,,,,,,,,,,95.21412180003244,None,left,0,1.9599927000235766,95.71431539999321,97.01698710001074,95.71431539999321,96.51629149995279,95.71431539999321,96.51629149995279,95.71431539999321,96.51629149995279,95.71431539999321,96.51629149995279,95.71431539999321,96.51629149995279,96.49884909996763,97.00092669995502,96.49884909996763,97.00092669995502,96.49884909996763,97.00092669995502,96.49884909996763,97.00092669995502,96.49884909996763,97.00092669995502,96.49884909996763,97.00092669995502,96.49884909996763,97.00092669995502,96.49884909996763,97.00092669995502,95.71431539999321,None,97.00092669995502,99.20293170004152,0.8,99.21962560003158,None,99.97103969997261,None,,,,,,,,,,11021,002,2024_Jan_05_1526,MFTM_A_new1021,2021.2.3,60.48062742030141,
,,,,,,,,stim/Instruction_mask.png,conditions/adaptive.xlsx,practice,-0.6,-0.6,-0.6,0.6,0.6,left,L,,,,,0,0,0,0,0,3,3,83,,,,,,,,,,,,,,,,,,,,,,,,,,,,,,,,,,,,,,,,,,,,100.47160180006176,None,left,1,1.3985483000287786,100.97206419997383,101.72381270001642,100.97206419997383,101.22254830005113,100.97206419997383,101.22254830005113,100.97206419997383,101.22254830005113,100.97206419997383,101.22254830005113,100.97206419997383,101.22254830005113,101.20570930000395,101.70654170005582,101.20570930000395,101.70654170005582,101.20570930000395,101.70654170005582,101.20570930000395,101.70654170005582,101.20570930000395,101.70654170005582,101.20570930000395,101.70654170005582,101.20570930000395,101.70654170005582,101.20570930000395,101.70654170005582,100.97206419997383,None,101.70654170005582,104.46061099995859,3,104.4774436999578,None,105.22901819995604,None,,,,,,,,,,11021,002,2024_Jan_05_1526,MFTM_A_new1021,2021.2.3,60.48062742030141,
,,,,,,,,stim/Instruction_mask.png,conditions/adaptive.xlsx,practice,,,,,,,,,,,,0,0,0,0,,,,,,,,,,,,,,,,,,,,,,,,,,,,,,,,,,,,,,,,,,,,,,,,,,,,,,,,,,,,,,,,,,,,,,,,,,,,,,,,,,,,,,,,,,105.74593970004935,106.74895240005571,106.73119459999725,106.73119459999725,106.73119459999725,None,,,,11021,002,2024_Jan_05_1526,MFTM_A_new1021,2021.2.3,60.48062742030141,
,,,,,,,,stim/Instruction_adaptive.png,conditions/adaptive.xlsx,test,-0.6,-0.6,-0.6,0.6,0.6,left,L,,,,,0,1,1,1,0,0,0,17,,,,,,,,,,,,,,,,,,,,,,,,,,,,,,,,,,,,,,109.85234920005314,None,space,267.31187219999265,109.85234920005314,None,377.1978987000184,None,left,1,1.6401660999981686,377.69927420001477,None,377.69927420001477,380.70329640002456,377.69927420001477,380.70329640002456,377.69927420001477,380.70329640002456,377.69927420001477,380.70329640002456,377.69927420001477,380.70329640002456,380.68670530000236,381.18835049995687,380.68670530000236,381.18835049995687,380.68670530000236,381.18835049995687,380.68670530000236,381.18835049995687,380.68670530000236,381.18835049995687,380.68670530000236,381.18835049995687,380.68670530000236,381.18835049995687,380.68670530000236,381.18835049995687,377.69927420001477,None,381.18835049995687,381.18835049995687,3,381.2047778000124,None,381.9552077000262,None,,,,,,,0,6.000000000000005,1.0,11021,002,2024_Jan_05_1526,MFTM_A_new1021,2021.2.3,60.48062742030141,
,,,,,,,,stim/Instruction_adaptive.png,conditions/adaptive.xlsx,test,-0.6,-0.6,-0.6,0.6,0.6,left,L,,,,,0,1,1,1,0,1,1,67,,,,,,,,,,,,,,,,,,,,,,,,,,,,,,,,,,,,,,,,,,,,382.45682019996457,None,left,1,0.967380200047046,382.9567184000043,383.7084820000455,382.9567184000043,383.2074358999962,382.9567184000043,383.2074358999962,382.9567184000043,383.2074358999962,382.9567184000043,383.2074358999962,382.9567184000043,383.2074358999962,383.19078750000335,383.6913573000347,383.19078750000335,383.6913573000347,383.19078750000335,383.6913573000347,383.19078750000335,383.6913573000347,383.19078750000335,383.6913573000347,383.19078750000335,383.6913573000347,383.19078750000335,383.6913573000347,383.19078750000335,383.6913573000347,382.9567184000043,None,383.6913573000347,384.57596190006007,0.25,384.5924416000489,None,385.34393590001855,None,,,,,,,[0.875],6.000000000000005,1.0,11021,002,2024_Jan_05_1526,MFTM_A_new1021,2021.2.3,60.48062742030141,
,,,,,,,,stim/Instruction_adaptive.png,conditions/adaptive.xlsx,test,-0.6,-0.6,-0.6,0.6,0.6,left,L,,,,,0,1,1,1,0,2,2,11,,,,,,,,,,,,,,,,,,,,,,,,,,,,,,,,,,,,,,,,,,,,385.8453474000562,None,left,1,0.7540024999761954,386.34479020000435,387.0959445000626,386.34479020000435,386.5965825000312,386.34479020000435,386.5965825000312,386.34479020000435,386.5965825000312,386.34479020000435,386.5965825000312,386.34479020000435,386.5965825000312,386.5797684000572,387.0794005000498,386.5797684000572,387.0794005000498,386.5797684000572,387.0794005000498,386.5797684000572,387.0794005000498,386.5797684000572,387.0794005000498,386.5797684000572,387.0794005000498,386.5797684000572,387.0794005000498,386.5797684000572,387.0794005000498,386.34479020000435,None,387.0794005000498,388.4154497999698,0.25,388.4313783000689,None,389.1826137000462,None,,,,,,,[1.33333333],6.000000000000005,1.0,11021,002,2024_Jan_05_1526,MFTM_A_new1021,2021.2.3,60.48062742030141,
,,,,,,,,stim/Instruction_adaptive.png,conditions/adaptive.xlsx,test,-0.6,-0.6,-0.6,0.6,0.6,left,L,,,,,0,1,1,1,0,3,3,27,,,,,,,,,,,,,,,,,,,,,,,,,,,,,,,,,,,,,,,,,,,,389.6841457999544,None,left,1,0.8830860999878496,390.1847510000225,390.9361865000101,390.1847510000225,390.4355980999535,390.1847510000225,390.4355980999535,390.1847510000225,390.4355980999535,390.1847510000225,390.4355980999535,390.1847510000225,390.4355980999535,390.4178338999627,390.9183928000275,390.4178338999627,390.9183928000275,390.4178338999627,390.9183928000275,390.4178338999627,390.9183928000275,390.4178338999627,390.9183928000275,390.4178338999627,390.9183928000275,390.4178338999627,390.9183928000275,390.4178338999627,390.9183928000275,390.1847510000225,None,390.9183928000275,392.48737950006034,0.25,392.5040476999711,None,393.255336000002,None,,,,,,,[1.5625],6.000000000000005,1.0,11021,002,2024_Jan_05_1526,MFTM_A_new1021,2021.2.3,60.48062742030141,
,,,,,,,,stim/Instruction_adaptive.png,conditions/adaptive.xlsx,test,-0.6,-0.6,-0.6,0.6,0.6,left,L,,,,,0,1,1,1,0,4,4,43,,,,,,,,,,,,,,,,,,,,,,,,,,,,,,,,,,,,,,,,,,,,393.7563941000262,None,right,0,0.9377106999745592,394.2572279999731,395.00783150002826,394.2572279999731,394.50744009995833,394.2572279999731,394.50744009995833,394.2572279999731,394.50744009995833,394.2572279999731,394.50744009995833,394.2572279999731,394.50744009995833,394.49042339995503,394.991090000025,394.49042339995503,394.991090000025,394.49042339995503,394.991090000025,394.49042339995503,394.991090000025,394.49042339995503,394.991090000025,394.49042339995503,394.991090000025,394.49042339995503,394.991090000025,394.49042339995503,394.991090000025,394.2572279999731,None,394.991090000025,396.693627599976,0.25,396.7102066000225,None,397.46151120006107,None,,,,,,,[1.7],4.720000000000004,0.8,11021,002,2024_Jan_05_1526,MFTM_A_new1021,2021.2.3,60.48062742030141,
,,,,,,,,stim/Instruction_adaptive.png,conditions/adaptive.xlsx,test,0.6,0.6,0.6,-0.6,-0.6,right,R,,,,,0,1,1,1,0,5,5,22,,,,,,,,,,,,,,,,,,,,,,,,,,,,,,,,,,,,,,,,,,,,397.9623576999875,None,right,1,0.8528561999555677,398.4630102000665,399.21557760005817,398.4630102000665,398.71415210003033,398.4630102000665,398.71415210003033,398.4630102000665,398.71415210003033,398.4630102000665,398.71415210003033,398.4630102000665,398.71415210003033,398.69685069995467,399.198601400014,398.69685069995467,399.198601400014,398.69685069995467,399.198601400014,398.69685069995467,399.198601400014,398.69685069995467,399.198601400014,398.69685069995467,399.198601400014,398.69685069995467,399.198601400014,398.69685069995467,399.198601400014,398.4630102000665,None,399.198601400014,401.0007998000365,0.25,401.0167045999551,None,401.7690007999772,None,,,,,,,[1.79166667],5.1200000000000045,0.8333333333333334,11021,002,2024_Jan_05_1526,MFTM_A_new1021,2021.2.3,60.48062742030141,
,,,,,,,,stim/Instruction_adaptive.png,conditions/adaptive.xlsx,test,-0.6,-0.6,-0.6,0.6,0.6,left,L,,,,,0,1,1,1,0,6,6,21,,,,,,,,,,,,,,,,,,,,,,,,,,,,,,,,,,,,,,,,,,,,402.26963100000285,None,left,1,0.8091064000036567,402.7699932999676,403.52067700005136,402.7699932999676,403.02002659998834,402.7699932999676,403.02002659998834,402.7699932999676,403.02002659998834,402.7699932999676,403.02002659998834,402.7699932999676,403.02002659998834,403.003874200047,403.5039176000282,403.003874200047,403.5039176000282,403.003874200047,403.5039176000282,403.003874200047,403.5039176000282,403.003874200047,403.5039176000282,403.003874200047,403.5039176000282,403.003874200047,403.5039176000282,403.003874200047,403.5039176000282,402.7699932999676,None,403.5039176000282,405.3740007999586,0.25,405.3900488000363,None,406.14105119998567,None,,,,,,,[1.85714286],5.380000000000004,0.8571428571428571,11021,002,2024_Jan_05_1526,MFTM_A_new1021,2021.2.3,60.48062742030141,
,,,,,,,,stim/Instruction_adaptive.png,conditions/adaptive.xlsx,test,-0.6,-0.6,-0.6,0.6,0.6,left,L,,,,,0,1,1,1,0,7,7,89,,,,,,,,,,,,,,,,,,,,,,,,,,,,,,,,,,,,,,,,,,,,406.64180680003483,None,left,1,0.9483665000880137,407.1426688999636,407.894066000008,407.1426688999636,407.3929732000688,407.1426688999636,407.3929732000688,407.1426688999636,407.3929732000688,407.1426688999636,407.3929732000688,407.1426688999636,407.3929732000688,407.3764869000297,407.87693819997367,407.3764869000297,407.87693819997367,407.3764869000297,407.87693819997367,407.3764869000297,407.87693819997367,407.3764869000297,407.87693819997367,407.3764869000297,407.87693819997367,407.3764869000297,407.87693819997367,407.3764869000297,407.87693819997367,407.1426688999636,None,407.87693819997367,409.79653230006807,0.25,409.81340750004165,None,410.5649365000427,None,,,,,,,[1.90625],5.570000000000005,0.875,11021,002,2024_Jan_05_1526,MFTM_A_new1021,2021.2.3,60.48062742030141,
,,,,,,,,stim/Instruction_adaptive.png,conditions/adaptive.xlsx,test,0.6,0.6,0.6,-0.6,-0.6,right,R,,,,,0,1,1,1,0,8,8,42,,,,,,,,,,,,,,,,,,,,,,,,,,,,,,,,,,,,,,,,,,,,411.06574590003584,None,right,1,0.685541299986653,411.56561279995367,412.3174230000004,411.56561279995367,411.81616859999485,411.56561279995367,411.81616859999485,411.56561279995367,411.81616859999485,411.56561279995367,411.81616859999485,411.56561279995367,411.81616859999485,411.799698799965,412.30089259997476,411.799698799965,412.30089259997476,411.799698799965,412.30089259997476,411.799698799965,412.30089259997476,411.799698799965,412.30089259997476,411.799698799965,412.30089259997476,411.799698799965,412.30089259997476,411.799698799965,412.30089259997476,411.56561279995367,None,412.30089259997476,414.25300599995535,0.25,414.2707798000192,None,415.02162660006434,None,,,,,,,[1.94444444],5.720000000000004,0.8888888888888888,11021,002,2024_Jan_05_1526,MFTM_A_new1021,2021.2.3,60.48062742030141,
,,,,,,,,stim/Instruction_adaptive.png,conditions/adaptive.xlsx,test,0.6,0.6,0.6,-0.6,-0.6,right,R,,,,,0,1,1,1,0,9,9,64,,,,,,,,,,,,,,,,,,,,,,,,,,,,,,,,,,,,,,,,,,,,415.52206170000136,None,right,1,0.6125958000775427,416.02258900005836,416.7742841000436,416.02258900005836,416.2724971000571,416.02258900005836,416.2724971000571,416.02258900005836,416.2724971000571,416.02258900005836,416.2724971000571,416.02258900005836,416.2724971000571,416.25584220001474,416.7568721000571,416.25584220001474,416.7568721000571,416.25584220001474,416.7568721000571,416.25584220001474,416.7568721000571,416.25584220001474,416.7568721000571,416.25584220001474,416.7568721000571,416.25584220001474,416.7568721000571,416.25584220001474,416.7568721000571,416.02258900005836,None,416.7568721000571,418.7432525999611,0.25,418.75975229998585,None,419.5114075000165,None,,,,,,,[1.975],5.840000000000005,0.9,11021,002,2024_Jan_05_1526,MFTM_A_new1021,2021.2.3,60.48062742030141,
,,,,,,,,stim/Instruction_adaptive.png,conditions/adaptive.xlsx,test,-0.6,-0.6,-0.6,0.6,0.6,left,L,,,,,0,1,1,1,0,10,10,37,,,,,,,,,,,,,,,,,,,,,,,,,,,,,,,,,,,,,,,,,,,,420.0122754999902,None,right,0,0.9378323999699205,420.5129803000018,421.2634908000473,420.5129803000018,420.76273650000803,420.5129803000018,420.76273650000803,420.5129803000018,420.76273650000803,420.5129803000018,420.76273650000803,420.5129803000018,420.76273650000803,420.74633790005464,421.2472877999535,420.74633790005464,421.2472877999535,420.74633790005464,421.2472877999535,420.74633790005464,421.2472877999535,420.74633790005464,421.2472877999535,420.74633790005464,421.2472877999535,420.74633790005464,421.2472877999535,420.74633790005464,421.2472877999535,420.5129803000018,None,421.2472877999535,423.25066590006463,0.25,423.26633070001844,None,424.01746290002484,None,,,,,,,[2.],5.1200000000000045,0.8181818181818182,11021,002,2024_Jan_05_1526,MFTM_A_new1021,2021.2.3,60.48062742030141,
,,,,,,,,stim/Instruction_adaptive.png,conditions/adaptive.xlsx,test,0.6,0.6,0.6,-0.6,-0.6,right,R,,,,,0,1,1,1,0,11,11,38,,,,,,,,,,,,,,,,,,,,,,,,,,,,,,,,,,,,,,,,,,,,424.51860459998716,None,left,0,1.112029799958691,425.01889149995986,425.77010369999334,425.01889149995986,425.26927940000314,425.01889149995986,425.26927940000314,425.01889149995986,425.26927940000314,425.01889149995986,425.26927940000314,425.01889149995986,425.26927940000314,425.2526916000061,425.7541983999545,425.2526916000061,425.7541983999545,425.2526916000061,425.7541983999545,425.2526916000061,425.7541983999545,425.2526916000061,425.7541983999545,425.2526916000061,425.7541983999545,425.2526916000061,425.7541983999545,425.2526916000061,425.7541983999545,425.01889149995986,None,425.7541983999545,None,0.25,427.78985950001515,None,428.54182609997224,None,,,,,,,[2.02083333],4.530000000000004,0.75,11021,002,2024_Jan_05_1526,MFTM_A_new1021,2021.2.3,60.48062742030141,
,,,,,,,,stim/Instruction_adaptive.png,conditions/adaptive.xlsx,test,0.6,0.6,0.6,-0.6,-0.6,right,R,,,,,0,1,1,1,0,12,12,62,,,,,,,,,,,,,,,,,,,,,,,,,,,,,,,,,,,,,,,,,,,,429.042249500053,None,left,0,1.0605207999469712,429.54235650005285,430.3272225999972,429.54235650005285,429.8261126000434,429.54235650005285,429.8261126000434,429.54235650005285,429.8261126000434,429.54235650005285,429.8261126000434,429.54235650005285,429.8261126000434,429.8093254000414,430.3102497999789,429.8093254000414,430.3102497999789,429.8093254000414,430.3102497999789,429.8093254000414,430.3102497999789,429.8093254000414,430.3102497999789,429.8093254000414,430.3102497999789,429.8093254000414,430.3102497999789,429.8093254000414,430.3102497999789,429.54235650005285,None,430.3102497999789,432.3466472000582,0.28,432.36481169995386,None,433.1151797999628,None,,,,,,,[2.03615385],3.900000000000003,0.6923076923076923,11021,002,2024_Jan_05_1526,MFTM_A_new1021,2021.2.3,60.48062742030141,
,,,,,,,,stim/Instruction_adaptive.png,conditions/adaptive.xlsx,test,-0.6,-0.6,-0.6,0.6,0.6,left,L,,,,,0,1,1,1,0,13,13,53,,,,,,,,,,,,,,,,,,,,,,,,,,,,,,,,,,,,,,,,,,,,433.615150299971,None,right,0,1.3268328999402002,434.1160091999918,435.06709949998185,434.1160091999918,434.5666103999829,434.1160091999918,434.5666103999829,434.1160091999918,434.5666103999829,434.1160091999918,434.5666103999829,434.1160091999918,434.5666103999829,434.53310260002036,435.03366429999005,434.53310260002036,435.03366429999005,434.53310260002036,435.03366429999005,434.53310260002036,435.03366429999005,434.53310260002036,435.03366429999005,434.53310260002036,435.03366429999005,434.53310260002036,435.03366429999005,434.53310260002036,435.03366429999005,434.1160091999918,None,435.03366429999005,437.07132400001865,0.44000000000000017,437.10414960002527,None,437.85547399998177,None,,,,,,,[2.03785714],3.030000000000002,0.6428571428571429,11021,002,2024_Jan_05_1526,MFTM_A_new1021,2021.2.3,60.48062742030141,
,,,,,,,,stim/Instruction_adaptive.png,conditions/adaptive.xlsx,test,-0.6,-0.6,-0.6,0.6,0.6,left,L,,,,,0,1,1,1,0,14,14,65,,,,,,,,,,,,,,,,,,,,,,,,,,,,,,,,,,,,,,,,,,,,438.3557904000627,None,right,0,1.4018331000115722,438.85734029999,440.1748536999803,438.85734029999,439.67404119996354,438.85734029999,439.67404119996354,438.85734029999,439.67404119996354,438.85734029999,439.67404119996354,438.85734029999,439.67404119996354,439.64117279998027,440.14155599998776,439.64117279998027,440.14155599998776,439.64117279998027,440.14155599998776,439.64117279998027,440.14155599998776,439.64117279998027,440.14155599998776,439.64117279998027,440.14155599998776,439.64117279998027,440.14155599998776,439.64117279998027,440.14155599998776,438.85734029999,None,440.14155599998776,441.8439616999822,0.8100000000000005,441.86147680005524,None,442.61251760006417,None,,,,,,,[[1.69]],1.7900000000000011,0.6,11021,002,2024_Jan_05_1526,MFTM_A_new1021,2021.2.3,60.48062742030141,
,,,,,,,,stim/Instruction_adaptive.png,conditions/adaptive.xlsx,test,-0.6,-0.6,-0.6,0.6,0.6,left,L,,,,,0,1,1,1,0,15,15,63,,,,,,,,,,,,,,,,,,,,,,,,,,,,,,,,,,,,,,,,,,,,443.11316129995976,None,left,1,2.8621877999976277,443.6132769000251,446.01818959997036,443.6132769000251,445.5159795000218,443.6132769000251,445.5159795000218,443.6132769000251,445.5159795000218,443.6132769000251,445.5159795000218,443.6132769000251,445.5159795000218,445.49934039998334,446.00111960002687,445.49934039998334,446.00111960002687,445.49934039998334,446.00111960002687,445.49934039998334,446.00111960002687,445.49934039998334,446.00111960002687,445.49934039998334,446.00111960002687,445.49934039998334,446.00111960002687,445.49934039998334,446.00111960002687,443.6132769000251,None,446.00111960002687,446.6014966999646,1.9000000000000015,446.61765230004676,None,447.36910350003745,None,,,,,,,[[0.6]],2.370000000000002,0.625,11021,002,2024_Jan_05_1526,MFTM_A_new1021,2021.2.3,60.48062742030141,
,,,,,,,,stim/Instruction_adaptive.png,conditions/adaptive.xlsx,test,-0.6,-0.6,-0.6,0.6,0.6,left,L,,,,,0,1,1,1,0,16,16,81,,,,,,,,,,,,,,,,,,,,,,,,,,,,,,,,,,,,,,,,,,,,447.87029700004496,None,left,1,1.60043620003853,448.37121550005395,450.1575608999701,448.37121550005395,449.65571459999774,448.37121550005395,449.65571459999774,448.37121550005395,449.65571459999774,448.37121550005395,449.65571459999774,448.37121550005395,449.65571459999774,449.62284099997487,450.123281499953,449.62284099997487,450.123281499953,449.62284099997487,450.123281499953,449.62284099997487,450.123281499953,449.62284099997487,450.123281499953,449.62284099997487,450.123281499953,449.62284099997487,450.123281499953,449.62284099997487,450.123281499953,448.37121550005395,None,450.123281499953,451.3599468000466,1.270000000000001,451.37468610005453,None,452.12661310005933,None,,,,,,,[[1.23]],2.720000000000002,0.6470588235294118,11021,002,2024_Jan_05_1526,MFTM_A_new1021,2021.2.3,60.48062742030141,
,,,,,,,,stim/Instruction_adaptive.png,conditions/adaptive.xlsx,test,-0.6,-0.6,-0.6,0.6,0.6,left,L,,,,,0,1,1,1,0,17,17,79,,,,,,,,,,,,,,,,,,,,,,,,,,,,,,,,,,,,,,,,,,,,452.62659210001584,None,left,1,1.8757974000182003,453.127162000048,454.6303767999634,453.127162000048,454.1289877999807,453.127162000048,454.1289877999807,453.127162000048,454.1289877999807,453.127162000048,454.1289877999807,453.127162000048,454.1289877999807,454.11287910002284,454.61351559998,454.11287910002284,454.61351559998,454.11287910002284,454.61351559998,454.11287910002284,454.61351559998,454.11287910002284,454.61351559998,454.11287910002284,454.61351559998,454.11287910002284,454.61351559998,454.11287910002284,454.61351559998,453.127162000048,None,454.61351559998,456.11659960006364,1.0000000000000007,456.1317272000015,None,456.8837280999869,None,,,,,,,[[1.5]],2.9700000000000024,0.6666666666666666,11021,002,2024_Jan_05_1526,MFTM_A_new1021,2021.2.3,60.48062742030141,
,,,,,,,,stim/Instruction_adaptive.png,conditions/adaptive.xlsx,test,0.6,0.6,0.6,-0.6,-0.6,right,R,,,,,0,1,1,1,0,18,18,84,,,,,,,,,,,,,,,,,,,,,,,,,,,,,,,,,,,,,,,,,,,,457.3839489000384,None,right,1,1.6072625999804586,457.88421180006117,459.2364580000285,457.88421180006117,458.73571969999466,457.88421180006117,458.73571969999466,457.88421180006117,458.73571969999466,457.88421180006117,458.73571969999466,457.88421180006117,458.73571969999466,458.70224929996766,459.20366690005176,458.70224929996766,459.20366690005176,458.70224929996766,459.20366690005176,458.70224929996766,459.20366690005176,458.70224929996766,459.20366690005176,458.70224929996766,459.20366690005176,458.70224929996766,459.20366690005176,458.70224929996766,459.20366690005176,457.88421180006117,None,459.20366690005176,460.872060899972,0.8400000000000005,460.8887416999787,None,461.64020599995274,None,,,,,,,[[1.66]],3.1600000000000024,0.6842105263157895,11021,002,2024_Jan_05_1526,MFTM_A_new1021,2021.2.3,60.48062742030141,
,,,,,,,,stim/Instruction_adaptive.png,conditions/adaptive.xlsx,test,0.6,0.6,0.6,-0.6,-0.6,right,R,,,,,0,1,1,1,0,19,19,74,,,,,,,,,,,,,,,,,,,,,,,,,,,,,,,,,,,,,,,,,,,,462.14137259998824,None,right,1,1.569272099994123,462.6417474000482,463.8941450000275,462.6417474000482,463.39234620006755,462.6417474000482,463.39234620006755,462.6417474000482,463.39234620006755,462.6417474000482,463.39234620006755,462.6417474000482,463.39234620006755,463.3594191999873,463.86052930005826,463.3594191999873,463.86052930005826,463.3594191999873,463.86052930005826,463.3594191999873,463.86052930005826,463.3594191999873,463.86052930005826,463.3594191999873,463.86052930005826,463.3594191999873,463.86052930005826,463.3594191999873,463.86052930005826,462.6417474000482,None,463.86052930005826,465.6298045000294,0.7400000000000004,465.64587750006467,None,466.3973840000108,None,,,,,,,[[1.76]],3.3300000000000027,0.7,11021,002,2024_Jan_05_1526,MFTM_A_new1021,2021.2.3,60.48062742030141,
,,,,,,,,stim/Instruction_adaptive.png,conditions/adaptive.xlsx,test,-0.6,-0.6,-0.6,0.6,0.6,left,L,,,,,0,1,1,1,0,20,20,15,,,,,,,,,,,,,,,,,,,,,,,,,,,,,,,,,,,,,,,,,,,,466.89778750005644,None,left,1,1.2444754999596626,467.39846950001083,468.55045950005297,467.39846950001083,468.04987430002075,467.39846950001083,468.04987430002075,467.39846950001083,468.04987430002075,467.39846950001083,468.04987430002075,467.39846950001083,468.04987430002075,468.03286539996043,468.53424329997506,468.03286539996043,468.53424329997506,468.03286539996043,468.53424329997506,468.03286539996043,468.53424329997506,468.03286539996043,468.53424329997506,468.03286539996043,468.53424329997506,468.03286539996043,468.53424329997506,468.03286539996043,468.53424329997506,467.39846950001083,None,468.53424329997506,470.38626120006666,0.6500000000000004,470.40290089999326,None,471.1540353000164,None,,,,,,,[1.84857143],3.4700000000000024,0.7142857142857143,11021,002,2024_Jan_05_1526,MFTM_A_new1021,2021.2.3,60.48062742030141,
,,,,,,,,stim/Instruction_adaptive.png,conditions/adaptive.xlsx,test,0.6,0.6,0.6,-0.6,-0.6,right,R,,,,,0,1,1,1,0,21,21,78,,,,,,,,,,,,,,,,,,,,,,,,,,,,,,,,,,,,,,,,,,,,471.6546844999539,None,right,1,0.9677682000910863,472.1558310999535,473.25771020003594,472.1558310999535,472.7562689000042,472.1558310999535,472.7562689000042,472.1558310999535,472.7562689000042,472.1558310999535,472.7562689000042,472.1558310999535,472.7562689000042,472.7231605000561,473.223883699975,472.7231605000561,473.223883699975,472.7231605000561,473.223883699975,472.7231605000561,473.223883699975,472.7231605000561,473.223883699975,472.7231605000561,473.223883699975,472.7231605000561,473.223883699975,472.7231605000561,473.223883699975,472.1558310999535,None,473.223883699975,475.0765672000125,0.5900000000000003,475.1100030000089,None,475.8619762000162,None,,,,,,,[1.85136364],3.6000000000000028,0.7272727272727273,11021,002,2024_Jan_05_1526,MFTM_A_new1021,2021.2.3,60.48062742030141,
,,,,,,,,stim/Instruction_adaptive.png,conditions/adaptive.xlsx,test,0.6,0.6,0.6,-0.6,-0.6,right,R,,,,,0,1,1,1,0,22,22,18,,,,,,,,,,,,,,,,,,,,,,,,,,,,,,,,,,,,,,,,,,,,476.3617654000409,None,right,1,0.8765737999929115,476.8625049999682,477.91477230004966,476.8625049999682,477.41444710001815,476.8625049999682,477.41444710001815,476.8625049999682,477.41444710001815,476.8625049999682,477.41444710001815,476.8625049999682,477.41444710001815,477.3801080000121,477.88080130005255,477.3801080000121,477.88080130005255,477.3801080000121,477.88080130005255,477.3801080000121,477.88080130005255,477.3801080000121,477.88080130005255,477.3801080000121,477.88080130005255,477.3801080000121,477.88080130005255,477.3801080000121,477.88080130005255,476.8625049999682,None,477.88080130005255,479.7507707000477,0.5400000000000003,479.766857599956,None,480.5186842000112,None,,,,,,,[1.85608696],3.7100000000000026,0.7391304347826086,11021,002,2024_Jan_05_1526,MFTM_A_new1021,2021.2.3,60.48062742030141,
,,,,,,,,stim/Instruction_adaptive.png,conditions/adaptive.xlsx,test,-0.6,-0.6,-0.6,0.6,0.6,left,L,,,,,0,1,1,1,0,23,23,95,,,,,,,,,,,,,,,,,,,,,,,,,,,,,,,,,,,,,,,,,,,,481.018484900007,None,right,0,0.9876957000233233,481.51946640003007,482.52161619998515,481.51946640003007,482.020100899972,481.51946640003007,482.020100899972,481.51946640003007,482.020100899972,481.51946640003007,482.020100899972,481.51946640003007,482.020100899972,482.0034861000022,482.50443880003877,482.0034861000022,482.50443880003877,482.0034861000022,482.50443880003877,482.0034861000022,482.50443880003877,482.0034861000022,482.50443880003877,482.0034861000022,482.50443880003877,482.0034861000022,482.50443880003877,482.0034861000022,482.50443880003877,481.51946640003007,None,482.50443880003877,484.37489119998645,0.5000000000000002,484.3908999999985,None,485.1424154000124,None,,,,,,,[1.86208333],3.410000000000003,0.7083333333333334,11021,002,2024_Jan_05_1526,MFTM_A_new1021,2021.2.3,60.48062742030141,
,,,,,,,,stim/Instruction_adaptive.png,conditions/adaptive.xlsx,test,-0.6,-0.6,-0.6,0.6,0.6,left,L,,,,,0,1,1,1,0,24,24,7,,,,,,,,,,,,,,,,,,,,,,,,,,,,,,,,,,,,,,,,,,,,485.6428159000352,None,right,0,1.3248429999221116,486.1429111000616,487.261294499971,486.1429111000616,486.7786049999995,486.1429111000616,486.7786049999995,486.1429111000616,486.7786049999995,486.1429111000616,486.7786049999995,486.1429111000616,486.7786049999995,486.7438273000298,487.2453751000576,486.7438273000298,487.2453751000576,486.7438273000298,487.2453751000576,486.7438273000298,487.2453751000576,486.7438273000298,487.2453751000576,486.7438273000298,487.2453751000576,486.7438273000298,487.2453751000576,486.7438273000298,487.2453751000576,486.1429111000616,None,487.2453751000576,489.11482290003914,0.6200000000000003,489.1306739000138,None,489.8821361999726,None,,,,,,,[1.8628],3.0800000000000023,0.68,11021,002,2024_Jan_05_1526,MFTM_A_new1021,2021.2.3,60.48062742030141,
,,,,,,,,stim/Instruction_adaptive.png,conditions/adaptive.xlsx,test,0.6,0.6,0.6,-0.6,-0.6,right,R,,,,,0,1,1,1,0,25,25,2,,,,,,,,,,,,,,,,,,,,,,,,,,,,,,,,,,,,,,,,,,,,490.38260640006047,None,left,0,2.5756640000035986,490.8833627999993,492.16860820003785,490.8833627999993,491.6677098000655,490.8833627999993,491.6677098000655,490.8833627999993,491.6677098000655,490.8833627999993,491.6677098000655,490.8833627999993,491.6677098000655,491.65129469998647,492.15279099997133,491.65129469998647,492.15279099997133,491.65129469998647,492.15279099997133,491.65129469998647,492.15279099997133,491.65129469998647,492.15279099997133,491.65129469998647,492.15279099997133,491.65129469998647,492.15279099997133,491.65129469998647,492.15279099997133,490.8833627999993,None,492.15279099997133,493.8711939000059,0.7800000000000005,493.8878474000376,None,494.63966760004405,None,,,,,,,[[1.72]],2.700000000000002,0.6538461538461539,11021,002,2024_Jan_05_1526,MFTM_A_new1021,2021.2.3,60.48062742030141,
,,,,,,,,stim/Instruction_adaptive.png,conditions/adaptive.xlsx,test,-0.6,-0.6,-0.6,0.6,0.6,left,L,,,,,0,1,1,1,0,26,26,99,,,,,,,,,,,,,,,,,,,,,,,,,,,,,,,,,,,,,,,,,,,,495.1393321000505,None,left,1,2.2416867999127135,495.6411892999895,497.1599608999677,495.6411892999895,496.6591457000468,495.6411892999895,496.6591457000468,495.6411892999895,496.6591457000468,495.6411892999895,496.6591457000468,495.6411892999895,496.6591457000468,496.62523320002947,497.1258653999539,496.62523320002947,497.1258653999539,496.62523320002947,497.1258653999539,496.62523320002947,497.1258653999539,496.62523320002947,497.1258653999539,496.62523320002947,497.1258653999539,496.62523320002947,497.1258653999539,496.62523320002947,497.1258653999539,495.6411892999895,None,497.1258653999539,498.6279626999749,1.0100000000000007,498.6447206999874,None,499.3959643000271,None,,,,,,,[[1.49]],2.840000000000002,0.6666666666666666,11021,002,2024_Jan_05_1526,MFTM_A_new1021,2021.2.3,60.48062742030141,
,,,,,,,,stim/Instruction_adaptive.png,conditions/adaptive.xlsx,test,0.6,0.6,0.6,-0.6,-0.6,right,R,,,,,0,1,1,1,0,27,27,44,,,,,,,,,,,,,,,,,,,,,,,,,,,,,,,,,,,,,,,,,,,,499.8977082000347,None,right,1,0.9734733999939635,500.3974662000546,501.8328214000212,500.3974662000546,501.332727800007,500.3974662000546,501.332727800007,500.3974662000546,501.332727800007,500.3974662000546,501.332727800007,500.3974662000546,501.332727800007,501.2994536999613,501.7996002000291,501.2994536999613,501.7996002000291,501.2994536999613,501.7996002000291,501.2994536999613,501.7996002000291,501.2994536999613,501.7996002000291,501.2994536999613,501.7996002000291,501.2994536999613,501.7996002000291,501.2994536999613,501.7996002000291,500.3974662000546,None,501.7996002000291,503.38613050000276,0.9200000000000006,503.40204169997014,None,504.15317199996207,None,,,,,,,[[1.58]],2.9700000000000024,0.6785714285714286,11021,002,2024_Jan_05_1526,MFTM_A_new1021,2021.2.3,60.48062742030141,
,,,,,,,,stim/Instruction_adaptive.png,conditions/adaptive.xlsx,test,0.6,0.6,0.6,-0.6,-0.6,right,R,,,,,0,1,1,1,0,28,28,56,,,,,,,,,,,,,,,,,,,,,,,,,,,,,,,,,,,,,,,,,,,,504.65431150002405,None,right,1,2.49689060007222,505.15448739996646,506.50648169999477,505.15448739996646,506.0059388000518,505.15448739996646,506.0059388000518,505.15448739996646,506.0059388000518,505.15448739996646,506.0059388000518,505.15448739996646,506.0059388000518,505.97234620002564,506.47517540003173,505.97234620002564,506.47517540003173,505.97234620002564,506.47517540003173,505.97234620002564,506.47517540003173,505.97234620002564,506.47517540003173,505.97234620002564,506.47517540003173,505.97234620002564,506.47517540003173,505.97234620002564,506.47517540003173,505.15448739996646,None,506.47517540003173,508.14227740000933,0.8400000000000005,508.1587760000257,None,508.91093330003787,None,,,,,,,[[1.66]],3.0800000000000023,0.6896551724137931,11021,002,2024_Jan_05_1526,MFTM_A_new1021,2021.2.3,60.48062742030141,
,,,,,,,,stim/Instruction_adaptive.png,conditions/adaptive.xlsx,test,0.6,0.6,0.6,-0.6,-0.6,right,R,,,,,0,1,1,1,0,29,29,48,,,,,,,,,,,,,,,,,,,,,,,,,,,,,,,,,,,,,,,,,,,,509.4113736000145,None,right,1,1.0911487999837846,509.91186480002943,511.1972034999635,509.91186480002943,510.6960880999686,509.91186480002943,510.6960880999686,509.91186480002943,510.6960880999686,509.91186480002943,510.6960880999686,509.91186480002943,510.6960880999686,510.6799425999634,511.1799649000168,510.6799425999634,511.1799649000168,510.6799425999634,511.1799649000168,510.6799425999634,511.1799649000168,510.6799425999634,511.1799649000168,510.6799425999634,511.1799649000168,510.6799425999634,511.1799649000168,510.6799425999634,511.1799649000168,509.91186480002943,None,511.1799649000168,512.8993359999731,0.7800000000000005,512.9158501999918,None,513.6668999000685,None,,,,,,,[[1.72]],3.1800000000000024,0.7,11021,002,2024_Jan_05_1526,MFTM_A_new1021,2021.2.3,60.48062742030141,
,,,,,,,,stim/Instruction_adaptive.png,conditions/adaptive.xlsx,test,0.6,0.6,0.6,-0.6,-0.6,right,R,,,,,0,1,1,1,0,30,30,58,,,,,,,,,,,,,,,,,,,,,,,,,,,,,,,,,,,,,,,,,,,,514.1677248000633,None,left,0,2.0138580000493675,514.669121599989,515.9045222999994,514.669121599989,515.4030157000525,514.669121599989,515.4030157000525,514.669121599989,515.4030157000525,514.669121599989,515.4030157000525,514.669121599989,515.4030157000525,515.3863237999612,515.8880453000311,515.3863237999612,515.8880453000311,515.3863237999612,515.8880453000311,515.3863237999612,515.8880453000311,515.3863237999612,515.8880453000311,515.3863237999612,515.8880453000311,515.3863237999612,515.8880453000311,515.3863237999612,515.8880453000311,514.669121599989,None,515.8880453000311,517.6568632000126,0.7300000000000004,517.672313899966,None,518.4247874000575,None,,,,,,,[[1.77]],2.910000000000002,0.6774193548387096,11021,002,2024_Jan_05_1526,MFTM_A_new1021,2021.2.3,60.48062742030141,
,,,,,,,,stim/Instruction_adaptive.png,conditions/adaptive.xlsx,test,0.6,0.6,0.6,-0.6,-0.6,right,R,,,,,0,1,1,1,0,31,31,14,,,,,,,,,,,,,,,,,,,,,,,,,,,,,,,,,,,,,,,,,,,,518.9255408999743,None,right,1,1.713628500001505,519.425509499968,520.811395799974,519.425509499968,520.3105919000227,519.425509499968,520.3105919000227,519.425509499968,520.3105919000227,519.425509499968,520.3105919000227,519.425509499968,520.3105919000227,520.2936014999868,520.7946130000055,520.2936014999868,520.7946130000055,520.2936014999868,520.7946130000055,520.2936014999868,520.7946130000055,520.2936014999868,520.7946130000055,520.2936014999868,520.7946130000055,520.2936014999868,520.7946130000055,520.2936014999868,520.7946130000055,519.425509499968,None,520.7946130000055,522.4137895000167,0.8800000000000006,522.4296514999587,None,523.1817859000294,None,,,,,,,[[1.62]],3.0100000000000025,0.6875,11021,002,2024_Jan_05_1526,MFTM_A_new1021,2021.2.3,60.48062742030141,
,,,,,,,,stim/Instruction_adaptive.png,conditions/adaptive.xlsx,test,-0.6,-0.6,-0.6,0.6,0.6,left,L,,,,,0,1,1,1,0,32,32,83,,,,,,,,,,,,,,,,,,,,,,,,,,,,,,,,,,,,,,,,,,,,523.6825129999779,None,left,1,1.972692200099118,524.1823947000084,525.5181430999655,524.1823947000084,525.0171688999981,524.1823947000084,525.0171688999981,524.1823947000084,525.0171688999981,524.1823947000084,525.0171688999981,524.1823947000084,525.0171688999981,524.9845816000598,525.4846181999892,524.9845816000598,525.4846181999892,524.9845816000598,525.4846181999892,524.9845816000598,525.4846181999892,524.9845816000598,525.4846181999892,524.9845816000598,525.4846181999892,524.9845816000598,525.4846181999892,524.9845816000598,525.4846181999892,524.1823947000084,None,525.4846181999892,527.1705364000518,0.8200000000000005,527.1870853999862,None,527.9387396000093,None,,,,,,,[[1.68]],3.0900000000000025,0.696969696969697,11021,002,2024_Jan_05_1526,MFTM_A_new1021,2021.2.3,60.48062742030141,
,,,,,,,,stim/Instruction_adaptive.png,conditions/adaptive.xlsx,test,-0.6,-0.6,-0.6,0.6,0.6,left,L,,,,,0,1,1,1,0,33,33,29,,,,,,,,,,,,,,,,,,,,,,,,,,,,,,,,,,,,,,,,,,,,528.4396097999997,None,left,1,1.6875552999554202,528.9396634000586,530.2082414999604,528.9396634000586,529.724296499975,528.9396634000586,529.724296499975,528.9396634000586,529.724296499975,528.9396634000586,529.724296499975,528.9396634000586,529.724296499975,529.6907447000267,530.1922239999985,529.6907447000267,530.1922239999985,529.6907447000267,530.1922239999985,529.6907447000267,530.1922239999985,529.6907447000267,530.1922239999985,529.6907447000267,530.1922239999985,529.6907447000267,530.1922239999985,529.6907447000267,530.1922239999985,528.9396634000586,None,530.1922239999985,531.9279839000665,0.7700000000000005,531.9441367000109,None,532.6980260000564,None,,,,,,,[[1.73]],3.1800000000000024,0.7058823529411765,11021,002,2024_Jan_05_1526,MFTM_A_new1021,2021.2.3,60.48062742030141,
,,,,,,,,stim/Instruction_adaptive.png,conditions/adaptive.xlsx,test,-0.6,-0.6,-0.6,0.6,0.6,left,L,,,,,0,1,1,1,0,34,34,9,,,,,,,,,,,,,,,,,,,,,,,,,,,,,,,,,,,,,,,,,,,,533.2135184999788,None,left,1,0.8253749000141397,533.7137067000149,534.9485774000641,533.7137067000149,534.4478835000191,533.7137067000149,534.4478835000191,533.7137067000149,534.4478835000191,533.7137067000149,534.4478835000191,533.7137067000149,534.4478835000191,534.4313933000667,534.932007299969,534.4313933000667,534.932007299969,534.4313933000667,534.932007299969,534.4313933000667,534.932007299969,534.4313933000667,534.932007299969,534.4313933000667,534.932007299969,534.4313933000667,534.932007299969,534.4313933000667,534.932007299969,533.7137067000149,None,534.932007299969,536.7012535000686,0.7300000000000004,536.7179458000464,None,537.4695537000662,None,,,,,,,[[1.77]],3.2500000000000027,0.7142857142857143,11021,002,2024_Jan_05_1526,MFTM_A_new1021,2021.2.3,60.48062742030141,
,,,,,,,,stim/Instruction_adaptive.png,conditions/adaptive.xlsx,test,0.6,0.6,0.6,-0.6,-0.6,right,R,,,,,0,1,1,1,0,35,35,66,,,,,,,,,,,,,,,,,,,,,,,,,,,,,,,,,,,,,,,,,,,,537.9703253000043,None,right,1,1.3090050000464544,538.4705820999807,539.6726043999661,538.4705820999807,539.1714580999687,538.4705820999807,539.1714580999687,538.4705820999807,539.1714580999687,538.4705820999807,539.1714580999687,538.4705820999807,539.1714580999687,539.1379582000664,539.6388251000317,539.1379582000664,539.6388251000317,539.1379582000664,539.6388251000317,539.1379582000664,539.6388251000317,539.1379582000664,539.6388251000317,539.1379582000664,539.6388251000317,539.1379582000664,539.6388251000317,539.1379582000664,539.6388251000317,538.4705820999807,None,539.6388251000317,541.459371300065,0.6900000000000004,541.4755154000595,None,542.2260887000011,None,,,,,,,[1.80888889],3.3200000000000025,0.7222222222222222,11021,002,2024_Jan_05_1526,MFTM_A_new1021,2021.2.3,60.48062742030141,
,,,,,,,,stim/Instruction_adaptive.png,conditions/adaptive.xlsx,test,-0.6,-0.6,-0.6,0.6,0.6,left,L,,,,,0,1,1,1,0,36,36,85,,,,,,,,,,,,,,,,,,,,,,,,,,,,,,,,,,,,,,,,,,,,542.7273913000245,None,right,0,1.3273363000480458,543.2276055000257,544.3959894999862,543.2276055000257,543.895186400041,543.2276055000257,543.895186400041,543.2276055000257,543.895186400041,543.2276055000257,543.895186400041,543.2276055000257,543.895186400041,543.8785374000436,544.3798661000328,543.8785374000436,544.3798661000328,543.8785374000436,544.3798661000328,543.8785374000436,544.3798661000328,543.8785374000436,544.3798661000328,543.8785374000436,544.3798661000328,543.8785374000436,544.3798661000328,543.8785374000436,544.3798661000328,543.2276055000257,None,544.3798661000328,None,0.6600000000000004,546.1980819000164,None,546.9504555000458,None,,,,,,,[1.80972973],3.1200000000000023,0.7027027027027027,11021,002,2024_Jan_05_1526,MFTM_A_new1021,2021.2.3,60.48062742030141,
,,,,,,,,stim/Instruction_adaptive.png,conditions/adaptive.xlsx,test,-0.6,-0.6,-0.6,0.6,0.6,left,L,,,,,0,1,1,1,0,37,37,73,,,,,,,,,,,,,,,,,,,,,,,,,,,,,,,,,,,,,,,,,,,,547.4510726999724,None,left,1,1.003328699967824,547.9515762999654,549.219936599955,547.9515762999654,548.7190649999538,547.9515762999654,548.7190649999538,547.9515762999654,548.7190649999538,547.9515762999654,548.7190649999538,547.9515762999654,548.7190649999538,548.70372520003,549.2035500999773,548.70372520003,549.2035500999773,548.70372520003,549.2035500999773,548.70372520003,549.2035500999773,548.70372520003,549.2035500999773,548.70372520003,549.2035500999773,548.70372520003,549.2035500999773,548.70372520003,549.2035500999773,547.9515762999654,None,549.2035500999773,None,0.7600000000000005,550.9554862000514,None,551.7073894999921,None,,,,,,,[[1.74]],3.190000000000002,0.7105263157894737,11021,002,2024_Jan_05_1526,MFTM_A_new1021,2021.2.3,60.48062742030141,
,,,,,,,,stim/Instruction_adaptive.png,conditions/adaptive.xlsx,test,-0.6,-0.6,-0.6,0.6,0.6,left,L,,,,,0,1,1,1,0,38,38,31,,,,,,,,,,,,,,,,,,,,,,,,,,,,,,,,,,,,,,,,,,,,552.2073548999615,None,left,1,0.9581479000626132,552.7087904000655,553.9437913000584,552.7087904000655,553.4429314000299,552.7087904000655,553.4429314000299,552.7087904000655,553.4429314000299,552.7087904000655,553.4429314000299,552.7087904000655,553.4429314000299,553.4093364999862,553.9099635999883,553.4093364999862,553.9099635999883,553.4093364999862,553.9099635999883,553.4093364999862,553.9099635999883,553.4093364999862,553.9099635999883,553.4093364999862,553.9099635999883,553.4093364999862,553.9099635999883,553.4093364999862,553.9099635999883,552.7087904000655,None,553.9099635999883,555.6959882000228,0.7200000000000004,555.7128410000587,None,556.4661628999747,None,,,,,,,[[1.78]],3.2600000000000025,0.717948717948718,11021,002,2024_Jan_05_1526,MFTM_A_new1021,2021.2.3,60.48062742030141,
,,,,,,,,stim/Instruction_adaptive.png,conditions/adaptive.xlsx,test,0.6,0.6,0.6,-0.6,-0.6,right,R,,,,,0,1,1,1,0,39,39,86,,,,,,,,,,,,,,,,,,,,,,,,,,,,,,,,,,,,,,,,,,,,556.9655575000215,None,right,1,1.5218212999170646,557.4653155000415,558.6671298999572,557.4653155000415,558.1662935999921,557.4653155000415,558.1662935999921,557.4653155000415,558.1662935999921,557.4653155000415,558.1662935999921,557.4653155000415,558.1662935999921,558.1329114000546,558.6336582000367,558.1329114000546,558.6336582000367,558.1329114000546,558.6336582000367,558.1329114000546,558.6336582000367,558.1329114000546,558.6336582000367,558.1329114000546,558.6336582000367,558.1329114000546,558.6336582000367,558.1329114000546,558.6336582000367,557.4653155000415,None,558.6336582000367,560.4543036000105,0.6900000000000004,560.4696754000615,None,561.2208536999533,None,,,,,,,[1.80725],3.3200000000000025,0.725,11021,002,2024_Jan_05_1526,MFTM_A_new1021,2021.2.3,60.48062742030141,
,,,,,,,,stim/Instruction_adaptive.png,conditions/adaptive.xlsx,test,-0.6,-0.6,-0.6,0.6,0.6,left,L,,,,,0,1,1,1,0,40,40,49,,,,,,,,,,,,,,,,,,,,,,,,,,,,,,,,,,,,,,,,,,,,561.7215018999996,None,left,1,0.8599423000123352,562.2232024000259,563.3919694999931,562.2232024000259,562.8899972999934,562.2232024000259,562.8899972999934,562.2232024000259,562.8899972999934,562.2232024000259,562.8899972999934,562.2232024000259,562.8899972999934,562.8566829999909,563.3571587000042,562.8566829999909,563.3571587000042,562.8566829999909,563.3571587000042,562.8566829999909,563.3571587000042,562.8566829999909,563.3571587000042,562.8566829999909,563.3571587000042,562.8566829999909,563.3571587000042,562.8566829999909,563.3571587000042,562.2232024000259,None,563.3571587000042,565.1765920000616,0.6600000000000004,565.1941975000082,None,565.9446638000663,None,,,,,,,[1.80804878],3.3800000000000026,0.7317073170731707,11021,002,2024_Jan_05_1526,MFTM_A_new1021,2021.2.3,60.48062742030141,
,,,,,,,,stim/Instruction_adaptive.png,conditions/adaptive.xlsx,test,0.6,0.6,0.6,-0.6,-0.6,right,R,,,,,0,1,1,1,0,41,41,16,,,,,,,,,,,,,,,,,,,,,,,,,,,,,,,,,,,,,,,,,,,,566.4452909999527,None,left,0,1.1131273999344558,566.946000099997,568.0818389999913,566.946000099997,567.5807773000561,566.946000099997,567.5807773000561,566.946000099997,567.5807773000561,566.946000099997,567.5807773000561,566.946000099997,567.5807773000561,567.5635756000411,568.0643009999767,567.5635756000411,568.0643009999767,567.5635756000411,568.0643009999767,567.5635756000411,568.0643009999767,567.5635756000411,568.0643009999767,567.5635756000411,568.0643009999767,567.5635756000411,568.0643009999767,567.5635756000411,568.0643009999767,566.946000099997,None,568.0643009999767,569.8838118000422,0.6300000000000003,569.9003281999612,None,570.6516349000158,None,,,,,,,[1.80952381],3.2200000000000024,0.7142857142857143,11021,002,2024_Jan_05_1526,MFTM_A_new1021,2021.2.3,60.48062742030141,
,,,,,,,,stim/Instruction_adaptive.png,conditions/adaptive.xlsx,test,0.6,0.6,0.6,-0.6,-0.6,right,R,,,,,0,1,1,1,0,42,42,70,,,,,,,,,,,,,,,,,,,,,,,,,,,,,,,,,,,,,,,,,,,,571.1526217999635,None,right,1,1.4470796000678092,571.652876600041,572.8714543000096,571.652876600041,572.3713725999696,571.652876600041,572.3713725999696,571.652876600041,572.3713725999696,571.652876600041,572.3713725999696,571.652876600041,572.3713725999696,572.3383833999978,572.8381634999532,572.3383833999978,572.8381634999532,572.3383833999978,572.8381634999532,572.3383833999978,572.8381634999532,572.3383833999978,572.8381634999532,572.3383833999978,572.8381634999532,572.3383833999978,572.8381634999532,572.3383833999978,572.8381634999532,571.652876600041,None,572.8381634999532,574.6409388000611,0.7100000000000004,574.6578537999885,None,575.4094047000399,None,,,,,,,[[1.79]],3.2700000000000022,0.7209302325581395,11021,002,2024_Jan_05_1526,MFTM_A_new1021,2021.2.3,60.48062742030141,
,,,,,,,,stim/Instruction_adaptive.png,conditions/adaptive.xlsx,test,-0.6,-0.6,-0.6,0.6,0.6,left,L,,,,,0,1,1,1,0,43,43,91,,,,,,,,,,,,,,,,,,,,,,,,,,,,,,,,,,,,,,,,,,,,575.9094016000163,None,right,0,2.6091604999965057,576.4099911999656,577.5959088000236,576.4099911999656,577.0950682000257,576.4099911999656,577.0950682000257,576.4099911999656,577.0950682000257,576.4099911999656,577.0950682000257,576.4099911999656,577.0950682000257,577.0777475000359,577.5791446999647,577.0777475000359,577.5791446999647,577.0777475000359,577.5791446999647,577.0777475000359,577.5791446999647,577.0777475000359,577.5791446999647,577.0777475000359,577.5791446999647,577.0777475000359,577.5791446999647,577.0777475000359,577.5791446999647,576.4099911999656,None,577.5791446999647,579.3983473000117,0.6800000000000004,579.4139752000337,None,580.1663688999834,None,,,,,,,[1.80931818],3.110000000000002,0.7045454545454546,11021,002,2024_Jan_05_1526,MFTM_A_new1021,2021.2.3,60.48062742030141,
,,,,,,,,stim/Instruction_adaptive.png,conditions/adaptive.xlsx,test,-0.6,-0.6,-0.6,0.6,0.6,left,L,,,,,0,1,1,1,0,44,44,77,,,,,,,,,,,,,,,,,,,,,,,,,,,,,,,,,,,,,,,,,,,,580.6663449000334,None,left,1,1.1956363000208512,581.1674480000511,582.435510499985,581.1674480000511,581.9349705000641,581.1674480000511,581.9349705000641,581.1674480000511,581.9349705000641,581.1674480000511,581.9349705000641,581.1674480000511,581.9349705000641,581.9182467999635,582.4188918999862,581.9182467999635,582.4188918999862,581.9182467999635,582.4188918999862,581.9182467999635,582.4188918999862,581.9182467999635,582.4188918999862,581.9182467999635,582.4188918999862,581.9182467999635,582.4188918999862,581.9182467999635,582.4188918999862,581.1674480000511,None,582.4188918999862,None,0.7600000000000005,584.171431499999,None,584.9229841000633,None,,,,,,,[[1.74]],3.1700000000000026,0.7111111111111111,11021,002,2024_Jan_05_1526,MFTM_A_new1021,2021.2.3,60.48062742030141,
,,,,,,,,stim/Instruction_adaptive.png,conditions/adaptive.xlsx,test,0.6,0.6,0.6,-0.6,-0.6,right,R,,,,,0,1,1,1,0,45,45,24,,,,,,,,,,,,,,,,,,,,,,,,,,,,,,,,,,,,,,,,,,,,585.4248152000364,None,right,1,1.6230932000325993,585.923970600008,587.159393100068,585.923970600008,586.6585594000062,585.923970600008,586.6585594000062,585.923970600008,586.6585594000062,585.923970600008,586.6585594000062,585.923970600008,586.6585594000062,586.642612399999,587.1425879000453,586.642612399999,587.1425879000453,586.642612399999,587.1425879000453,586.642612399999,587.1425879000453,586.642612399999,587.1425879000453,586.642612399999,587.1425879000453,586.642612399999,587.1425879000453,586.642612399999,587.1425879000453,585.923970600008,None,587.1425879000453,588.9122794000432,0.7300000000000004,588.9285305000376,None,589.6805729999905,None,,,,,,,[[1.77]],3.2200000000000024,0.717391304347826,11021,002,2024_Jan_05_1526,MFTM_A_new1021,2021.2.3,60.48062742030141,
,,,,,,,,stim/Instruction_adaptive.png,conditions/adaptive.xlsx,test,0.6,0.6,0.6,-0.6,-0.6,right,R,,,,,0,1,1,1,0,46,46,0,,,,,,,,,,,,,,,,,,,,,,,,,,,,,,,,,,,,,,,,,,,,590.1804777999641,None,right,1,1.0338457999750972,590.681118400069,591.8996326000197,590.681118400069,591.3996416999726,590.681118400069,591.3996416999726,590.681118400069,591.3996416999726,590.681118400069,591.3996416999726,590.681118400069,591.3996416999726,591.3665252999635,591.8665469000116,591.3665252999635,591.8665469000116,591.3665252999635,591.8665469000116,591.3665252999635,591.8665469000116,591.3665252999635,591.8665469000116,591.3665252999635,591.8665469000116,591.3665252999635,591.8665469000116,591.3665252999635,591.8665469000116,590.681118400069,None,591.8665469000116,593.6689558000071,0.7100000000000004,593.6856998000294,None,594.4367149999598,None,,,,,,,[[1.79]],3.2700000000000022,0.723404255319149,11021,002,2024_Jan_05_1526,MFTM_A_new1021,2021.2.3,60.48062742030141,
,,,,,,,,stim/Instruction_adaptive.png,conditions/adaptive.xlsx,test,0.6,0.6,0.6,-0.6,-0.6,right,R,,,,,0,1,1,1,0,47,47,68,,,,,,,,,,,,,,,,,,,,,,,,,,,,,,,,,,,,,,,,,,,,594.9385523999808,None,right,1,1.012763100094162,595.438306099968,596.623177499976,595.438306099968,596.122665700037,595.438306099968,596.122665700037,595.438306099968,596.122665700037,595.438306099968,596.122665700037,595.438306099968,596.122665700037,596.1062171000522,596.6064343999606,596.1062171000522,596.6064343999606,596.1062171000522,596.6064343999606,596.1062171000522,596.6064343999606,596.1062171000522,596.6064343999606,596.1062171000522,596.6064343999606,596.1062171000522,596.6064343999606,596.1062171000522,596.6064343999606,595.438306099968,None,596.6064343999606,None,0.6800000000000004,598.4259971999563,None,599.1770098999841,None,,,,,,,[1.806875],3.3200000000000025,0.7291666666666666,11021,002,2024_Jan_05_1526,MFTM_A_new1021,2021.2.3,60.48062742030141,
,,,,,,,,stim/Instruction_adaptive.png,conditions/adaptive.xlsx,test,0.6,0.6,0.6,-0.6,-0.6,right,R,,,,,0,1,1,1,0,48,48,12,,,,,,,,,,,,,,,,,,,,,,,,,,,,,,,,,,,,,,,,,,,,599.6775647000177,None,right,1,1.664305999991484,600.1788500000257,601.3472544000251,600.1788500000257,600.84627920005,600.1788500000257,600.84627920005,600.1788500000257,600.84627920005,600.1788500000257,600.84627920005,600.1788500000257,600.84627920005,600.8295343000209,601.3300365000032,600.8295343000209,601.3300365000032,600.8295343000209,601.3300365000032,600.8295343000209,601.3300365000032,600.8295343000209,601.3300365000032,600.8295343000209,601.3300365000032,600.8295343000209,601.3300365000032,600.8295343000209,601.3300365000032,600.1788500000257,None,601.3139351999853,603.1329839000246,0.6600000000000004,603.1496974000474,None,603.9011384999612,None,,,,,,,[1.80755102],3.3700000000000028,0.7346938775510204,11021,002,2024_Jan_05_1526,MFTM_A_new1021,2021.2.3,60.48062742030141,
,,,,,,,,stim/Instruction_adaptive.png,conditions/adaptive.xlsx,test,-0.6,-0.6,-0.6,0.6,0.6,left,L,,,,,0,1,1,1,0,49,49,55,,,,,,,,,,,,,,,,,,,,,,,,,,,,,,,,,,,,,,,,,,,,604.401601199992,None,left,1,1.2130517000332475,604.902434800053,606.0547383000376,604.902434800053,605.5536596999737,604.902434800053,605.5536596999737,604.902434800053,605.5536596999737,604.902434800053,605.5536596999737,604.902434800053,605.5536596999737,605.5205905999755,606.0206864000065,605.5205905999755,606.0206864000065,605.5205905999755,606.0206864000065,605.5205905999755,606.0206864000065,605.5205905999755,606.0206864000065,605.5205905999755,606.0206864000065,605.5205905999755,606.0206864000065,605.5205905999755,606.0206864000065,604.902434800053,None,606.0206864000065,607.840636500041,0.6400000000000003,607.8566992999986,None,608.608154400019,None,,,,,,,[1.8086],3.410000000000003,0.74,11021,002,2024_Jan_05_1526,MFTM_A_new1021,2021.2.3,60.48062742030141,
,,,,,,,,stim/Instruction_adaptive.png,conditions/adaptive.xlsx,test,-0.6,-0.6,-0.6,0.6,0.6,left,L,,,,,0,1,1,1,0,50,50,41,,,,,,,,,,,,,,,,,,,,,,,,,,,,,,,,,,,,,,,,,,,,609.108943899977,None,left,1,1.7606837999774143,609.6104427999817,610.7443280000007,609.6104427999817,610.2435429999605,609.6104427999817,610.2435429999605,609.6104427999817,610.2435429999605,609.6104427999817,610.2435429999605,609.6104427999817,610.2435429999605,610.2106999000534,610.710961899953,610.2106999000534,610.710961899953,610.2106999000534,610.710961899953,610.2106999000534,610.710961899953,610.2106999000534,610.710961899953,610.2106999000534,610.710961899953,610.2106999000534,610.710961899953,610.2106999000534,610.710961899953,609.6104427999817,None,610.710961899953,612.5309084999608,0.6200000000000003,612.5471908999607,None,613.2981480000308,None,,,,,,,[1.81],3.450000000000003,0.7450980392156863,11021,002,2024_Jan_05_1526,MFTM_A_new1021,2021.2.3,60.48062742030141,
,,,,,,,,stim/Instruction_adaptive.png,conditions/adaptive.xlsx,test,-0.6,-0.6,-0.6,0.6,0.6,left,L,,,,,0,1,1,1,0,51,51,19,,,,,,,,,,,,,,,,,,,,,,,,,,,,,,,,,,,,,,,,,,,,613.7995533000212,None,right,0,1.3359557999065146,614.299601900042,615.4017058999743,614.299601900042,614.9008644999703,614.299601900042,614.9008644999703,614.299601900042,614.9008644999703,614.299601900042,614.9008644999703,614.299601900042,614.9008644999703,614.8836943999631,615.3850808000425,614.8836943999631,615.3850808000425,614.8836943999631,615.3850808000425,614.8836943999631,615.3850808000425,614.8836943999631,615.3850808000425,614.8836943999631,615.3850808000425,614.8836943999631,615.3850808000425,614.8836943999631,615.3850808000425,614.299601900042,None,615.3850808000425,617.2041294999653,0.6000000000000003,617.2205840999959,None,617.9716837999877,None,,,,,,,[1.81173077],3.3300000000000027,0.7307692307692307,11021,002,2024_Jan_05_1526,MFTM_A_new1021,2021.2.3,60.48062742030141,
,,,,,,,,stim/Instruction_adaptive.png,conditions/adaptive.xlsx,test,-0.6,-0.6,-0.6,0.6,0.6,left,L,,,,,0,1,1,1,0,52,52,45,,,,,,,,,,,,,,,,,,,,,,,,,,,,,,,,,,,,,,,,,,,,618.4723832999589,None,left,1,1.0383764998987317,618.9731017999584,620.1248106999556,618.9731017999584,619.624158599996,618.9731017999584,619.624158599996,618.9731017999584,619.624158599996,618.9731017999584,619.624158599996,618.9731017999584,619.624158599996,619.6074720000615,620.1081244000234,619.6074720000615,620.1081244000234,619.6074720000615,620.1081244000234,619.6074720000615,620.1081244000234,619.6074720000615,620.1081244000234,619.6074720000615,620.1081244000234,619.6074720000615,620.1081244000234,619.6074720000615,620.1081244000234,618.9731017999584,None,620.1081244000234,621.9276890000328,0.6500000000000004,621.9440914000152,None,622.695285600028,None,,,,,,,[1.81245283],3.3800000000000026,0.7358490566037735,11021,002,2024_Jan_05_1526,MFTM_A_new1021,2021.2.3,60.48062742030141,
,,,,,,,,stim/Instruction_adaptive.png,conditions/adaptive.xlsx,test,-0.6,-0.6,-0.6,0.6,0.6,left,L,,,,,0,1,1,1,0,53,53,1,,,,,,,,,,,,,,,,,,,,,,,,,,,,,,,,,,,,,,,,,,,,623.1961020999588,None,right,0,1.905674900044687,623.6977196000516,624.8319881999632,623.6977196000516,624.331688700011,623.6977196000516,624.331688700011,623.6977196000516,624.331688700011,623.6977196000516,624.331688700011,623.6977196000516,624.331688700011,624.3144658000674,624.8159516999731,624.3144658000674,624.8159516999731,624.3144658000674,624.8159516999731,624.3144658000674,624.8159516999731,624.3144658000674,624.8159516999731,624.3144658000674,624.8159516999731,624.3144658000674,624.8159516999731,624.3144658000674,624.8159516999731,623.6977196000516,None,624.8159516999731,626.6352247999748,0.6300000000000003,626.6505601999816,None,627.4030874000164,None,,,,,,,[1.81351852],3.2500000000000027,0.7222222222222222,11021,002,2024_Jan_05_1526,MFTM_A_new1021,2021.2.3,60.48062742030141,
,,,,,,,,stim/Instruction_adaptive.png,conditions/adaptive.xlsx,test,0.6,0.6,0.6,-0.6,-0.6,right,R,,,,,0,1,1,1,0,54,54,34,,,,,,,,,,,,,,,,,,,,,,,,,,,,,,,,,,,,,,,,,,,,627.9032348999754,None,left,0,1.9510386000620201,628.4043811999727,629.6055744000478,628.4043811999727,629.1049138000235,628.4043811999727,629.1049138000235,628.4043811999727,629.1049138000235,628.4043811999727,629.1049138000235,628.4043811999727,629.1049138000235,629.0719014999922,629.5729239999782,629.0719014999922,629.5729239999782,629.0719014999922,629.5729239999782,629.0719014999922,629.5729239999782,629.0719014999922,629.5729239999782,629.0719014999922,629.5729239999782,629.0719014999922,629.5729239999782,629.0719014999922,629.5729239999782,628.4043811999727,None,629.5729239999782,631.3915196000598,0.6900000000000004,631.4086785999825,None,632.159466400044,None,,,,,,,[[1.81]],3.1300000000000026,0.7090909090909091,11021,002,2024_Jan_05_1526,MFTM_A_new1021,2021.2.3,60.48062742030141,
,,,,,,,,stim/Instruction_adaptive.png,conditions/adaptive.xlsx,test,0.6,0.6,0.6,-0.6,-0.6,right,R,,,,,0,1,1,1,0,55,55,8,,,,,,,,,,,,,,,,,,,,,,,,,,,,,,,,,,,,,,,,,,,,632.6616410999559,None,right,1,1.0582738999510184,633.1610857000342,634.4125770999817,633.1610857000342,633.9119765000651,633.1610857000342,633.9119765000651,633.1610857000342,633.9119765000651,633.1610857000342,633.9119765000651,633.1610857000342,633.9119765000651,633.89509060001,634.3966693000402,633.89509060001,634.3966693000402,633.89509060001,634.3966693000402,633.89509060001,634.3966693000402,633.89509060001,634.3966693000402,633.89509060001,634.3966693000402,633.89509060001,634.3966693000402,633.89509060001,634.3966693000402,633.1610857000342,None,634.3966693000402,636.1493071999867,0.7500000000000004,636.1651312999893,None,636.9166647000238,None,,,,,,,[[1.75]],3.1700000000000026,0.7142857142857143,11021,002,2024_Jan_05_1526,MFTM_A_new1021,2021.2.3,60.48062742030141,
,,,,,,,,stim/Instruction_adaptive.png,conditions/adaptive.xlsx,test,0.6,0.6,0.6,-0.6,-0.6,right,R,,,,,0,1,1,1,0,56,56,30,,,,,,,,,,,,,,,,,,,,,,,,,,,,,,,,,,,,,,,,,,,,637.4172367999563,None,right,1,1.149210499948822,637.9179228000576,639.154113000026,637.9179228000576,638.6530223999871,637.9179228000576,638.6530223999871,637.9179228000576,638.6530223999871,637.9179228000576,638.6530223999871,637.9179228000576,638.6530223999871,638.635638799984,639.137309200014,638.635638799984,639.137309200014,638.635638799984,639.137309200014,638.635638799984,639.137309200014,638.635638799984,639.137309200014,638.635638799984,639.137309200014,638.635638799984,639.137309200014,638.635638799984,639.137309200014,637.9179228000576,None,639.137309200014,None,0.7300000000000004,640.9222486000508,None,641.6734646999976,None,,,,,,,[[1.77]],3.2100000000000026,0.7192982456140351,11021,002,2024_Jan_05_1526,MFTM_A_new1021,2021.2.3,60.48062742030141,
,,,,,,,,stim/Instruction_adaptive.png,conditions/adaptive.xlsx,test,0.6,0.6,0.6,-0.6,-0.6,right,R,,,,,0,1,1,1,0,57,57,26,,,,,,,,,,,,,,,,,,,,,,,,,,,,,,,,,,,,,,,,,,,,642.1741608000593,None,right,1,0.7848279000027105,642.674816600047,643.8946441999869,642.674816600047,643.3932339999592,642.674816600047,643.3932339999592,642.674816600047,643.3932339999592,642.674816600047,643.3932339999592,642.674816600047,643.3932339999592,643.3762524999911,643.8773493999615,643.3762524999911,643.8773493999615,643.3762524999911,643.8773493999615,643.3762524999911,643.8773493999615,643.3762524999911,643.8773493999615,643.3762524999911,643.8773493999615,643.3762524999911,643.8773493999615,643.3762524999911,643.8773493999615,642.674816600047,None,643.8598958000075,645.6626951000653,0.7100000000000004,645.6794481000397,None,646.430777200032,None,,,,,,,[[1.79]],3.2500000000000027,0.7241379310344828,11021,002,2024_Jan_05_1526,MFTM_A_new1021,2021.2.3,60.48062742030141,
,,,,,,,,stim/Instruction_adaptive.png,conditions/adaptive.xlsx,test,-0.6,-0.6,-0.6,0.6,0.6,left,L,,,,,0,1,1,1,0,58,58,69,,,,,,,,,,,,,,,,,,,,,,,,,,,,,,,,,,,,,,,,,,,,646.9317341999849,None,left,1,1.4272684999741614,647.4319017999806,648.6341085999738,647.4319017999806,648.1328487000428,647.4319017999806,648.1328487000428,647.4319017999806,648.1328487000428,647.4319017999806,648.1328487000428,647.4319017999806,648.1328487000428,648.0995214000577,648.6004134999821,648.0995214000577,648.6004134999821,648.0995214000577,648.6004134999821,648.0995214000577,648.6004134999821,648.0995214000577,648.6004134999821,648.0995214000577,648.6004134999821,648.0995214000577,648.6004134999821,648.0995214000577,648.6004134999821,647.4319017999806,None,648.6004134999821,650.4214759999886,0.6900000000000004,650.4364061000524,None,651.1878351999912,None,,,,,,,[[1.81]],3.2900000000000027,0.7288135593220338,11021,002,2024_Jan_05_1526,MFTM_A_new1021,2021.2.3,60.48062742030141,
,,,,,,,,stim/Instruction_adaptive.png,conditions/adaptive.xlsx,test,-0.6,-0.6,-0.6,0.6,0.6,left,L,,,,,0,1,1,1,0,59,59,71,,,,,,,,,,,,,,,,,,,,,,,,,,,,,,,,,,,,,,,,,,,,651.6888929000124,None,left,1,1.006572199985385,652.1889026999706,653.3741643000394,652.1889026999706,652.8743133000098,652.1889026999706,652.8743133000098,652.1889026999706,652.8743133000098,652.1889026999706,652.8743133000098,652.1889026999706,652.8743133000098,652.8400357000064,653.340701200068,652.8400357000064,653.340701200068,652.8400357000064,653.340701200068,652.8400357000064,653.340701200068,652.8400357000064,653.340701200068,652.8400357000064,653.340701200068,652.8400357000064,653.340701200068,652.8400357000064,653.340701200068,652.1889026999706,None,653.340701200068,655.1601069000317,0.6700000000000004,655.1772417000029,None,655.9279096999671,None,,,,,,,[1.8115],3.3300000000000027,0.7333333333333333,11021,002,2024_Jan_05_1526,MFTM_A_new1021,2021.2.3,60.48062742030141,
,,,,,,,,stim/Instruction_adaptive.png,conditions/adaptive.xlsx,test,0.6,0.6,0.6,-0.6,-0.6,right,R,,,,,0,1,1,1,0,60,60,20,,,,,,,,,,,,,,,,,,,,,,,,,,,,,,,,,,,,,,,,,,,,656.4286481000017,None,right,1,1.2098679000046104,656.929272599984,658.0811724000378,656.929272599984,657.5803230999736,656.929272599984,657.5803230999736,656.929272599984,657.5803230999736,656.929272599984,657.5803230999736,656.929272599984,657.5803230999736,657.5637054999825,658.0642474000342,657.5637054999825,658.0642474000342,657.5637054999825,658.0642474000342,657.5637054999825,658.0642474000342,657.5637054999825,658.0642474000342,657.5637054999825,658.0642474000342,657.5637054999825,658.0642474000342,657.5637054999825,658.0642474000342,656.929272599984,None,658.0642474000342,659.8838338999776,0.6500000000000004,659.9006064999849,None,660.6523966999957,None,,,,,,,[1.81213115],3.3700000000000028,0.7377049180327869,11021,002,2024_Jan_05_1526,MFTM_A_new1021,2021.2.3,60.48062742030141,
,,,,,,,,stim/Instruction_adaptive.png,conditions/adaptive.xlsx,test,0.6,0.6,0.6,-0.6,-0.6,right,R,,,,,0,1,1,1,0,61,61,72,,,,,,,,,,,,,,,,,,,,,,,,,,,,,,,,,,,,,,,,,,,,661.1534508999903,None,right,1,1.0625819000415504,661.6528858999955,662.804668399971,661.6528858999955,662.3040120999794,661.6528858999955,662.3040120999794,661.6528858999955,662.3040120999794,661.6528858999955,662.3040120999794,661.6528858999955,662.3040120999794,662.270445000031,662.7711393999634,662.270445000031,662.7711393999634,662.270445000031,662.7711393999634,662.270445000031,662.7711393999634,662.270445000031,662.7711393999634,662.270445000031,662.7711393999634,662.270445000031,662.7711393999634,662.270445000031,662.7711393999634,661.6528858999955,None,662.7711393999634,664.5914845999796,0.6400000000000003,664.6072779999813,None,665.3585083000362,None,,,,,,,[1.81290323],3.4000000000000026,0.7419354838709677,11021,002,2024_Jan_05_1526,MFTM_A_new1021,2021.2.3,60.48062742030141,
,,,,,,,,stim/Instruction_adaptive.png,conditions/adaptive.xlsx,test,0.6,0.6,0.6,-0.6,-0.6,right,R,,,,,0,1,1,1,0,62,62,52,,,,,,,,,,,,,,,,,,,,,,,,,,,,,,,,,,,,,,,,,,,,665.8593072000658,None,right,1,1.1311331000179052,666.3599340000656,667.4949544999981,666.3599340000656,666.9947997999843,666.3599340000656,666.9947997999843,666.3599340000656,666.9947997999843,666.3599340000656,666.9947997999843,666.3599340000656,666.9947997999843,666.9616998999845,667.4618220999837,666.9616998999845,667.4618220999837,666.9616998999845,667.4618220999837,666.9616998999845,667.4618220999837,666.9616998999845,667.4618220999837,666.9616998999845,667.4618220999837,666.9616998999845,667.4618220999837,666.9616998999845,667.4618220999837,666.3599340000656,None,667.4618220999837,669.2809547999641,0.6200000000000003,669.2983688999666,None,670.0488937000046,None,,,,,,,[1.81396825],3.4400000000000026,0.746031746031746,11021,002,2024_Jan_05_1526,MFTM_A_new1021,2021.2.3,60.48062742030141,
,,,,,,,,stim/Instruction_adaptive.png,conditions/adaptive.xlsx,test,0.6,0.6,0.6,-0.6,-0.6,right,R,,,,,0,1,1,1,0,63,63,4,,,,,,,,,,,,,,,,,,,,,,,,,,,,,,,,,,,,,,,,,,,,670.5494269999908,None,left,0,1.1855606999015436,671.0502464000601,672.1694815000519,671.0502464000601,671.6683844999643,671.0502464000601,671.6683844999643,671.0502464000601,671.6683844999643,671.0502464000601,671.6683844999643,671.0502464000601,671.6683844999643,671.6357819000259,672.1352367000654,671.6357819000259,672.1352367000654,671.6357819000259,672.1352367000654,671.6357819000259,672.1352367000654,671.6357819000259,672.1352367000654,671.6357819000259,672.1352367000654,671.6357819000259,672.1352367000654,671.6357819000259,672.1352367000654,671.0502464000601,None,672.1352367000654,673.9557214999804,0.6100000000000003,673.9873612000374,None,674.739536200068,None,,,,,,,[1.81515625],3.3400000000000025,0.734375,11021,002,2024_Jan_05_1526,MFTM_A_new1021,2021.2.3,60.48062742030141,
,,,,,,,,stim/Instruction_adaptive.png,conditions/adaptive.xlsx,test,0.6,0.6,0.6,-0.6,-0.6,right,R,,,,,0,1,1,1,0,64,64,98,,,,,,,,,,,,,,,,,,,,,,,,,,,,,,,,,,,,,,,,,,,,675.2403491999721,None,right,1,0.6457908999873325,675.7412627000595,676.8920721999602,675.7412627000595,676.3913697999669,675.7412627000595,676.3913697999669,675.7412627000595,676.3913697999669,675.7412627000595,676.3913697999669,675.7412627000595,676.3913697999669,676.3746663000202,676.8756290000165,676.3746663000202,676.8756290000165,676.3746663000202,676.8756290000165,676.3746663000202,676.8756290000165,676.3746663000202,676.8756290000165,676.3746663000202,676.8756290000165,676.3746663000202,676.8756290000165,676.3746663000202,676.8756290000165,675.7412627000595,None,676.8756290000165,678.6949404999614,0.6500000000000004,678.7116274000145,None,679.4628962000133,None,,,,,,,[1.81569231],3.3700000000000028,0.7384615384615385,11021,002,2024_Jan_05_1526,MFTM_A_new1021,2021.2.3,60.48062742030141,
,,,,,,,,stim/Instruction_adaptive.png,conditions/adaptive.xlsx,test,0.6,0.6,0.6,-0.6,-0.6,right,R,,,,,0,1,1,1,0,65,65,92,,,,,,,,,,,,,,,,,,,,,,,,,,,,,,,,,,,,,,,,,,,,679.9635806999868,None,right,1,0.41901110007893294,680.4642309000483,681.6168072000146,680.4642309000483,681.1154701999621,680.4642309000483,681.1154701999621,680.4642309000483,681.1154701999621,680.4642309000483,681.1154701999621,680.4642309000483,681.1154701999621,681.0820060999831,681.5829891000176,681.0820060999831,681.5829891000176,681.0820060999831,681.5829891000176,681.0820060999831,681.5829891000176,681.0820060999831,681.5829891000176,681.0820060999831,681.5829891000176,681.0820060999831,681.5829891000176,681.0820060999831,681.5829891000176,680.4642309000483,None,681.5829891000176,683.401914200047,0.6400000000000003,683.4353839000687,None,684.1872732000193,None,,,,,,,[1.81636364],3.4000000000000026,0.7424242424242424,11021,002,2024_Jan_05_1526,MFTM_A_new1021,2021.2.3,60.48062742030141,
,,,,,,,,stim/Instruction_adaptive.png,conditions/adaptive.xlsx,test,-0.6,-0.6,-0.6,0.6,0.6,left,L,,,,,0,1,1,1,0,66,66,13,,,,,,,,,,,,,,,,,,,,,,,,,,,,,,,,,,,,,,,,,,,,684.6877781000221,None,right,0,0.44804030004888773,685.1879400999751,686.3230136999628,685.1879400999751,685.8222650999669,685.1879400999751,685.8222650999669,685.1879400999751,685.8222650999669,685.1879400999751,685.8222650999669,685.1879400999751,685.8222650999669,685.7891160000581,686.2897827000124,685.7891160000581,686.2897827000124,685.7891160000581,686.2897827000124,685.7891160000581,686.2897827000124,685.7891160000581,686.2897827000124,685.7891160000581,686.2897827000124,685.7891160000581,686.2897827000124,685.7891160000581,686.2897827000124,685.1879400999751,None,686.2897827000124,688.1098679000279,0.6200000000000003,688.1256540999748,None,688.8772421999602,None,,,,,,,[1.81731343],3.3100000000000023,0.7313432835820896,11021,002,2024_Jan_05_1526,MFTM_A_new1021,2021.2.3,60.48062742030141,
,,,,,,,,stim/Instruction_adaptive.png,conditions/adaptive.xlsx,test,-0.6,-0.6,-0.6,0.6,0.6,left,L,,,,,0,1,1,1,0,67,67,25,,,,,,,,,,,,,,,,,,,,,,,,,,,,,,,,,,,,,,,,,,,,689.3772981000366,None,right,0,1.1491149000357836,689.8788069000002,691.0469026999781,689.8788069000002,690.5461323000491,689.8788069000002,690.5461323000491,689.8788069000002,690.5461323000491,689.8788069000002,690.5461323000491,689.8788069000002,690.5461323000491,690.529254800058,691.029671199969,690.529254800058,691.029671199969,690.529254800058,691.029671199969,690.529254800058,691.029671199969,690.529254800058,691.029671199969,690.529254800058,691.029671199969,690.529254800058,691.029671199969,690.529254800058,691.029671199969,689.8788069000002,None,691.029671199969,692.8499895000132,0.6600000000000004,692.8657238000305,None,693.6172196000116,None,,,,,,,[1.81764706],3.2100000000000026,0.7205882352941176,11021,002,2024_Jan_05_1526,MFTM_A_new1021,2021.2.3,60.48062742030141,
,,,,,,,,stim/Instruction_adaptive.png,conditions/adaptive.xlsx,test,0.6,0.6,0.6,-0.6,-0.6,right,R,,,,,0,1,1,1,0,68,68,76,,,,,,,,,,,,,,,,,,,,,,,,,,,,,,,,,,,,,,,,,,,,694.1180472000269,None,right,1,1.152529300074093,694.6186199999647,695.8370614000596,694.6186199999647,695.3362004000228,694.6186199999647,695.3362004000228,694.6186199999647,695.3362004000228,694.6186199999647,695.3362004000228,694.6186199999647,695.3362004000228,695.3196174000623,695.8203290000092,695.3196174000623,695.8203290000092,695.3196174000623,695.8203290000092,695.3196174000623,695.8203290000092,695.3196174000623,695.8203290000092,695.3196174000623,695.8203290000092,695.3196174000623,695.8203290000092,695.3196174000623,695.8203290000092,694.6186199999647,None,695.8203290000092,None,0.7100000000000004,697.6236918000504,None,698.3759664000245,None,,,,,,,[[1.79]],3.2500000000000027,0.7246376811594203,11021,002,2024_Jan_05_1526,MFTM_A_new1021,2021.2.3,60.48062742030141,
,,,,,,,,stim/Instruction_adaptive.png,conditions/adaptive.xlsx,test,0.6,0.6,0.6,-0.6,-0.6,right,R,,,,,0,1,1,1,0,69,69,88,,,,,,,,,,,,,,,,,,,,,,,,,,,,,,,,,,,,,,,,,,,,698.8753160999622,None,left,0,1.2434976999647915,699.3755893000634,700.5778524000198,699.3755893000634,700.077306500054,699.3755893000634,700.077306500054,699.3755893000634,700.077306500054,699.3755893000634,700.077306500054,699.3755893000634,700.077306500054,700.0432024999755,700.5440631000092,700.0432024999755,700.5440631000092,700.0432024999755,700.5440631000092,700.0432024999755,700.5440631000092,700.0432024999755,700.5440631000092,700.0432024999755,700.5440631000092,700.0432024999755,700.5440631000092,700.0432024999755,700.5440631000092,699.3755893000634,None,700.5440631000092,702.3633595999563,0.6900000000000004,702.3801409000298,None,703.1311917999992,None,,,,,,,[[1.81]],3.150000000000002,0.7142857142857143,11021,002,2024_Jan_05_1526,MFTM_A_new1021,2021.2.3,60.48062742030141,
,,,,,,,,stim/Instruction_adaptive.png,conditions/adaptive.xlsx,test,0.6,0.6,0.6,-0.6,-0.6,right,R,,,,,0,1,1,1,0,70,70,40,,,,,,,,,,,,,,,,,,,,,,,,,,,,,,,,,,,,,,,,,,,,703.6320187000092,None,left,0,1.1986880000913516,704.1325581000419,705.385703500011,704.1325581000419,704.8837764000054,704.1325581000419,704.8837764000054,704.1325581000419,704.8837764000054,704.1325581000419,704.8837764000054,704.1325581000419,704.8837764000054,704.8506367000518,705.350973600056,704.8506367000518,705.350973600056,704.8506367000518,705.350973600056,704.8506367000518,705.350973600056,704.8506367000518,705.350973600056,704.8506367000518,705.350973600056,704.8506367000518,705.350973600056,704.8506367000518,705.350973600056,704.1325581000419,None,705.350973600056,707.1211272999644,0.7400000000000004,707.1370889999671,None,707.8880788000533,None,,,,,,,[[1.76]],3.0400000000000023,0.704225352112676,11021,002,2024_Jan_05_1526,MFTM_A_new1021,2021.2.3,60.48062742030141,
,,,,,,,,stim/Instruction_adaptive.png,conditions/adaptive.xlsx,test,0.6,0.6,0.6,-0.6,-0.6,right,R,,,,,0,1,1,1,0,71,71,46,,,,,,,,,,,,,,,,,,,,,,,,,,,,,,,,,,,,,,,,,,,,708.3897028999636,None,right,1,1.1293130000121891,708.8903584000655,710.191656799987,708.8903584000655,709.6911392000038,708.8903584000655,709.6911392000038,708.8903584000655,709.6911392000038,708.8903584000655,709.6911392000038,708.8903584000655,709.6911392000038,709.6745748999529,710.174811600009,709.6745748999529,710.174811600009,709.6745748999529,710.174811600009,709.6745748999529,710.174811600009,709.6745748999529,710.174811600009,709.6745748999529,710.174811600009,709.6745748999529,710.174811600009,709.6745748999529,710.174811600009,708.8903584000655,None,710.174811600009,711.8774670000421,0.8000000000000005,711.894209900056,None,712.6453414000571,None,,,,,,,[[1.7]],3.0800000000000023,0.7083333333333334,11021,002,2024_Jan_05_1526,MFTM_A_new1021,2021.2.3,60.48062742030141,
,,,,,,,,stim/Instruction_adaptive.png,conditions/adaptive.xlsx,test,-0.6,-0.6,-0.6,0.6,0.6,left,L,,,,,0,1,1,1,0,72,72,57,,,,,,,,,,,,,,,,,,,,,,,,,,,,,,,,,,,,,,,,,,,,713.1461041000439,None,left,1,1.6122906000819057,713.6470256999601,714.9319947999902,713.6470256999601,714.4319542000303,713.6470256999601,714.4319542000303,713.6470256999601,714.4319542000303,713.6470256999601,714.4319542000303,713.6470256999601,714.4319542000303,714.4144673000555,714.9154278000351,714.4144673000555,714.9154278000351,714.4144673000555,714.9154278000351,714.4144673000555,714.9154278000351,714.4144673000555,714.9154278000351,714.4144673000555,714.9154278000351,714.4144673000555,714.9154278000351,714.4144673000555,714.9154278000351,713.6470256999601,None,714.9154278000351,716.6354209999554,0.7800000000000005,716.6512247000355,None,717.4023512999993,None,,,,,,,[[1.72]],3.110000000000002,0.7123287671232876,11021,002,2024_Jan_05_1526,MFTM_A_new1021,2021.2.3,60.48062742030141,
,,,,,,,,stim/Instruction_adaptive.png,conditions/adaptive.xlsx,test,0.6,0.6,0.6,-0.6,-0.6,right,R,,,,,0,1,1,1,0,73,73,6,,,,,,,,,,,,,,,,,,,,,,,,,,,,,,,,,,,,,,,,,,,,717.9038307999726,None,right,1,1.511678900104016,718.4037243999774,719.6725033000112,718.4037243999774,719.1720393999713,718.4037243999774,719.1720393999713,718.4037243999774,719.1720393999713,718.4037243999774,719.1720393999713,718.4037243999774,719.1720393999713,719.1550783000421,719.6555165000027,719.1550783000421,719.6555165000027,719.1550783000421,719.6555165000027,719.1550783000421,719.6555165000027,719.1550783000421,719.6555165000027,719.1550783000421,719.6555165000027,719.1550783000421,719.6555165000027,719.1550783000421,719.6555165000027,718.4037243999774,None,719.6555165000027,None,0.7600000000000005,721.408713700017,None,722.1594138999935,None,,,,,,,[[1.74]],3.150000000000002,0.7162162162162162,11021,002,2024_Jan_05_1526,MFTM_A_new1021,2021.2.3,60.48062742030141,
,,,,,,,,stim/Instruction_adaptive.png,conditions/adaptive.xlsx,test,-0.6,-0.6,-0.6,0.6,0.6,left,L,,,,,0,1,1,1,0,74,74,51,,,,,,,,,,,,,,,,,,,,,,,,,,,,,,,,,,,,,,,,,,,,722.6600969999563,None,right,0,1.2264469999354333,723.160782800056,724.412500699982,723.160782800056,723.9124362999573,723.160782800056,723.9124362999573,723.160782800056,723.9124362999573,723.160782800056,723.9124362999573,723.160782800056,723.9124362999573,723.8795080999844,724.3794163999846,723.8795080999844,724.3794163999846,723.8795080999844,724.3794163999846,723.8795080999844,724.3794163999846,723.8795080999844,724.3794163999846,723.8795080999844,724.3794163999846,723.8795080999844,724.3794163999846,723.8795080999844,724.3794163999846,723.160782800056,None,724.3794163999846,726.1486433000537,0.7400000000000004,726.1655634000199,None,726.9172532999655,None,,,,,,,[[1.76]],3.0500000000000025,0.7066666666666667,11021,002,2024_Jan_05_1526,MFTM_A_new1021,2021.2.3,60.48062742030141,
,,,,,,,,stim/Instruction_adaptive.png,conditions/adaptive.xlsx,test,0.6,0.6,0.6,-0.6,-0.6,right,R,,,,,0,1,1,1,0,75,75,10,,,,,,,,,,,,,,,,,,,,,,,,,,,,,,,,,,,,,,,,,,,,727.417143000057,None,right,1,1.125446599908173,727.9180136000505,729.2199145000195,727.9180136000505,728.719928800012,727.9180136000505,728.719928800012,727.9180136000505,728.719928800012,727.9180136000505,728.719928800012,727.9180136000505,728.719928800012,728.6864573999774,729.1874238000019,728.6864573999774,729.1874238000019,728.6864573999774,729.1874238000019,728.6864573999774,729.1874238000019,728.6864573999774,729.1874238000019,728.6864573999774,729.1874238000019,728.6864573999774,729.1874238000019,728.6864573999774,729.1874238000019,727.9180136000505,None,729.1874238000019,730.9057786000194,0.7900000000000005,730.9222860999871,None,731.6743773999624,None,,,,,,,[[1.71]],3.0800000000000023,0.7105263157894737,11021,002,2024_Jan_05_1526,MFTM_A_new1021,2021.2.3,60.48062742030141,
,,,,,,,,stim/Instruction_adaptive.png,conditions/adaptive.xlsx,test,0.6,0.6,0.6,-0.6,-0.6,right,R,,,,,0,1,1,1,0,76,76,36,,,,,,,,,,,,,,,,,,,,,,,,,,,,,,,,,,,,,,,,,,,,732.1749469999922,None,right,1,0.9043419999070466,732.6748926000437,733.9602172999876,732.6748926000437,733.4592810999602,732.6748926000437,733.4592810999602,732.6748926000437,733.4592810999602,732.6748926000437,733.4592810999602,732.6748926000437,733.4592810999602,733.4428701000288,733.9434646000154,733.4428701000288,733.9434646000154,733.4428701000288,733.9434646000154,733.4428701000288,733.9434646000154,733.4428701000288,733.9434646000154,733.4428701000288,733.9434646000154,733.4428701000288,733.9434646000154,733.4428701000288,733.9434646000154,732.6748926000437,None,733.9434646000154,735.6626368999714,0.7800000000000005,735.6792953000404,None,736.4304550000234,None,,,,,,,[[1.72]],3.1200000000000023,0.7142857142857143,11021,002,2024_Jan_05_1526,MFTM_A_new1021,2021.2.3,60.48062742030141,
,,,,,,,,stim/Instruction_adaptive.png,conditions/adaptive.xlsx,test,-0.6,-0.6,-0.6,0.6,0.6,left,L,,,,,0,1,1,1,0,77,77,39,,,,,,,,,,,,,,,,,,,,,,,,,,,,,,,,,,,,,,,,,,,,736.9312515000347,None,left,1,1.2915591000346467,737.4319081000285,738.700504999957,737.4319081000285,738.1998919000616,737.4319081000285,738.1998919000616,737.4319081000285,738.1998919000616,737.4319081000285,738.1998919000616,737.4319081000285,738.1998919000616,738.1662643000018,738.6692412999691,738.1662643000018,738.6692412999691,738.1662643000018,738.6692412999691,738.1662643000018,738.6692412999691,738.1662643000018,738.6692412999691,738.1662643000018,738.6692412999691,738.1662643000018,738.6692412999691,738.1662643000018,738.6692412999691,737.4319081000285,None,738.6692412999691,740.4213047999656,0.7600000000000005,740.4369148999685,None,741.1885255000088,None,,,,,,,[[1.74]],3.150000000000002,0.717948717948718,11021,002,2024_Jan_05_1526,MFTM_A_new1021,2021.2.3,60.48062742030141,
,,,,,,,,stim/Instruction_adaptive.png,conditions/adaptive.xlsx,test,-0.6,-0.6,-0.6,0.6,0.6,left,L,,,,,0,1,1,1,0,78,78,47,,,,,,,,,,,,,,,,,,,,,,,,,,,,,,,,,,,,,,,,,,,,741.6883497000672,None,left,1,1.0544506000587717,742.1888260999694,743.4417021999834,742.1888260999694,742.9401471000165,742.1888260999694,742.9401471000165,742.1888260999694,742.9401471000165,742.1888260999694,742.9401471000165,742.1888260999694,742.9401471000165,742.9067434000317,743.4081204000395,742.9067434000317,743.4081204000395,742.9067434000317,743.4081204000395,742.9067434000317,743.4081204000395,742.9067434000317,743.4081204000395,742.9067434000317,743.4081204000395,742.9067434000317,743.4081204000395,742.9067434000317,743.4081204000395,742.1888260999694,None,743.4081204000395,745.177560799988,0.7400000000000004,745.1935807999689,None,745.9449546000687,None,,,,,,,[[1.76]],3.1800000000000024,0.7215189873417721,11021,002,2024_Jan_05_1526,MFTM_A_new1021,2021.2.3,60.48062742030141,
,,,,,,,,stim/Instruction_adaptive.png,conditions/adaptive.xlsx,test,-0.6,-0.6,-0.6,0.6,0.6,left,L,,,,,0,1,1,1,0,79,79,5,,,,,,,,,,,,,,,,,,,,,,,,,,,,,,,,,,,,,,,,,,,,746.4460640000179,None,right,0,1.353089899988845,746.9470228999853,748.1816070000641,746.9470228999853,747.6808159999782,746.9470228999853,747.6808159999782,746.9470228999853,747.6808159999782,746.9470228999853,747.6808159999782,746.9470228999853,747.6808159999782,747.6649298999691,748.165208099992,747.6649298999691,748.165208099992,747.6649298999691,748.165208099992,747.6649298999691,748.165208099992,747.6649298999691,748.165208099992,747.6649298999691,748.165208099992,747.6649298999691,748.165208099992,747.6649298999691,748.165208099992,746.9470228999853,None,748.165208099992,None,0.7300000000000004,749.9510007000063,None,750.7028439999558,None,,,,,,,[[1.77]],3.0900000000000025,0.7125,11021,002,2024_Jan_05_1526,MFTM_A_new1021,2021.2.3,60.48062742030141,
,,,,,,,,stim/Instruction_adaptive.png,conditions/adaptive.xlsx,test,0.6,0.6,0.6,-0.6,-0.6,right,R,,,,,0,1,1,1,0,80,80,96,,,,,,,,,,,,,,,,,,,,,,,,,,,,,,,,,,,,,,,,,,,,751.203470599954,None,left,0,0.9152924999361858,751.7039215000113,752.9891137999948,751.7039215000113,752.4875128000276,751.7039215000113,752.4875128000276,751.7039215000113,752.4875128000276,751.7039215000113,752.4875128000276,751.7039215000113,752.4875128000276,752.4541260000551,752.9550674000056,752.4541260000551,752.9550674000056,752.4541260000551,752.9550674000056,752.4541260000551,752.9550674000056,752.4541260000551,752.9550674000056,752.4541260000551,752.9550674000056,752.4541260000551,752.9550674000056,752.4541260000551,752.9550674000056,751.7039215000113,None,752.9550674000056,754.6908022999996,0.7700000000000005,754.7075350000523,None,755.4587573000463,None,,,,,,,[[1.73]],3.000000000000002,0.7037037037037037,11021,002,2024_Jan_05_1526,MFTM_A_new1021,2021.2.3,60.48062742030141,
,,,,,,,,stim/Instruction_adaptive.png,conditions/adaptive.xlsx,test,-0.6,-0.6,-0.6,0.6,0.6,left,L,,,,,0,1,1,1,0,81,81,23,,,,,,,,,,,,,,,,,,,,,,,,,,,,,,,,,,,,,,,,,,,,755.9595958000282,None,right,0,1.8630343999247998,756.4602731000632,757.7793365999823,756.4602731000632,757.2950562000042,756.4602731000632,757.2950562000042,756.4602731000632,757.2950562000042,756.4602731000632,757.2950562000042,756.4602731000632,757.2950562000042,757.2614092000294,757.7628046000609,757.2614092000294,757.7628046000609,757.2614092000294,757.7628046000609,757.2614092000294,757.7628046000609,757.2614092000294,757.7628046000609,757.2614092000294,757.7628046000609,757.2614092000294,757.7628046000609,757.2614092000294,757.7628046000609,756.4602731000632,None,757.7628046000609,759.4477138000075,0.8200000000000005,759.4645525000524,None,760.2181847000029,None,,,,,,,[[1.68]],2.900000000000002,0.6951219512195121,11021,002,2024_Jan_05_1526,MFTM_A_new1021,2021.2.3,60.48062742030141,
,,,,,,,,stim/Instruction_adaptive.png,conditions/adaptive.xlsx,test,-0.6,-0.6,-0.6,0.6,0.6,left,L,,,,,0,1,1,1,0,82,82,75,,,,,,,,,,,,,,,,,,,,,,,,,,,,,,,,,,,,,,,,,,,,760.7340865000151,None,left,1,1.5606468999758363,761.2345864999807,762.619522199966,761.2345864999807,762.1194820000092,761.2345864999807,762.1194820000092,761.2345864999807,762.1194820000092,761.2345864999807,762.1194820000092,761.2345864999807,762.1194820000092,762.1019517000532,762.6027988999849,762.1019517000532,762.6027988999849,762.1019517000532,762.6027988999849,762.1019517000532,762.6027988999849,762.1019517000532,762.6027988999849,762.1019517000532,762.6027988999849,762.1019517000532,762.6027988999849,762.1019517000532,762.6027988999849,761.2345864999807,None,762.6027988999849,764.2214764000382,0.8800000000000006,764.2381803999888,None,764.9903435000451,None,,,,,,,[[1.62]],2.9300000000000024,0.6987951807228916,11021,002,2024_Jan_05_1526,MFTM_A_new1021,2021.2.3,60.48062742030141,
,,,,,,,,stim/Instruction_adaptive.png,conditions/adaptive.xlsx,test,-0.6,-0.6,-0.6,0.6,0.6,left,L,,,,,0,1,1,1,0,83,83,61,,,,,,,,,,,,,,,,,,,,,,,,,,,,,,,,,,,,,,,,,,,,765.4910059999675,None,left,1,0.79568099998869,765.9915550999576,767.3597688999726,765.9915550999576,766.8592928999569,765.9915550999576,766.8592928999569,765.9915550999576,766.8592928999569,765.9915550999576,766.8592928999569,765.9915550999576,766.8592928999569,766.8428991000401,767.3434476000257,766.8428991000401,767.3434476000257,766.8428991000401,767.3434476000257,766.8428991000401,767.3434476000257,766.8428991000401,767.3434476000257,766.8428991000401,767.3434476000257,766.8428991000401,767.3434476000257,766.8428991000401,767.3434476000257,765.9915550999576,None,767.3272216999903,768.979874099954,0.8600000000000005,768.995372400037,None,769.7469798000529,None,,,,,,,[[1.64]],2.960000000000002,0.7023809523809523,11021,002,2024_Jan_05_1526,MFTM_A_new1021,2021.2.3,60.48062742030141,
,,,,,,,,stim/Instruction_adaptive.png,conditions/adaptive.xlsx,test,-0.6,-0.6,-0.6,0.6,0.6,left,L,,,,,0,1,1,1,0,84,84,35,,,,,,,,,,,,,,,,,,,,,,,,,,,,,,,,,,,,,,,,,,,,770.2486547000008,None,left,1,0.9674926000880077,770.7484800000675,772.100959100062,770.7484800000675,771.599673800054,770.7484800000675,771.599673800054,770.7484800000675,771.599673800054,770.7484800000675,771.599673800054,770.7484800000675,771.599673800054,771.582571899984,772.0833307000576,771.582571899984,772.0833307000576,771.582571899984,772.0833307000576,771.582571899984,772.0833307000576,771.582571899984,772.0833307000576,771.582571899984,772.0833307000576,771.582571899984,772.0833307000576,771.582571899984,772.0833307000576,770.7484800000675,None,772.0833307000576,773.7365677000489,0.8500000000000005,773.7522549000569,None,774.5035169000039,None,,,,,,,[[1.65]],3.000000000000002,0.7058823529411765,11021,002,2024_Jan_05_1526,MFTM_A_new1021,2021.2.3,60.48062742030141,
,,,,,,,,stim/Instruction_adaptive.png,conditions/adaptive.xlsx,test,-0.6,-0.6,-0.6,0.6,0.6,left,L,,,,,0,1,1,1,0,85,85,97,,,,,,,,,,,,,,,,,,,,,,,,,,,,,,,,,,,,,,,,,,,,775.0045986999758,None,left,1,0.7145376999396831,775.5050680000568,776.8407186999684,775.5050680000568,776.3404004999902,775.5050680000568,776.3404004999902,775.5050680000568,776.3404004999902,775.5050680000568,776.3404004999902,775.5050680000568,776.3404004999902,776.3067683000118,776.8071295999689,776.3067683000118,776.8071295999689,776.3067683000118,776.8071295999689,776.3067683000118,776.8071295999689,776.3067683000118,776.8071295999689,776.3067683000118,776.8071295999689,776.3067683000118,776.8071295999689,776.3067683000118,776.8071295999689,775.5050680000568,None,776.8071295999689,778.4928588999901,0.8200000000000005,778.509370499989,None,779.2616926999763,None,,,,,,,[[1.68]],3.030000000000002,0.7093023255813954,11021,002,2024_Jan_05_1526,MFTM_A_new1021,2021.2.3,60.48062742030141,
,,,,,,,,stim/Instruction_adaptive.png,conditions/adaptive.xlsx,test,0.6,0.6,0.6,-0.6,-0.6,right,R,,,,,0,1,1,1,0,86,86,82,,,,,,,,,,,,,,,,,,,,,,,,,,,,,,,,,,,,,,,,,,,,779.7620792000089,None,right,1,1.2210947999265045,780.2624006000115,781.5813701000297,780.2624006000115,781.0802190999966,780.2624006000115,781.0802190999966,780.2624006000115,781.0802190999966,780.2624006000115,781.0802190999966,780.2624006000115,781.0802190999966,781.046816600021,781.5474653999554,781.046816600021,781.5474653999554,781.046816600021,781.5474653999554,781.046816600021,781.5474653999554,781.046816600021,781.5474653999554,781.046816600021,781.5474653999554,781.046816600021,781.5474653999554,781.046816600021,781.5474653999554,780.2624006000115,None,781.5474653999554,783.2503975,0.8100000000000005,783.2672776000109,None,784.0176802000497,None,,,,,,,[[1.69]],3.0600000000000023,0.7126436781609196,11021,002,2024_Jan_05_1526,MFTM_A_new1021,2021.2.3,60.48062742030141,
,,,,,,,,stim/Instruction_adaptive.png,conditions/adaptive.xlsx,test,0.6,0.6,0.6,-0.6,-0.6,right,R,,,,,0,1,1,1,0,87,87,90,,,,,,,,,,,,,,,,,,,,,,,,,,,,,,,,,,,,,,,,,,,,784.5190448999638,None,right,1,1.7370223000179976,785.0191693999805,786.3212002000073,785.0191693999805,785.8205018000444,785.0191693999805,785.8205018000444,785.0191693999805,785.8205018000444,785.0191693999805,785.8205018000444,785.0191693999805,785.8205018000444,785.7876291000284,786.2877130999696,785.7876291000284,786.2877130999696,785.7876291000284,786.2877130999696,785.7876291000284,786.2877130999696,785.7876291000284,786.2877130999696,785.7876291000284,786.2877130999696,785.7876291000284,786.2877130999696,785.7876291000284,786.2877130999696,785.0191693999805,None,786.2877130999696,788.0074421999743,0.7900000000000005,788.0244361000368,None,788.7748888999922,None,,,,,,,[[1.71]],3.0800000000000023,0.7159090909090909,11021,002,2024_Jan_05_1526,MFTM_A_new1021,2021.2.3,60.48062742030141,
,,,,,,,,stim/Instruction_adaptive.png,conditions/adaptive.xlsx,test,0.6,0.6,0.6,-0.6,-0.6,right,R,,,,,0,1,1,1,0,88,88,94,,,,,,,,,,,,,,,,,,,,,,,,,,,,,,,,,,,,,,,,,,,,789.2759136999957,None,right,1,1.1873965999111533,789.7761791000376,791.0614751999965,789.7761791000376,790.5607067999663,789.7761791000376,790.5607067999663,789.7761791000376,790.5607067999663,789.7761791000376,790.5607067999663,789.7761791000376,790.5607067999663,790.5440515000373,791.045558599988,790.5440515000373,791.045558599988,790.5440515000373,791.045558599988,790.5440515000373,791.045558599988,790.5440515000373,791.045558599988,790.5440515000373,791.045558599988,790.5440515000373,791.045558599988,790.5440515000373,791.045558599988,789.7761791000376,None,791.045558599988,None,0.7800000000000005,792.7806425000308,None,793.5318602999905,None,,,,,,,[[1.72]],3.110000000000002,0.7191011235955056,11021,002,2024_Jan_05_1526,MFTM_A_new1021,2021.2.3,60.48062742030141,
,,,,,,,,stim/Instruction_adaptive.png,conditions/adaptive.xlsx,test,0.6,0.6,0.6,-0.6,-0.6,right,R,,,,,0,1,1,1,0,89,89,54,,,,,,,,,,,,,,,,,,,,,,,,,,,,,,,,,,,,,,,,,,,,794.0326281000162,None,right,1,0.7895363999996334,794.5338838000316,795.8022943000542,794.5338838000316,795.3012112999568,794.5338838000316,795.3012112999568,794.5338838000316,795.3012112999568,794.5338838000316,795.3012112999568,794.5338838000316,795.3012112999568,795.2850025000516,795.7850536999758,795.2850025000516,795.7850536999758,795.2850025000516,795.7850536999758,795.2850025000516,795.7850536999758,795.2850025000516,795.7850536999758,795.2850025000516,795.7850536999758,795.2850025000516,795.7850536999758,795.2850025000516,795.7850536999758,794.5338838000316,None,795.7850536999758,None,0.7600000000000005,797.5381969000446,None,798.2895346999867,None,,,,,,,[[1.74]],3.1400000000000023,0.7222222222222222,11021,002,2024_Jan_05_1526,MFTM_A_new1021,2021.2.3,60.48062742030141,
,,,,,,,,stim/Instruction_adaptive.png,conditions/adaptive.xlsx,test,0.6,0.6,0.6,-0.6,-0.6,right,R,,,,,0,1,1,1,0,90,90,60,,,,,,,,,,,,,,,,,,,,,,,,,,,,,,,,,,,,,,,,,,,,798.789891500026,None,right,1,1.0096150999888778,799.290311699966,800.5422467000317,799.290311699966,800.0420582999941,799.290311699966,800.0420582999941,799.290311699966,800.0420582999941,799.290311699966,800.0420582999941,799.290311699966,800.0420582999941,800.0261454000138,800.5259381000651,800.0261454000138,800.5259381000651,800.0261454000138,800.5259381000651,800.0261454000138,800.5259381000651,800.0261454000138,800.5259381000651,800.0261454000138,800.5259381000651,800.0261454000138,800.5259381000651,800.0261454000138,800.5259381000651,799.290311699966,None,800.5259381000651,802.2781501000281,0.7500000000000004,802.2957093999721,None,803.0459010000341,None,,,,,,,[[1.75]],3.1600000000000024,0.7252747252747253,11021,002,2024_Jan_05_1526,MFTM_A_new1021,2021.2.3,60.48062742030141,
,,,,,,,,stim/Instruction_adaptive.png,conditions/adaptive.xlsx,test,0.6,0.6,0.6,-0.6,-0.6,right,R,,,,,0,1,1,1,0,91,91,32,,,,,,,,,,,,,,,,,,,,,,,,,,,,,,,,,,,,,,,,,,,,803.5473967000144,None,left,0,1.6280859999824315,804.0472539999755,805.3001263999613,804.0472539999755,804.7987811999628,804.0472539999755,804.7987811999628,804.0472539999755,804.7987811999628,804.0472539999755,804.7987811999628,804.0472539999755,804.7987811999628,804.7660668999888,805.2664866000414,804.7660668999888,805.2664866000414,804.7660668999888,805.2664866000414,804.7660668999888,805.2664866000414,804.7660668999888,805.2664866000414,804.7660668999888,805.2664866000414,804.7660668999888,805.2664866000414,804.7660668999888,805.2664866000414,804.0472539999755,None,805.2664866000414,807.0355905999895,0.7400000000000004,807.0518520000624,None,807.8030074000126,None,,,,,,,[[1.76]],3.0900000000000025,0.717391304347826,11021,002,2024_Jan_05_1526,MFTM_A_new1021,2021.2.3,60.48062742030141,
,,,,,,,,stim/Instruction_adaptive.png,conditions/adaptive.xlsx,test,-0.6,-0.6,-0.6,0.6,0.6,left,L,,,,,0,1,1,1,0,92,92,59,,,,,,,,,,,,,,,,,,,,,,,,,,,,,,,,,,,,,,,,,,,,808.3042808000464,None,left,1,1.1031890999292955,808.8042860999703,810.0728592000669,808.8042860999703,809.5888569999952,808.8042860999703,809.5888569999952,808.8042860999703,809.5888569999952,808.8042860999703,809.5888569999952,808.8042860999703,809.5888569999952,809.5559895000188,810.0573106000666,809.5559895000188,810.0573106000666,809.5559895000188,810.0573106000666,809.5559895000188,810.0573106000666,809.5559895000188,810.0573106000666,809.5559895000188,810.0573106000666,809.5559895000188,810.0573106000666,809.5559895000188,810.0573106000666,808.8042860999703,None,810.0573106000666,811.7928718000185,0.7700000000000005,811.8088649000274,None,812.5600913000526,None,,,,,,,[[1.73]],3.110000000000002,0.7204301075268817,11021,002,2024_Jan_05_1526,MFTM_A_new1021,2021.2.3,60.48062742030141,
,,,,,,,,stim/Instruction_adaptive.png,conditions/adaptive.xlsx,test,0.6,0.6,0.6,-0.6,-0.6,right,R,,,,,0,1,1,1,0,93,93,80,,,,,,,,,,,,,,,,,,,,,,,,,,,,,,,,,,,,,,,,,,,,813.0607065999648,None,left,0,1.4017869000090286,813.5616612000158,814.829926699982,813.5616612000158,814.3304343000054,813.5616612000158,814.3304343000054,813.5616612000158,814.3304343000054,813.5616612000158,814.3304343000054,813.5616612000158,814.3304343000054,814.3135148000438,814.813666400034,814.3135148000438,814.813666400034,814.3135148000438,814.813666400034,814.3135148000438,814.813666400034,814.3135148000438,814.813666400034,814.3135148000438,814.813666400034,814.3135148000438,814.813666400034,814.3135148000438,814.813666400034,813.5616612000158,None,814.7973903999664,816.5493196999887,0.7600000000000005,816.5665733000496,None,817.3170885000145,None,,,,,,,[[1.74]],3.0400000000000023,0.7127659574468085,11021,002,2024_Jan_05_1526,MFTM_A_new1021,2021.2.3,60.48062742030141,
,,,,,,,,stim/Instruction_adaptive.png,conditions/adaptive.xlsx,test,-0.6,-0.6,-0.6,0.6,0.6,left,L,,,,,0,1,1,1,0,94,94,93,,,,,,,,,,,,,,,,,,,,,,,,,,,,,,,,,,,,,,,,,,,,817.8180512000108,None,left,1,1.205019099987112,818.3183705999982,819.6203336999752,818.3183705999982,819.119649100001,818.3183705999982,819.119649100001,818.3183705999982,819.119649100001,818.3183705999982,819.119649100001,818.3183705999982,819.119649100001,819.1030756999971,819.6037397000473,819.1030756999971,819.6037397000473,819.1030756999971,819.6037397000473,819.1030756999971,819.6037397000473,819.1030756999971,819.6037397000473,819.1030756999971,819.6037397000473,819.1030756999971,819.6037397000473,819.1030756999971,819.6037397000473,818.3183705999982,None,819.6037397000473,821.3064174000174,0.8000000000000005,821.3229583000066,None,822.0741899999557,None,,,,,,,[[1.7]],3.0600000000000023,0.7157894736842105,11021,002,2024_Jan_05_1526,MFTM_A_new1021,2021.2.3,60.48062742030141,
