arrwidth1,arrwidth2,arrwidth3,arrwidth4,arrwidth5,keyb,type,orientation,instruction_image,block_filename,block_type,arrow11,arrow22,arrow33,arrow44,arrow55,keyb_3,orientation3,trials.thisRepN,trials.thisTrialN,trials.thisN,trials.thisIndex,trials_3.thisRepN,trials_3.thisTrialN,trials_3.thisN,trials_3.thisIndex,trials_2.thisRepN,trials_2.thisTrialN,trials_2.thisN,trials_2.thisIndex,welcome.started,welcome.stopped,key_resp.keys,key_resp.rt,key_resp.started,key_resp.stopped,instruction_example.started,instruction_example.stopped,key_resp_3.keys,key_resp_3.rt,key_resp_3.started,key_resp_3.stopped,instruction_task.started,instruction_task.stopped,key_resp_2.keys,key_resp_2.rt,key_resp_2.started,key_resp_2.stopped,text_2.started,text_2.stopped,A1.started,A1.stopped,A2.started,A2.stopped,A3.started,A3.stopped,A4.started,A4.stopped,A5.started,A5.stopped,key_resp_4.keys,key_resp_4.corr,key_resp_4.rt,key_resp_4.started,key_resp_4.stopped,fb.started,fb.stopped,instruction_block.started,instruction_block.stopped,key_resp_8.keys,key_resp_8.rt,key_resp_8.started,key_resp_8.stopped,text_8.started,text_8.stopped,key_resp_9.keys,key_resp_9.corr,key_resp_9.rt,text_5.started,text_5.stopped,A11_3.started,A11_3.stopped,A22_2.started,A22_2.stopped,A33_2.started,A33_2.stopped,A44_2.started,A44_2.stopped,A55_2.started,A55_2.stopped,M1_3.started,M1_3.stopped,M2_2.started,M2_2.stopped,M3_2.started,M3_2.stopped,M4_2.started,M4_2.stopped,M5_2.started,M5_2.stopped,M6_2.started,M6_2.stopped,M7_2.started,M7_2.stopped,M8_2.started,M8_2.stopped,key_resp_9.started,key_resp_9.stopped,fixation.started,fixation.stopped,ET,fb_3.started,fb_3.stopped,text_9.started,text_9.stopped,fb_4.started,fb_4.stopped,text_7.started,text_7.stopped,endtext.started,endtext.stopped,fixation_ITI,CCC,Acc,participant,session,date,expName,psychopyVersion,frameRate,
,,,,,,,,,,,,,,,,,,,,,,,,,,,,,,12.093315599951893,None,space,9.783952600089833,12.093315599951893,None,,,,,,,,,,,,,,,,,,,,,,,,,,,,,,,,,,,,,,,,,,,,,,,,,,,,,,,,,,,,,,,,,,,,,,,,,,,,,,,,,,,,,,,,,11033,001,2024_Jan_11_1816,MFTM_A_new1021,2021.2.3,60.07763230611643,
,,,,,,,,,,,,,,,,,,,,,,,,,,,,,,,,,,,,21.891497100004926,None,space,7.633715400006622,21.891497100004926,None,,,,,,,,,,,,,,,,,,,,,,,,,,,,,,,,,,,,,,,,,,,,,,,,,,,,,,,,,,,,,,,,,,,,,,,,,,,,,,,,,,,11033,001,2024_Jan_11_1816,MFTM_A_new1021,2021.2.3,60.07763230611643,
,,,,,,,,,,,,,,,,,,,,,,,,,,,,,,,,,,,,,,,,,,29.553519299952313,None,space,5.051827899878845,29.553519299952313,None,,,,,,,,,,,,,,,,,,,,,,,,,,,,,,,,,,,,,,,,,,,,,,,,,,,,,,,,,,,,,,,,,,,,,,,,,,,,,11033,001,2024_Jan_11_1816,MFTM_A_new1021,2021.2.3,60.07763230611643,
-0.6,-0.6,-0.6,0.6,0.6,left,3:2,L,,,,,,,,,,,0,0,0,1,,,,,,,,,,,,,,,,,,,,,,,,,,,34.64444090006873,None,34.64444090006873,None,34.64444090006873,None,34.64444090006873,None,34.64444090006873,None,34.64444090006873,None,left,1,3.1852301000617445,34.64444090006873,None,37.847970500122756,None,,,,,,,,,,,,,,,,,,,,,,,,,,,,,,,,,,,,,,,,,,,,,,,,,,,,,,,,,,11033,001,2024_Jan_11_1816,MFTM_A_new1021,2021.2.3,60.07763230611643,
0.6,0.6,0.6,-0.6,-0.6,right,3:2,R,,,,,,,,,,,0,1,1,0,,,,,,,,,,,,,,,,,,,,,,,,,,,38.600242499960586,None,38.600242499960586,None,38.600242499960586,None,38.600242499960586,None,38.600242499960586,None,38.600242499960586,None,right,1,2.1252957999240607,38.600242499960586,None,40.75294840009883,None,,,,,,,,,,,,,,,,,,,,,,,,,,,,,,,,,,,,,,,,,,,,,,,,,,,,,,,,,,11033,001,2024_Jan_11_1816,MFTM_A_new1021,2021.2.3,60.07763230611643,
0.6,0.6,0.6,-0.6,-0.6,right,3:2,R,,,,,,,,,,,1,0,2,0,,,,,,,,,,,,,,,,,,,,,,,,,,,41.50382050010376,None,41.50382050010376,None,41.50382050010376,None,41.50382050010376,None,41.50382050010376,None,41.50382050010376,None,right,1,1.6701744000893086,41.50382050010376,None,43.18951499997638,None,,,,,,,,,,,,,,,,,,,,,,,,,,,,,,,,,,,,,,,,,,,,,,,,,,,,,,,,,,11033,001,2024_Jan_11_1816,MFTM_A_new1021,2021.2.3,60.07763230611643,
-0.6,-0.6,-0.6,0.6,0.6,left,3:2,L,,,,,,,,,,,1,1,3,1,,,,,,,,,,,,,,,,,,,,,,,,,,,43.94092600001022,None,43.94092600001022,None,43.94092600001022,None,43.94092600001022,None,43.94092600001022,None,43.94092600001022,None,left,1,1.5444506998173892,43.94092600001022,None,45.51013750000857,None,,,,,,,,,,,,,,,,,,,,,,,,,,,,,,,,,,,,,,,,,,,,,,,,,,,,,,,,,,11033,001,2024_Jan_11_1816,MFTM_A_new1021,2021.2.3,60.07763230611643,
,,,,,,,,stim/Instruction_mask.png,conditions/adaptive.xlsx,practice,0.6,0.6,0.6,-0.6,-0.6,right,R,,,,,0,0,0,0,0,0,0,96,,,,,,,,,,,,,,,,,,,,,,,,,,,,,,,,,,,,,,46.49372679996304,None,space,24.000440600095317,46.49372679996304,None,70.59734000009485,None,None,0,0,71.03099060012028,None,71.03099060012028,74.03606720012613,71.03099060012028,74.03606720012613,71.03099060012028,74.03606720012613,71.03099060012028,74.03606720012613,71.03099060012028,74.03606720012613,74.01879990007728,74.52017670008354,74.01879990007728,74.52017670008354,74.01879990007728,74.52017670008354,74.01879990007728,74.52017670008354,74.01879990007728,74.52017670008354,74.01879990007728,74.52017670008354,74.01879990007728,74.52017670008354,74.01879990007728,74.52017670008354,71.03099060012028,None,74.52017670008354,74.52017670008354,3,74.53541569993831,None,75.28810869995505,None,,,,,,,,,,11033,001,2024_Jan_11_1816,MFTM_A_new1021,2021.2.3,60.07763230611643,
,,,,,,,,stim/Instruction_mask.png,conditions/adaptive.xlsx,practice,-0.6,-0.6,-0.6,0.6,0.6,left,L,,,,,0,0,0,0,0,1,1,77,,,,,,,,,,,,,,,,,,,,,,,,,,,,,,,,,,,,,,,,,,,,75.7889909001533,None,left,1,1.8845858999993652,76.28874560003169,78.29177969996817,76.28874560003169,77.79163020011038,76.28874560003169,77.79163020011038,76.28874560003169,77.79163020011038,76.28874560003169,77.79163020011038,76.28874560003169,77.79163020011038,77.77432690002024,78.27508440008387,77.77432690002024,78.27508440008387,77.77432690002024,78.27508440008387,77.77432690002024,78.27508440008387,77.77432690002024,78.27508440008387,77.77432690002024,78.27508440008387,77.77432690002024,78.27508440008387,77.77432690002024,78.27508440008387,76.28874560003169,None,78.27508440008387,79.77736439998262,1.5,79.79448559996672,None,80.54521579993889,None,,,,,,,,,,11033,001,2024_Jan_11_1816,MFTM_A_new1021,2021.2.3,60.07763230611643,
,,,,,,,,stim/Instruction_mask.png,conditions/adaptive.xlsx,practice,0.6,0.6,0.6,-0.6,-0.6,right,R,,,,,0,0,0,0,0,2,2,42,,,,,,,,,,,,,,,,,,,,,,,,,,,,,,,,,,,,,,,,,,,,81.04654190014116,None,right,1,1.7225552999880165,81.54683140013367,82.84844560013153,81.54683140013367,82.34807029995136,81.54683140013367,82.34807029995136,81.54683140013367,82.34807029995136,81.54683140013367,82.34807029995136,81.54683140013367,82.34807029995136,82.33096570009366,82.8317524001468,82.33096570009366,82.8317524001468,82.33096570009366,82.8317524001468,82.33096570009366,82.8317524001468,82.33096570009366,82.8317524001468,82.33096570009366,82.8317524001468,82.33096570009366,82.8317524001468,82.33096570009366,82.8317524001468,81.54683140013367,None,82.8317524001468,85.0348114001099,0.8,85.0517665001098,None,85.80353730008937,None,,,,,,,,,,11033,001,2024_Jan_11_1816,MFTM_A_new1021,2021.2.3,60.07763230611643,
,,,,,,,,stim/Instruction_mask.png,conditions/adaptive.xlsx,practice,0.6,0.6,0.6,-0.6,-0.6,right,R,,,,,0,0,0,0,0,3,3,34,,,,,,,,,,,,,,,,,,,,,,,,,,,,,,,,,,,,,,,,,,,,86.30516370013356,None,left,0,1.552431199932471,86.805073000025,87.55714219994843,86.805073000025,87.05498949997127,86.805073000025,87.05498949997127,86.805073000025,87.05498949997127,86.805073000025,87.05498949997127,86.805073000025,87.05498949997127,87.039270499954,87.5387399001047,87.039270499954,87.5387399001047,87.039270499954,87.5387399001047,87.039270499954,87.5387399001047,87.039270499954,87.5387399001047,87.039270499954,87.5387399001047,87.039270499954,87.5387399001047,87.039270499954,87.5387399001047,86.805073000025,None,87.5387399001047,90.29362779995427,3,90.30941420001909,None,91.0607364999596,None,,,,,,,,,,11033,001,2024_Jan_11_1816,MFTM_A_new1021,2021.2.3,60.07763230611643,
,,,,,,,,stim/Instruction_mask.png,conditions/adaptive.xlsx,practice,,,,,,,,,,,,0,0,0,0,,,,,,,,,,,,,,,,,,,,,,,,,,,,,,,,,,,,,,,,,,,,,,,,,,,,,,,,,,,,,,,,,,,,,,,,,,,,,,,,,,,,,,,,,,91.57822560006753,92.58193530002609,92.56398480013013,92.56398480013013,92.56398480013013,None,,,,11033,001,2024_Jan_11_1816,MFTM_A_new1021,2021.2.3,60.07763230611643,
,,,,,,,,stim/Instruction_adaptive.png,conditions/adaptive.xlsx,test,0.6,0.6,0.6,-0.6,-0.6,right,R,,,,,0,1,1,1,0,0,0,58,,,,,,,,,,,,,,,,,,,,,,,,,,,,,,,,,,,,,,95.75008210004307,None,space,13.655457000015303,95.75008210004307,None,109.45451060007326,None,right,1,1.6658761999569833,109.95634589996189,None,109.95634589996189,112.96037880005315,109.95634589996189,112.96037880005315,109.95634589996189,112.96037880005315,109.95634589996189,112.96037880005315,109.95634589996189,112.96037880005315,112.94392550014891,113.44486639997922,112.94392550014891,113.44486639997922,112.94392550014891,113.44486639997922,112.94392550014891,113.44486639997922,112.94392550014891,113.44486639997922,112.94392550014891,113.44486639997922,112.94392550014891,113.44486639997922,112.94392550014891,113.44486639997922,109.95634589996189,None,113.44486639997922,113.44486639997922,3,113.46039100014605,None,114.21293710009195,None,,,,,,,0,6.000000000000005,1.0,11033,001,2024_Jan_11_1816,MFTM_A_new1021,2021.2.3,60.07763230611643,
,,,,,,,,stim/Instruction_adaptive.png,conditions/adaptive.xlsx,test,-0.6,-0.6,-0.6,0.6,0.6,left,L,,,,,0,1,1,1,0,1,1,15,,,,,,,,,,,,,,,,,,,,,,,,,,,,,,,,,,,,,,,,,,,,114.71313229994848,None,left,1,1.8404741999693215,115.2132200000342,115.96503670001402,115.2132200000342,115.46344850002788,115.2132200000342,115.46344850002788,115.2132200000342,115.46344850002788,115.2132200000342,115.46344850002788,115.2132200000342,115.46344850002788,115.44800100009888,115.94755659997463,115.44800100009888,115.94755659997463,115.44800100009888,115.94755659997463,115.44800100009888,115.94755659997463,115.44800100009888,115.94755659997463,115.44800100009888,115.94755659997463,115.44800100009888,115.94755659997463,115.44800100009888,115.94755659997463,115.2132200000342,None,115.94755659997463,117.08242000010796,0.25,117.09909899998456,None,117.85125890001655,None,,,,,,,[0.875],6.000000000000005,1.0,11033,001,2024_Jan_11_1816,MFTM_A_new1021,2021.2.3,60.07763230611643,
,,,,,,,,stim/Instruction_adaptive.png,conditions/adaptive.xlsx,test,-0.6,-0.6,-0.6,0.6,0.6,left,L,,,,,0,1,1,1,0,2,2,21,,,,,,,,,,,,,,,,,,,,,,,,,,,,,,,,,,,,,,,,,,,,118.35177990002558,None,right,0,1.2736748999450356,118.85196799994446,119.60403920011595,118.85196799994446,119.10314480005763,118.85196799994446,119.10314480005763,118.85196799994446,119.10314480005763,118.85196799994446,119.10314480005763,118.85196799994446,119.10314480005763,119.08616159996018,119.5869124000892,119.08616159996018,119.5869124000892,119.08616159996018,119.5869124000892,119.08616159996018,119.5869124000892,119.08616159996018,119.5869124000892,119.08616159996018,119.5869124000892,119.08616159996018,119.5869124000892,119.08616159996018,119.5869124000892,118.85196799994446,None,119.5869124000892,120.92230019997805,0.25,120.9381735001225,None,121.69019330013543,None,,,,,,,[1.33333333],3.1800000000000024,0.6666666666666666,11033,001,2024_Jan_11_1816,MFTM_A_new1021,2021.2.3,60.07763230611643,
,,,,,,,,stim/Instruction_adaptive.png,conditions/adaptive.xlsx,test,-0.6,-0.6,-0.6,0.6,0.6,left,L,,,,,0,1,1,1,0,3,3,77,,,,,,,,,,,,,,,,,,,,,,,,,,,,,,,,,,,,,,,,,,,,122.19062600005418,None,right,0,1.466315699974075,122.69161899993196,123.92726010014303,122.69161899993196,123.42580830003135,122.69161899993196,123.42580830003135,122.69161899993196,123.42580830003135,122.69161899993196,123.42580830003135,122.69161899993196,123.42580830003135,123.4086533000227,123.91026609996334,123.4086533000227,123.91026609996334,123.4086533000227,123.91026609996334,123.4086533000227,123.91026609996334,123.4086533000227,123.91026609996334,123.4086533000227,123.91026609996334,123.4086533000227,123.91026609996334,123.4086533000227,123.91026609996334,122.69161899993196,None,123.91026609996334,125.3613468001131,0.7300000000000004,125.37809370015748,None,126.12919350015,None,,,,,,,[1.4425],1.510000000000001,0.5,11033,001,2024_Jan_11_1816,MFTM_A_new1021,2021.2.3,60.07763230611643,
,,,,,,,,stim/Instruction_adaptive.png,conditions/adaptive.xlsx,test,0.6,0.6,0.6,-0.6,-0.6,right,R,,,,,0,1,1,1,0,4,4,80,,,,,,,,,,,,,,,,,,,,,,,,,,,,,,,,,,,,,,,,,,,,126.6310452001635,None,left,0,1.4679507000837475,127.1302897001151,129.95281799999066,127.1302897001151,129.45160700008273,127.1302897001151,129.45160700008273,127.1302897001151,129.45160700008273,127.1302897001151,129.45160700008273,127.1302897001151,129.45160700008273,129.41872600000352,129.91920230002142,129.41872600000352,129.91920230002142,129.41872600000352,129.91920230002142,129.41872600000352,129.91920230002142,129.41872600000352,129.91920230002142,129.41872600000352,129.91920230002142,129.41872600000352,129.91920230002142,129.41872600000352,129.91920230002142,127.1302897001151,None,129.91920230002142,130.11849620006979,2.310000000000002,130.1350545999594,None,130.886713600019,None,,,,,,,[[0.19]],0.5,0.4,11033,001,2024_Jan_11_1816,MFTM_A_new1021,2021.2.3,60.07763230611643,
,,,,,,,,stim/Instruction_adaptive.png,conditions/adaptive.xlsx,test,0.6,0.6,0.6,-0.6,-0.6,right,R,,,,,0,1,1,1,0,5,5,98,,,,,,,,,,,,,,,,,,,,,,,,,,,,,,,,,,,,,,,,,,,,131.38697400013916,None,right,1,2.342008300125599,131.88783150003292,None,131.88783150003292,134.89328399999067,131.88783150003292,134.89328399999067,131.88783150003292,134.89328399999067,131.88783150003292,134.89328399999067,131.88783150003292,134.89328399999067,134.87554040015675,135.37645750003867,134.87554040015675,135.37645750003867,134.87554040015675,135.37645750003867,134.87554040015675,135.37645750003867,134.87554040015675,135.37645750003867,134.87554040015675,135.37645750003867,134.87554040015675,135.37645750003867,134.87554040015675,135.37645750003867,131.88783150003292,None,135.37645750003867,135.37645750003867,3.0000000000000027,135.39343850011937,None,136.1452230999712,None,,,,,,,0,0.5,0.5,11033,001,2024_Jan_11_1816,MFTM_A_new1021,2021.2.3,60.07763230611643,
,,,,,,,,stim/Instruction_adaptive.png,conditions/adaptive.xlsx,test,0.6,0.6,0.6,-0.6,-0.6,right,R,,,,,0,1,1,1,0,6,6,44,,,,,,,,,,,,,,,,,,,,,,,,,,,,,,,,,,,,,,,,,,,,136.64542820001952,None,right,1,1.675915100146085,137.14574280008674,None,137.14574280008674,140.15038240002468,137.14574280008674,140.15038240002468,137.14574280008674,140.15038240002468,137.14574280008674,140.15038240002468,137.14574280008674,140.15038240002468,140.13337610010058,140.63468380016275,140.13337610010058,140.63468380016275,140.13337610010058,140.63468380016275,140.13337610010058,140.63468380016275,140.13337610010058,140.63468380016275,140.13337610010058,140.63468380016275,140.13337610010058,140.63468380016275,140.13337610010058,140.63468380016275,137.14574280008674,None,140.63468380016275,140.63468380016275,3.0000000000000027,140.65140400012024,None,141.4025753000751,None,,,,,,,0,1.1000000000000005,0.5714285714285714,11033,001,2024_Jan_11_1816,MFTM_A_new1021,2021.2.3,60.07763230611643,
,,,,,,,,stim/Instruction_adaptive.png,conditions/adaptive.xlsx,test,-0.6,-0.6,-0.6,0.6,0.6,left,L,,,,,0,1,1,1,0,7,7,35,,,,,,,,,,,,,,,,,,,,,,,,,,,,,,,,,,,,,,,,,,,,141.90384389995597,None,left,1,2.4092856000643224,142.40408130013384,None,142.40408130013384,145.40808419999667,142.40408130013384,145.40808419999667,142.40408130013384,145.40808419999667,142.40408130013384,145.40808419999667,142.40408130013384,145.40808419999667,145.39182380004786,145.89263400016353,145.39182380004786,145.89263400016353,145.39182380004786,145.89263400016353,145.39182380004786,145.89263400016353,145.39182380004786,145.89263400016353,145.39182380004786,145.89263400016353,145.39182380004786,145.89263400016353,145.39182380004786,145.89263400016353,142.40408130013384,None,145.89263400016353,145.89263400016353,3.0000000000000027,145.90842530014925,None,146.6608672000002,None,,,,,,,0,1.5000000000000009,0.625,11033,001,2024_Jan_11_1816,MFTM_A_new1021,2021.2.3,60.07763230611643,
,,,,,,,,stim/Instruction_adaptive.png,conditions/adaptive.xlsx,test,-0.6,-0.6,-0.6,0.6,0.6,left,L,,,,,0,1,1,1,0,8,8,51,,,,,,,,,,,,,,,,,,,,,,,,,,,,,,,,,,,,,,,,,,,,147.16098450007848,None,left,1,2.079830199945718,147.6618026001379,150.49969670013525,147.6618026001379,149.99808269995265,147.6618026001379,149.99808269995265,147.6618026001379,149.99808269995265,147.6618026001379,149.99808269995265,147.6618026001379,149.99808269995265,149.9813218000345,150.4828250000719,149.9813218000345,150.4828250000719,149.9813218000345,150.4828250000719,149.9813218000345,150.4828250000719,149.9813218000345,150.4828250000719,149.9813218000345,150.4828250000719,149.9813218000345,150.4828250000719,149.9813218000345,150.4828250000719,147.6618026001379,None,150.4828250000719,None,2.330000000000002,150.6669640999753,None,151.41708760010079,None,,,,,,,[[0.17]],1.7800000000000011,0.6666666666666666,11033,001,2024_Jan_11_1816,MFTM_A_new1021,2021.2.3,60.07763230611643,
,,,,,,,,stim/Instruction_adaptive.png,conditions/adaptive.xlsx,test,-0.6,-0.6,-0.6,0.6,0.6,left,L,,,,,0,1,1,1,0,9,9,83,,,,,,,,,,,,,,,,,,,,,,,,,,,,,,,,,,,,,,,,,,,,151.91824289993383,None,left,1,2.379192400025204,152.41827920009382,154.83880560006946,152.41827920009382,154.33759939996526,152.41827920009382,154.33759939996526,152.41827920009382,154.33759939996526,152.41827920009382,154.33759939996526,152.41827920009382,154.33759939996526,154.3213516001124,154.82292690011673,154.3213516001124,154.82292690011673,154.3213516001124,154.82292690011673,154.3213516001124,154.82292690011673,154.3213516001124,154.82292690011673,154.3213516001124,154.82292690011673,154.3213516001124,154.82292690011673,154.3213516001124,154.82292690011673,152.41827920009382,None,154.82292690011673,155.3564737001434,1.9200000000000015,155.3726604001131,None,156.12365150009282,None,,,,,,,[0.521],1.9900000000000013,0.7,11033,001,2024_Jan_11_1816,MFTM_A_new1021,2021.2.3,60.07763230611643,
,,,,,,,,stim/Instruction_adaptive.png,conditions/adaptive.xlsx,test,-0.6,-0.6,-0.6,0.6,0.6,left,L,,,,,0,1,1,1,0,10,10,65,,,,,,,,,,,,,,,,,,,,,,,,,,,,,,,,,,,,,,,,,,,,156.62531389994547,None,left,1,1.9271444000769407,157.12624839995988,159.29572369996458,157.12624839995988,158.7955893999897,157.12624839995988,158.7955893999897,157.12624839995988,158.7955893999897,157.12624839995988,158.7955893999897,157.12624839995988,158.7955893999897,158.76168840005994,159.2617128000129,158.76168840005994,159.2617128000129,158.76168840005994,159.2617128000129,158.76168840005994,159.2617128000129,158.76168840005994,159.2617128000129,158.76168840005994,159.2617128000129,158.76168840005994,159.2617128000129,158.76168840005994,159.2617128000129,157.12624839995988,None,159.2617128000129,159.81330920010805,1.6600000000000013,159.84588479995728,None,160.59774879994802,None,,,,,,,[0.55],2.1700000000000017,0.7272727272727273,11033,001,2024_Jan_11_1816,MFTM_A_new1021,2021.2.3,60.07763230611643,
,,,,,,,,stim/Instruction_adaptive.png,conditions/adaptive.xlsx,test,0.6,0.6,0.6,-0.6,-0.6,right,R,,,,,0,1,1,1,0,11,11,36,,,,,,,,,,,,,,,,,,,,,,,,,,,,,,,,,,,,,,,,,,,,161.09888419997878,None,right,1,1.687706699827686,161.59850710001774,163.56834420002997,161.59850710001774,163.0673796001356,161.59850710001774,163.0673796001356,161.59850710001774,163.0673796001356,161.59850710001774,163.0673796001356,161.59850710001774,163.0673796001356,163.03427890012972,163.53494530008174,163.03427890012972,163.53494530008174,163.03427890012972,163.53494530008174,163.03427890012972,163.53494530008174,163.03427890012972,163.53494530008174,163.03427890012972,163.53494530008174,163.03427890012972,163.53494530008174,163.03427890012972,163.53494530008174,161.59850710001774,None,163.53494530008174,164.13684940012172,1.460000000000001,164.1524660999421,None,164.90400550002232,None,,,,,,,[0.59083333],2.3200000000000016,0.75,11033,001,2024_Jan_11_1816,MFTM_A_new1021,2021.2.3,60.07763230611643,
,,,,,,,,stim/Instruction_adaptive.png,conditions/adaptive.xlsx,test,-0.6,-0.6,-0.6,0.6,0.6,left,L,,,,,0,1,1,1,0,12,12,13,,,,,,,,,,,,,,,,,,,,,,,,,,,,,,,,,,,,,,,,,,,,165.40449390001595,None,right,0,1.9570264001376927,165.90478680003434,167.72511580004357,165.90478680003434,167.22363000013866,165.90478680003434,167.22363000013866,165.90478680003434,167.22363000013866,165.90478680003434,167.22363000013866,165.90478680003434,167.22363000013866,167.20712070004083,167.70825359993614,167.20712070004083,167.70825359993614,167.20712070004083,167.70825359993614,167.20712070004083,167.70825359993614,167.20712070004083,167.70825359993614,167.20712070004083,167.70825359993614,167.20712070004083,167.70825359993614,167.20712070004083,167.70825359993614,165.90478680003434,None,167.70825359993614,168.35892250016332,1.320000000000001,168.37537220004015,None,169.1267925000284,None,,,,,,,[0.63615385],1.9300000000000013,0.6923076923076923,11033,001,2024_Jan_11_1816,MFTM_A_new1021,2021.2.3,60.07763230611643,
,,,,,,,,stim/Instruction_adaptive.png,conditions/adaptive.xlsx,test,-0.6,-0.6,-0.6,0.6,0.6,left,L,,,,,0,1,1,1,0,13,13,91,,,,,,,,,,,,,,,,,,,,,,,,,,,,,,,,,,,,,,,,,,,,169.62719160015695,None,left,1,1.6298344999086112,170.1276839999482,172.36472740001045,170.1276839999482,171.86371630011126,170.1276839999482,171.86371630011126,170.1276839999482,171.86371630011126,170.1276839999482,171.86371630011126,170.1276839999482,171.86371630011126,171.84692470007576,172.3489930999931,171.84692470007576,172.3489930999931,171.84692470007576,172.3489930999931,171.84692470007576,172.3489930999931,171.84692470007576,172.3489930999931,171.84692470007576,172.3489930999931,171.84692470007576,172.3489930999931,171.84692470007576,172.3489930999931,170.1276839999482,None,172.3489930999931,172.99938960000873,1.7300000000000013,173.0154488000553,None,173.76733970013447,None,,,,,,,[0.64571429],2.0800000000000014,0.7142857142857143,11033,001,2024_Jan_11_1816,MFTM_A_new1021,2021.2.3,60.07763230611643,
,,,,,,,,stim/Instruction_adaptive.png,conditions/adaptive.xlsx,test,-0.6,-0.6,-0.6,0.6,0.6,left,L,,,,,0,1,1,1,0,14,14,73,,,,,,,,,,,,,,,,,,,,,,,,,,,,,,,,,,,,,,,,,,,,174.26788379997015,None,left,1,2.366004499839619,174.76801789994352,176.83876550011337,174.76801789994352,176.3377737000119,174.76801789994352,176.3377737000119,174.76801789994352,176.3377737000119,174.76801789994352,176.3377737000119,174.76801789994352,176.3377737000119,176.30382529995404,176.80498460005037,176.30382529995404,176.80498460005037,176.30382529995404,176.80498460005037,176.30382529995404,176.80498460005037,176.30382529995404,176.80498460005037,176.30382529995404,176.80498460005037,176.30382529995404,176.80498460005037,176.30382529995404,176.80498460005037,174.76801789994352,None,176.80498460005037,177.4730080999434,1.5600000000000012,177.5060004000552,None,178.25685090012848,None,,,,,,,[0.66533333],2.2000000000000015,0.7333333333333333,11033,001,2024_Jan_11_1816,MFTM_A_new1021,2021.2.3,60.07763230611643,
,,,,,,,,stim/Instruction_adaptive.png,conditions/adaptive.xlsx,test,0.6,0.6,0.6,-0.6,-0.6,right,R,,,,,0,1,1,1,0,15,15,14,,,,,,,,,,,,,,,,,,,,,,,,,,,,,,,,,,,,,,,,,,,,178.7572912001051,None,right,1,1.6838273000903428,179.25864650006406,181.194189599948,179.25864650006406,180.69346510013565,179.25864650006406,180.69346510013565,179.25864650006406,180.69346510013565,179.25864650006406,180.69346510013565,179.25864650006406,180.69346510013565,180.6771507000085,181.17744190013036,180.6771507000085,181.17744190013036,180.6771507000085,181.17744190013036,180.6771507000085,181.17744190013036,180.6771507000085,181.17744190013036,180.6771507000085,181.17744190013036,180.6771507000085,181.17744190013036,180.6771507000085,181.17744190013036,179.25864650006406,None,181.17744190013036,None,1.430000000000001,181.878499600105,None,182.62964690010995,None,,,,,,,[0.690625],2.3200000000000016,0.75,11033,001,2024_Jan_11_1816,MFTM_A_new1021,2021.2.3,60.07763230611643,
,,,,,,,,stim/Instruction_adaptive.png,conditions/adaptive.xlsx,test,-0.6,-0.6,-0.6,0.6,0.6,left,L,,,,,0,1,1,1,0,16,16,3,,,,,,,,,,,,,,,,,,,,,,,,,,,,,,,,,,,,,,,,,,,,183.1313489000313,None,left,1,1.5421305000782013,183.63122450001538,185.45117609994486,183.63122450001538,184.95058450009674,183.63122450001538,184.95058450009674,183.63122450001538,184.95058450009674,183.63122450001538,184.95058450009674,183.63122450001538,184.95058450009674,184.93397730006836,185.434090499999,184.93397730006836,185.434090499999,184.93397730006836,185.434090499999,184.93397730006836,185.434090499999,184.93397730006836,185.434090499999,184.93397730006836,185.434090499999,184.93397730006836,185.434090499999,184.93397730006836,185.434090499999,183.63122450001538,None,185.434090499999,186.1691068999935,1.320000000000001,186.1849456001073,None,186.9372052999679,None,,,,,,,[0.71941176],2.4200000000000017,0.7647058823529411,11033,001,2024_Jan_11_1816,MFTM_A_new1021,2021.2.3,60.07763230611643,
,,,,,,,,stim/Instruction_adaptive.png,conditions/adaptive.xlsx,test,0.6,0.6,0.6,-0.6,-0.6,right,R,,,,,0,1,1,1,0,17,17,62,,,,,,,,,,,,,,,,,,,,,,,,,,,,,,,,,,,,,,,,,,,,187.43819000013173,None,right,1,1.642774699954316,187.9385872001294,189.6737278001383,187.9385872001294,189.17356380005367,187.9385872001294,189.17356380005367,187.9385872001294,189.17356380005367,187.9385872001294,189.17356380005367,187.9385872001294,189.17356380005367,189.15760260005482,189.65763840009458,189.15760260005482,189.65763840009458,189.15760260005482,189.65763840009458,189.15760260005482,189.65763840009458,189.15760260005482,189.65763840009458,189.15760260005482,189.65763840009458,189.15760260005482,189.65763840009458,189.15760260005482,189.65763840009458,187.9385872001294,None,189.65763840009458,190.4093492999673,1.2300000000000009,190.42463160003535,None,191.17640010011382,None,,,,,,,[0.75],2.5100000000000016,0.7777777777777778,11033,001,2024_Jan_11_1816,MFTM_A_new1021,2021.2.3,60.07763230611643,
,,,,,,,,stim/Instruction_adaptive.png,conditions/adaptive.xlsx,test,0.6,0.6,0.6,-0.6,-0.6,right,R,,,,,0,1,1,1,0,18,18,4,,,,,,,,,,,,,,,,,,,,,,,,,,,,,,,,,,,,,,,,,,,,191.67692649993114,None,left,0,2.1326884001027793,192.17713019996881,193.830366600072,192.17713019996881,193.32913980004378,192.17713019996881,193.32913980004378,192.17713019996881,193.32913980004378,192.17713019996881,193.32913980004378,192.17713019996881,193.32913980004378,193.31227470003068,193.813936999999,193.31227470003068,193.813936999999,193.31227470003068,193.813936999999,193.31227470003068,193.813936999999,193.31227470003068,193.813936999999,193.31227470003068,193.813936999999,193.31227470003068,193.813936999999,193.31227470003068,193.813936999999,192.17713019996881,None,193.813936999999,194.5980988999363,1.1500000000000008,194.61410970008,None,195.36553609999828,None,,,,,,,[0.78157895],2.2600000000000016,0.7368421052631579,11033,001,2024_Jan_11_1816,MFTM_A_new1021,2021.2.3,60.07763230611643,
,,,,,,,,stim/Instruction_adaptive.png,conditions/adaptive.xlsx,test,-0.6,-0.6,-0.6,0.6,0.6,left,L,,,,,0,1,1,1,0,19,19,95,,,,,,,,,,,,,,,,,,,,,,,,,,,,,,,,,,,,,,,,,,,,195.8660786000546,None,left,1,1.8715303998906165,196.36662370013073,198.2369206000585,196.36662370013073,197.7360217999667,196.36662370013073,197.7360217999667,196.36662370013073,197.7360217999667,196.36662370013073,197.7360217999667,196.36662370013073,197.7360217999667,197.71963579999283,198.22071349993348,197.71963579999283,198.22071349993348,197.71963579999283,198.22071349993348,197.71963579999283,198.22071349993348,197.71963579999283,198.22071349993348,197.71963579999283,198.22071349993348,197.71963579999283,198.22071349993348,197.71963579999283,198.22071349993348,196.36662370013073,None,198.22071349993348,199.0215289001353,1.370000000000001,199.03734569996595,None,199.7891593000386,None,,,,,,,[0.799],2.3500000000000014,0.75,11033,001,2024_Jan_11_1816,MFTM_A_new1021,2021.2.3,60.07763230611643,
,,,,,,,,stim/Instruction_adaptive.png,conditions/adaptive.xlsx,test,0.6,0.6,0.6,-0.6,-0.6,right,R,,,,,0,1,1,1,0,20,20,94,,,,,,,,,,,,,,,,,,,,,,,,,,,,,,,,,,,,,,,,,,,,200.2893928999547,None,right,1,1.5272255002055317,200.79032040014863,202.59354480006732,200.79032040014863,202.0919038001448,200.79032040014863,202.0919038001448,200.79032040014863,202.0919038001448,200.79032040014863,202.0919038001448,200.79032040014863,202.0919038001448,202.0590778000187,202.5591415001545,202.0590778000187,202.5591415001545,202.0590778000187,202.5591415001545,202.0590778000187,202.5591415001545,202.0590778000187,202.5591415001545,202.0590778000187,202.5591415001545,202.0590778000187,202.5591415001545,202.0590778000187,202.5591415001545,200.79032040014863,None,202.5591415001545,203.37715249997564,1.290000000000001,203.41114690015092,None,204.16181019996293,None,,,,,,,[0.81857143],2.4400000000000017,0.7619047619047619,11033,001,2024_Jan_11_1816,MFTM_A_new1021,2021.2.3,60.07763230611643,
,,,,,,,,stim/Instruction_adaptive.png,conditions/adaptive.xlsx,test,-0.6,-0.6,-0.6,0.6,0.6,left,L,,,,,0,1,1,1,0,21,21,79,,,,,,,,,,,,,,,,,,,,,,,,,,,,,,,,,,,,,,,,,,,,204.6629157999996,None,left,1,1.2019509000238031,205.16349530010484,206.88296389998868,205.16349530010484,206.38218159996904,205.16349530010484,206.38218159996904,205.16349530010484,206.38218159996904,205.16349530010484,206.38218159996904,205.16349530010484,206.38218159996904,206.34882499999367,206.8500508000143,206.34882499999367,206.8500508000143,206.34882499999367,206.8500508000143,206.34882499999367,206.8500508000143,206.34882499999367,206.8500508000143,206.34882499999367,206.8500508000143,206.34882499999367,206.8500508000143,206.34882499999367,206.8500508000143,205.16349530010484,None,206.8500508000143,207.70095940004103,1.2100000000000009,207.71769149997272,None,208.4689208001364,None,,,,,,,[0.84],2.520000000000002,0.7727272727272727,11033,001,2024_Jan_11_1816,MFTM_A_new1021,2021.2.3,60.07763230611643,
,,,,,,,,stim/Instruction_adaptive.png,conditions/adaptive.xlsx,test,-0.6,-0.6,-0.6,0.6,0.6,left,L,,,,,0,1,1,1,0,22,22,57,,,,,,,,,,,,,,,,,,,,,,,,,,,,,,,,,,,,,,,,,,,,208.9691229001619,None,right,0,1.8236317001283169,209.46988570014946,211.1224434999749,209.46988570014946,210.6218221001327,209.46988570014946,210.6218221001327,209.46988570014946,210.6218221001327,209.46988570014946,210.6218221001327,209.46988570014946,210.6218221001327,210.60512820002623,211.10566340014338,210.60512820002623,211.10566340014338,210.60512820002623,211.10566340014338,210.60512820002623,211.10566340014338,210.60512820002623,211.10566340014338,210.60512820002623,211.10566340014338,210.60512820002623,211.10566340014338,210.60512820002623,211.10566340014338,209.46988570014946,None,211.10566340014338,211.97381490003318,1.1500000000000008,211.99004489998333,None,212.74166549998336,None,,,,,,,[0.86217391],2.3000000000000016,0.7391304347826086,11033,001,2024_Jan_11_1816,MFTM_A_new1021,2021.2.3,60.07763230611643,
,,,,,,,,stim/Instruction_adaptive.png,conditions/adaptive.xlsx,test,-0.6,-0.6,-0.6,0.6,0.6,left,L,,,,,0,1,1,1,0,23,23,59,,,,,,,,,,,,,,,,,,,,,,,,,,,,,,,,,,,,,,,,,,,,213.24287310009822,None,left,1,1.9042487000115216,213.74235230009072,215.595326700015,213.74235230009072,215.09449200006202,213.74235230009072,215.09449200006202,213.74235230009072,215.09449200006202,213.74235230009072,215.09449200006202,213.74235230009072,215.09449200006202,215.0618656000588,215.5624100000132,215.0618656000588,215.5624100000132,215.0618656000588,215.5624100000132,215.0618656000588,215.5624100000132,215.0618656000588,215.5624100000132,215.0618656000588,215.5624100000132,215.0618656000588,215.5624100000132,215.0618656000588,215.5624100000132,213.74235230009072,None,215.5624100000132,216.44711500010453,1.340000000000001,216.46319500007667,None,217.2143888999708,None,,,,,,,[0.87458333],2.3800000000000017,0.75,11033,001,2024_Jan_11_1816,MFTM_A_new1021,2021.2.3,60.07763230611643,
,,,,,,,,stim/Instruction_adaptive.png,conditions/adaptive.xlsx,test,-0.6,-0.6,-0.6,0.6,0.6,left,L,,,,,0,1,1,1,0,24,24,93,,,,,,,,,,,,,,,,,,,,,,,,,,,,,,,,,,,,,,,,,,,,217.7156289999839,None,right,0,1.565768500091508,218.21597549994476,219.9861362001393,218.21597549994476,219.484196000034,218.21597549994476,219.484196000034,218.21597549994476,219.484196000034,218.21597549994476,219.484196000034,218.21597549994476,219.484196000034,219.4511538001243,219.95243180007674,219.4511538001243,219.95243180007674,219.4511538001243,219.95243180007674,219.4511538001243,219.95243180007674,219.4511538001243,219.95243180007674,219.4511538001243,219.95243180007674,219.4511538001243,219.95243180007674,219.4511538001243,219.95243180007674,218.21597549994476,None,219.95243180007674,220.853649900062,1.260000000000001,220.86976930010132,None,221.621536700055,None,,,,,,,[0.8892],2.1600000000000015,0.72,11033,001,2024_Jan_11_1816,MFTM_A_new1021,2021.2.3,60.07763230611643,
,,,,,,,,stim/Instruction_adaptive.png,conditions/adaptive.xlsx,test,-0.6,-0.6,-0.6,0.6,0.6,left,L,,,,,0,1,1,1,0,25,25,89,,,,,,,,,,,,,,,,,,,,,,,,,,,,,,,,,,,,,,,,,,,,222.12212339998223,None,left,1,1.5258784000761807,222.6236831001006,224.59249790012836,222.6236831001006,224.10853540012613,222.6236831001006,224.10853540012613,222.6236831001006,224.10853540012613,222.6236831001006,224.10853540012613,222.6236831001006,224.10853540012613,224.07543880003504,224.5762692000717,224.07543880003504,224.5762692000717,224.07543880003504,224.5762692000717,224.07543880003504,224.5762692000717,224.07543880003504,224.5762692000717,224.07543880003504,224.5762692000717,224.07543880003504,224.5762692000717,224.07543880003504,224.5762692000717,222.6236831001006,None,224.5762692000717,225.47726580011658,1.470000000000001,225.49301249999553,None,226.24503500014544,None,,,,,,,[0.89461538],2.2400000000000015,0.7307692307692307,11033,001,2024_Jan_11_1816,MFTM_A_new1021,2021.2.3,60.07763230611643,
,,,,,,,,stim/Instruction_adaptive.png,conditions/adaptive.xlsx,test,-0.6,-0.6,-0.6,0.6,0.6,left,L,,,,,0,1,1,1,0,26,26,81,,,,,,,,,,,,,,,,,,,,,,,,,,,,,,,,,,,,,,,,,,,,226.74611530010588,None,left,1,2.12809900008142,227.2458204999566,229.14924439997412,227.2458204999566,228.64877710002474,227.2458204999566,228.64877710002474,227.2458204999566,228.64877710002474,227.2458204999566,228.64877710002474,227.2458204999566,228.64877710002474,228.61518770013936,229.11630390002392,228.61518770013936,229.11630390002392,228.61518770013936,229.11630390002392,228.61518770013936,229.11630390002392,228.61518770013936,229.11630390002392,228.61518770013936,229.11630390002392,228.61518770013936,229.11630390002392,228.61518770013936,229.11630390002392,227.2458204999566,None,229.11630390002392,230.03402870008722,1.390000000000001,230.05068049998954,None,230.80203519994393,None,,,,,,,[0.90259259],2.3100000000000014,0.7407407407407407,11033,001,2024_Jan_11_1816,MFTM_A_new1021,2021.2.3,60.07763230611643,
,,,,,,,,stim/Instruction_adaptive.png,conditions/adaptive.xlsx,test,0.6,0.6,0.6,-0.6,-0.6,right,R,,,,,0,1,1,1,0,27,27,66,,,,,,,,,,,,,,,,,,,,,,,,,,,,,,,,,,,,,,,,,,,,231.3022886000108,None,right,1,1.699447400169447,231.8025110999588,233.63916529994458,231.8025110999588,233.13802700000815,231.8025110999588,233.13802700000815,231.8025110999588,233.13802700000815,231.8025110999588,233.13802700000815,231.8025110999588,233.13802700000815,233.12121440004557,233.62203030008823,233.12121440004557,233.62203030008823,233.12121440004557,233.62203030008823,233.12121440004557,233.62203030008823,233.12121440004557,233.62203030008823,233.12121440004557,233.62203030008823,233.12121440004557,233.62203030008823,233.12121440004557,233.62203030008823,231.8025110999588,None,233.62203030008823,234.5399136999622,1.330000000000001,234.5571453999728,None,235.3076846001204,None,,,,,,,[0.91214286],2.3800000000000017,0.75,11033,001,2024_Jan_11_1816,MFTM_A_new1021,2021.2.3,60.07763230611643,
,,,,,,,,stim/Instruction_adaptive.png,conditions/adaptive.xlsx,test,-0.6,-0.6,-0.6,0.6,0.6,left,L,,,,,0,1,1,1,0,28,28,43,,,,,,,,,,,,,,,,,,,,,,,,,,,,,,,,,,,,,,,,,,,,235.8083736000117,None,right,0,1.9515773998573422,236.31069780001417,238.0786061999388,236.31069780001417,237.57784699997865,236.31069780001417,237.57784699997865,236.31069780001417,237.57784699997865,236.31069780001417,237.57784699997865,236.31069780001417,237.57784699997865,237.54516090010293,238.04542670003138,237.54516090010293,238.04542670003138,237.54516090010293,238.04542670003138,237.54516090010293,238.04542670003138,237.54516090010293,238.04542670003138,237.54516090010293,238.04542670003138,237.54516090010293,238.04542670003138,237.54516090010293,238.04542670003138,236.31069780001417,None,238.04542670003138,238.979905199958,1.260000000000001,238.9966790000908,None,239.74834819999523,None,,,,,,,[0.92344828],2.1900000000000013,0.7241379310344828,11033,001,2024_Jan_11_1816,MFTM_A_new1021,2021.2.3,60.07763230611643,
,,,,,,,,stim/Instruction_adaptive.png,conditions/adaptive.xlsx,test,-0.6,-0.6,-0.6,0.6,0.6,left,L,,,,,0,1,1,1,0,29,29,71,,,,,,,,,,,,,,,,,,,,,,,,,,,,,,,,,,,,,,,,,,,,240.24908190011047,None,left,1,2.2874670999590307,240.75000809994526,242.70220410008915,240.75000809994526,242.20119530009106,240.75000809994526,242.20119530009106,240.75000809994526,242.20119530009106,240.75000809994526,242.20119530009106,240.75000809994526,242.20119530009106,242.16823290009052,242.66919449996203,242.16823290009052,242.66919449996203,242.16823290009052,242.66919449996203,242.16823290009052,242.66919449996203,242.16823290009052,242.66919449996203,242.16823290009052,242.66919449996203,242.16823290009052,242.66919449996203,242.16823290009052,242.66919449996203,240.75000809994526,None,242.66919449996203,243.6034264001064,1.440000000000001,243.62021740013734,None,244.37115210015327,None,,,,,,,[0.928],2.2600000000000016,0.7333333333333333,11033,001,2024_Jan_11_1816,MFTM_A_new1021,2021.2.3,60.07763230611643,
,,,,,,,,stim/Instruction_adaptive.png,conditions/adaptive.xlsx,test,-0.6,-0.6,-0.6,0.6,0.6,left,L,,,,,0,1,1,1,0,30,30,29,,,,,,,,,,,,,,,,,,,,,,,,,,,,,,,,,,,,,,,,,,,,244.87251499993727,None,left,1,1.9445940000005066,245.37290440010838,247.2427443000488,245.37290440010838,246.75805900013074,245.37290440010838,246.75805900013074,245.37290440010838,246.75805900013074,245.37290440010838,246.75805900013074,245.37290440010838,246.75805900013074,246.72517460002564,247.22549340012483,246.72517460002564,247.22549340012483,246.72517460002564,247.22549340012483,246.72517460002564,247.22549340012483,246.72517460002564,247.22549340012483,246.72517460002564,247.22549340012483,246.72517460002564,247.22549340012483,246.72517460002564,247.22549340012483,245.37290440010838,None,247.22549340012483,248.16056960006244,1.370000000000001,248.17714600008912,None,248.92852810001932,None,,,,,,,[0.93451613],2.3200000000000016,0.7419354838709677,11033,001,2024_Jan_11_1816,MFTM_A_new1021,2021.2.3,60.07763230611643,
,,,,,,,,stim/Instruction_adaptive.png,conditions/adaptive.xlsx,test,0.6,0.6,0.6,-0.6,-0.6,right,R,,,,,0,1,1,1,0,31,31,46,,,,,,,,,,,,,,,,,,,,,,,,,,,,,,,,,,,,,,,,,,,,249.42865810007788,None,right,1,1.5635158000513911,249.93046059994958,251.75012440001592,249.93046059994958,251.26540259993635,249.93046059994958,251.26540259993635,249.93046059994958,251.26540259993635,249.93046059994958,251.26540259993635,249.93046059994958,251.26540259993635,251.23145590000786,251.73278059996665,251.23145590000786,251.73278059996665,251.23145590000786,251.73278059996665,251.23145590000786,251.73278059996665,251.23145590000786,251.73278059996665,251.23145590000786,251.73278059996665,251.23145590000786,251.73278059996665,251.23145590000786,251.73278059996665,249.93046059994958,None,251.73278059996665,252.68353110016324,1.320000000000001,252.70039999997243,None,253.4515442000702,None,,,,,,,[0.9421875],2.3800000000000017,0.75,11033,001,2024_Jan_11_1816,MFTM_A_new1021,2021.2.3,60.07763230611643,
,,,,,,,,stim/Instruction_adaptive.png,conditions/adaptive.xlsx,test,-0.6,-0.6,-0.6,0.6,0.6,left,L,,,,,0,1,1,1,0,32,32,47,,,,,,,,,,,,,,,,,,,,,,,,,,,,,,,,,,,,,,,,,,,,253.9529607000295,None,left,1,1.4963346999138594,254.4531658999622,256.22275210008956,254.4531658999622,255.72142020007595,254.4531658999622,255.72142020007595,254.4531658999622,255.72142020007595,254.4531658999622,255.72142020007595,254.4531658999622,255.72142020007595,255.70557160000317,256.2052541000303,255.70557160000317,256.2052541000303,255.70557160000317,256.2052541000303,255.70557160000317,256.2052541000303,255.70557160000317,256.2052541000303,255.70557160000317,256.2052541000303,255.70557160000317,256.2052541000303,255.70557160000317,256.2052541000303,254.4531658999622,None,256.1899778000079,257.14017680007964,1.260000000000001,257.1734470000956,None,257.92548290011473,None,,,,,,,[0.95121212],2.4300000000000015,0.7575757575757576,11033,001,2024_Jan_11_1816,MFTM_A_new1021,2021.2.3,60.07763230611643,
,,,,,,,,stim/Instruction_adaptive.png,conditions/adaptive.xlsx,test,0.6,0.6,0.6,-0.6,-0.6,right,R,,,,,0,1,1,1,0,33,33,92,,,,,,,,,,,,,,,,,,,,,,,,,,,,,,,,,,,,,,,,,,,,258.42527820006944,None,right,1,2.2151817998383194,258.9267146999482,260.66205930011347,258.9267146999482,260.1609990000725,258.9267146999482,260.1609990000725,258.9267146999482,260.1609990000725,258.9267146999482,260.1609990000725,258.9267146999482,260.1609990000725,260.1284147000406,260.62892990000546,260.1284147000406,260.62892990000546,260.1284147000406,260.62892990000546,260.1284147000406,260.62892990000546,260.1284147000406,260.62892990000546,260.1284147000406,260.62892990000546,260.1284147000406,260.62892990000546,260.1284147000406,260.62892990000546,258.9267146999482,None,260.62892990000546,261.5978584000841,1.2200000000000009,261.6133032999933,None,262.3653323999606,None,,,,,,,[0.96088235],2.490000000000002,0.7647058823529411,11033,001,2024_Jan_11_1816,MFTM_A_new1021,2021.2.3,60.07763230611643,
,,,,,,,,stim/Instruction_adaptive.png,conditions/adaptive.xlsx,test,0.6,0.6,0.6,-0.6,-0.6,right,R,,,,,0,1,1,1,0,34,34,48,,,,,,,,,,,,,,,,,,,,,,,,,,,,,,,,,,,,,,,,,,,,262.8660373000894,None,right,1,1.4398682001046836,263.36598840006627,265.0357922001276,263.36598840006627,264.55130510008894,263.36598840006627,264.55130510008894,263.36598840006627,264.55130510008894,263.36598840006627,264.55130510008894,263.36598840006627,264.55130510008894,264.517761599971,265.0187562000938,264.517761599971,265.0187562000938,264.517761599971,265.0187562000938,264.517761599971,265.0187562000938,264.517761599971,265.0187562000938,264.517761599971,265.0187562000938,264.517761599971,265.0187562000938,264.517761599971,265.0187562000938,263.36598840006627,None,265.0187562000938,266.0044703001622,1.1700000000000008,266.02060050005093,None,266.7708092001267,None,,,,,,,[0.97142857],2.540000000000002,0.7714285714285715,11033,001,2024_Jan_11_1816,MFTM_A_new1021,2021.2.3,60.07763230611643,
,,,,,,,,stim/Instruction_adaptive.png,conditions/adaptive.xlsx,test,0.6,0.6,0.6,-0.6,-0.6,right,R,,,,,0,1,1,1,0,35,35,82,,,,,,,,,,,,,,,,,,,,,,,,,,,,,,,,,,,,,,,,,,,,267.27181309997104,None,right,1,1.0332220999989659,267.7725480000954,269.40826379996724,267.7725480000954,268.9075246001594,267.7725480000954,268.9075246001594,267.7725480000954,268.9075246001594,267.7725480000954,268.9075246001594,267.7725480000954,268.9075246001594,268.89152600010857,269.39235650002956,268.89152600010857,269.39235650002956,268.89152600010857,269.39235650002956,268.89152600010857,269.39235650002956,268.89152600010857,269.39235650002956,268.89152600010857,269.39235650002956,268.89152600010857,269.39235650002956,268.89152600010857,269.39235650002956,267.7725480000954,None,269.39235650002956,270.3770171001088,1.1300000000000008,270.39337310008705,None,271.14411070011556,None,,,,,,,[0.9825],2.580000000000002,0.7777777777777778,11033,001,2024_Jan_11_1816,MFTM_A_new1021,2021.2.3,60.07763230611643,
,,,,,,,,stim/Instruction_adaptive.png,conditions/adaptive.xlsx,test,-0.6,-0.6,-0.6,0.6,0.6,left,L,,,,,0,1,1,1,0,36,36,61,,,,,,,,,,,,,,,,,,,,,,,,,,,,,,,,,,,,,,,,,,,,271.6446785000153,None,left,1,0.9320257999934256,272.1463439001236,273.7490058999974,272.1463439001236,273.24792880006135,272.1463439001236,273.24792880006135,272.1463439001236,273.24792880006135,272.1463439001236,273.24792880006135,272.1463439001236,273.24792880006135,273.2306856000796,273.7320014999714,273.2306856000796,273.7320014999714,273.2306856000796,273.7320014999714,273.2306856000796,273.7320014999714,273.2306856000796,273.7320014999714,273.2306856000796,273.7320014999714,273.2306856000796,273.7320014999714,273.2306856000796,273.7320014999714,272.1463439001236,None,273.7320014999714,274.7334092000965,1.1000000000000008,274.75010600010864,None,275.50105750001967,None,,,,,,,[0.99378378],2.6300000000000017,0.7837837837837838,11033,001,2024_Jan_11_1816,MFTM_A_new1021,2021.2.3,60.07763230611643,
,,,,,,,,stim/Instruction_adaptive.png,conditions/adaptive.xlsx,test,0.6,0.6,0.6,-0.6,-0.6,right,R,,,,,0,1,1,1,0,37,37,8,,,,,,,,,,,,,,,,,,,,,,,,,,,,,,,,,,,,,,,,,,,,276.0015480001457,None,left,0,1.4395930001046509,276.50198230007663,278.0711888000369,276.50198230007663,277.57065799995326,276.50198230007663,277.57065799995326,276.50198230007663,277.57065799995326,276.50198230007663,277.57065799995326,276.50198230007663,277.57065799995326,277.5370203999337,278.0377261999529,277.5370203999337,278.0377261999529,277.5370203999337,278.0377261999529,277.5370203999337,278.0377261999529,277.5370203999337,278.0377261999529,277.5370203999337,278.0377261999529,277.5370203999337,278.0377261999529,277.5370203999337,278.0377261999529,276.50198230007663,None,278.0377261999529,279.0560715000611,1.0600000000000007,279.07252159994096,None,279.8238147001248,None,,,,,,,[1.00552632],2.5000000000000018,0.7631578947368421,11033,001,2024_Jan_11_1816,MFTM_A_new1021,2021.2.3,60.07763230611643,
,,,,,,,,stim/Instruction_adaptive.png,conditions/adaptive.xlsx,test,0.6,0.6,0.6,-0.6,-0.6,right,R,,,,,0,1,1,1,0,38,38,70,,,,,,,,,,,,,,,,,,,,,,,,,,,,,,,,,,,,,,,,,,,,280.3250802999828,None,right,1,1.2684305999428034,280.82523860014044,282.4945529999677,280.82523860014044,281.9942666001152,280.82523860014044,281.9942666001152,280.82523860014044,281.9942666001152,280.82523860014044,281.9942666001152,280.82523860014044,281.9942666001152,281.96037030010484,282.46238099993207,281.96037030010484,282.46238099993207,281.96037030010484,282.46238099993207,281.96037030010484,282.46238099993207,281.96037030010484,282.46238099993207,281.96037030010484,282.46238099993207,281.96037030010484,282.46238099993207,281.96037030010484,282.46238099993207,280.82523860014044,None,282.46238099993207,283.48076099995524,1.1600000000000008,283.5124460000079,None,284.26440430013463,None,,,,,,,[1.01410256],2.5500000000000016,0.7692307692307693,11033,001,2024_Jan_11_1816,MFTM_A_new1021,2021.2.3,60.07763230611643,
,,,,,,,,stim/Instruction_adaptive.png,conditions/adaptive.xlsx,test,0.6,0.6,0.6,-0.6,-0.6,right,R,,,,,0,1,1,1,0,39,39,12,,,,,,,,,,,,,,,,,,,,,,,,,,,,,,,,,,,,,,,,,,,,284.7649642000906,None,left,0,1.5485499000642449,285.2652052999474,286.8841385000851,285.2652052999474,286.3999552000314,285.2652052999474,286.3999552000314,285.2652052999474,286.3999552000314,285.2652052999474,286.3999552000314,285.2652052999474,286.3999552000314,286.3674453999847,286.86750950012356,286.3674453999847,286.86750950012356,286.3674453999847,286.86750950012356,286.3674453999847,286.86750950012356,286.3674453999847,286.86750950012356,286.3674453999847,286.86750950012356,286.3674453999847,286.86750950012356,286.3674453999847,286.86750950012356,285.2652052999474,None,286.86750950012356,287.90303339995444,1.1200000000000008,287.9189486000687,None,288.6702074999921,None,,,,,,,[1.02325],2.4200000000000017,0.75,11033,001,2024_Jan_11_1816,MFTM_A_new1021,2021.2.3,60.07763230611643,
,,,,,,,,stim/Instruction_adaptive.png,conditions/adaptive.xlsx,test,-0.6,-0.6,-0.6,0.6,0.6,left,L,,,,,0,1,1,1,0,40,40,87,,,,,,,,,,,,,,,,,,,,,,,,,,,,,,,,,,,,,,,,,,,,289.1719621999655,None,left,1,1.7196802999824286,289.67164690000936,291.40743070002645,289.67164690000936,290.90681940014474,289.67164690000936,290.90681940014474,289.67164690000936,290.90681940014474,289.67164690000936,290.90681940014474,289.67164690000936,290.90681940014474,290.8904171001632,291.39142360002734,290.8904171001632,291.39142360002734,290.8904171001632,291.39142360002734,290.8904171001632,291.39142360002734,290.8904171001632,291.39142360002734,290.8904171001632,291.39142360002734,290.8904171001632,291.39142360002734,290.8904171001632,291.39142360002734,289.67164690000936,None,291.39142360002734,292.4272837000899,1.2300000000000009,292.45943960011937,None,293.21195879997686,None,,,,,,,[1.02926829],2.4600000000000017,0.7560975609756098,11033,001,2024_Jan_11_1816,MFTM_A_new1021,2021.2.3,60.07763230611643,
,,,,,,,,stim/Instruction_adaptive.png,conditions/adaptive.xlsx,test,0.6,0.6,0.6,-0.6,-0.6,right,R,,,,,0,1,1,1,0,41,41,76,,,,,,,,,,,,,,,,,,,,,,,,,,,,,,,,,,,,,,,,,,,,293.7116539000999,None,right,1,1.9135908999014646,294.212297399994,295.9151888000779,294.212297399994,295.413546100026,294.212297399994,295.413546100026,294.212297399994,295.413546100026,294.212297399994,295.413546100026,294.212297399994,295.413546100026,295.39678180008195,295.89782069996,295.39678180008195,295.89782069996,295.39678180008195,295.89782069996,295.39678180008195,295.89782069996,295.39678180008195,295.89782069996,295.39678180008195,295.89782069996,295.39678180008195,295.89782069996,295.39678180008195,295.89782069996,294.212297399994,None,295.89782069996,None,1.2000000000000008,296.9490563001018,None,297.7010985999368,None,,,,,,,[1.03571429],2.5100000000000016,0.7619047619047619,11033,001,2024_Jan_11_1816,MFTM_A_new1021,2021.2.3,60.07763230611643,
,,,,,,,,stim/Instruction_adaptive.png,conditions/adaptive.xlsx,test,0.6,0.6,0.6,-0.6,-0.6,right,R,,,,,0,1,1,1,0,42,42,24,,,,,,,,,,,,,,,,,,,,,,,,,,,,,,,,,,,,,,,,,,,,298.20175589993596,None,right,1,1.4001501000020653,298.7018635000568,300.35494710016064,298.7018635000568,299.8539689001627,298.7018635000568,299.8539689001627,298.7018635000568,299.8539689001627,298.7018635000568,299.8539689001627,298.7018635000568,299.8539689001627,299.8369629001245,300.33822820009664,299.8369629001245,300.33822820009664,299.8369629001245,300.33822820009664,299.8369629001245,300.33822820009664,299.8369629001245,300.33822820009664,299.8369629001245,300.33822820009664,299.8369629001245,300.33822820009664,299.8369629001245,300.33822820009664,298.7018635000568,None,300.33822820009664,301.38958239997737,1.1500000000000008,301.4057670000475,None,302.15763100003824,None,,,,,,,[1.04302326],2.5500000000000016,0.7674418604651163,11033,001,2024_Jan_11_1816,MFTM_A_new1021,2021.2.3,60.07763230611643,
,,,,,,,,stim/Instruction_adaptive.png,conditions/adaptive.xlsx,test,-0.6,-0.6,-0.6,0.6,0.6,left,L,,,,,0,1,1,1,0,43,43,45,,,,,,,,,,,,,,,,,,,,,,,,,,,,,,,,,,,,,,,,,,,,302.65835050004534,None,right,0,1.6626428999006748,303.1588699000422,304.79392770002596,303.1588699000422,304.2931826999411,303.1588699000422,304.2931826999411,303.1588699000422,304.2931826999411,303.1588699000422,304.2931826999411,303.1588699000422,304.2931826999411,304.26018750015646,304.7606526000891,304.26018750015646,304.7606526000891,304.26018750015646,304.7606526000891,304.26018750015646,304.7606526000891,304.26018750015646,304.7606526000891,304.26018750015646,304.7606526000891,304.26018750015646,304.7606526000891,304.26018750015646,304.7606526000891,303.1588699000422,None,304.7606526000891,305.812195800012,1.1200000000000008,305.82901200000197,None,306.5806549999397,None,,,,,,,[1.05068182],2.4300000000000015,0.75,11033,001,2024_Jan_11_1816,MFTM_A_new1021,2021.2.3,60.07763230611643,
,,,,,,,,stim/Instruction_adaptive.png,conditions/adaptive.xlsx,test,-0.6,-0.6,-0.6,0.6,0.6,left,L,,,,,0,1,1,1,0,44,44,41,,,,,,,,,,,,,,,,,,,,,,,,,,,,,,,,,,,,,,,,,,,,307.0810571999755,None,left,1,1.7119119002018124,307.58161820005625,309.3007899001241,307.58161820005625,308.8000654000789,307.58161820005625,308.8000654000789,307.58161820005625,308.8000654000789,307.58161820005625,308.8000654000789,307.58161820005625,308.8000654000789,308.78403460001573,309.28488679998554,308.78403460001573,309.28488679998554,308.78403460001573,309.28488679998554,308.78403460001573,309.28488679998554,308.78403460001573,309.28488679998554,308.78403460001573,309.28488679998554,308.78403460001573,309.28488679998554,308.78403460001573,309.28488679998554,307.58161820005625,None,309.28488679998554,310.3528834001627,1.2200000000000009,310.3690398000181,None,311.12088200007565,None,,,,,,,[1.05577778],2.4700000000000015,0.7555555555555555,11033,001,2024_Jan_11_1816,MFTM_A_new1021,2021.2.3,60.07763230611643,
,,,,,,,,stim/Instruction_adaptive.png,conditions/adaptive.xlsx,test,0.6,0.6,0.6,-0.6,-0.6,right,R,,,,,0,1,1,1,0,45,45,64,,,,,,,,,,,,,,,,,,,,,,,,,,,,,,,,,,,,,,,,,,,,311.62143509997986,None,right,1,1.627024799818173,312.1225958999712,313.8241813001223,312.1225958999712,313.32423539995216,312.1225958999712,313.32423539995216,312.1225958999712,313.32423539995216,312.1225958999712,313.32423539995216,312.1225958999712,313.32423539995216,313.29074460011907,313.7907100999728,313.29074460011907,313.7907100999728,313.29074460011907,313.7907100999728,313.29074460011907,313.7907100999728,313.29074460011907,313.7907100999728,313.29074460011907,313.7907100999728,313.29074460011907,313.7907100999728,313.29074460011907,313.7907100999728,312.1225958999712,None,313.7907100999728,314.860253599938,1.1900000000000008,314.8756934001576,None,315.6268418999389,None,,,,,,,[1.06130435],2.5100000000000016,0.7608695652173914,11033,001,2024_Jan_11_1816,MFTM_A_new1021,2021.2.3,60.07763230611643,
,,,,,,,,stim/Instruction_adaptive.png,conditions/adaptive.xlsx,test,0.6,0.6,0.6,-0.6,-0.6,right,R,,,,,0,1,1,1,0,46,46,0,,,,,,,,,,,,,,,,,,,,,,,,,,,,,,,,,,,,,,,,,,,,316.1284608000424,None,right,1,1.4894056001212448,316.62844790006056,318.2816304001026,316.62844790006056,317.78057900001295,316.62844790006056,317.78057900001295,316.62844790006056,317.78057900001295,316.62844790006056,317.78057900001295,316.62844790006056,317.78057900001295,317.7638369000051,318.26402959995903,317.7638369000051,318.26402959995903,317.7638369000051,318.26402959995903,317.7638369000051,318.26402959995903,317.7638369000051,318.26402959995903,317.7638369000051,318.26402959995903,317.7638369000051,318.26402959995903,317.7638369000051,318.26402959995903,316.62844790006056,None,318.26402959995903,319.33301950013265,1.1500000000000008,319.3490317000542,None,320.1007159999572,None,,,,,,,[1.06744681],2.5500000000000016,0.7659574468085106,11033,001,2024_Jan_11_1816,MFTM_A_new1021,2021.2.3,60.07763230611643,
,,,,,,,,stim/Instruction_adaptive.png,conditions/adaptive.xlsx,test,-0.6,-0.6,-0.6,0.6,0.6,left,L,,,,,0,1,1,1,0,47,47,69,,,,,,,,,,,,,,,,,,,,,,,,,,,,,,,,,,,,,,,,,,,,320.6012911000289,None,left,1,1.6646592998877168,321.1015437000897,322.7217081000563,321.1015437000897,322.2206190000288,321.1015437000897,322.2206190000288,321.1015437000897,322.2206190000288,321.1015437000897,322.2206190000288,321.1015437000897,322.2206190000288,322.20470990007743,322.7045543999411,322.20470990007743,322.7045543999411,322.20470990007743,322.7045543999411,322.20470990007743,322.7045543999411,322.20470990007743,322.7045543999411,322.20470990007743,322.7045543999411,322.20470990007743,322.7045543999411,322.20470990007743,322.7045543999411,321.1015437000897,None,322.7045543999411,323.78912220010534,1.1200000000000008,323.8055225000717,None,324.5578674999997,None,,,,,,,[1.07395833],2.580000000000002,0.7708333333333334,11033,001,2024_Jan_11_1816,MFTM_A_new1021,2021.2.3,60.07763230611643,
,,,,,,,,stim/Instruction_adaptive.png,conditions/adaptive.xlsx,test,-0.6,-0.6,-0.6,0.6,0.6,left,L,,,,,0,1,1,1,0,48,48,31,,,,,,,,,,,,,,,,,,,,,,,,,,,,,,,,,,,,,,,,,,,,325.0576194000896,None,left,1,2.3199982999358326,325.5581529000774,327.1603937000036,325.5581529000774,326.6602919001598,325.5581529000774,326.6602919001598,325.5581529000774,326.6602919001598,325.5581529000774,326.6602919001598,325.5581529000774,326.6602919001598,326.64353709993884,327.14370320015587,326.64353709993884,327.14370320015587,326.64353709993884,327.14370320015587,326.64353709993884,327.14370320015587,326.64353709993884,327.14370320015587,326.64353709993884,327.14370320015587,326.64353709993884,327.14370320015587,326.64353709993884,327.14370320015587,325.5581529000774,None,327.14370320015587,328.2300015001092,1.1000000000000008,328.2462822000962,None,328.99784840014763,None,,,,,,,[1.08061224],2.620000000000002,0.7755102040816326,11033,001,2024_Jan_11_1816,MFTM_A_new1021,2021.2.3,60.07763230611643,
,,,,,,,,stim/Instruction_adaptive.png,conditions/adaptive.xlsx,test,-0.6,-0.6,-0.6,0.6,0.6,left,L,,,,,0,1,1,1,0,49,49,19,,,,,,,,,,,,,,,,,,,,,,,,,,,,,,,,,,,,,,,,,,,,329.49852570006624,None,left,1,1.631214699940756,329.9987036001403,331.5843428999651,329.9987036001403,331.0838001000229,329.9987036001403,331.0838001000229,329.9987036001403,331.0838001000229,329.9987036001403,331.0838001000229,329.9987036001403,331.0838001000229,331.0501360001508,331.5502981999889,331.0501360001508,331.5502981999889,331.0501360001508,331.5502981999889,331.0501360001508,331.5502981999889,331.0501360001508,331.5502981999889,331.0501360001508,331.5502981999889,331.0501360001508,331.5502981999889,331.0501360001508,331.5502981999889,329.9987036001403,None,331.5502981999889,332.6531940000132,1.0700000000000007,332.6687535000965,None,333.4205149000045,None,,,,,,,[1.0876],2.650000000000002,0.78,11033,001,2024_Jan_11_1816,MFTM_A_new1021,2021.2.3,60.07763230611643,
,,,,,,,,stim/Instruction_adaptive.png,conditions/adaptive.xlsx,test,-0.6,-0.6,-0.6,0.6,0.6,left,L,,,,,0,1,1,1,0,50,50,55,,,,,,,,,,,,,,,,,,,,,,,,,,,,,,,,,,,,,,,,,,,,333.92149189999327,None,left,1,1.8081835000775754,334.42136909998953,335.97347500012256,334.42136909998953,335.4729073999915,334.42136909998953,335.4729073999915,334.42136909998953,335.4729073999915,334.42136909998953,335.4729073999915,334.42136909998953,335.4729073999915,335.45692969998345,335.95707769994624,335.45692969998345,335.95707769994624,335.45692969998345,335.95707769994624,335.45692969998345,335.95707769994624,335.45692969998345,335.95707769994624,335.45692969998345,335.95707769994624,335.45692969998345,335.95707769994624,335.45692969998345,335.95707769994624,334.42136909998953,None,335.95707769994624,337.0598027999513,1.0500000000000007,337.07590729999356,None,337.8263938999735,None,,,,,,,[1.09470588],2.690000000000002,0.7843137254901961,11033,001,2024_Jan_11_1816,MFTM_A_new1021,2021.2.3,60.07763230611643,
,,,,,,,,stim/Instruction_adaptive.png,conditions/adaptive.xlsx,test,0.6,0.6,0.6,-0.6,-0.6,right,R,,,,,0,1,1,1,0,51,51,78,,,,,,,,,,,,,,,,,,,,,,,,,,,,,,,,,,,,,,,,,,,,338.3278866999317,None,right,1,1.2895990000106394,338.8281495999545,340.34728620015085,338.8281495999545,339.8626399000641,338.8281495999545,339.8626399000641,338.8281495999545,339.8626399000641,338.8281495999545,339.8626399000641,338.8281495999545,339.8626399000641,339.83044830011204,340.3307320000604,339.83044830011204,340.3307320000604,339.83044830011204,340.3307320000604,339.83044830011204,340.3307320000604,339.83044830011204,340.3307320000604,339.83044830011204,340.3307320000604,339.83044830011204,340.3307320000604,339.83044830011204,340.3307320000604,338.8281495999545,None,340.3307320000604,None,1.0200000000000007,341.4493688000366,None,342.2005805999506,None,,,,,,,[1.10211538],2.720000000000002,0.7884615384615384,11033,001,2024_Jan_11_1816,MFTM_A_new1021,2021.2.3,60.07763230611643,
,,,,,,,,stim/Instruction_adaptive.png,conditions/adaptive.xlsx,test,0.6,0.6,0.6,-0.6,-0.6,right,R,,,,,0,1,1,1,0,52,52,68,,,,,,,,,,,,,,,,,,,,,,,,,,,,,,,,,,,,,,,,,,,,342.701113200048,None,right,1,1.3404798998963088,343.20139840012416,344.7039379000198,343.20139840012416,344.2031509000808,343.20139840012416,344.2031509000808,343.20139840012416,344.2031509000808,343.20139840012416,344.2031509000808,343.20139840012416,344.2031509000808,344.1859196999576,344.6875277000945,344.1859196999576,344.6875277000945,344.1859196999576,344.6875277000945,344.1859196999576,344.6875277000945,344.1859196999576,344.6875277000945,344.1859196999576,344.6875277000945,344.1859196999576,344.6875277000945,344.1859196999576,344.6875277000945,343.20139840012416,None,344.6875277000945,345.80553580005653,1.0000000000000007,345.8214470001403,None,346.573575100163,None,,,,,,,[1.10962264],2.7500000000000018,0.7924528301886793,11033,001,2024_Jan_11_1816,MFTM_A_new1021,2021.2.3,60.07763230611643,
,,,,,,,,stim/Instruction_adaptive.png,conditions/adaptive.xlsx,test,0.6,0.6,0.6,-0.6,-0.6,right,R,,,,,0,1,1,1,0,53,53,52,,,,,,,,,,,,,,,,,,,,,,,,,,,,,,,,,,,,,,,,,,,,347.0742075999733,None,right,1,1.319742999970913,347.5745505001396,349.06013659993187,347.5745505001396,348.55886560003273,347.5745505001396,348.55886560003273,347.5745505001396,348.55886560003273,347.5745505001396,348.55886560003273,347.5745505001396,348.55886560003273,348.5429199000355,349.0437207999639,348.5429199000355,349.0437207999639,348.5429199000355,349.0437207999639,348.5429199000355,349.0437207999639,348.5429199000355,349.0437207999639,348.5429199000355,349.0437207999639,348.5429199000355,349.0437207999639,348.5429199000355,349.0437207999639,347.5745505001396,None,349.0437207999639,350.16209420002997,0.9800000000000006,350.1786440999713,None,350.92922890000045,None,,,,,,,[1.11722222],2.780000000000002,0.7962962962962963,11033,001,2024_Jan_11_1816,MFTM_A_new1021,2021.2.3,60.07763230611643,
,,,,,,,,stim/Instruction_adaptive.png,conditions/adaptive.xlsx,test,-0.6,-0.6,-0.6,0.6,0.6,left,L,,,,,0,1,1,1,0,54,54,75,,,,,,,,,,,,,,,,,,,,,,,,,,,,,,,,,,,,,,,,,,,,351.4307371999603,None,left,1,1.3385785999707878,351.93116650008596,353.40085260011256,351.93116650008596,352.8989747001324,351.93116650008596,352.8989747001324,351.93116650008596,352.8989747001324,351.93116650008596,352.8989747001324,351.93116650008596,352.8989747001324,352.88200520002283,353.3838094000239,352.88200520002283,353.3838094000239,352.88200520002283,353.3838094000239,352.88200520002283,353.3838094000239,352.88200520002283,353.3838094000239,352.88200520002283,353.3838094000239,352.88200520002283,353.3838094000239,352.88200520002283,353.3838094000239,351.93116650008596,None,353.3838094000239,None,0.9600000000000006,354.51843519997783,None,355.2689561001025,None,,,,,,,[1.12490909],2.8100000000000023,0.8,11033,001,2024_Jan_11_1816,MFTM_A_new1021,2021.2.3,60.07763230611643,
,,,,,,,,stim/Instruction_adaptive.png,conditions/adaptive.xlsx,test,0.6,0.6,0.6,-0.6,-0.6,right,R,,,,,0,1,1,1,0,55,55,38,,,,,,,,,,,,,,,,,,,,,,,,,,,,,,,,,,,,,,,,,,,,355.77027860004455,None,right,1,1.239876100094989,356.27029260015115,357.7225129001308,356.27029260015115,357.22233140002936,356.27029260015115,357.22233140002936,356.27029260015115,357.22233140002936,356.27029260015115,357.22233140002936,356.27029260015115,357.22233140002936,357.1896224000957,357.6899415999651,357.1896224000957,357.6899415999651,357.1896224000957,357.6899415999651,357.1896224000957,357.6899415999651,357.1896224000957,357.6899415999651,357.1896224000957,357.6899415999651,357.1896224000957,357.6899415999651,357.1896224000957,357.6899415999651,356.27029260015115,None,357.6899415999651,358.8246208000928,0.9400000000000006,358.8573565001134,None,359.6095686000772,None,,,,,,,[1.13267857],2.840000000000002,0.8035714285714286,11033,001,2024_Jan_11_1816,MFTM_A_new1021,2021.2.3,60.07763230611643,
,,,,,,,,stim/Instruction_adaptive.png,conditions/adaptive.xlsx,test,-0.6,-0.6,-0.6,0.6,0.6,left,L,,,,,0,1,1,1,0,56,56,27,,,,,,,,,,,,,,,,,,,,,,,,,,,,,,,,,,,,,,,,,,,,360.1101319999434,None,right,0,1.37094120006077,360.61068330006674,362.04629379999824,360.61068330006674,361.5453566000797,360.61068330006674,361.5453566000797,360.61068330006674,361.5453566000797,360.61068330006674,361.5453566000797,360.61068330006674,361.5453566000797,361.51233680010773,362.0123813999817,361.51233680010773,362.0123813999817,361.51233680010773,362.0123813999817,361.51233680010773,362.0123813999817,361.51233680010773,362.0123813999817,361.51233680010773,362.0123813999817,361.51233680010773,362.0123813999817,361.51233680010773,362.0123813999817,360.61068330006674,None,362.0123813999817,363.1638501000125,0.9200000000000006,363.1805531999562,None,363.9326264001429,None,,,,,,,[1.14052632],2.760000000000002,0.7894736842105263,11033,001,2024_Jan_11_1816,MFTM_A_new1021,2021.2.3,60.07763230611643,
,,,,,,,,stim/Instruction_adaptive.png,conditions/adaptive.xlsx,test,-0.6,-0.6,-0.6,0.6,0.6,left,L,,,,,0,1,1,1,0,57,57,39,,,,,,,,,,,,,,,,,,,,,,,,,,,,,,,,,,,,,,,,,,,,364.43241750006564,None,left,1,1.4651622001547366,364.9333792999387,366.4019242001232,364.9333792999387,365.918702499941,364.9333792999387,365.918702499941,364.9333792999387,365.918702499941,364.9333792999387,365.918702499941,364.9333792999387,365.918702499941,365.8853263000492,366.38596220011823,365.8853263000492,366.38596220011823,365.8853263000492,366.38596220011823,365.8853263000492,366.38596220011823,365.8853263000492,366.38596220011823,365.8853263000492,366.38596220011823,365.8853263000492,366.38596220011823,365.8853263000492,366.38596220011823,364.9333792999387,None,366.38596220011823,367.5377299000975,0.9700000000000006,367.5536845000461,None,368.3053323000204,None,,,,,,,[1.14724138],2.780000000000002,0.7931034482758621,11033,001,2024_Jan_11_1816,MFTM_A_new1021,2021.2.3,60.07763230611643,
,,,,,,,,stim/Instruction_adaptive.png,conditions/adaptive.xlsx,test,0.6,0.6,0.6,-0.6,-0.6,right,R,,,,,0,1,1,1,0,58,58,16,,,,,,,,,,,,,,,,,,,,,,,,,,,,,,,,,,,,,,,,,,,,368.8063682001084,None,left,0,1.5714211999438703,369.3062279999722,370.775910400087,369.3062279999722,370.27506690006703,369.3062279999722,370.27506690006703,369.3062279999722,370.27506690006703,369.3062279999722,370.27506690006703,369.3062279999722,370.27506690006703,370.2412175000645,370.7419845000841,370.2412175000645,370.7419845000841,370.2412175000645,370.7419845000841,370.2412175000645,370.7419845000841,370.2412175000645,370.7419845000841,370.2412175000645,370.7419845000841,370.2412175000645,370.7419845000841,370.2412175000645,370.7419845000841,369.3062279999722,None,370.7419845000841,371.9112691001501,0.9600000000000006,371.9269199001137,None,372.67865579994395,None,,,,,,,[1.15389831],2.700000000000002,0.7796610169491526,11033,001,2024_Jan_11_1816,MFTM_A_new1021,2021.2.3,60.07763230611643,
,,,,,,,,stim/Instruction_adaptive.png,conditions/adaptive.xlsx,test,0.6,0.6,0.6,-0.6,-0.6,right,R,,,,,0,1,1,1,0,59,59,90,,,,,,,,,,,,,,,,,,,,,,,,,,,,,,,,,,,,,,,,,,,,373.1796267000027,None,right,1,1.3019536999054253,373.68011920014396,375.1995952001307,373.68011920014396,374.6983324000612,373.68011920014396,374.6983324000612,373.68011920014396,374.6983324000612,373.68011920014396,374.6983324000612,373.68011920014396,374.6983324000612,374.68168810009956,375.1826361999847,374.68168810009956,375.1826361999847,374.68168810009956,375.1826361999847,374.68168810009956,375.1826361999847,374.68168810009956,375.1826361999847,374.68168810009956,375.1826361999847,374.68168810009956,375.1826361999847,374.68168810009956,375.1826361999847,373.68011920014396,None,375.1826361999847,None,1.0100000000000007,376.3501019999385,None,377.1017907001078,None,,,,,,,[1.1595],2.730000000000002,0.7833333333333333,11033,001,2024_Jan_11_1816,MFTM_A_new1021,2021.2.3,60.07763230611643,
,,,,,,,,stim/Instruction_adaptive.png,conditions/adaptive.xlsx,test,0.6,0.6,0.6,-0.6,-0.6,right,R,,,,,0,1,1,1,0,60,60,18,,,,,,,,,,,,,,,,,,,,,,,,,,,,,,,,,,,,,,,,,,,,377.6030478000175,None,right,1,1.8393085000570863,378.1026717000641,379.6049009000417,378.1026717000641,379.10450020013377,378.1026717000641,379.10450020013377,378.1026717000641,379.10450020013377,378.1026717000641,379.10450020013377,378.1026717000641,379.10450020013377,379.0713676000014,379.57141770003363,379.0713676000014,379.57141770003363,379.0713676000014,379.57141770003363,379.0713676000014,379.57141770003363,379.0713676000014,379.57141770003363,379.0713676000014,379.57141770003363,379.0713676000014,379.57141770003363,379.0713676000014,379.57141770003363,378.1026717000641,None,379.57141770003363,380.7411234001629,0.9900000000000007,380.75668069999665,None,381.5082162001636,None,,,,,,,[1.1652459],2.760000000000002,0.7868852459016393,11033,001,2024_Jan_11_1816,MFTM_A_new1021,2021.2.3,60.07763230611643,
,,,,,,,,stim/Instruction_adaptive.png,conditions/adaptive.xlsx,test,-0.6,-0.6,-0.6,0.6,0.6,left,L,,,,,0,1,1,1,0,61,61,97,,,,,,,,,,,,,,,,,,,,,,,,,,,,,,,,,,,,,,,,,,,,382.0096971001476,None,left,1,1.4635683000087738,382.51015960006043,383.9953962001018,382.51015960006043,383.4944438999519,382.51015960006043,383.4944438999519,382.51015960006043,383.4944438999519,382.51015960006043,383.4944438999519,382.51015960006043,383.4944438999519,383.46071880008094,383.9621850999538,383.46071880008094,383.9621850999538,383.46071880008094,383.9621850999538,383.46071880008094,383.9621850999538,383.46071880008094,383.9621850999538,383.46071880008094,383.9621850999538,383.46071880008094,383.9621850999538,383.46071880008094,383.9621850999538,382.51015960006043,None,383.9621850999538,385.1465423000045,0.9700000000000006,385.16314940014854,None,385.91484690015204,None,,,,,,,[1.17112903],2.780000000000002,0.7903225806451613,11033,001,2024_Jan_11_1816,MFTM_A_new1021,2021.2.3,60.07763230611643,
,,,,,,,,stim/Instruction_adaptive.png,conditions/adaptive.xlsx,test,-0.6,-0.6,-0.6,0.6,0.6,left,L,,,,,0,1,1,1,0,62,62,1,,,,,,,,,,,,,,,,,,,,,,,,,,,,,,,,,,,,,,,,,,,,386.4150623001624,None,left,1,1.6031219998840243,386.9156299000606,388.3854482001625,386.9156299000606,387.8836926999502,386.9156299000606,387.8836926999502,386.9156299000606,387.8836926999502,386.9156299000606,387.8836926999502,386.9156299000606,387.8836926999502,387.8669813000597,388.3678514000494,387.8669813000597,388.3678514000494,387.8669813000597,388.3678514000494,387.8669813000597,388.3678514000494,387.8669813000597,388.3678514000494,387.8669813000597,388.3678514000494,387.8669813000597,388.3678514000494,387.8669813000597,388.3678514000494,386.9156299000606,None,388.3519389999565,389.5369876001496,0.9600000000000006,389.55372290010564,None,390.304811200127,None,,,,,,,[1.17698413],2.8100000000000023,0.7936507936507936,11033,001,2024_Jan_11_1816,MFTM_A_new1021,2021.2.3,60.07763230611643,
,,,,,,,,stim/Instruction_adaptive.png,conditions/adaptive.xlsx,test,-0.6,-0.6,-0.6,0.6,0.6,left,L,,,,,0,1,1,1,0,63,63,67,,,,,,,,,,,,,,,,,,,,,,,,,,,,,,,,,,,,,,,,,,,,390.80581440008245,None,left,1,1.371795600047335,391.3058971001301,392.7584899000358,391.3058971001301,392.2577015000861,391.3058971001301,392.2577015000861,391.3058971001301,392.2577015000861,391.3058971001301,392.2577015000861,391.3058971001301,392.2577015000861,392.22348199994303,392.72447569994256,392.22348199994303,392.72447569994256,392.22348199994303,392.72447569994256,392.22348199994303,392.72447569994256,392.22348199994303,392.72447569994256,392.22348199994303,392.72447569994256,392.22348199994303,392.72447569994256,392.22348199994303,392.72447569994256,391.3058971001301,None,392.72447569994256,393.9106308000628,0.9400000000000006,393.94327750010416,None,394.69423789996654,None,,,,,,,[1.18296875],2.840000000000002,0.796875,11033,001,2024_Jan_11_1816,MFTM_A_new1021,2021.2.3,60.07763230611643,
,,,,,,,,stim/Instruction_adaptive.png,conditions/adaptive.xlsx,test,0.6,0.6,0.6,-0.6,-0.6,right,R,,,,,0,1,1,1,0,64,64,26,,,,,,,,,,,,,,,,,,,,,,,,,,,,,,,,,,,,,,,,,,,,395.19489330006763,None,right,1,0.9827127000316978,395.6953211000655,397.1312563000247,395.6953211000655,396.6141236999538,395.6953211000655,396.6141236999538,395.6953211000655,396.6141236999538,395.6953211000655,396.6141236999538,395.6953211000655,396.6141236999538,396.597732400056,397.0975252999924,396.597732400056,397.0975252999924,396.597732400056,397.0975252999924,396.597732400056,397.0975252999924,396.597732400056,397.0975252999924,396.597732400056,397.0975252999924,396.597732400056,397.0975252999924,396.597732400056,397.0975252999924,395.6953211000655,None,397.0975252999924,398.29973770002834,0.9200000000000006,398.3162565000821,None,399.0679755001329,None,,,,,,,[1.18907692],2.860000000000002,0.8,11033,001,2024_Jan_11_1816,MFTM_A_new1021,2021.2.3,60.07763230611643,
,,,,,,,,stim/Instruction_adaptive.png,conditions/adaptive.xlsx,test,0.6,0.6,0.6,-0.6,-0.6,right,R,,,,,0,1,1,1,0,65,65,60,,,,,,,,,,,,,,,,,,,,,,,,,,,,,,,,,,,,,,,,,,,,399.56873519998044,None,right,1,1.4332314000930637,400.06906579993665,401.48747440008447,400.06906579993665,400.98666199995205,400.06906579993665,400.98666199995205,400.06906579993665,400.98666199995205,400.06906579993665,400.98666199995205,400.06906579993665,400.98666199995205,400.9703808000777,401.47140110004693,400.9703808000777,401.47140110004693,400.9703808000777,401.47140110004693,400.9703808000777,401.47140110004693,400.9703808000777,401.47140110004693,400.9703808000777,401.47140110004693,400.9703808000777,401.47140110004693,400.9703808000777,401.47140110004693,400.06906579993665,None,401.47140110004693,None,0.9100000000000006,402.67295969999395,None,403.4242962000426,None,,,,,,,[1.19515152],2.8900000000000023,0.803030303030303,11033,001,2024_Jan_11_1816,MFTM_A_new1021,2021.2.3,60.07763230611643,
,,,,,,,,stim/Instruction_adaptive.png,conditions/adaptive.xlsx,test,-0.6,-0.6,-0.6,0.6,0.6,left,L,,,,,0,1,1,1,0,66,66,53,,,,,,,,,,,,,,,,,,,,,,,,,,,,,,,,,,,,,,,,,,,,403.92443140014075,None,right,0,1.533292100066319,404.4249536001589,405.82732439995743,404.4249536001589,405.32647190010175,404.4249536001589,405.32647190010175,404.4249536001589,405.32647190010175,404.4249536001589,405.32647190010175,404.4249536001589,405.32647190010175,405.2929404999595,405.79431300004944,405.2929404999595,405.79431300004944,405.2929404999595,405.79431300004944,405.2929404999595,405.79431300004944,405.2929404999595,405.79431300004944,405.2929404999595,405.79431300004944,405.2929404999595,405.79431300004944,405.2929404999595,405.79431300004944,404.4249536001589,None,405.79431300004944,406.99549799994566,0.8900000000000006,407.02879360015504,None,407.78028429998085,None,,,,,,,[1.20134328],2.8100000000000023,0.7910447761194029,11033,001,2024_Jan_11_1816,MFTM_A_new1021,2021.2.3,60.07763230611643,
,,,,,,,,stim/Instruction_adaptive.png,conditions/adaptive.xlsx,test,-0.6,-0.6,-0.6,0.6,0.6,left,L,,,,,0,1,1,1,0,67,67,25,,,,,,,,,,,,,,,,,,,,,,,,,,,,,,,,,,,,,,,,,,,,408.280710299965,None,left,1,1.2316514998674393,408.7825361001305,410.2343528000638,408.7825361001305,409.73324940004386,408.7825361001305,409.73324940004386,408.7825361001305,409.73324940004386,408.7825361001305,409.73324940004386,408.7825361001305,409.73324940004386,409.70051000011154,410.2002481999807,409.70051000011154,410.2002481999807,409.70051000011154,410.2002481999807,409.70051000011154,410.2002481999807,409.70051000011154,410.2002481999807,409.70051000011154,410.2002481999807,409.70051000011154,410.2002481999807,409.70051000011154,410.2002481999807,408.7825361001305,None,410.2002481999807,411.41881199995987,0.9400000000000006,411.43580390000716,None,412.18750560004264,None,,,,,,,[1.20661765],2.840000000000002,0.7941176470588235,11033,001,2024_Jan_11_1816,MFTM_A_new1021,2021.2.3,60.07763230611643,
,,,,,,,,stim/Instruction_adaptive.png,conditions/adaptive.xlsx,test,0.6,0.6,0.6,-0.6,-0.6,right,R,,,,,0,1,1,1,0,68,68,88,,,,,,,,,,,,,,,,,,,,,,,,,,,,,,,,,,,,,,,,,,,,412.6876618999522,None,left,0,1.2251798000652343,413.1885842999909,414.62435359996744,413.1885842999909,414.1228591001127,413.1885842999909,414.1228591001127,413.1885842999909,414.1228591001127,413.1885842999909,414.1228591001127,413.1885842999909,414.1228591001127,414.0906716999598,414.5901659000665,414.0906716999598,414.5901659000665,414.0906716999598,414.5901659000665,414.0906716999598,414.5901659000665,414.0906716999598,414.5901659000665,414.0906716999598,414.5901659000665,414.0906716999598,414.5901659000665,414.0906716999598,414.5901659000665,413.1885842999909,None,414.5901659000665,415.8092515000608,0.9200000000000006,415.825052900007,None,416.5771023000125,None,,,,,,,[1.21202899],2.7700000000000022,0.782608695652174,11033,001,2024_Jan_11_1816,MFTM_A_new1021,2021.2.3,60.07763230611643,
,,,,,,,,stim/Instruction_adaptive.png,conditions/adaptive.xlsx,test,0.6,0.6,0.6,-0.6,-0.6,right,R,,,,,0,1,1,1,0,69,69,10,,,,,,,,,,,,,,,,,,,,,,,,,,,,,,,,,,,,,,,,,,,,417.07730370014906,None,left,0,1.4588558999821544,417.5788255999796,419.04729579994455,417.5788255999796,418.54654010012746,417.5788255999796,418.54654010012746,417.5788255999796,418.54654010012746,417.5788255999796,418.54654010012746,417.5788255999796,418.54654010012746,418.5127119999379,419.0143381000962,418.5127119999379,419.0143381000962,418.5127119999379,419.0143381000962,418.5127119999379,419.0143381000962,418.5127119999379,419.0143381000962,418.5127119999379,419.0143381000962,418.5127119999379,419.0143381000962,418.5127119999379,419.0143381000962,417.5788255999796,None,419.0143381000962,420.232024300145,0.9600000000000006,420.2660108001437,None,421.0170579000842,None,,,,,,,[1.21671429],2.690000000000002,0.7714285714285715,11033,001,2024_Jan_11_1816,MFTM_A_new1021,2021.2.3,60.07763230611643,
,,,,,,,,stim/Instruction_adaptive.png,conditions/adaptive.xlsx,test,-0.6,-0.6,-0.6,0.6,0.6,left,L,,,,,0,1,1,1,0,70,70,85,,,,,,,,,,,,,,,,,,,,,,,,,,,,,,,,,,,,,,,,,,,,421.51762020005845,None,left,1,1.3396842000074685,422.01833870005794,423.55362690007314,422.01833870005794,423.05321260006167,422.01833870005794,423.05321260006167,422.01833870005794,423.05321260006167,422.01833870005794,423.05321260006167,422.01833870005794,423.05321260006167,423.0199418000411,423.5205715999473,423.0199418000411,423.5205715999473,423.0199418000411,423.5205715999473,423.0199418000411,423.5205715999473,423.0199418000411,423.5205715999473,423.0199418000411,423.5205715999473,423.0199418000411,423.5205715999473,423.0199418000411,423.5205715999473,422.01833870005794,None,423.5205715999473,424.75539820012636,1.0200000000000007,424.77188350004144,None,425.5236764000729,None,,,,,,,[1.22042254],2.720000000000002,0.7746478873239436,11033,001,2024_Jan_11_1816,MFTM_A_new1021,2021.2.3,60.07763230611643,
,,,,,,,,stim/Instruction_adaptive.png,conditions/adaptive.xlsx,test,-0.6,-0.6,-0.6,0.6,0.6,left,L,,,,,0,1,1,1,0,71,71,33,,,,,,,,,,,,,,,,,,,,,,,,,,,,,,,,,,,,,,,,,,,,426.02390279993415,None,left,1,1.1857416999991983,426.5243945000693,428.0266442000866,426.5243945000693,427.52594229998067,426.5243945000693,427.52594229998067,426.5243945000693,427.52594229998067,426.5243945000693,427.52594229998067,426.5243945000693,427.52594229998067,427.5098143001087,428.0105111000594,427.5098143001087,428.0105111000594,427.5098143001087,428.0105111000594,427.5098143001087,428.0105111000594,427.5098143001087,428.0105111000594,427.5098143001087,428.0105111000594,427.5098143001087,428.0105111000594,427.5098143001087,428.0105111000594,426.5243945000693,None,428.0105111000594,429.2453114001546,1.0000000000000007,429.26181149994954,None,430.0140806999989,None,,,,,,,[1.22430556],2.740000000000002,0.7777777777777778,11033,001,2024_Jan_11_1816,MFTM_A_new1021,2021.2.3,60.07763230611643,
,,,,,,,,stim/Instruction_adaptive.png,conditions/adaptive.xlsx,test,0.6,0.6,0.6,-0.6,-0.6,right,R,,,,,0,1,1,1,0,72,72,96,,,,,,,,,,,,,,,,,,,,,,,,,,,,,,,,,,,,,,,,,,,,430.5147017999552,None,right,1,1.1521122001577169,431.0146592000965,432.50000070012175,431.0146592000965,432.00004980014637,431.0146592000965,432.00004980014637,431.0146592000965,432.00004980014637,431.0146592000965,432.00004980014637,431.0146592000965,432.00004980014637,431.9832610001322,432.48408249998465,431.9832610001322,432.48408249998465,431.9832610001322,432.48408249998465,431.9832610001322,432.48408249998465,431.9832610001322,432.48408249998465,431.9832610001322,432.48408249998465,431.9832610001322,432.48408249998465,431.9832610001322,432.48408249998465,431.0146592000965,None,432.48408249998465,433.7195222999435,0.9800000000000006,433.7352663001511,None,434.4870213000104,None,,,,,,,[1.22835616],2.7700000000000022,0.7808219178082192,11033,001,2024_Jan_11_1816,MFTM_A_new1021,2021.2.3,60.07763230611643,
,,,,,,,,stim/Instruction_adaptive.png,conditions/adaptive.xlsx,test,-0.6,-0.6,-0.6,0.6,0.6,left,L,,,,,0,1,1,1,0,73,73,49,,,,,,,,,,,,,,,,,,,,,,,,,,,,,,,,,,,,,,,,,,,,434.9877774999477,None,left,1,1.0621392000466585,435.4879445999395,436.95742680015974,435.4879445999395,436.45700870011933,435.4879445999395,436.45700870011933,435.4879445999395,436.45700870011933,435.4879445999395,436.45700870011933,435.4879445999395,436.45700870011933,436.4223961001262,436.92424269998446,436.4223961001262,436.92424269998446,436.4223961001262,436.92424269998446,436.4223961001262,436.92424269998446,436.4223961001262,436.92424269998446,436.4223961001262,436.92424269998446,436.4223961001262,436.92424269998446,436.4223961001262,436.92424269998446,435.4879445999395,None,436.92424269998446,438.1592993000522,0.9600000000000006,438.1917262999341,None,438.94358590012416,None,,,,,,,[1.23256757],2.790000000000002,0.7837837837837838,11033,001,2024_Jan_11_1816,MFTM_A_new1021,2021.2.3,60.07763230611643,
,,,,,,,,stim/Instruction_adaptive.png,conditions/adaptive.xlsx,test,0.6,0.6,0.6,-0.6,-0.6,right,R,,,,,0,1,1,1,0,74,74,6,,,,,,,,,,,,,,,,,,,,,,,,,,,,,,,,,,,,,,,,,,,,439.44361039996147,None,left,0,0.9660027001518756,439.9442883001175,441.3970755999908,439.9442883001175,440.8970187001396,439.9442883001175,440.8970187001396,439.9442883001175,440.8970187001396,439.9442883001175,440.8970187001396,439.9442883001175,440.8970187001396,440.87965669995174,441.3802273001056,440.87965669995174,441.3802273001056,440.87965669995174,441.3802273001056,440.87965669995174,441.3802273001056,440.87965669995174,441.3802273001056,440.87965669995174,441.3802273001056,440.87965669995174,441.3802273001056,440.87965669995174,441.3802273001056,439.9442883001175,None,441.3802273001056,None,0.9500000000000006,442.6320985001512,None,443.3835963001475,None,,,,,,,[1.2368],2.720000000000002,0.7733333333333333,11033,001,2024_Jan_11_1816,MFTM_A_new1021,2021.2.3,60.07763230611643,
,,,,,,,,stim/Instruction_adaptive.png,conditions/adaptive.xlsx,test,0.6,0.6,0.6,-0.6,-0.6,right,R,,,,,0,1,1,1,0,75,75,2,,,,,,,,,,,,,,,,,,,,,,,,,,,,,,,,,,,,,,,,,,,,443.8841085000895,None,right,1,1.5256118001416326,444.38430629996583,445.88703009998426,444.38430629996583,445.3864857000299,444.38430629996583,445.3864857000299,444.38430629996583,445.3864857000299,444.38430629996583,445.3864857000299,444.38430629996583,445.3864857000299,445.3701319000684,445.8703676001169,445.3701319000684,445.8703676001169,445.3701319000684,445.8703676001169,445.3701319000684,445.8703676001169,445.3701319000684,445.8703676001169,445.3701319000684,445.8703676001169,445.3701319000684,445.8703676001169,445.3701319000684,445.8703676001169,444.38430629996583,None,445.8703676001169,447.1225207000971,1.0000000000000007,447.13775400002487,None,447.8893401999958,None,,,,,,,[1.24026316],2.7500000000000018,0.7763157894736842,11033,001,2024_Jan_11_1816,MFTM_A_new1021,2021.2.3,60.07763230611643,
,,,,,,,,stim/Instruction_adaptive.png,conditions/adaptive.xlsx,test,0.6,0.6,0.6,-0.6,-0.6,right,R,,,,,0,1,1,1,0,76,76,20,,,,,,,,,,,,,,,,,,,,,,,,,,,,,,,,,,,,,,,,,,,,448.3908484999556,None,right,1,1.5312290000729263,448.8907465999946,450.37718360009603,448.8907465999946,449.8761861999519,448.8907465999946,449.8761861999519,448.8907465999946,449.8761861999519,448.8907465999946,449.8761861999519,448.8907465999946,449.8761861999519,449.85968280001543,450.3605391001329,449.85968280001543,450.3605391001329,449.85968280001543,450.3605391001329,449.85968280001543,450.3605391001329,449.85968280001543,450.3605391001329,449.85968280001543,450.3605391001329,449.85968280001543,450.3605391001329,449.85968280001543,450.3605391001329,448.8907465999946,None,450.3605391001329,451.6123718000017,0.9800000000000006,451.6293550999835,None,452.380237699952,None,,,,,,,[1.2438961],2.7700000000000022,0.7792207792207793,11033,001,2024_Jan_11_1816,MFTM_A_new1021,2021.2.3,60.07763230611643,
,,,,,,,,stim/Instruction_adaptive.png,conditions/adaptive.xlsx,test,-0.6,-0.6,-0.6,0.6,0.6,left,L,,,,,0,1,1,1,0,77,77,7,,,,,,,,,,,,,,,,,,,,,,,,,,,,,,,,,,,,,,,,,,,,452.88068050006405,None,left,1,1.825102600036189,453.38097649998963,454.8503684999887,453.38097649998963,454.3495682000648,453.38097649998963,454.3495682000648,453.38097649998963,454.3495682000648,453.38097649998963,454.3495682000648,453.38097649998963,454.3495682000648,454.3324482999742,454.83385960012674,454.3324482999742,454.83385960012674,454.3324482999742,454.83385960012674,454.3324482999742,454.83385960012674,454.3324482999742,454.83385960012674,454.3324482999742,454.83385960012674,454.3324482999742,454.83385960012674,454.3324482999742,454.83385960012674,453.38097649998963,None,454.8175625000149,456.06864620000124,0.9600000000000006,456.10161520005204,None,456.8526388001628,None,,,,,,,[1.24769231],2.790000000000002,0.782051282051282,11033,001,2024_Jan_11_1816,MFTM_A_new1021,2021.2.3,60.07763230611643,
,,,,,,,,stim/Instruction_adaptive.png,conditions/adaptive.xlsx,test,-0.6,-0.6,-0.6,0.6,0.6,left,L,,,,,0,1,1,1,0,78,78,9,,,,,,,,,,,,,,,,,,,,,,,,,,,,,,,,,,,,,,,,,,,,457.35363840009086,None,left,1,1.1830635000951588,457.854859800078,459.307006200077,457.854859800078,458.80564590008,457.854859800078,458.80564590008,457.854859800078,458.80564590008,457.854859800078,458.80564590008,457.854859800078,458.80564590008,458.7888883999549,459.2905344001483,458.7888883999549,459.2905344001483,458.7888883999549,459.2905344001483,458.7888883999549,459.2905344001483,458.7888883999549,459.2905344001483,458.7888883999549,459.2905344001483,458.7888883999549,459.2905344001483,458.7888883999549,459.2905344001483,457.854859800078,None,459.2905344001483,460.54219430009834,0.9500000000000006,460.55821430007927,None,461.3102510001045,None,,,,,,,[1.25151899],2.8100000000000023,0.7848101265822784,11033,001,2024_Jan_11_1816,MFTM_A_new1021,2021.2.3,60.07763230611643,
,,,,,,,,stim/Instruction_adaptive.png,conditions/adaptive.xlsx,test,-0.6,-0.6,-0.6,0.6,0.6,left,L,,,,,0,1,1,1,0,79,79,5,,,,,,,,,,,,,,,,,,,,,,,,,,,,,,,,,,,,,,,,,,,,461.81150870001875,None,right,0,1.662693299818784,462.3115381000098,463.76376780006103,462.3115381000098,463.26242569996975,462.3115381000098,463.26242569996975,462.3115381000098,463.26242569996975,462.3115381000098,463.26242569996975,462.3115381000098,463.26242569996975,463.2289877999574,463.73068600008264,463.2289877999574,463.73068600008264,463.2289877999574,463.73068600008264,463.2289877999574,463.73068600008264,463.2289877999574,463.73068600008264,463.2289877999574,463.73068600008264,463.2289877999574,463.73068600008264,463.2289877999574,463.73068600008264,462.3115381000098,None,463.73068600008264,464.99926850013435,0.9400000000000006,465.0144847999327,None,465.7662967001088,None,,,,,,,[1.255375],2.7500000000000018,0.775,11033,001,2024_Jan_11_1816,MFTM_A_new1021,2021.2.3,60.07763230611643,
,,,,,,,,stim/Instruction_adaptive.png,conditions/adaptive.xlsx,test,0.6,0.6,0.6,-0.6,-0.6,right,R,,,,,0,1,1,1,0,80,80,84,,,,,,,,,,,,,,,,,,,,,,,,,,,,,,,,,,,,,,,,,,,,466.2667262000032,None,left,0,1.8059271001257002,466.76799169997685,468.2530279001221,466.76799169997685,467.75233429996297,466.76799169997685,467.75233429996297,466.76799169997685,467.75233429996297,466.76799169997685,467.75233429996297,466.76799169997685,467.75233429996297,467.736326900078,468.23636350012384,467.736326900078,468.23636350012384,467.736326900078,468.23636350012384,467.736326900078,468.23636350012384,467.736326900078,468.23636350012384,467.736326900078,468.23636350012384,467.736326900078,468.23636350012384,467.736326900078,468.23636350012384,466.76799169997685,None,468.23636350012384,None,0.9800000000000006,469.50548950000666,None,470.256634300109,None,,,,,,,[1.25864198],2.680000000000002,0.7654320987654321,11033,001,2024_Jan_11_1816,MFTM_A_new1021,2021.2.3,60.07763230611643,
,,,,,,,,stim/Instruction_adaptive.png,conditions/adaptive.xlsx,test,0.6,0.6,0.6,-0.6,-0.6,right,R,,,,,0,1,1,1,0,81,81,30,,,,,,,,,,,,,,,,,,,,,,,,,,,,,,,,,,,,,,,,,,,,470.7574879000895,None,right,1,1.4757125999312848,471.2582762001548,472.79354199999943,471.2582762001548,472.29227129998617,471.2582762001548,472.29227129998617,471.2582762001548,472.29227129998617,471.2582762001548,472.29227129998617,471.2582762001548,472.29227129998617,472.2763914000243,472.77675580000505,472.2763914000243,472.77675580000505,472.2763914000243,472.77675580000505,472.2763914000243,472.77675580000505,472.2763914000243,472.77675580000505,472.2763914000243,472.77675580000505,472.2763914000243,472.77675580000505,472.2763914000243,472.77675580000505,471.2582762001548,None,472.77675580000505,474.04519370011985,1.0300000000000007,474.06153640011325,None,474.81367369997315,None,,,,,,,[1.26121951],2.7100000000000017,0.7682926829268293,11033,001,2024_Jan_11_1816,MFTM_A_new1021,2021.2.3,60.07763230611643,
,,,,,,,,stim/Instruction_adaptive.png,conditions/adaptive.xlsx,test,0.6,0.6,0.6,-0.6,-0.6,right,R,,,,,0,1,1,1,0,82,82,50,,,,,,,,,,,,,,,,,,,,,,,,,,,,,,,,,,,,,,,,,,,,475.3135800999589,None,left,0,1.9363033999688923,475.81420260015875,477.33339229994453,475.81420260015875,476.83338239998557,475.81420260015875,476.83338239998557,475.81420260015875,476.83338239998557,475.81420260015875,476.83338239998557,475.81420260015875,476.83338239998557,476.7996623001527,477.3006416000426,476.7996623001527,477.3006416000426,476.7996623001527,477.3006416000426,476.7996623001527,477.3006416000426,476.7996623001527,477.3006416000426,476.7996623001527,477.3006416000426,476.7996623001527,477.3006416000426,476.7996623001527,477.3006416000426,475.81420260015875,None,477.3006416000426,478.5692487999331,1.0100000000000007,478.6016542001162,None,479.35329840006307,None,,,,,,,[1.2639759],2.640000000000002,0.7590361445783133,11033,001,2024_Jan_11_1816,MFTM_A_new1021,2021.2.3,60.07763230611643,
,,,,,,,,stim/Instruction_adaptive.png,conditions/adaptive.xlsx,test,0.6,0.6,0.6,-0.6,-0.6,right,R,,,,,0,1,1,1,0,83,83,42,,,,,,,,,,,,,,,,,,,,,,,,,,,,,,,,,,,,,,,,,,,,479.8541556999553,None,right,1,2.3637602000962943,480.35421200003475,481.9241333999671,480.35421200003475,481.4222659000661,480.35421200003475,481.4222659000661,480.35421200003475,481.4222659000661,480.35421200003475,481.4222659000661,480.35421200003475,481.4222659000661,481.40563930012286,481.90723589994013,481.40563930012286,481.90723589994013,481.40563930012286,481.90723589994013,481.40563930012286,481.90723589994013,481.40563930012286,481.90723589994013,481.40563930012286,481.90723589994013,481.40563930012286,481.90723589994013,481.40563930012286,481.90723589994013,480.35421200003475,None,481.89080830011517,483.1589518999681,1.0600000000000007,483.1917499001138,None,483.94377090013586,None,,,,,,,[1.26607143],2.660000000000002,0.7619047619047619,11033,001,2024_Jan_11_1816,MFTM_A_new1021,2021.2.3,60.07763230611643,
,,,,,,,,stim/Instruction_adaptive.png,conditions/adaptive.xlsx,test,0.6,0.6,0.6,-0.6,-0.6,right,R,,,,,0,1,1,1,0,84,84,28,,,,,,,,,,,,,,,,,,,,,,,,,,,,,,,,,,,,,,,,,,,,484.4444637000561,None,right,1,1.2450089000631124,484.9448955000844,486.497471800074,484.9448955000844,485.9959126000758,484.9448955000844,485.9959126000758,484.9448955000844,485.9959126000758,484.9448955000844,485.9959126000758,484.9448955000844,485.9959126000758,485.96335129998624,486.46397839998826,485.96335129998624,486.46397839998826,485.96335129998624,486.46397839998826,485.96335129998624,486.46397839998826,485.96335129998624,486.46397839998826,485.96335129998624,486.46397839998826,485.96335129998624,486.46397839998826,485.96335129998624,486.46397839998826,484.9448955000844,None,486.46397839998826,487.73245210014284,1.0400000000000007,487.76600580010563,None,488.5165506999474,None,,,,,,,[1.26835294],2.680000000000002,0.7647058823529411,11033,001,2024_Jan_11_1816,MFTM_A_new1021,2021.2.3,60.07763230611643,
,,,,,,,,stim/Instruction_adaptive.png,conditions/adaptive.xlsx,test,-0.6,-0.6,-0.6,0.6,0.6,left,L,,,,,0,1,1,1,0,85,85,23,,,,,,,,,,,,,,,,,,,,,,,,,,,,,,,,,,,,,,,,,,,,489.01764890016057,None,left,1,1.0800004999618977,489.5177023001015,491.0541535001248,489.5177023001015,490.55347959999926,489.5177023001015,490.55347959999926,489.5177023001015,490.55347959999926,489.5177023001015,490.55347959999926,489.5177023001015,490.55347959999926,490.53678399999626,491.0374696000945,490.53678399999626,491.0374696000945,490.53678399999626,491.0374696000945,490.53678399999626,491.0374696000945,490.53678399999626,491.0374696000945,490.53678399999626,491.0374696000945,490.53678399999626,491.0374696000945,490.53678399999626,491.0374696000945,489.5177023001015,None,491.0374696000945,None,1.0300000000000007,492.32249759999104,None,493.07376540009864,None,,,,,,,[1.27069767],2.7100000000000017,0.7674418604651163,11033,001,2024_Jan_11_1816,MFTM_A_new1021,2021.2.3,60.07763230611643,
,,,,,,,,stim/Instruction_adaptive.png,conditions/adaptive.xlsx,test,0.6,0.6,0.6,-0.6,-0.6,right,R,,,,,0,1,1,1,0,86,86,34,,,,,,,,,,,,,,,,,,,,,,,,,,,,,,,,,,,,,,,,,,,,493.5739182999823,None,right,1,1.667107000015676,494.07468620012514,495.59404180012643,494.07468620012514,495.09320880007,494.07468620012514,495.09320880007,494.07468620012514,495.09320880007,494.07468620012514,495.09320880007,494.07468620012514,495.09320880007,495.07651120005175,495.57665870012715,495.07651120005175,495.57665870012715,495.07651120005175,495.57665870012715,495.07651120005175,495.57665870012715,495.07651120005175,495.57665870012715,495.07651120005175,495.57665870012715,495.07651120005175,495.57665870012715,495.07651120005175,495.57665870012715,494.07468620012514,None,495.57665870012715,None,1.0100000000000007,496.86259629996493,None,497.6131472000852,None,,,,,,,[1.27321839],2.730000000000002,0.7701149425287356,11033,001,2024_Jan_11_1816,MFTM_A_new1021,2021.2.3,60.07763230611643,
,,,,,,,,stim/Instruction_adaptive.png,conditions/adaptive.xlsx,test,-0.6,-0.6,-0.6,0.6,0.6,left,L,,,,,0,1,1,1,0,87,87,63,,,,,,,,,,,,,,,,,,,,,,,,,,,,,,,,,,,,,,,,,,,,498.1148067000322,None,right,0,1.438033299986273,498.61592740006745,500.1181529001333,498.61592740006745,499.61611860012636,498.61592740006745,499.61611860012636,498.61592740006745,499.61611860012636,498.61592740006745,499.61611860012636,498.61592740006745,499.61611860012636,499.5828825000208,500.08323780004866,499.5828825000208,500.08323780004866,499.5828825000208,500.08323780004866,499.5828825000208,500.08323780004866,499.5828825000208,500.08323780004866,499.5828825000208,500.08323780004866,499.5828825000208,500.08323780004866,499.5828825000208,500.08323780004866,498.61592740006745,None,500.08323780004866,501.3692522000056,0.9900000000000007,501.3851419000421,None,502.1375609000679,None,,,,,,,[1.27590909],2.6700000000000017,0.7613636363636364,11033,001,2024_Jan_11_1816,MFTM_A_new1021,2021.2.3,60.07763230611643,
,,,,,,,,stim/Instruction_adaptive.png,conditions/adaptive.xlsx,test,-0.6,-0.6,-0.6,0.6,0.6,left,L,,,,,0,1,1,1,0,88,88,17,,,,,,,,,,,,,,,,,,,,,,,,,,,,,,,,,,,,,,,,,,,,502.63802030007355,None,right,0,1.57887400011532,503.13889640010893,504.6745097001549,503.13889640010893,504.1736620001029,503.13889640010893,504.1736620001029,503.13889640010893,504.1736620001029,503.13889640010893,504.1736620001029,503.13889640010893,504.1736620001029,504.1572108999826,504.6571321999654,504.1572108999826,504.6571321999654,504.1572108999826,504.6571321999654,504.1572108999826,504.6571321999654,504.1572108999826,504.6571321999654,504.1572108999826,504.6571321999654,504.1572108999826,504.6571321999654,504.1572108999826,504.6571321999654,503.13889640010893,None,504.6571321999654,505.94425110006705,1.0300000000000007,505.958231800003,None,506.7111504999921,None,,,,,,,[1.27808989],2.600000000000002,0.7528089887640449,11033,001,2024_Jan_11_1816,MFTM_A_new1021,2021.2.3,60.07763230611643,
,,,,,,,,stim/Instruction_adaptive.png,conditions/adaptive.xlsx,test,-0.6,-0.6,-0.6,0.6,0.6,left,L,,,,,0,1,1,1,0,89,89,99,,,,,,,,,,,,,,,,,,,,,,,,,,,,,,,,,,,,,,,,,,,,507.2118655999657,None,left,1,1.1424899001140147,507.71148409997113,509.3138874999713,507.71148409997113,508.8136928000022,507.71148409997113,508.8136928000022,507.71148409997113,508.8136928000022,507.71148409997113,508.8136928000022,507.71148409997113,508.8136928000022,508.7804433000274,509.28098229994066,508.7804433000274,509.28098229994066,508.7804433000274,509.28098229994066,508.7804433000274,509.28098229994066,508.7804433000274,509.28098229994066,508.7804433000274,509.28098229994066,508.7804433000274,509.28098229994066,508.7804433000274,509.28098229994066,507.71148409997113,None,509.28098229994066,510.5658291000873,1.0900000000000007,510.5823204999324,None,511.3342071999796,None,,,,,,,[1.27955556],2.620000000000002,0.7555555555555555,11033,001,2024_Jan_11_1816,MFTM_A_new1021,2021.2.3,60.07763230611643,
,,,,,,,,stim/Instruction_adaptive.png,conditions/adaptive.xlsx,test,0.6,0.6,0.6,-0.6,-0.6,right,R,,,,,0,1,1,1,0,90,90,22,,,,,,,,,,,,,,,,,,,,,,,,,,,,,,,,,,,,,,,,,,,,511.8347869999707,None,left,0,1.5108410001266748,512.3351138001308,513.9043427000288,512.3351138001308,513.4205770001281,512.3351138001308,513.4205770001281,512.3351138001308,513.4205770001281,512.3351138001308,513.4205770001281,512.3351138001308,513.4205770001281,513.3871802999638,513.8882977000903,513.3871802999638,513.8882977000903,513.3871802999638,513.8882977000903,513.3871802999638,513.8882977000903,513.3871802999638,513.8882977000903,513.3871802999638,513.8882977000903,513.3871802999638,513.8882977000903,513.3871802999638,513.8882977000903,512.3351138001308,None,513.8882977000903,515.173623500159,1.0700000000000007,515.1885774999391,None,515.9404486001004,None,,,,,,,[1.28120879],2.560000000000002,0.7472527472527473,11033,001,2024_Jan_11_1816,MFTM_A_new1021,2021.2.3,60.07763230611643,
,,,,,,,,stim/Instruction_adaptive.png,conditions/adaptive.xlsx,test,0.6,0.6,0.6,-0.6,-0.6,right,R,,,,,0,1,1,1,0,91,91,56,,,,,,,,,,,,,,,,,,,,,,,,,,,,,,,,,,,,,,,,,,,,516.4408808001317,None,right,1,1.3116693999618292,516.9421191001311,518.5786212999374,516.9421191001311,518.0776802001055,516.9421191001311,518.0776802001055,516.9421191001311,518.0776802001055,516.9421191001311,518.0776802001055,516.9421191001311,518.0776802001055,518.0433315001428,518.5442773001269,518.0433315001428,518.5442773001269,518.0433315001428,518.5442773001269,518.0433315001428,518.5442773001269,518.0433315001428,518.5442773001269,518.0433315001428,518.5442773001269,518.0433315001428,518.5442773001269,518.0433315001428,518.5442773001269,516.9421191001311,None,518.5442773001269,519.8295452001039,1.1200000000000008,519.8462388000917,None,520.598038099939,None,,,,,,,[1.28228261],2.580000000000002,0.75,11033,001,2024_Jan_11_1816,MFTM_A_new1021,2021.2.3,60.07763230611643,
,,,,,,,,stim/Instruction_adaptive.png,conditions/adaptive.xlsx,test,-0.6,-0.6,-0.6,0.6,0.6,left,L,,,,,0,1,1,1,0,92,92,11,,,,,,,,,,,,,,,,,,,,,,,,,,,,,,,,,,,,,,,,,,,,521.0987078000326,None,left,1,1.5271268000360578,521.5987186999992,523.2012424001005,521.5987186999992,522.7017461999785,521.5987186999992,522.7017461999785,521.5987186999992,522.7017461999785,521.5987186999992,522.7017461999785,521.5987186999992,522.7017461999785,522.6842509000562,523.1851089999545,522.6842509000562,523.1851089999545,522.6842509000562,523.1851089999545,522.6842509000562,523.1851089999545,522.6842509000562,523.1851089999545,522.6842509000562,523.1851089999545,522.6842509000562,523.1851089999545,522.6842509000562,523.1851089999545,521.5987186999992,None,523.1851089999545,524.4695735999849,1.1000000000000008,524.4874050000217,None,525.2379187999759,None,,,,,,,[1.28354839],2.600000000000002,0.7526881720430108,11033,001,2024_Jan_11_1816,MFTM_A_new1021,2021.2.3,60.07763230611643,
,,,,,,,,stim/Instruction_adaptive.png,conditions/adaptive.xlsx,test,-0.6,-0.6,-0.6,0.6,0.6,left,L,,,,,0,1,1,1,0,93,93,37,,,,,,,,,,,,,,,,,,,,,,,,,,,,,,,,,,,,,,,,,,,,525.7382231000811,None,left,1,1.510454700095579,526.2392982000019,527.8428293000907,526.2392982000019,527.3411995000206,526.2392982000019,527.3411995000206,526.2392982000019,527.3411995000206,526.2392982000019,527.3411995000206,526.2392982000019,527.3411995000206,527.3076285000425,527.8089990001172,527.3076285000425,527.8089990001172,527.3076285000425,527.8089990001172,527.3076285000425,527.8089990001172,527.3076285000425,527.8089990001172,527.3076285000425,527.8089990001172,527.3076285000425,527.8089990001172,527.3076285000425,527.8089990001172,526.2392982000019,None,527.8089990001172,529.094156099949,1.0900000000000007,529.1272003001068,None,529.8782635000534,None,,,,,,,[1.28489362],2.620000000000002,0.7553191489361702,11033,001,2024_Jan_11_1816,MFTM_A_new1021,2021.2.3,60.07763230611643,
