arrwidth1,arrwidth2,arrwidth3,arrwidth4,arrwidth5,keyb,type,orientation,instruction_image,block_filename,block_type,arrow11,arrow22,arrow33,arrow44,arrow55,keyb_3,orientation3,trials.thisRepN,trials.thisTrialN,trials.thisN,trials.thisIndex,trials_3.thisRepN,trials_3.thisTrialN,trials_3.thisN,trials_3.thisIndex,trials_2.thisRepN,trials_2.thisTrialN,trials_2.thisN,trials_2.thisIndex,welcome.started,welcome.stopped,key_resp.keys,key_resp.rt,key_resp.started,key_resp.stopped,instruction_example.started,instruction_example.stopped,key_resp_3.keys,key_resp_3.rt,key_resp_3.started,key_resp_3.stopped,instruction_task.started,instruction_task.stopped,key_resp_2.keys,key_resp_2.rt,key_resp_2.started,key_resp_2.stopped,text_2.started,text_2.stopped,A1.started,A1.stopped,A2.started,A2.stopped,A3.started,A3.stopped,A4.started,A4.stopped,A5.started,A5.stopped,key_resp_4.keys,key_resp_4.corr,key_resp_4.rt,key_resp_4.started,key_resp_4.stopped,fb.started,fb.stopped,instruction_block.started,instruction_block.stopped,key_resp_8.keys,key_resp_8.rt,key_resp_8.started,key_resp_8.stopped,text_8.started,text_8.stopped,key_resp_9.keys,key_resp_9.corr,key_resp_9.rt,text_5.started,text_5.stopped,A11_3.started,A11_3.stopped,A22_2.started,A22_2.stopped,A33_2.started,A33_2.stopped,A44_2.started,A44_2.stopped,A55_2.started,A55_2.stopped,M1_3.started,M1_3.stopped,M2_2.started,M2_2.stopped,M3_2.started,M3_2.stopped,M4_2.started,M4_2.stopped,M5_2.started,M5_2.stopped,M6_2.started,M6_2.stopped,M7_2.started,M7_2.stopped,M8_2.started,M8_2.stopped,key_resp_9.started,key_resp_9.stopped,fixation.started,fixation.stopped,ET,fb_3.started,fb_3.stopped,text_9.started,text_9.stopped,fb_4.started,fb_4.stopped,text_7.started,text_7.stopped,endtext.started,endtext.stopped,fixation_ITI,CCC,Acc,participant,session,date,expName,psychopyVersion,frameRate,
,,,,,,,,,,,,,,,,,,,,,,,,,,,,,,227.72689890000038,None,space,2.384467399911955,227.72689890000038,None,,,,,,,,,,,,,,,,,,,,,,,,,,,,,,,,,,,,,,,,,,,,,,,,,,,,,,,,,,,,,,,,,,,,,,,,,,,,,,,,,,,,,,,,,11030,002,2024_Jan_11_1404,MFTM_A_new1021,2021.2.3,59.839426899164096,
,,,,,,,,,,,,,,,,,,,,,,,,,,,,,,,,,,,,230.13074719998986,None,space,1.7723312999587506,230.13074719998986,None,,,,,,,,,,,,,,,,,,,,,,,,,,,,,,,,,,,,,,,,,,,,,,,,,,,,,,,,,,,,,,,,,,,,,,,,,,,,,,,,,,,11030,002,2024_Jan_11_1404,MFTM_A_new1021,2021.2.3,59.839426899164096,
,,,,,,,,,,,,,,,,,,,,,,,,,,,,,,,,,,,,,,,,,,231.93453449988738,None,space,4.769542099907994,231.93453449988738,None,,,,,,,,,,,,,,,,,,,,,,,,,,,,,,,,,,,,,,,,,,,,,,,,,,,,,,,,,,,,,,,,,,,,,,,,,,,,,11030,002,2024_Jan_11_1404,MFTM_A_new1021,2021.2.3,59.839426899164096,
0.6,0.6,0.6,-0.6,-0.6,right,3:2,R,,,,,,,,,,,0,0,0,0,,,,,,,,,,,,,,,,,,,,,,,,,,,236.74099839990959,None,236.74099839990959,None,236.74099839990959,None,236.74099839990959,None,236.74099839990959,None,236.74099839990959,None,right,1,1.7151264999993145,236.74099839990959,None,238.4935214999132,None,,,,,,,,,,,,,,,,,,,,,,,,,,,,,,,,,,,,,,,,,,,,,,,,,,,,,,,,,,11030,002,2024_Jan_11_1404,MFTM_A_new1021,2021.2.3,59.839426899164096,
-0.6,-0.6,-0.6,0.6,0.6,left,3:2,L,,,,,,,,,,,0,1,1,1,,,,,,,,,,,,,,,,,,,,,,,,,,,239.24527200008743,None,239.24527200008743,None,239.24527200008743,None,239.24527200008743,None,239.24527200008743,None,239.24527200008743,None,left,1,1.217897999798879,239.24527200008743,None,240.47941059991717,None,,,,,,,,,,,,,,,,,,,,,,,,,,,,,,,,,,,,,,,,,,,,,,,,,,,,,,,,,,11030,002,2024_Jan_11_1404,MFTM_A_new1021,2021.2.3,59.839426899164096,
0.6,0.6,0.6,-0.6,-0.6,right,3:2,R,,,,,,,,,,,1,0,2,0,,,,,,,,,,,,,,,,,,,,,,,,,,,241.23075959994458,None,241.23075959994458,None,241.23075959994458,None,241.23075959994458,None,241.23075959994458,None,241.23075959994458,None,right,1,1.480200899997726,241.23075959994458,None,242.7327087998856,None,,,,,,,,,,,,,,,,,,,,,,,,,,,,,,,,,,,,,,,,,,,,,,,,,,,,,,,,,,11030,002,2024_Jan_11_1404,MFTM_A_new1021,2021.2.3,59.839426899164096,
-0.6,-0.6,-0.6,0.6,0.6,left,3:2,L,,,,,,,,,,,1,1,3,1,,,,,,,,,,,,,,,,,,,,,,,,,,,243.48399020009674,None,243.48399020009674,None,243.48399020009674,None,243.48399020009674,None,243.48399020009674,None,243.48399020009674,None,left,1,2.4752208997961134,243.48399020009674,None,245.98822759999894,None,,,,,,,,,,,,,,,,,,,,,,,,,,,,,,,,,,,,,,,,,,,,,,,,,,,,,,,,,,11030,002,2024_Jan_11_1404,MFTM_A_new1021,2021.2.3,59.839426899164096,
,,,,,,,,stim/Instruction_mask.png,conditions/adaptive.xlsx,practice,-0.6,-0.6,-0.6,0.6,0.6,left,L,,,,,0,0,0,0,0,0,0,89,,,,,,,,,,,,,,,,,,,,,,,,,,,,,,,,,,,,,,246.97228559991345,None,space,2.0750248001422733,246.97228559991345,None,249.15968029992655,None,left,1,3.142273100093007,249.5928016998805,None,249.5928016998805,252.59756819996983,249.5928016998805,252.59756819996983,249.5928016998805,252.59756819996983,249.5928016998805,252.59756819996983,249.5928016998805,252.59756819996983,252.58135690004565,253.08214149996638,252.58135690004565,253.08214149996638,252.58135690004565,253.08214149996638,252.58135690004565,253.08214149996638,252.58135690004565,253.08214149996638,252.58135690004565,253.08214149996638,252.58135690004565,253.08214149996638,252.58135690004565,253.08214149996638,249.5928016998805,None,253.08214149996638,253.08214149996638,3,253.09833960002288,None,253.84934390010312,None,,,,,,,,,,11030,002,2024_Jan_11_1404,MFTM_A_new1021,2021.2.3,59.839426899164096,
,,,,,,,,stim/Instruction_mask.png,conditions/adaptive.xlsx,practice,-0.6,-0.6,-0.6,0.6,0.6,left,L,,,,,0,0,0,0,0,1,1,87,,,,,,,,,,,,,,,,,,,,,,,,,,,,,,,,,,,,,,,,,,,,254.3499183000531,None,left,1,1.8210372000467032,254.850785800023,256.85445159999654,254.850785800023,256.353090000106,254.850785800023,256.353090000106,254.850785800023,256.353090000106,254.850785800023,256.353090000106,254.850785800023,256.353090000106,256.33638749993406,256.8374985998962,256.33638749993406,256.8374985998962,256.33638749993406,256.8374985998962,256.33638749993406,256.8374985998962,256.33638749993406,256.8374985998962,256.33638749993406,256.8374985998962,256.33638749993406,256.8374985998962,256.33638749993406,256.8374985998962,254.850785800023,None,256.8374985998962,258.3400355000049,1.5,258.3564114999026,None,259.10718740010634,None,,,,,,,,,,11030,002,2024_Jan_11_1404,MFTM_A_new1021,2021.2.3,59.839426899164096,
,,,,,,,,stim/Instruction_mask.png,conditions/adaptive.xlsx,practice,0.6,0.6,0.6,-0.6,-0.6,right,R,,,,,0,0,0,0,0,2,2,62,,,,,,,,,,,,,,,,,,,,,,,,,,,,,,,,,,,,,,,,,,,,259.60843520006165,None,right,1,1.6828743999358267,260.108621600084,261.41042229998857,260.108621600084,260.90987379988655,260.108621600084,260.90987379988655,260.108621600084,260.90987379988655,260.108621600084,260.90987379988655,260.108621600084,260.90987379988655,260.89380700001493,261.39371529989876,260.89380700001493,261.39371529989876,260.89380700001493,261.39371529989876,260.89380700001493,261.39371529989876,260.89380700001493,261.39371529989876,260.89380700001493,261.39371529989876,260.89380700001493,261.39371529989876,260.89380700001493,261.39371529989876,260.108621600084,None,261.39371529989876,263.59713759995066,0.8,263.614545899909,None,264.3653551999014,None,,,,,,,,,,11030,002,2024_Jan_11_1404,MFTM_A_new1021,2021.2.3,59.839426899164096,
,,,,,,,,stim/Instruction_mask.png,conditions/adaptive.xlsx,practice,-0.6,-0.6,-0.6,0.6,0.6,left,L,,,,,0,0,0,0,0,3,3,17,,,,,,,,,,,,,,,,,,,,,,,,,,,,,,,,,,,,,,,,,,,,264.86690589995123,None,right,0,1.4482950000092387,265.36726159998216,266.1184451999143,265.36726159998216,265.61778389988467,265.36726159998216,265.61778389988467,265.36726159998216,265.61778389988467,265.36726159998216,265.61778389988467,265.36726159998216,265.61778389988467,265.6002638998907,266.10078949993476,265.6002638998907,266.10078949993476,265.6002638998907,266.10078949993476,265.6002638998907,266.10078949993476,265.6002638998907,266.10078949993476,265.6002638998907,266.10078949993476,265.6002638998907,266.10078949993476,265.6002638998907,266.10078949993476,265.36726159998216,None,266.10078949993476,268.8555606000591,3,268.8713533000555,None,269.62362339999527,None,,,,,,,,,,11030,002,2024_Jan_11_1404,MFTM_A_new1021,2021.2.3,59.839426899164096,
,,,,,,,,stim/Instruction_mask.png,conditions/adaptive.xlsx,practice,,,,,,,,,,,,0,0,0,0,,,,,,,,,,,,,,,,,,,,,,,,,,,,,,,,,,,,,,,,,,,,,,,,,,,,,,,,,,,,,,,,,,,,,,,,,,,,,,,,,,,,,,,,,,270.14007789990865,271.14191900007427,271.1083017999772,271.1083017999772,271.1083017999772,None,,,,11030,002,2024_Jan_11_1404,MFTM_A_new1021,2021.2.3,59.839426899164096,
,,,,,,,,stim/Instruction_adaptive.png,conditions/adaptive.xlsx,test,-0.6,-0.6,-0.6,0.6,0.6,left,L,,,,,0,1,1,1,0,0,0,9,,,,,,,,,,,,,,,,,,,,,,,,,,,,,,,,,,,,,,274.26281460002065,None,space,1.3442754000425339,274.26281460002065,None,275.6478738000151,None,left,1,2.074175599962473,276.1490865999367,None,276.1490865999367,279.15377130010165,276.1490865999367,279.15377130010165,276.1490865999367,279.15377130010165,276.1490865999367,279.15377130010165,276.1490865999367,279.15377130010165,279.1375698999036,279.63776819990017,279.1375698999036,279.63776819990017,279.1375698999036,279.63776819990017,279.1375698999036,279.63776819990017,279.1375698999036,279.63776819990017,279.1375698999036,279.63776819990017,279.1375698999036,279.63776819990017,279.1375698999036,279.63776819990017,276.1490865999367,None,279.63776819990017,279.63776819990017,3,279.6542156999931,None,280.4051640999969,None,,,,,,,0,6.000000000000005,1.0,11030,002,2024_Jan_11_1404,MFTM_A_new1021,2021.2.3,59.839426899164096,
,,,,,,,,stim/Instruction_adaptive.png,conditions/adaptive.xlsx,test,0.6,0.6,0.6,-0.6,-0.6,right,R,,,,,0,1,1,1,0,1,1,34,,,,,,,,,,,,,,,,,,,,,,,,,,,,,,,,,,,,,,,,,,,,280.9069475000724,None,right,1,1.368498899973929,281.4067597000394,282.1590070000384,281.4067597000394,281.65720189991407,281.4067597000394,281.65720189991407,281.4067597000394,281.65720189991407,281.4067597000394,281.65720189991407,281.4067597000394,281.65720189991407,281.6409527999349,282.14118140004575,281.6409527999349,282.14118140004575,281.6409527999349,282.14118140004575,281.6409527999349,282.14118140004575,281.6409527999349,282.14118140004575,281.6409527999349,282.14118140004575,281.6409527999349,282.14118140004575,281.6409527999349,282.14118140004575,281.4067597000394,None,282.14118140004575,283.0258673999924,0.25,283.0429193000309,None,283.79455429990776,None,,,,,,,[0.875],6.000000000000005,1.0,11030,002,2024_Jan_11_1404,MFTM_A_new1021,2021.2.3,59.839426899164096,
,,,,,,,,stim/Instruction_adaptive.png,conditions/adaptive.xlsx,test,-0.6,-0.6,-0.6,0.6,0.6,left,L,,,,,0,1,1,1,0,2,2,67,,,,,,,,,,,,,,,,,,,,,,,,,,,,,,,,,,,,,,,,,,,,284.2943955999799,None,left,1,0.8443008000031114,284.79493799991906,285.5471336999908,284.79493799991906,285.0460564000532,284.79493799991906,285.0460564000532,284.79493799991906,285.0460564000532,284.79493799991906,285.0460564000532,284.79493799991906,285.0460564000532,285.0299219000153,285.5295446999371,285.0299219000153,285.5295446999371,285.0299219000153,285.5295446999371,285.0299219000153,285.5295446999371,285.0299219000153,285.5295446999371,285.0299219000153,285.5295446999371,285.0299219000153,285.5295446999371,285.0299219000153,285.5295446999371,284.79493799991906,None,285.5295446999371,286.8654662000481,0.25,286.88214719993994,None,287.63323409995064,None,,,,,,,[1.33333333],6.000000000000005,1.0,11030,002,2024_Jan_11_1404,MFTM_A_new1021,2021.2.3,59.839426899164096,
,,,,,,,,stim/Instruction_adaptive.png,conditions/adaptive.xlsx,test,0.6,0.6,0.6,-0.6,-0.6,right,R,,,,,0,1,1,1,0,3,3,98,,,,,,,,,,,,,,,,,,,,,,,,,,,,,,,,,,,,,,,,,,,,288.13479760009795,None,right,1,0.7481625000946224,288.63482040003873,289.38504209998064,288.63482040003873,288.8845424999017,288.63482040003873,288.8845424999017,288.63482040003873,288.8845424999017,288.63482040003873,288.8845424999017,288.63482040003873,288.8845424999017,288.8676867999602,289.3689661999233,288.8676867999602,289.3689661999233,288.8676867999602,289.3689661999233,288.8676867999602,289.3689661999233,288.8676867999602,289.3689661999233,288.8676867999602,289.3689661999233,288.8676867999602,289.3689661999233,288.8676867999602,289.3689661999233,288.63482040003873,None,289.3689661999233,290.93756869994104,0.25,290.9542125998996,None,291.7059450999368,None,,,,,,,[1.5625],6.000000000000005,1.0,11030,002,2024_Jan_11_1404,MFTM_A_new1021,2021.2.3,59.839426899164096,
,,,,,,,,stim/Instruction_adaptive.png,conditions/adaptive.xlsx,test,-0.6,-0.6,-0.6,0.6,0.6,left,L,,,,,0,1,1,1,0,4,4,55,,,,,,,,,,,,,,,,,,,,,,,,,,,,,,,,,,,,,,,,,,,,292.20640580006875,None,left,1,1.2606740000192076,292.7066822000779,293.4582046000287,292.7066822000779,292.9573774000164,292.7066822000779,292.9573774000164,292.7066822000779,292.9573774000164,292.7066822000779,292.9573774000164,292.7066822000779,292.9573774000164,292.9420364999678,293.4417073999066,292.9420364999678,293.4417073999066,292.9420364999678,293.4417073999066,292.9420364999678,293.4417073999066,292.9420364999678,293.4417073999066,292.9420364999678,293.4417073999066,292.9420364999678,293.4417073999066,292.9420364999678,293.4417073999066,292.7066822000779,None,293.4417073999066,295.1437397999689,0.25,295.16042049997486,None,295.9121914000716,None,,,,,,,[1.7],6.000000000000005,1.0,11030,002,2024_Jan_11_1404,MFTM_A_new1021,2021.2.3,59.839426899164096,
,,,,,,,,stim/Instruction_adaptive.png,conditions/adaptive.xlsx,test,0.6,0.6,0.6,-0.6,-0.6,right,R,,,,,0,1,1,1,0,5,5,52,,,,,,,,,,,,,,,,,,,,,,,,,,,,,,,,,,,,,,,,,,,,296.41314240009524,None,right,1,1.2873303999658674,296.9130955999717,297.66406189999543,296.9130955999717,297.16416889987886,296.9130955999717,297.16416889987886,296.9130955999717,297.16416889987886,296.9130955999717,297.16416889987886,296.9130955999717,297.16416889987886,297.14690749999136,297.6473815999925,297.14690749999136,297.6473815999925,297.14690749999136,297.6473815999925,297.14690749999136,297.6473815999925,297.14690749999136,297.6473815999925,297.14690749999136,297.6473815999925,297.14690749999136,297.6473815999925,297.14690749999136,297.6473815999925,296.9130955999717,None,297.6473815999925,299.45101600000635,0.25,299.46684819995426,None,300.218514499953,None,,,,,,,[1.79166667],6.000000000000005,1.0,11030,002,2024_Jan_11_1404,MFTM_A_new1021,2021.2.3,59.839426899164096,
,,,,,,,,stim/Instruction_adaptive.png,conditions/adaptive.xlsx,test,0.6,0.6,0.6,-0.6,-0.6,right,R,,,,,0,1,1,1,0,6,6,40,,,,,,,,,,,,,,,,,,,,,,,,,,,,,,,,,,,,,,,,,,,,300.7192408000119,None,right,1,0.7000206999946386,301.219449599972,301.97150820004754,301.219449599972,301.4699146000203,301.219449599972,301.4699146000203,301.219449599972,301.4699146000203,301.219449599972,301.4699146000203,301.219449599972,301.4699146000203,301.4532365000341,301.95439830003306,301.4532365000341,301.95439830003306,301.4532365000341,301.95439830003306,301.4532365000341,301.95439830003306,301.4532365000341,301.95439830003306,301.4532365000341,301.95439830003306,301.4532365000341,301.95439830003306,301.4532365000341,301.95439830003306,301.219449599972,None,301.95439830003306,303.8242160999216,0.25,303.84001570008695,None,304.5913090999238,None,,,,,,,[1.85714286],6.000000000000005,1.0,11030,002,2024_Jan_11_1404,MFTM_A_new1021,2021.2.3,59.839426899164096,
,,,,,,,,stim/Instruction_adaptive.png,conditions/adaptive.xlsx,test,-0.6,-0.6,-0.6,0.6,0.6,left,L,,,,,0,1,1,1,0,7,7,97,,,,,,,,,,,,,,,,,,,,,,,,,,,,,,,,,,,,,,,,,,,,305.09247280005366,None,right,0,1.470937800128013,305.5926220000256,306.3436892000027,305.5926220000256,305.84398679994047,305.5926220000256,305.84398679994047,305.5926220000256,305.84398679994047,305.5926220000256,305.84398679994047,305.5926220000256,305.84398679994047,305.8271639999002,306.3271685000509,305.8271639999002,306.3271685000509,305.8271639999002,306.3271685000509,305.8271639999002,306.3271685000509,305.8271639999002,306.3271685000509,305.8271639999002,306.3271685000509,305.8271639999002,306.3271685000509,305.8271639999002,306.3271685000509,305.5926220000256,None,306.3271685000509,308.2475342999678,0.25,308.2629557000473,None,309.01435630000196,None,,,,,,,[1.90625],5.570000000000005,0.875,11030,002,2024_Jan_11_1404,MFTM_A_new1021,2021.2.3,59.839426899164096,
,,,,,,,,stim/Instruction_adaptive.png,conditions/adaptive.xlsx,test,0.6,0.6,0.6,-0.6,-0.6,right,R,,,,,0,1,1,1,0,8,8,30,,,,,,,,,,,,,,,,,,,,,,,,,,,,,,,,,,,,,,,,,,,,309.5156652999576,None,right,1,0.8074374999850988,310.01613759994507,310.76690739998594,310.01613759994507,310.26630200003274,310.01613759994507,310.26630200003274,310.01613759994507,310.26630200003274,310.01613759994507,310.26630200003274,310.01613759994507,310.26630200003274,310.2501354000997,310.7503708000295,310.2501354000997,310.7503708000295,310.2501354000997,310.7503708000295,310.2501354000997,310.7503708000295,310.2501354000997,310.7503708000295,310.2501354000997,310.7503708000295,310.2501354000997,310.7503708000295,310.2501354000997,310.7503708000295,310.01613759994507,None,310.7503708000295,312.7037142000627,0.25,312.71990070003085,None,313.4713989000302,None,,,,,,,[1.94444444],5.720000000000004,0.8888888888888888,11030,002,2024_Jan_11_1404,MFTM_A_new1021,2021.2.3,59.839426899164096,
,,,,,,,,stim/Instruction_adaptive.png,conditions/adaptive.xlsx,test,0.6,0.6,0.6,-0.6,-0.6,right,R,,,,,0,1,1,1,0,9,9,96,,,,,,,,,,,,,,,,,,,,,,,,,,,,,,,,,,,,,,,,,,,,313.97252420010045,None,right,1,0.6947159001138061,314.47260329988785,315.2239812000189,314.47260329988785,314.7234527000692,314.47260329988785,314.7234527000692,314.47260329988785,314.7234527000692,314.47260329988785,314.7234527000692,314.47260329988785,314.7234527000692,314.7066327999346,315.2070325000677,314.7066327999346,315.2070325000677,314.7066327999346,315.2070325000677,314.7066327999346,315.2070325000677,314.7066327999346,315.2070325000677,314.7066327999346,315.2070325000677,314.7066327999346,315.2070325000677,314.7066327999346,315.2070325000677,314.47260329988785,None,315.2070325000677,317.1937973999884,0.25,317.2104746999685,None,317.96176419989206,None,,,,,,,[1.975],5.840000000000005,0.9,11030,002,2024_Jan_11_1404,MFTM_A_new1021,2021.2.3,59.839426899164096,
,,,,,,,,stim/Instruction_adaptive.png,conditions/adaptive.xlsx,test,-0.6,-0.6,-0.6,0.6,0.6,left,L,,,,,0,1,1,1,0,10,10,13,,,,,,,,,,,,,,,,,,,,,,,,,,,,,,,,,,,,,,,,,,,,318.4619606998749,None,left,1,0.7403885000385344,318.96283979993314,319.71419909992255,318.96283979993314,319.2132939998992,318.96283979993314,319.2132939998992,318.96283979993314,319.2132939998992,318.96283979993314,319.2132939998992,318.96283979993314,319.2132939998992,319.19689320004545,319.6979928999208,319.19689320004545,319.6979928999208,319.19689320004545,319.6979928999208,319.19689320004545,319.6979928999208,319.19689320004545,319.6979928999208,319.19689320004545,319.6979928999208,319.19689320004545,319.6979928999208,319.19689320004545,319.6979928999208,318.96283979993314,None,319.6979928999208,321.6998586000409,0.25,321.71666350006126,None,322.4688653999474,None,,,,,,,[2.],5.930000000000005,0.9090909090909091,11030,002,2024_Jan_11_1404,MFTM_A_new1021,2021.2.3,59.839426899164096,
,,,,,,,,stim/Instruction_adaptive.png,conditions/adaptive.xlsx,test,0.6,0.6,0.6,-0.6,-0.6,right,R,,,,,0,1,1,1,0,11,11,2,,,,,,,,,,,,,,,,,,,,,,,,,,,,,,,,,,,,,,,,,,,,322.96904690004885,None,left,0,0.937875600066036,323.4694568000268,324.22057539992966,323.4694568000268,323.7202347998973,323.4694568000268,323.7202347998973,323.4694568000268,323.7202347998973,323.4694568000268,323.7202347998973,323.4694568000268,323.7202347998973,323.70280659990385,324.2043474998791,323.70280659990385,324.2043474998791,323.70280659990385,324.2043474998791,323.70280659990385,324.2043474998791,323.70280659990385,324.2043474998791,323.70280659990385,324.2043474998791,323.70280659990385,324.2043474998791,323.70280659990385,324.2043474998791,323.4694568000268,None,324.2043474998791,None,0.25,326.2399828999769,None,326.99127750005573,None,,,,,,,[2.02083333],5.260000000000004,0.8333333333333334,11030,002,2024_Jan_11_1404,MFTM_A_new1021,2021.2.3,59.839426899164096,
,,,,,,,,stim/Instruction_adaptive.png,conditions/adaptive.xlsx,test,-0.6,-0.6,-0.6,0.6,0.6,left,L,,,,,0,1,1,1,0,12,12,35,,,,,,,,,,,,,,,,,,,,,,,,,,,,,,,,,,,,,,,,,,,,327.4928069000598,None,left,1,0.8067499999888241,327.9925182000734,328.7443512000609,327.9925182000734,328.2442713000346,327.9925182000734,328.2442713000346,327.9925182000734,328.2442713000346,327.9925182000734,328.2442713000346,327.9925182000734,328.2442713000346,328.2262983999681,328.7273947999347,328.2262983999681,328.7273947999347,328.2262983999681,328.7273947999347,328.2262983999681,328.7273947999347,328.2262983999681,328.7273947999347,328.2262983999681,328.7273947999347,328.2262983999681,328.7273947999347,328.2262983999681,328.7273947999347,327.9925182000734,None,328.7273947999347,None,0.25,330.77974330005236,None,331.53111219988205,None,,,,,,,[2.03846154],5.380000000000004,0.8461538461538461,11030,002,2024_Jan_11_1404,MFTM_A_new1021,2021.2.3,59.839426899164096,
,,,,,,,,stim/Instruction_adaptive.png,conditions/adaptive.xlsx,test,-0.6,-0.6,-0.6,0.6,0.6,left,L,,,,,0,1,1,1,0,13,13,15,,,,,,,,,,,,,,,,,,,,,,,,,,,,,,,,,,,,,,,,,,,,332.0324973000679,None,left,1,0.6824678000994027,332.5331349000335,333.2836966998875,332.5331349000335,332.78322040010244,332.5331349000335,332.78322040010244,332.5331349000335,332.78322040010244,332.5331349000335,332.78322040010244,332.5331349000335,332.78322040010244,332.7669794000685,333.2686071000062,332.7669794000685,333.2686071000062,332.7669794000685,333.2686071000062,332.7669794000685,333.2686071000062,332.7669794000685,333.2686071000062,332.7669794000685,333.2686071000062,332.7669794000685,333.2686071000062,332.7669794000685,333.2686071000062,332.5331349000335,None,333.2686071000062,None,0.25,335.3368665999733,None,336.0878878000658,None,,,,,,,[2.05357143],5.480000000000004,0.8571428571428571,11030,002,2024_Jan_11_1404,MFTM_A_new1021,2021.2.3,59.839426899164096,
,,,,,,,,stim/Instruction_adaptive.png,conditions/adaptive.xlsx,test,-0.6,-0.6,-0.6,0.6,0.6,left,L,,,,,0,1,1,1,0,14,14,25,,,,,,,,,,,,,,,,,,,,,,,,,,,,,,,,,,,,,,,,,,,,336.58927029999904,None,right,0,0.6855162000283599,337.08976810006425,337.8417650000192,337.08976810006425,337.33973519993015,337.08976810006425,337.33973519993015,337.08976810006425,337.33973519993015,337.08976810006425,337.33973519993015,337.08976810006425,337.33973519993015,337.32300799991935,337.823732299963,337.32300799991935,337.823732299963,337.32300799991935,337.823732299963,337.32300799991935,337.823732299963,337.32300799991935,337.823732299963,337.32300799991935,337.823732299963,337.32300799991935,337.823732299963,337.32300799991935,337.823732299963,337.08976810006425,None,337.823732299963,339.89528189995326,0.25,339.92766069993377,None,340.67808039998636,None,,,,,,,[2.06666667],5.010000000000004,0.8,11030,002,2024_Jan_11_1404,MFTM_A_new1021,2021.2.3,59.839426899164096,
,,,,,,,,stim/Instruction_adaptive.png,conditions/adaptive.xlsx,test,-0.6,-0.6,-0.6,0.6,0.6,left,L,,,,,0,1,1,1,0,15,15,41,,,,,,,,,,,,,,,,,,,,,,,,,,,,,,,,,,,,,,,,,,,,341.17924749990925,None,left,1,0.7996818998362869,341.67952980007976,342.4305549999699,341.67952980007976,341.93031119997613,341.67952980007976,341.93031119997613,341.67952980007976,341.93031119997613,341.67952980007976,341.93031119997613,341.67952980007976,341.93031119997613,341.91463469993323,342.41452130000107,341.91463469993323,342.41452130000107,341.91463469993323,342.41452130000107,341.91463469993323,342.41452130000107,341.91463469993323,342.41452130000107,341.91463469993323,342.41452130000107,341.91463469993323,342.41452130000107,341.91463469993323,342.41452130000107,341.67952980007976,None,342.41452130000107,344.5008964999579,0.25,344.5170024000108,None,345.2689886998851,None,,,,,,,[2.078125],5.1200000000000045,0.8125,11030,002,2024_Jan_11_1404,MFTM_A_new1021,2021.2.3,59.839426899164096,
,,,,,,,,stim/Instruction_adaptive.png,conditions/adaptive.xlsx,test,0.6,0.6,0.6,-0.6,-0.6,right,R,,,,,0,1,1,1,0,16,16,60,,,,,,,,,,,,,,,,,,,,,,,,,,,,,,,,,,,,,,,,,,,,345.76893320004456,None,left,0,1.7047021999023855,346.27037280006334,347.0217208999675,346.27037280006334,346.5198758998886,346.27037280006334,346.5198758998886,346.27037280006334,346.5198758998886,346.27037280006334,346.5198758998886,346.27037280006334,346.5198758998886,346.50321869994514,347.0040050998796,346.50321869994514,347.0040050998796,346.50321869994514,347.0040050998796,346.50321869994514,347.0040050998796,346.50321869994514,347.0040050998796,346.50321869994514,347.0040050998796,346.50321869994514,347.0040050998796,346.50321869994514,347.0040050998796,346.27037280006334,None,347.0040050998796,349.10714340000413,0.25,349.12381509994157,None,349.8759473999962,None,,,,,,,[2.08823529],4.720000000000004,0.7647058823529411,11030,002,2024_Jan_11_1404,MFTM_A_new1021,2021.2.3,59.839426899164096,
,,,,,,,,stim/Instruction_adaptive.png,conditions/adaptive.xlsx,test,-0.6,-0.6,-0.6,0.6,0.6,left,L,,,,,0,1,1,1,0,17,17,51,,,,,,,,,,,,,,,,,,,,,,,,,,,,,,,,,,,,,,,,,,,,350.3758272998966,None,right,0,0.7793036999646574,350.87631580000743,351.62887090002187,350.87631580000743,351.1272589999717,350.87631580000743,351.1272589999717,350.87631580000743,351.1272589999717,350.87631580000743,351.1272589999717,350.87631580000743,351.1272589999717,351.11078329989687,351.61071219993755,351.11078329989687,351.61071219993755,351.11078329989687,351.61071219993755,351.11078329989687,351.61071219993755,351.11078329989687,351.61071219993755,351.11078329989687,351.61071219993755,351.11078329989687,351.61071219993755,351.11078329989687,351.61071219993755,350.87631580000743,None,351.61071219993755,353.71458990010433,0.25,353.7307343001012,None,354.48205900005996,None,,,,,,,[2.09722222],4.340000000000003,0.7222222222222222,11030,002,2024_Jan_11_1404,MFTM_A_new1021,2021.2.3,59.839426899164096,
,,,,,,,,stim/Instruction_adaptive.png,conditions/adaptive.xlsx,test,0.6,0.6,0.6,-0.6,-0.6,right,R,,,,,0,1,1,1,0,18,18,36,,,,,,,,,,,,,,,,,,,,,,,,,,,,,,,,,,,,,,,,,,,,354.9826163998805,None,left,0,2.339884700020775,355.48325200006366,356.31811159988865,355.48325200006366,355.81807749997824,355.48325200006366,355.81807749997824,355.48325200006366,355.81807749997824,355.48325200006366,355.81807749997824,355.48325200006366,355.81807749997824,355.78406789992005,356.2848308000248,355.78406789992005,356.2848308000248,355.78406789992005,356.2848308000248,355.78406789992005,356.2848308000248,355.78406789992005,356.2848308000248,355.78406789992005,356.2848308000248,355.78406789992005,356.2848308000248,355.78406789992005,356.2848308000248,355.48325200006366,None,356.2848308000248,358.3880817000754,0.32000000000000006,358.4044536999427,None,359.1556033999659,None,,,,,,,[2.10157895],3.860000000000003,0.6842105263157895,11030,002,2024_Jan_11_1404,MFTM_A_new1021,2021.2.3,59.839426899164096,
,,,,,,,,stim/Instruction_adaptive.png,conditions/adaptive.xlsx,test,-0.6,-0.6,-0.6,0.6,0.6,left,L,,,,,0,1,1,1,0,19,19,61,,,,,,,,,,,,,,,,,,,,,,,,,,,,,,,,,,,,,,,,,,,,359.6563577000052,None,left,1,0.7381559999193996,360.1570977999363,361.1086798000615,360.1570977999363,360.60760829993524,360.1570977999363,360.60760829993524,360.1570977999363,360.60760829993524,360.1570977999363,360.60760829993524,360.1570977999363,360.60760829993524,360.5910821999423,361.0915262000635,360.5910821999423,361.0915262000635,360.5910821999423,361.0915262000635,360.5910821999423,361.0915262000635,360.5910821999423,361.0915262000635,360.5910821999423,361.0915262000635,360.5910821999423,361.0915262000635,360.5910821999423,361.0915262000635,360.1570977999363,None,361.0915262000635,363.14460980007425,0.4500000000000002,363.1613095998764,None,363.91352599998936,None,,,,,,,[[2.05]],4.050000000000003,0.7,11030,002,2024_Jan_11_1404,MFTM_A_new1021,2021.2.3,59.839426899164096,
,,,,,,,,stim/Instruction_adaptive.png,conditions/adaptive.xlsx,test,0.6,0.6,0.6,-0.6,-0.6,right,R,,,,,0,1,1,1,0,20,20,14,,,,,,,,,,,,,,,,,,,,,,,,,,,,,,,,,,,,,,,,,,,,364.41333319991827,None,left,0,0.7336214000824839,364.9147526999004,365.8152558999136,364.9147526999004,365.3148501000833,364.9147526999004,365.3148501000833,364.9147526999004,365.3148501000833,364.9147526999004,365.3148501000833,364.9147526999004,365.3148501000833,365.29788800003007,365.79914240003563,365.29788800003007,365.79914240003563,365.29788800003007,365.79914240003563,365.29788800003007,365.79914240003563,365.29788800003007,365.79914240003563,365.29788800003007,365.79914240003563,365.29788800003007,365.79914240003563,365.29788800003007,365.79914240003563,364.9147526999004,None,365.79914240003563,367.9029606000986,0.40000000000000013,367.91812069993466,None,368.66981639992446,None,,,,,,,[2.09904762],3.5400000000000027,0.6666666666666666,11030,002,2024_Jan_11_1404,MFTM_A_new1021,2021.2.3,59.839426899164096,
,,,,,,,,stim/Instruction_adaptive.png,conditions/adaptive.xlsx,test,-0.6,-0.6,-0.6,0.6,0.6,left,L,,,,,0,1,1,1,0,21,21,19,,,,,,,,,,,,,,,,,,,,,,,,,,,,,,,,,,,,,,,,,,,,369.17013620003127,None,left,1,1.520223499974236,369.6709004000295,370.7558160999324,369.6709004000295,370.25556629989296,369.6709004000295,370.25556629989296,369.6709004000295,370.25556629989296,369.6709004000295,370.25556629989296,369.6709004000295,370.25556629989296,370.22227529995143,370.72244319994934,370.22227529995143,370.72244319994934,370.22227529995143,370.72244319994934,370.22227529995143,370.72244319994934,370.22227529995143,370.72244319994934,370.22227529995143,370.72244319994934,370.22227529995143,370.72244319994934,370.22227529995143,370.72244319994934,369.6709004000295,None,370.72244319994934,372.6596240999643,0.5700000000000003,372.67523030005395,None,373.42714640009217,None,,,,,,,[[1.93]],3.7500000000000027,0.6818181818181818,11030,002,2024_Jan_11_1404,MFTM_A_new1021,2021.2.3,59.839426899164096,
,,,,,,,,stim/Instruction_adaptive.png,conditions/adaptive.xlsx,test,0.6,0.6,0.6,-0.6,-0.6,right,R,,,,,0,1,1,1,0,22,22,70,,,,,,,,,,,,,,,,,,,,,,,,,,,,,,,,,,,,,,,,,,,,373.9276238998864,None,right,1,0.6677112998440862,374.42798699997365,375.4305247000884,374.42798699997365,374.93002269999124,374.42798699997365,374.93002269999124,374.42798699997365,374.93002269999124,374.42798699997365,374.93002269999124,374.42798699997365,374.93002269999124,374.8962878000457,375.3960001000669,374.8962878000457,375.3960001000669,374.8962878000457,375.3960001000669,374.8962878000457,375.3960001000669,374.8962878000457,375.3960001000669,374.8962878000457,375.3960001000669,374.8962878000457,375.3960001000669,374.8962878000457,375.3960001000669,374.42798699997365,None,375.3960001000669,377.4159087999724,0.4900000000000002,377.432359599974,None,378.183561099926,None,,,,,,,[[2.01]],3.910000000000003,0.6956521739130435,11030,002,2024_Jan_11_1404,MFTM_A_new1021,2021.2.3,59.839426899164096,
,,,,,,,,stim/Instruction_adaptive.png,conditions/adaptive.xlsx,test,0.6,0.6,0.6,-0.6,-0.6,right,R,,,,,0,1,1,1,0,23,23,56,,,,,,,,,,,,,,,,,,,,,,,,,,,,,,,,,,,,,,,,,,,,378.685378999915,None,left,0,0.8382043000310659,379.18552089994773,380.1365191000514,379.18552089994773,379.63646709988825,379.18552089994773,379.63646709988825,379.18552089994773,379.63646709988825,379.18552089994773,379.63646709988825,379.18552089994773,379.63646709988825,379.6023623999208,380.1038198999595,379.6023623999208,380.1038198999595,379.6023623999208,380.1038198999595,379.6023623999208,380.1038198999595,379.6023623999208,380.1038198999595,379.6023623999208,380.1038198999595,379.6023623999208,380.1038198999595,379.6023623999208,380.1038198999595,379.18552089994773,None,380.1038198999595,382.17401219997555,0.44000000000000017,382.18907320010476,None,382.94051739992574,None,,,,,,,[[2.06]],3.4700000000000024,0.6666666666666666,11030,002,2024_Jan_11_1404,MFTM_A_new1021,2021.2.3,59.839426899164096,
,,,,,,,,stim/Instruction_adaptive.png,conditions/adaptive.xlsx,test,0.6,0.6,0.6,-0.6,-0.6,right,R,,,,,0,1,1,1,0,24,24,94,,,,,,,,,,,,,,,,,,,,,,,,,,,,,,,,,,,,,,,,,,,,383.442090800032,None,right,1,1.6652356998529285,383.94250959996134,385.04411890008487,383.94250959996134,384.5430081000086,383.94250959996134,384.5430081000086,383.94250959996134,384.5430081000086,383.94250959996134,384.5430081000086,383.94250959996134,384.5430081000086,384.509632299887,385.0117520999629,384.509632299887,385.0117520999629,384.509632299887,385.0117520999629,384.509632299887,385.0117520999629,384.509632299887,385.0117520999629,384.509632299887,385.0117520999629,384.509632299887,385.0117520999629,384.509632299887,385.0117520999629,383.94250959996134,None,385.0117520999629,386.9299500999041,0.5900000000000003,386.9466148999054,None,387.69801940000616,None,,,,,,,[[1.91]],3.650000000000003,0.68,11030,002,2024_Jan_11_1404,MFTM_A_new1021,2021.2.3,59.839426899164096,
,,,,,,,,stim/Instruction_adaptive.png,conditions/adaptive.xlsx,test,0.6,0.6,0.6,-0.6,-0.6,right,R,,,,,0,1,1,1,0,25,25,32,,,,,,,,,,,,,,,,,,,,,,,,,,,,,,,,,,,,,,,,,,,,388.1987022999674,None,left,0,2.523517500143498,388.6997074999381,389.7339566000737,388.6997074999381,389.2334487999324,388.6997074999381,389.2334487999324,388.6997074999381,389.2334487999324,388.6997074999381,389.2334487999324,388.6997074999381,389.2334487999324,389.2007692998741,389.7010607998818,389.2007692998741,389.7010607998818,389.2007692998741,389.7010607998818,389.2007692998741,389.7010607998818,389.2007692998741,389.7010607998818,389.2007692998741,389.7010607998818,389.2007692998741,389.7010607998818,389.2007692998741,389.7010607998818,388.6997074999381,None,389.7010607998818,391.68750640004873,0.5200000000000002,391.70359990000725,None,392.45566500001587,None,,,,,,,[[1.98]],3.190000000000002,0.6538461538461539,11030,002,2024_Jan_11_1404,MFTM_A_new1021,2021.2.3,59.839426899164096,
,,,,,,,,stim/Instruction_adaptive.png,conditions/adaptive.xlsx,test,0.6,0.6,0.6,-0.6,-0.6,right,R,,,,,0,1,1,1,0,26,26,74,,,,,,,,,,,,,,,,,,,,,,,,,,,,,,,,,,,,,,,,,,,,392.95630949991755,None,right,1,2.7037281000521034,393.4562460000161,394.67534329998307,393.4562460000161,394.19108740007505,393.4562460000161,394.19108740007505,393.4562460000161,394.19108740007505,393.4562460000161,394.19108740007505,393.4562460000161,394.19108740007505,394.15749490004964,394.6585917000193,394.15749490004964,394.6585917000193,394.15749490004964,394.6585917000193,394.15749490004964,394.6585917000193,394.15749490004964,394.6585917000193,394.15749490004964,394.6585917000193,394.15749490004964,394.6585917000193,394.15749490004964,394.6585917000193,393.4562460000161,None,394.6585917000193,396.4445396999363,0.7200000000000004,396.46066519990563,None,397.21250370005146,None,,,,,,,[[1.78]],3.3800000000000026,0.6666666666666666,11030,002,2024_Jan_11_1404,MFTM_A_new1021,2021.2.3,59.839426899164096,
,,,,,,,,stim/Instruction_adaptive.png,conditions/adaptive.xlsx,test,-0.6,-0.6,-0.6,0.6,0.6,left,L,,,,,0,1,1,1,0,27,27,37,,,,,,,,,,,,,,,,,,,,,,,,,,,,,,,,,,,,,,,,,,,,397.71297100000083,None,left,1,1.3618693999014795,398.21333860000595,399.3484424999915,398.21333860000595,398.8475726998877,398.21333860000595,398.8475726998877,398.21333860000595,398.8475726998877,398.21333860000595,398.8475726998877,398.21333860000595,398.8475726998877,398.8307785000652,399.33176429988816,398.8307785000652,399.33176429988816,398.8307785000652,399.33176429988816,398.8307785000652,399.33176429988816,398.8307785000652,399.33176429988816,398.8307785000652,399.33176429988816,398.8307785000652,399.33176429988816,398.8307785000652,399.33176429988816,398.21333860000595,None,399.33176429988816,401.20179189997725,0.6300000000000003,401.2176113999449,None,401.9688198999502,None,,,,,,,[[1.87]],3.5200000000000027,0.6785714285714286,11030,002,2024_Jan_11_1404,MFTM_A_new1021,2021.2.3,59.839426899164096,
,,,,,,,,stim/Instruction_adaptive.png,conditions/adaptive.xlsx,test,-0.6,-0.6,-0.6,0.6,0.6,left,L,,,,,0,1,1,1,0,28,28,95,,,,,,,,,,,,,,,,,,,,,,,,,,,,,,,,,,,,,,,,,,,,402.4697763998993,None,left,1,1.3969650000799447,402.9701048999559,404.0561172000598,402.9701048999559,403.55427649989724,402.9701048999559,403.55427649989724,402.9701048999559,403.55427649989724,402.9701048999559,403.55427649989724,402.9701048999559,403.55427649989724,403.5208244000096,404.0215195999481,403.5208244000096,404.0215195999481,403.5208244000096,404.0215195999481,403.5208244000096,404.0215195999481,403.5208244000096,404.0215195999481,403.5208244000096,404.0215195999481,403.5208244000096,404.0215195999481,403.5208244000096,404.0215195999481,402.9701048999559,None,404.0215195999481,405.96019820007496,0.5700000000000003,405.97472249995917,None,406.72655360004865,None,,,,,,,[[1.93]],3.650000000000003,0.6896551724137931,11030,002,2024_Jan_11_1404,MFTM_A_new1021,2021.2.3,59.839426899164096,
,,,,,,,,stim/Instruction_adaptive.png,conditions/adaptive.xlsx,test,0.6,0.6,0.6,-0.6,-0.6,right,R,,,,,0,1,1,1,0,29,29,90,,,,,,,,,,,,,,,,,,,,,,,,,,,,,,,,,,,,,,,,,,,,407.22681470005773,None,left,0,1.7681795000098646,407.72758949990384,408.7461107999552,407.72758949990384,408.2622477998957,407.72758949990384,408.2622477998957,407.72758949990384,408.2622477998957,407.72758949990384,408.2622477998957,407.72758949990384,408.2622477998957,408.22818299988285,408.7303021000698,408.22818299988285,408.7303021000698,408.22818299988285,408.7303021000698,408.22818299988285,408.7303021000698,408.22818299988285,408.7303021000698,408.22818299988285,408.7303021000698,408.22818299988285,408.7303021000698,408.22818299988285,408.7303021000698,407.72758949990384,None,408.7303021000698,410.7156100999564,0.5200000000000002,410.73208069987595,None,411.4832363000605,None,,,,,,,[[1.98]],3.3100000000000023,0.6666666666666666,11030,002,2024_Jan_11_1404,MFTM_A_new1021,2021.2.3,59.839426899164096,
,,,,,,,,stim/Instruction_adaptive.png,conditions/adaptive.xlsx,test,0.6,0.6,0.6,-0.6,-0.6,right,R,,,,,0,1,1,1,0,30,30,80,,,,,,,,,,,,,,,,,,,,,,,,,,,,,,,,,,,,,,,,,,,,411.98351119994186,None,right,1,1.1789484000764787,412.48429939989,413.6527327999938,412.48429939989,413.1527638998814,412.48429939989,413.1527638998814,412.48429939989,413.1527638998814,412.48429939989,413.1527638998814,412.48429939989,413.1527638998814,413.13540300005116,413.63670979999006,413.13540300005116,413.63670979999006,413.13540300005116,413.63670979999006,413.13540300005116,413.63670979999006,413.13540300005116,413.63670979999006,413.13540300005116,413.63670979999006,413.13540300005116,413.63670979999006,413.13540300005116,413.63670979999006,412.48429939989,None,413.63670979999006,None,0.6600000000000004,415.4888160000555,None,416.2402524999343,None,,,,,,,[[1.84]],3.4400000000000026,0.6774193548387096,11030,002,2024_Jan_11_1404,MFTM_A_new1021,2021.2.3,59.839426899164096,
,,,,,,,,stim/Instruction_adaptive.png,conditions/adaptive.xlsx,test,0.6,0.6,0.6,-0.6,-0.6,right,R,,,,,0,1,1,1,0,31,31,58,,,,,,,,,,,,,,,,,,,,,,,,,,,,,,,,,,,,,,,,,,,,416.741974900011,None,right,1,1.0064145000651479,417.2413172000088,418.3596946001053,417.2413172000088,417.8596675998997,417.2413172000088,417.8596675998997,417.2413172000088,417.8596675998997,417.2413172000088,417.8596675998997,417.2413172000088,417.8596675998997,417.8258638998959,418.3263358999975,417.8258638998959,418.3263358999975,417.8258638998959,418.3263358999975,417.8258638998959,418.3263358999975,417.8258638998959,418.3263358999975,417.8258638998959,418.3263358999975,417.8258638998959,418.3263358999975,417.8258638998959,418.3263358999975,417.2413172000088,None,418.3263358999975,420.229644499952,0.6100000000000003,420.2463922998868,None,420.9970275000669,None,,,,,,,[[1.89]],3.5500000000000025,0.6875,11030,002,2024_Jan_11_1404,MFTM_A_new1021,2021.2.3,59.839426899164096,
,,,,,,,,stim/Instruction_adaptive.png,conditions/adaptive.xlsx,test,0.6,0.6,0.6,-0.6,-0.6,right,R,,,,,0,1,1,1,0,32,32,68,,,,,,,,,,,,,,,,,,,,,,,,,,,,,,,,,,,,,,,,,,,,421.4988704000134,None,right,1,0.9118409000802785,421.9994920999743,423.0669569999445,421.9994920999743,422.56690259999596,421.9994920999743,422.56690259999596,421.9994920999743,422.56690259999596,421.9994920999743,422.56690259999596,421.9994920999743,422.56690259999596,422.5326586998999,423.03393370006233,422.5326586998999,423.03393370006233,422.5326586998999,423.03393370006233,422.5326586998999,423.03393370006233,422.5326586998999,423.03393370006233,422.5326586998999,423.03393370006233,422.5326586998999,423.03393370006233,422.5326586998999,423.03393370006233,421.9994920999743,None,423.03393370006233,424.9862043999601,0.5600000000000003,425.00276280008256,None,425.75474229990505,None,,,,,,,[[1.94]],3.650000000000003,0.696969696969697,11030,002,2024_Jan_11_1404,MFTM_A_new1021,2021.2.3,59.839426899164096,
,,,,,,,,stim/Instruction_adaptive.png,conditions/adaptive.xlsx,test,0.6,0.6,0.6,-0.6,-0.6,right,R,,,,,0,1,1,1,0,33,33,8,,,,,,,,,,,,,,,,,,,,,,,,,,,,,,,,,,,,,,,,,,,,426.2558263000101,None,right,1,0.858886000001803,426.75648589991033,427.7913395999931,426.75648589991033,427.2905282001011,426.75648589991033,427.2905282001011,426.75648589991033,427.2905282001011,426.75648589991033,427.2905282001011,426.75648589991033,427.2905282001011,427.25715259998105,427.7584418999031,427.25715259998105,427.7584418999031,427.25715259998105,427.7584418999031,427.25715259998105,427.7584418999031,427.25715259998105,427.7584418999031,427.25715259998105,427.7584418999031,427.25715259998105,427.7584418999031,427.25715259998105,427.7584418999031,426.75648589991033,None,427.7584418999031,429.74327989993617,0.5200000000000002,429.76016129995696,None,430.51114579988644,None,,,,,,,[[1.98]],3.740000000000003,0.7058823529411765,11030,002,2024_Jan_11_1404,MFTM_A_new1021,2021.2.3,59.839426899164096,
,,,,,,,,stim/Instruction_adaptive.png,conditions/adaptive.xlsx,test,-0.6,-0.6,-0.6,0.6,0.6,left,L,,,,,0,1,1,1,0,34,34,69,,,,,,,,,,,,,,,,,,,,,,,,,,,,,,,,,,,,,,,,,,,,431.01274519995786,None,right,0,0.8617597999982536,431.513613200048,432.51552239991724,431.513613200048,432.01379489991814,431.513613200048,432.01379489991814,431.513613200048,432.01379489991814,431.513613200048,432.01379489991814,431.513613200048,432.01379489991814,431.98014439991675,432.4809113999363,431.98014439991675,432.4809113999363,431.98014439991675,432.4809113999363,431.98014439991675,432.4809113999363,431.98014439991675,432.4809113999363,431.98014439991675,432.4809113999363,431.98014439991675,432.4809113999363,431.98014439991675,432.4809113999363,431.513613200048,None,432.4809113999363,434.50142930005677,0.4900000000000002,434.5164185001049,None,435.26837720000185,None,,,,,,,[[2.01]],3.5000000000000027,0.6857142857142857,11030,002,2024_Jan_11_1404,MFTM_A_new1021,2021.2.3,59.839426899164096,
,,,,,,,,stim/Instruction_adaptive.png,conditions/adaptive.xlsx,test,0.6,0.6,0.6,-0.6,-0.6,right,R,,,,,0,1,1,1,0,35,35,10,,,,,,,,,,,,,,,,,,,,,,,,,,,,,,,,,,,,,,,,,,,,435.7686713999137,None,right,1,1.297590599860996,436.27010389999487,437.35465259989724,436.27010389999487,436.85387849994004,436.27010389999487,436.85387849994004,436.27010389999487,436.85387849994004,436.27010389999487,436.85387849994004,436.27010389999487,436.85387849994004,436.8372512999922,437.3382305998821,436.8372512999922,437.3382305998821,436.8372512999922,437.3382305998821,436.8372512999922,437.3382305998821,436.8372512999922,437.3382305998821,436.8372512999922,437.3382305998821,436.8372512999922,437.3382305998821,436.8372512999922,437.3382305998821,436.27010389999487,None,437.3382305998821,439.25860950001515,0.5800000000000003,439.2736299999524,None,440.0253063000273,None,,,,,,,[[1.92]],3.5900000000000025,0.6944444444444444,11030,002,2024_Jan_11_1404,MFTM_A_new1021,2021.2.3,59.839426899164096,
,,,,,,,,stim/Instruction_adaptive.png,conditions/adaptive.xlsx,test,0.6,0.6,0.6,-0.6,-0.6,right,R,,,,,0,1,1,1,0,36,36,66,,,,,,,,,,,,,,,,,,,,,,,,,,,,,,,,,,,,,,,,,,,,440.52701659989543,None,right,1,0.9158215001225471,441.0273814999964,442.07820430002175,441.0273814999964,441.5778113999404,441.0273814999964,441.5778113999404,441.0273814999964,441.5778113999404,441.0273814999964,441.5778113999404,441.0273814999964,441.5778113999404,441.56136199994944,442.06142050004564,441.56136199994944,442.06142050004564,441.56136199994944,442.06142050004564,441.56136199994944,442.06142050004564,441.56136199994944,442.06142050004564,441.56136199994944,442.06142050004564,441.56136199994944,442.06142050004564,441.56136199994944,442.06142050004564,441.0273814999964,None,442.06142050004564,444.01554959989153,0.5500000000000003,444.031269100029,None,444.7825734000653,None,,,,,,,[[1.95]],3.6700000000000026,0.7027027027027027,11030,002,2024_Jan_11_1404,MFTM_A_new1021,2021.2.3,59.839426899164096,
,,,,,,,,stim/Instruction_adaptive.png,conditions/adaptive.xlsx,test,0.6,0.6,0.6,-0.6,-0.6,right,R,,,,,0,1,1,1,0,37,37,92,,,,,,,,,,,,,,,,,,,,,,,,,,,,,,,,,,,,,,,,,,,,445.28310179989785,None,right,1,0.854867700021714,445.7843826999888,446.81862729997374,445.7843826999888,446.3186627998948,445.7843826999888,446.3186627998948,445.7843826999888,446.3186627998948,445.7843826999888,446.3186627998948,445.7843826999888,446.3186627998948,446.2844988000579,446.7860073999036,446.2844988000579,446.7860073999036,446.2844988000579,446.7860073999036,446.2844988000579,446.7860073999036,446.2844988000579,446.7860073999036,446.2844988000579,446.7860073999036,446.2844988000579,446.7860073999036,446.2844988000579,446.7860073999036,445.7843826999888,None,446.7860073999036,448.77236549998634,0.5200000000000002,448.78929129987955,None,449.53960669995286,None,,,,,,,[[1.98]],3.740000000000003,0.7105263157894737,11030,002,2024_Jan_11_1404,MFTM_A_new1021,2021.2.3,59.839426899164096,
,,,,,,,,stim/Instruction_adaptive.png,conditions/adaptive.xlsx,test,-0.6,-0.6,-0.6,0.6,0.6,left,L,,,,,0,1,1,1,0,38,38,49,,,,,,,,,,,,,,,,,,,,,,,,,,,,,,,,,,,,,,,,,,,,450.04120539990254,None,right,0,0.8823142000474036,450.54114000010304,451.5428412000183,450.54114000010304,451.0414062999189,450.54114000010304,451.0414062999189,450.54114000010304,451.0414062999189,450.54114000010304,451.0414062999189,450.54114000010304,451.0414062999189,451.0081372000277,451.5089070999529,451.0081372000277,451.5089070999529,451.0081372000277,451.5089070999529,451.0081372000277,451.5089070999529,451.0081372000277,451.5089070999529,451.0081372000277,451.5089070999529,451.0081372000277,451.5089070999529,451.0081372000277,451.5089070999529,450.54114000010304,None,451.5089070999529,453.52937510004267,0.4900000000000002,453.54594730003737,None,454.2965663000941,None,,,,,,,[[2.01]],3.530000000000003,0.6923076923076923,11030,002,2024_Jan_11_1404,MFTM_A_new1021,2021.2.3,59.839426899164096,
,,,,,,,,stim/Instruction_adaptive.png,conditions/adaptive.xlsx,test,-0.6,-0.6,-0.6,0.6,0.6,left,L,,,,,0,1,1,1,0,39,39,1,,,,,,,,,,,,,,,,,,,,,,,,,,,,,,,,,,,,,,,,,,,,454.7973658000119,None,left,1,0.9577081999741495,455.2977138001006,456.38273419998586,455.2977138001006,455.88210549997166,455.2977138001006,455.88210549997166,455.2977138001006,455.88210549997166,455.2977138001006,455.88210549997166,455.2977138001006,455.88210549997166,455.8493502000347,456.34980119997635,455.8493502000347,456.34980119997635,455.8493502000347,456.34980119997635,455.8493502000347,456.34980119997635,455.8493502000347,456.34980119997635,455.8493502000347,456.34980119997635,455.8493502000347,456.34980119997635,455.8493502000347,456.34980119997635,455.2977138001006,None,456.34980119997635,458.2862640998792,0.5700000000000003,458.30231920001097,None,459.05412460002117,None,,,,,,,[[1.93]],3.610000000000003,0.7,11030,002,2024_Jan_11_1404,MFTM_A_new1021,2021.2.3,59.839426899164096,
,,,,,,,,stim/Instruction_adaptive.png,conditions/adaptive.xlsx,test,-0.6,-0.6,-0.6,0.6,0.6,left,L,,,,,0,1,1,1,0,40,40,59,,,,,,,,,,,,,,,,,,,,,,,,,,,,,,,,,,,,,,,,,,,,459.55484179989435,None,left,1,0.9604276001919061,460.05490570003167,461.1063918999862,460.05490570003167,460.60592909995466,460.05490570003167,460.60592909995466,460.05490570003167,460.60592909995466,460.05490570003167,460.60592909995466,460.05490570003167,460.60592909995466,460.57228339998983,461.0732221000362,460.57228339998983,461.0732221000362,460.57228339998983,461.0732221000362,460.57228339998983,461.0732221000362,460.57228339998983,461.0732221000362,460.57228339998983,461.0732221000362,460.57228339998983,461.0732221000362,460.57228339998983,461.0732221000362,460.05490570003167,None,461.0732221000362,463.04271660000086,0.5400000000000003,463.0593228000216,None,463.8110080000479,None,,,,,,,[[1.96]],3.680000000000003,0.7073170731707317,11030,002,2024_Jan_11_1404,MFTM_A_new1021,2021.2.3,59.839426899164096,
,,,,,,,,stim/Instruction_adaptive.png,conditions/adaptive.xlsx,test,-0.6,-0.6,-0.6,0.6,0.6,left,L,,,,,0,1,1,1,0,41,41,7,,,,,,,,,,,,,,,,,,,,,,,,,,,,,,,,,,,,,,,,,,,,464.31189240003005,None,left,1,0.8915667000692338,464.8119785999879,465.830069999909,464.8119785999879,465.3302710999269,464.8119785999879,465.3302710999269,464.8119785999879,465.3302710999269,464.8119785999879,465.3302710999269,464.8119785999879,465.3302710999269,465.31347419996746,465.81345540005714,465.31347419996746,465.81345540005714,465.31347419996746,465.81345540005714,465.31347419996746,465.81345540005714,465.31347419996746,465.81345540005714,465.31347419996746,465.81345540005714,465.31347419996746,465.81345540005714,465.31347419996746,465.81345540005714,464.8119785999879,None,465.79745539999567,467.80053039989434,0.5100000000000002,467.8171985000372,None,468.56758340005763,None,,,,,,,[[1.99]],3.740000000000003,0.7142857142857143,11030,002,2024_Jan_11_1404,MFTM_A_new1021,2021.2.3,59.839426899164096,
,,,,,,,,stim/Instruction_adaptive.png,conditions/adaptive.xlsx,test,-0.6,-0.6,-0.6,0.6,0.6,left,L,,,,,0,1,1,1,0,42,42,11,,,,,,,,,,,,,,,,,,,,,,,,,,,,,,,,,,,,,,,,,,,,469.0683651000727,None,right,0,1.1817002999596298,469.56996440002695,470.571017799899,469.56996440002695,470.07069729990326,469.56996440002695,470.07069729990326,469.56996440002695,470.07069729990326,469.56996440002695,470.07069729990326,469.56996440002695,470.07069729990326,470.0364135999698,470.5370511999354,470.0364135999698,470.5370511999354,470.0364135999698,470.5370511999354,470.0364135999698,470.5370511999354,470.0364135999698,470.5370511999354,470.0364135999698,470.5370511999354,470.0364135999698,470.5370511999354,470.0364135999698,470.5370511999354,469.56996440002695,None,470.5370511999354,472.55756779992953,0.4900000000000002,472.57285050000064,None,473.3255290999077,None,,,,,,,[[2.01]],3.5600000000000027,0.6976744186046512,11030,002,2024_Jan_11_1404,MFTM_A_new1021,2021.2.3,59.839426899164096,
,,,,,,,,stim/Instruction_adaptive.png,conditions/adaptive.xlsx,test,-0.6,-0.6,-0.6,0.6,0.6,left,L,,,,,0,1,1,1,0,43,43,47,,,,,,,,,,,,,,,,,,,,,,,,,,,,,,,,,,,,,,,,,,,,473.8254364999011,None,left,1,1.145639199996367,474.3258728000801,475.39436089992523,474.3258728000801,474.8935130999889,474.3258728000801,474.8935130999889,474.3258728000801,474.8935130999889,474.3258728000801,474.8935130999889,474.3258728000801,474.8935130999889,474.87697710003704,475.3773173999507,474.87697710003704,475.3773173999507,474.87697710003704,475.3773173999507,474.87697710003704,475.3773173999507,474.87697710003704,475.3773173999507,474.87697710003704,475.3773173999507,474.87697710003704,475.3773173999507,474.87697710003704,475.3773173999507,474.3258728000801,None,475.3773173999507,None,0.5600000000000003,477.3309035000857,None,478.0824128999375,None,,,,,,,[[1.94]],3.6300000000000026,0.7045454545454546,11030,002,2024_Jan_11_1404,MFTM_A_new1021,2021.2.3,59.839426899164096,
,,,,,,,,stim/Instruction_adaptive.png,conditions/adaptive.xlsx,test,-0.6,-0.6,-0.6,0.6,0.6,left,L,,,,,0,1,1,1,0,44,44,83,,,,,,,,,,,,,,,,,,,,,,,,,,,,,,,,,,,,,,,,,,,,478.5829121998977,None,left,1,0.885259399889037,479.08295450010337,480.1179200001061,479.08295450010337,479.6173229000997,479.08295450010337,479.6173229000997,479.08295450010337,479.6173229000997,479.08295450010337,479.6173229000997,479.08295450010337,479.6173229000997,479.60038489988074,480.10169459995814,479.60038489988074,480.10169459995814,479.60038489988074,480.10169459995814,479.60038489988074,480.10169459995814,479.60038489988074,480.10169459995814,479.60038489988074,480.10169459995814,479.60038489988074,480.10169459995814,479.60038489988074,480.10169459995814,479.08295450010337,None,480.10169459995814,482.07111630006693,0.5300000000000002,482.08772459998727,None,482.8395847999491,None,,,,,,,[[1.97]],3.690000000000003,0.7111111111111111,11030,002,2024_Jan_11_1404,MFTM_A_new1021,2021.2.3,59.839426899164096,
,,,,,,,,stim/Instruction_adaptive.png,conditions/adaptive.xlsx,test,0.6,0.6,0.6,-0.6,-0.6,right,R,,,,,0,1,1,1,0,45,45,0,,,,,,,,,,,,,,,,,,,,,,,,,,,,,,,,,,,,,,,,,,,,483.33983559999615,None,left,0,1.143455500015989,483.8399563001003,484.8590090998914,483.8399563001003,484.35762750008143,483.8399563001003,484.35762750008143,483.8399563001003,484.35762750008143,483.8399563001003,484.35762750008143,483.8399563001003,484.35762750008143,484.32481810008176,484.82492029992864,484.32481810008176,484.82492029992864,484.32481810008176,484.82492029992864,484.32481810008176,484.82492029992864,484.32481810008176,484.82492029992864,484.32481810008176,484.82492029992864,484.32481810008176,484.82492029992864,484.32481810008176,484.82492029992864,483.8399563001003,None,484.82492029992864,486.82796059991233,0.5100000000000002,486.84464089991525,None,487.59677019994706,None,,,,,,,[[1.99]],3.5100000000000025,0.6956521739130435,11030,002,2024_Jan_11_1404,MFTM_A_new1021,2021.2.3,59.839426899164096,
,,,,,,,,stim/Instruction_adaptive.png,conditions/adaptive.xlsx,test,-0.6,-0.6,-0.6,0.6,0.6,left,L,,,,,0,1,1,1,0,46,46,93,,,,,,,,,,,,,,,,,,,,,,,,,,,,,,,,,,,,,,,,,,,,488.0972088999115,None,left,1,1.218887599883601,488.5972364000045,489.68204830004834,488.5972364000045,489.1814629000146,488.5972364000045,489.1814629000146,488.5972364000045,489.1814629000146,488.5972364000045,489.1814629000146,488.5972364000045,489.1814629000146,489.16493640001863,489.6661608000286,489.16493640001863,489.6661608000286,489.16493640001863,489.6661608000286,489.16493640001863,489.6661608000286,489.16493640001863,489.6661608000286,489.16493640001863,489.6661608000286,489.16493640001863,489.6661608000286,489.16493640001863,489.6661608000286,488.5972364000045,None,489.6661608000286,None,0.5800000000000003,491.6015854999423,None,492.3532684999518,None,,,,,,,[[1.92]],3.5800000000000027,0.7021276595744681,11030,002,2024_Jan_11_1404,MFTM_A_new1021,2021.2.3,59.839426899164096,
,,,,,,,,stim/Instruction_adaptive.png,conditions/adaptive.xlsx,test,-0.6,-0.6,-0.6,0.6,0.6,left,L,,,,,0,1,1,1,0,47,47,63,,,,,,,,,,,,,,,,,,,,,,,,,,,,,,,,,,,,,,,,,,,,492.85402339999564,None,right,0,0.9820635998621583,493.3539787000045,494.40669129998423,493.3539787000045,493.9048890999984,493.3539787000045,493.9048890999984,493.3539787000045,493.9048890999984,493.3539787000045,493.9048890999984,493.3539787000045,493.9048890999984,493.8883495000191,494.38922229991294,493.8883495000191,494.38922229991294,493.8883495000191,494.38922229991294,493.8883495000191,494.38922229991294,493.8883495000191,494.38922229991294,493.8883495000191,494.38922229991294,493.8883495000191,494.38922229991294,493.8883495000191,494.38922229991294,493.3539787000045,None,494.38922229991294,496.34309679991566,0.5500000000000003,496.35940179997124,None,497.10994250001386,None,,,,,,,[[1.95]],3.4000000000000026,0.6875,11030,002,2024_Jan_11_1404,MFTM_A_new1021,2021.2.3,59.839426899164096,
,,,,,,,,stim/Instruction_adaptive.png,conditions/adaptive.xlsx,test,0.6,0.6,0.6,-0.6,-0.6,right,R,,,,,0,1,1,1,0,48,48,18,,,,,,,,,,,,,,,,,,,,,,,,,,,,,,,,,,,,,,,,,,,,497.61045720009133,None,right,1,1.5764508999418467,498.1112955000717,499.2470108999405,498.1112955000717,498.7456954000518,498.1112955000717,498.7456954000518,498.1112955000717,498.7456954000518,498.1112955000717,498.7456954000518,498.1112955000717,498.7456954000518,498.71201179991476,499.21354590007104,498.71201179991476,499.21354590007104,498.71201179991476,499.21354590007104,498.71201179991476,499.21354590007104,498.71201179991476,499.21354590007104,498.71201179991476,499.21354590007104,498.71201179991476,499.21354590007104,498.71201179991476,499.21354590007104,498.1112955000717,None,499.21354590007104,501.0990202999674,0.6200000000000003,501.1155884000473,None,501.8668203998823,None,,,,,,,[[1.88]],3.4600000000000026,0.6938775510204082,11030,002,2024_Jan_11_1404,MFTM_A_new1021,2021.2.3,59.839426899164096,
,,,,,,,,stim/Instruction_adaptive.png,conditions/adaptive.xlsx,test,0.6,0.6,0.6,-0.6,-0.6,right,R,,,,,0,1,1,1,0,49,49,50,,,,,,,,,,,,,,,,,,,,,,,,,,,,,,,,,,,,,,,,,,,,502.36773640010506,None,right,1,1.1473514002282172,502.86844219989143,503.9703082998749,502.86844219989143,503.4690678999759,502.86844219989143,503.4690678999759,502.86844219989143,503.4690678999759,502.86844219989143,503.4690678999759,502.86844219989143,503.4690678999759,503.4527008999139,503.9542129000183,503.4527008999139,503.9542129000183,503.4527008999139,503.9542129000183,503.4527008999139,503.9542129000183,503.4527008999139,503.9542129000183,503.4527008999139,503.9542129000183,503.4527008999139,503.9542129000183,503.4527008999139,503.9542129000183,502.86844219989143,None,503.9542129000183,505.85741709987633,0.6000000000000003,505.8743958999403,None,506.62417549989186,None,,,,,,,[[1.9]],3.5200000000000027,0.7,11030,002,2024_Jan_11_1404,MFTM_A_new1021,2021.2.3,59.839426899164096,
,,,,,,,,stim/Instruction_adaptive.png,conditions/adaptive.xlsx,test,0.6,0.6,0.6,-0.6,-0.6,right,R,,,,,0,1,1,1,0,50,50,12,,,,,,,,,,,,,,,,,,,,,,,,,,,,,,,,,,,,,,,,,,,,507.12445860006846,None,right,1,0.9582308002281934,507.6254420999903,508.71090460009873,507.6254420999903,508.20941710006446,507.6254420999903,508.20941710006446,507.6254420999903,508.20941710006446,507.6254420999903,508.20941710006446,507.6254420999903,508.20941710006446,508.17629859992303,508.67753400001675,508.17629859992303,508.67753400001675,508.17629859992303,508.67753400001675,508.17629859992303,508.67753400001675,508.17629859992303,508.67753400001675,508.17629859992303,508.67753400001675,508.17629859992303,508.67753400001675,508.17629859992303,508.67753400001675,507.6254420999903,None,508.67753400001675,510.61409249994904,0.5700000000000003,510.6297382998746,None,511.38085169997066,None,,,,,,,[[1.93]],3.5800000000000027,0.7058823529411765,11030,002,2024_Jan_11_1404,MFTM_A_new1021,2021.2.3,59.839426899164096,
,,,,,,,,stim/Instruction_adaptive.png,conditions/adaptive.xlsx,test,0.6,0.6,0.6,-0.6,-0.6,right,R,,,,,0,1,1,1,0,51,51,26,,,,,,,,,,,,,,,,,,,,,,,,,,,,,,,,,,,,,,,,,,,,511.8815524999518,None,right,1,1.9698020999785513,512.382421700051,513.4339942000806,512.382421700051,512.9341478000861,512.382421700051,512.9341478000861,512.382421700051,512.9341478000861,512.382421700051,512.9341478000861,512.382421700051,512.9341478000861,512.917511699954,513.4172394000925,512.917511699954,513.4172394000925,512.917511699954,513.4172394000925,512.917511699954,513.4172394000925,512.917511699954,513.4172394000925,512.917511699954,513.4172394000925,512.917511699954,513.4172394000925,512.917511699954,513.4172394000925,512.382421700051,None,513.4172394000925,515.3703509999905,0.5500000000000003,515.3867947999388,None,516.1377373000141,None,,,,,,,[[1.95]],3.6300000000000026,0.7115384615384616,11030,002,2024_Jan_11_1404,MFTM_A_new1021,2021.2.3,59.839426899164096,
,,,,,,,,stim/Instruction_adaptive.png,conditions/adaptive.xlsx,test,0.6,0.6,0.6,-0.6,-0.6,right,R,,,,,0,1,1,1,0,52,52,20,,,,,,,,,,,,,,,,,,,,,,,,,,,,,,,,,,,,,,,,,,,,516.6397492000833,None,right,1,1.7559913999866694,517.1394159998745,518.174970400054,517.1394159998745,517.6736298999749,517.1394159998745,517.6736298999749,517.1394159998745,517.6736298999749,517.1394159998745,517.6736298999749,517.1394159998745,517.6736298999749,517.657575200079,518.1588661998976,517.657575200079,518.1588661998976,517.657575200079,518.1588661998976,517.657575200079,518.1588661998976,517.657575200079,518.1588661998976,517.657575200079,518.1588661998976,517.657575200079,518.1588661998976,517.657575200079,518.1588661998976,517.1394159998745,None,518.1588661998976,None,0.5300000000000002,520.1437027000356,None,520.8951844999101,None,,,,,,,[[1.97]],3.680000000000003,0.7169811320754716,11030,002,2024_Jan_11_1404,MFTM_A_new1021,2021.2.3,59.839426899164096,
,,,,,,,,stim/Instruction_adaptive.png,conditions/adaptive.xlsx,test,-0.6,-0.6,-0.6,0.6,0.6,left,L,,,,,0,1,1,1,0,53,53,53,,,,,,,,,,,,,,,,,,,,,,,,,,,,,,,,,,,,,,,,,,,,521.3960831998847,None,left,1,1.0234878999181092,521.8965044000652,522.915567799937,521.8965044000652,522.4142849000636,521.8965044000652,522.4142849000636,521.8965044000652,522.4142849000636,521.8965044000652,522.4142849000636,521.8965044000652,522.4142849000636,522.3972845999524,522.8979052000213,522.3972845999524,522.8979052000213,522.3972845999524,522.8979052000213,522.3972845999524,522.8979052000213,522.3972845999524,522.8979052000213,522.3972845999524,522.8979052000213,522.3972845999524,522.8979052000213,522.3972845999524,522.8979052000213,521.8965044000652,None,522.8813738001045,524.8843543999828,0.5100000000000002,524.9010004000738,None,525.6519498000853,None,,,,,,,[[1.99]],3.720000000000003,0.7222222222222222,11030,002,2024_Jan_11_1404,MFTM_A_new1021,2021.2.3,59.839426899164096,
,,,,,,,,stim/Instruction_adaptive.png,conditions/adaptive.xlsx,test,-0.6,-0.6,-0.6,0.6,0.6,left,L,,,,,0,1,1,1,0,54,54,91,,,,,,,,,,,,,,,,,,,,,,,,,,,,,,,,,,,,,,,,,,,,526.1536681000143,None,right,0,1.6579322000034153,526.6537417999934,527.6561268998776,526.6537417999934,527.154208800057,526.6537417999934,527.154208800057,526.6537417999934,527.154208800057,526.6537417999934,527.154208800057,526.6537417999934,527.154208800057,527.1377588000614,527.6390237000305,527.1377588000614,527.6390237000305,527.1377588000614,527.6390237000305,527.1377588000614,527.6390237000305,527.1377588000614,527.6390237000305,527.1377588000614,527.6390237000305,527.1377588000614,527.6390237000305,527.1377588000614,527.6390237000305,526.6537417999934,None,527.6390237000305,529.6434249999002,0.5000000000000002,529.6577157999855,None,530.4096299000084,None,,,,,,,[[2.]],3.5900000000000025,0.7090909090909091,11030,002,2024_Jan_11_1404,MFTM_A_new1021,2021.2.3,59.839426899164096,
,,,,,,,,stim/Instruction_adaptive.png,conditions/adaptive.xlsx,test,0.6,0.6,0.6,-0.6,-0.6,right,R,,,,,0,1,1,1,0,55,55,62,,,,,,,,,,,,,,,,,,,,,,,,,,,,,,,,,,,,,,,,,,,,530.9108390000183,None,left,0,2.1169986999593675,531.4106759999413,532.4626247999258,531.4106759999413,531.9618742999155,531.4106759999413,531.9618742999155,531.4106759999413,531.9618742999155,531.4106759999413,531.9618742999155,531.4106759999413,531.9618742999155,531.9453928999137,532.446147199953,531.9453928999137,532.446147199953,531.9453928999137,532.446147199953,531.9453928999137,532.446147199953,531.9453928999137,532.446147199953,531.9453928999137,532.446147199953,531.9453928999137,532.446147199953,531.9453928999137,532.446147199953,531.4106759999413,None,532.446147199953,534.3984232998919,0.5500000000000003,534.4150572000071,None,535.1668634000234,None,,,,,,,[[1.95]],3.450000000000003,0.6964285714285714,11030,002,2024_Jan_11_1404,MFTM_A_new1021,2021.2.3,59.839426899164096,
,,,,,,,,stim/Instruction_adaptive.png,conditions/adaptive.xlsx,test,0.6,0.6,0.6,-0.6,-0.6,right,R,,,,,0,1,1,1,0,56,56,46,,,,,,,,,,,,,,,,,,,,,,,,,,,,,,,,,,,,,,,,,,,,535.6670474000275,None,right,1,2.368127200054005,536.1677931000013,537.2700839000754,536.1677931000013,536.7692702999339,536.1677931000013,536.7692702999339,536.1677931000013,536.7692702999339,536.1677931000013,536.7692702999339,536.1677931000013,536.7692702999339,536.7525526999962,537.2530481999274,536.7525526999962,537.2530481999274,536.7525526999962,537.2530481999274,536.7525526999962,537.2530481999274,536.7525526999962,537.2530481999274,536.7525526999962,537.2530481999274,536.7525526999962,537.2530481999274,536.7525526999962,537.2530481999274,536.1677931000013,None,537.2530481999274,539.155897699995,0.6000000000000003,539.1720584998839,None,539.9239167000633,None,,,,,,,[[1.9]],3.5000000000000027,0.7017543859649122,11030,002,2024_Jan_11_1404,MFTM_A_new1021,2021.2.3,59.839426899164096,
,,,,,,,,stim/Instruction_adaptive.png,conditions/adaptive.xlsx,test,-0.6,-0.6,-0.6,0.6,0.6,left,L,,,,,0,1,1,1,0,57,57,31,,,,,,,,,,,,,,,,,,,,,,,,,,,,,,,,,,,,,,,,,,,,540.4247928000987,None,left,1,1.042616399936378,540.9249631999992,542.0096553000621,540.9249631999992,541.5088945000898,540.9249631999992,541.5088945000898,540.9249631999992,541.5088945000898,540.9249631999992,541.5088945000898,540.9249631999992,541.5088945000898,541.4929271000437,541.9936528000981,541.4929271000437,541.9936528000981,541.4929271000437,541.9936528000981,541.4929271000437,541.9936528000981,541.4929271000437,541.9936528000981,541.4929271000437,541.9936528000981,541.4929271000437,541.9936528000981,541.4929271000437,541.9936528000981,540.9249631999992,None,541.9936528000981,543.9126881998964,0.5800000000000003,543.9292524999473,None,544.6808410999365,None,,,,,,,[[1.92]],3.5400000000000027,0.7068965517241379,11030,002,2024_Jan_11_1404,MFTM_A_new1021,2021.2.3,59.839426899164096,
,,,,,,,,stim/Instruction_adaptive.png,conditions/adaptive.xlsx,test,0.6,0.6,0.6,-0.6,-0.6,right,R,,,,,0,1,1,1,0,58,58,28,,,,,,,,,,,,,,,,,,,,,,,,,,,,,,,,,,,,,,,,,,,,545.1811230999883,None,right,1,1.0607198001816869,545.6830072000157,546.7667133000214,545.6830072000157,546.2659442001022,545.6830072000157,546.2659442001022,545.6830072000157,546.2659442001022,545.6830072000157,546.2659442001022,545.6830072000157,546.2659442001022,546.2352028000169,546.7498423000798,546.2352028000169,546.7498423000798,546.2352028000169,546.7498423000798,546.2352028000169,546.7498423000798,546.2352028000169,546.7498423000798,546.2352028000169,546.7498423000798,546.2352028000169,546.7498423000798,546.2352028000169,546.7498423000798,545.6830072000157,None,546.7337303000968,548.6702954000793,0.5700000000000003,548.6862268999685,None,549.4377778000198,None,,,,,,,[[1.93]],3.5900000000000025,0.711864406779661,11030,002,2024_Jan_11_1404,MFTM_A_new1021,2021.2.3,59.839426899164096,
,,,,,,,,stim/Instruction_adaptive.png,conditions/adaptive.xlsx,test,-0.6,-0.6,-0.6,0.6,0.6,left,L,,,,,0,1,1,1,0,59,59,87,,,,,,,,,,,,,,,,,,,,,,,,,,,,,,,,,,,,,,,,,,,,549.9383771999273,None,right,0,1.1127778999507427,550.4388409000821,551.4914722000249,550.4388409000821,550.9906158000231,550.4388409000821,550.9906158000231,550.4388409000821,550.9906158000231,550.4388409000821,550.9906158000231,550.4388409000821,550.9906158000231,550.973050700035,551.4735681999009,550.973050700035,551.4735681999009,550.973050700035,551.4735681999009,550.973050700035,551.4735681999009,550.973050700035,551.4735681999009,550.973050700035,551.4735681999009,550.973050700035,551.4735681999009,550.973050700035,551.4735681999009,550.4388409000821,None,551.4735681999009,553.4267164000776,0.5500000000000003,553.443499899935,None,554.1949318000115,None,,,,,,,[[1.95]],3.4600000000000026,0.7,11030,002,2024_Jan_11_1404,MFTM_A_new1021,2021.2.3,59.839426899164096,
,,,,,,,,stim/Instruction_adaptive.png,conditions/adaptive.xlsx,test,-0.6,-0.6,-0.6,0.6,0.6,left,L,,,,,0,1,1,1,0,60,60,33,,,,,,,,,,,,,,,,,,,,,,,,,,,,,,,,,,,,,,,,,,,,554.6952370998915,None,right,0,2.7316733000334352,555.1959273999091,556.2976116000209,555.1959273999091,555.7979003000073,555.1959273999091,555.7979003000073,555.1959273999091,555.7979003000073,555.1959273999091,555.7979003000073,555.1959273999091,555.7979003000073,555.7813361999579,556.2808052999899,555.7813361999579,556.2808052999899,555.7813361999579,556.2808052999899,555.7813361999579,556.2808052999899,555.7813361999579,556.2808052999899,555.7813361999579,556.2808052999899,555.7813361999579,556.2808052999899,555.7813361999579,556.2808052999899,555.1959273999091,None,556.2808052999899,558.1844293000177,0.6000000000000003,558.200406699907,None,558.9516904999036,None,,,,,,,[[1.9]],3.3200000000000025,0.6885245901639344,11030,002,2024_Jan_11_1404,MFTM_A_new1021,2021.2.3,59.839426899164096,
,,,,,,,,stim/Instruction_adaptive.png,conditions/adaptive.xlsx,test,-0.6,-0.6,-0.6,0.6,0.6,left,L,,,,,0,1,1,1,0,61,61,57,,,,,,,,,,,,,,,,,,,,,,,,,,,,,,,,,,,,,,,,,,,,559.4525301998947,None,left,1,1.1014829999767244,559.9544871000107,561.1218948001042,559.9544871000107,560.620982100023,559.9544871000107,560.620982100023,559.9544871000107,560.620982100023,559.9544871000107,560.620982100023,559.9544871000107,560.620982100023,560.5879587999079,561.0887309999671,560.5879587999079,561.0887309999671,560.5879587999079,561.0887309999671,560.5879587999079,561.0887309999671,560.5879587999079,561.0887309999671,560.5879587999079,561.0887309999671,560.5879587999079,561.0887309999671,560.5879587999079,561.0887309999671,559.9544871000107,None,561.0887309999671,562.9413071998861,0.6600000000000004,562.9578104000539,None,563.7087844000198,None,,,,,,,[[1.84]],3.3700000000000028,0.6935483870967742,11030,002,2024_Jan_11_1404,MFTM_A_new1021,2021.2.3,59.839426899164096,
,,,,,,,,stim/Instruction_adaptive.png,conditions/adaptive.xlsx,test,-0.6,-0.6,-0.6,0.6,0.6,left,L,,,,,0,1,1,1,0,62,62,99,,,,,,,,,,,,,,,,,,,,,,,,,,,,,,,,,,,,,,,,,,,,564.209057,None,left,1,1.2737658999394625,564.7097956999205,565.8627758999355,564.7097956999205,565.3609104999341,564.7097956999205,565.3609104999341,564.7097956999205,565.3609104999341,564.7097956999205,565.3609104999341,564.7097956999205,565.3609104999341,565.3276891000569,565.8285866000224,565.3276891000569,565.8285866000224,565.3276891000569,565.8285866000224,565.3276891000569,565.8285866000224,565.3276891000569,565.8285866000224,565.3276891000569,565.8285866000224,565.3276891000569,565.8285866000224,565.3276891000569,565.8285866000224,564.7097956999205,None,565.8285866000224,567.6982776999939,0.6400000000000003,567.7142642999534,None,568.4663102000486,None,,,,,,,[[1.86]],3.410000000000003,0.6984126984126984,11030,002,2024_Jan_11_1404,MFTM_A_new1021,2021.2.3,59.839426899164096,
,,,,,,,,stim/Instruction_adaptive.png,conditions/adaptive.xlsx,test,0.6,0.6,0.6,-0.6,-0.6,right,R,,,,,0,1,1,1,0,63,63,78,,,,,,,,,,,,,,,,,,,,,,,,,,,,,,,,,,,,,,,,,,,,568.9663428999484,None,left,0,1.116290200036019,569.4680300999898,570.6026610999834,569.4680300999898,570.1022391000297,569.4680300999898,570.1022391000297,569.4680300999898,570.1022391000297,569.4680300999898,570.1022391000297,569.4680300999898,570.1022391000297,570.0689423999283,570.5692396999802,570.0689423999283,570.5692396999802,570.0689423999283,570.5692396999802,570.0689423999283,570.5692396999802,570.0689423999283,570.5692396999802,570.0689423999283,570.5692396999802,570.0689423999283,570.5692396999802,570.0689423999283,570.5692396999802,569.4680300999898,None,570.5692396999802,572.4546294000465,0.6200000000000003,572.4713526999112,None,573.2235042999964,None,,,,,,,[[1.88]],3.2800000000000025,0.6875,11030,002,2024_Jan_11_1404,MFTM_A_new1021,2021.2.3,59.839426899164096,
,,,,,,,,stim/Instruction_adaptive.png,conditions/adaptive.xlsx,test,-0.6,-0.6,-0.6,0.6,0.6,left,L,,,,,0,1,1,1,0,64,64,17,,,,,,,,,,,,,,,,,,,,,,,,,,,,,,,,,,,,,,,,,,,,573.7240206999704,None,right,0,1.4239887001458555,574.2239902999718,575.4091992999893,574.2239902999718,574.9090609000996,574.2239902999718,574.9090609000996,574.2239902999718,574.9090609000996,574.2239902999718,574.9090609000996,574.2239902999718,574.9090609000996,574.8923756999429,575.3924652999267,574.8923756999429,575.3924652999267,574.8923756999429,575.3924652999267,574.8923756999429,575.3924652999267,574.8923756999429,575.3924652999267,574.8923756999429,575.3924652999267,574.8923756999429,575.3924652999267,574.8923756999429,575.3924652999267,574.2239902999718,None,575.3924652999267,577.2126996000297,0.6800000000000004,577.2288172000553,None,577.9804070000537,None,,,,,,,[[1.82]],3.1300000000000026,0.676923076923077,11030,002,2024_Jan_11_1404,MFTM_A_new1021,2021.2.3,59.839426899164096,
,,,,,,,,stim/Instruction_adaptive.png,conditions/adaptive.xlsx,test,0.6,0.6,0.6,-0.6,-0.6,right,R,,,,,0,1,1,1,0,65,65,44,,,,,,,,,,,,,,,,,,,,,,,,,,,,,,,,,,,,,,,,,,,,578.4811422000639,None,left,0,1.403251999989152,578.9811601999681,580.2329339999706,578.9811601999681,579.7327151999343,578.9811601999681,579.7327151999343,578.9811601999681,579.7327151999343,578.9811601999681,579.7327151999343,578.9811601999681,579.7327151999343,579.7158814999275,580.2166343999561,579.7158814999275,580.2166343999561,579.7158814999275,580.2166343999561,579.7158814999275,580.2166343999561,579.7158814999275,580.2166343999561,579.7158814999275,580.2166343999561,579.7158814999275,580.2166343999561,579.7158814999275,580.2166343999561,578.9811601999681,None,580.2166343999561,581.9690052999649,0.7500000000000004,581.9855068998877,None,582.7366337000858,None,,,,,,,[[1.75]],2.960000000000002,0.6666666666666666,11030,002,2024_Jan_11_1404,MFTM_A_new1021,2021.2.3,59.839426899164096,
,,,,,,,,stim/Instruction_adaptive.png,conditions/adaptive.xlsx,test,0.6,0.6,0.6,-0.6,-0.6,right,R,,,,,0,1,1,1,0,66,66,82,,,,,,,,,,,,,,,,,,,,,,,,,,,,,,,,,,,,,,,,,,,,583.2373249998782,None,right,1,1.444544400088489,583.739071900025,585.0901977999602,583.739071900025,584.5895181000233,583.739071900025,584.5895181000233,583.739071900025,584.5895181000233,583.739071900025,584.5895181000233,583.739071900025,584.5895181000233,584.5734796999022,585.0745943998918,584.5734796999022,585.0745943998918,584.5734796999022,585.0745943998918,584.5734796999022,585.0745943998918,584.5734796999022,585.0745943998918,584.5734796999022,585.0745943998918,584.5734796999022,585.0745943998918,584.5734796999022,585.0745943998918,583.739071900025,None,585.0745943998918,586.7267628998961,0.8500000000000005,586.7426086999476,None,587.4942916999571,None,,,,,,,[[1.65]],3.0200000000000022,0.6716417910447762,11030,002,2024_Jan_11_1404,MFTM_A_new1021,2021.2.3,59.839426899164096,
,,,,,,,,stim/Instruction_adaptive.png,conditions/adaptive.xlsx,test,0.6,0.6,0.6,-0.6,-0.6,right,R,,,,,0,1,1,1,0,67,67,86,,,,,,,,,,,,,,,,,,,,,,,,,,,,,,,,,,,,,,,,,,,,587.99426759989,None,right,1,1.5847167999017984,588.4952628999017,589.814953800058,588.4952628999017,589.3130739999469,588.4952628999017,589.3130739999469,588.4952628999017,589.3130739999469,588.4952628999017,589.3130739999469,588.4952628999017,589.3130739999469,589.2962370999157,589.7974392001051,589.2962370999157,589.7974392001051,589.2962370999157,589.7974392001051,589.2962370999157,589.7974392001051,589.2962370999157,589.7974392001051,589.2962370999157,589.7974392001051,589.2962370999157,589.7974392001051,589.2962370999157,589.7974392001051,588.4952628999017,None,589.7806285000406,591.4840430999175,0.8100000000000005,591.4998347000219,None,592.2508648000658,None,,,,,,,[[1.69]],3.0800000000000023,0.6764705882352942,11030,002,2024_Jan_11_1404,MFTM_A_new1021,2021.2.3,59.839426899164096,
,,,,,,,,stim/Instruction_adaptive.png,conditions/adaptive.xlsx,test,0.6,0.6,0.6,-0.6,-0.6,right,R,,,,,0,1,1,1,0,68,68,76,,,,,,,,,,,,,,,,,,,,,,,,,,,,,,,,,,,,,,,,,,,,592.7515062999446,None,right,1,0.9475738999899477,593.2523318999447,594.5374624000397,593.2523318999447,594.0373239999171,593.2523318999447,594.0373239999171,593.2523318999447,594.0373239999171,593.2523318999447,594.0373239999171,593.2523318999447,594.0373239999171,594.0206615000498,594.5206852999981,594.0206615000498,594.5206852999981,594.0206615000498,594.5206852999981,594.0206615000498,594.5206852999981,594.0206615000498,594.5206852999981,594.0206615000498,594.5206852999981,594.0206615000498,594.5206852999981,594.0206615000498,594.5206852999981,593.2523318999447,None,594.5206852999981,596.2406979000662,0.7800000000000005,596.2568949998822,None,597.0077174999751,None,,,,,,,[[1.72]],3.1300000000000026,0.6811594202898551,11030,002,2024_Jan_11_1404,MFTM_A_new1021,2021.2.3,59.839426899164096,
,,,,,,,,stim/Instruction_adaptive.png,conditions/adaptive.xlsx,test,0.6,0.6,0.6,-0.6,-0.6,right,R,,,,,0,1,1,1,0,69,69,4,,,,,,,,,,,,,,,,,,,,,,,,,,,,,,,,,,,,,,,,,,,,597.5087174000219,None,right,1,1.182237199973315,598.0093481999356,599.2611605999991,598.0093481999356,598.76084490004,598.0093481999356,598.76084490004,598.0093481999356,598.76084490004,598.0093481999356,598.76084490004,598.0093481999356,598.76084490004,598.7442234000191,599.2450256999582,598.7442234000191,599.2450256999582,598.7442234000191,599.2450256999582,598.7442234000191,599.2450256999582,598.7442234000191,599.2450256999582,598.7442234000191,599.2450256999582,598.7442234000191,599.2450256999582,598.7442234000191,599.2450256999582,598.0093481999356,None,599.2450256999582,600.9971680999734,0.7500000000000004,601.0137070000637,None,601.7647200000938,None,,,,,,,[[1.75]],3.1800000000000024,0.6857142857142857,11030,002,2024_Jan_11_1404,MFTM_A_new1021,2021.2.3,59.839426899164096,
,,,,,,,,stim/Instruction_adaptive.png,conditions/adaptive.xlsx,test,-0.6,-0.6,-0.6,0.6,0.6,left,L,,,,,0,1,1,1,0,70,70,85,,,,,,,,,,,,,,,,,,,,,,,,,,,,,,,,,,,,,,,,,,,,602.2657083000522,None,right,0,1.5616701999679208,602.7662917000707,604.0021671999712,602.7662917000707,603.5007734000683,602.7662917000707,603.5007734000683,602.7662917000707,603.5007734000683,602.7662917000707,603.5007734000683,602.7662917000707,603.5007734000683,603.4852495000232,603.9858168000355,603.4852495000232,603.9858168000355,603.4852495000232,603.9858168000355,603.4852495000232,603.9858168000355,603.4852495000232,603.9858168000355,603.4852495000232,603.9858168000355,603.4852495000232,603.9858168000355,603.4852495000232,603.9858168000355,602.7662917000707,None,603.9858168000355,605.7542568000499,0.7300000000000004,605.7708990999963,None,606.5226610000245,None,,,,,,,[[1.77]],3.0400000000000023,0.676056338028169,11030,002,2024_Jan_11_1404,MFTM_A_new1021,2021.2.3,59.839426899164096,
,,,,,,,,stim/Instruction_adaptive.png,conditions/adaptive.xlsx,test,-0.6,-0.6,-0.6,0.6,0.6,left,L,,,,,0,1,1,1,0,71,71,77,,,,,,,,,,,,,,,,,,,,,,,,,,,,,,,,,,,,,,,,,,,,607.0227667998988,None,right,0,0.9642944999504834,607.5235136998817,608.8260272000916,607.5235136998817,608.3246828999836,607.5235136998817,608.3246828999836,607.5235136998817,608.3246828999836,607.5235136998817,608.3246828999836,607.5235136998817,608.3246828999836,608.3079977999441,608.8086292000953,608.3079977999441,608.8086292000953,608.3079977999441,608.8086292000953,608.3079977999441,608.8086292000953,608.3079977999441,608.8086292000953,608.3079977999441,608.8086292000953,608.3079977999441,608.8086292000953,608.3079977999441,608.8086292000953,607.5235136998817,None,608.8086292000953,610.5119060999714,0.8000000000000005,610.5279639000073,None,611.279987399932,None,,,,,,,[[1.7]],2.880000000000002,0.6666666666666666,11030,002,2024_Jan_11_1404,MFTM_A_new1021,2021.2.3,59.839426899164096,
,,,,,,,,stim/Instruction_adaptive.png,conditions/adaptive.xlsx,test,0.6,0.6,0.6,-0.6,-0.6,right,R,,,,,0,1,1,1,0,72,72,84,,,,,,,,,,,,,,,,,,,,,,,,,,,,,,,,,,,,,,,,,,,,611.7806531998795,None,right,1,1.062966100173071,612.2806291999295,613.6826833998784,612.2806291999295,613.1816495999228,612.2806291999295,613.1816495999228,612.2806291999295,613.1816495999228,612.2806291999295,613.1816495999228,612.2806291999295,613.1816495999228,613.148612299934,613.6498360999394,613.148612299934,613.6498360999394,613.148612299934,613.6498360999394,613.148612299934,613.6498360999394,613.148612299934,613.6498360999394,613.148612299934,613.6498360999394,613.148612299934,613.6498360999394,613.148612299934,613.6498360999394,612.2806291999295,None,613.6498360999394,615.2701169000939,0.8900000000000006,615.2848861000966,None,616.0370203000493,None,,,,,,,[[1.61]],2.940000000000002,0.6712328767123288,11030,002,2024_Jan_11_1404,MFTM_A_new1021,2021.2.3,59.839426899164096,
,,,,,,,,stim/Instruction_adaptive.png,conditions/adaptive.xlsx,test,-0.6,-0.6,-0.6,0.6,0.6,left,L,,,,,0,1,1,1,0,73,73,27,,,,,,,,,,,,,,,,,,,,,,,,,,,,,,,,,,,,,,,,,,,,616.5372967000585,None,left,1,1.2263072999194264,617.0373895000666,618.4061827000696,617.0373895000666,617.9052663000766,617.0373895000666,617.9052663000766,617.0373895000666,617.9052663000766,617.0373895000666,617.9052663000766,617.0373895000666,617.9052663000766,617.8721020999365,618.3729266000446,617.8721020999365,618.3729266000446,617.8721020999365,618.3729266000446,617.8721020999365,618.3729266000446,617.8721020999365,618.3729266000446,617.8721020999365,618.3729266000446,617.8721020999365,618.3729266000446,617.8721020999365,618.3729266000446,617.0373895000666,None,618.3729266000446,620.0257675000466,0.8600000000000005,620.042501399992,None,620.7938335998915,None,,,,,,,[[1.64]],2.990000000000002,0.6756756756756757,11030,002,2024_Jan_11_1404,MFTM_A_new1021,2021.2.3,59.839426899164096,
,,,,,,,,stim/Instruction_adaptive.png,conditions/adaptive.xlsx,test,-0.6,-0.6,-0.6,0.6,0.6,left,L,,,,,0,1,1,1,0,74,74,5,,,,,,,,,,,,,,,,,,,,,,,,,,,,,,,,,,,,,,,,,,,,621.2943031000905,None,left,1,1.7013560999184847,621.7947927000932,623.1303288999479,621.7947927000932,622.6314228000119,621.7947927000932,622.6314228000119,621.7947927000932,622.6314228000119,621.7947927000932,622.6314228000119,621.7947927000932,622.6314228000119,622.6130146000069,623.1137586000841,622.6130146000069,623.1137586000841,622.6130146000069,623.1137586000841,622.6130146000069,623.1137586000841,622.6130146000069,623.1137586000841,622.6130146000069,623.1137586000841,622.6130146000069,623.1137586000841,622.6130146000069,623.1137586000841,621.7947927000932,None,623.1137586000841,None,0.8300000000000005,624.799368100008,None,625.5510607000906,None,,,,,,,[[1.67]],3.0400000000000023,0.68,11030,002,2024_Jan_11_1404,MFTM_A_new1021,2021.2.3,59.839426899164096,
,,,,,,,,stim/Instruction_adaptive.png,conditions/adaptive.xlsx,test,-0.6,-0.6,-0.6,0.6,0.6,left,L,,,,,0,1,1,1,0,75,75,75,,,,,,,,,,,,,,,,,,,,,,,,,,,,,,,,,,,,,,,,,,,,626.0514769998845,None,left,1,1.167186199920252,626.5530395999085,627.8540815999731,626.5530395999085,627.353351800004,626.5530395999085,627.353351800004,626.5530395999085,627.353351800004,626.5530395999085,627.353351800004,626.5530395999085,627.353351800004,627.3361186999828,627.8368500000797,627.3361186999828,627.8368500000797,627.3361186999828,627.8368500000797,627.3361186999828,627.8368500000797,627.3361186999828,627.8368500000797,627.3361186999828,627.8368500000797,627.3361186999828,627.8368500000797,627.3361186999828,627.8368500000797,626.5530395999085,None,627.8368500000797,629.5397330000997,0.8000000000000005,629.5560449000914,None,630.307936700061,None,,,,,,,[[1.7]],3.0800000000000023,0.6842105263157895,11030,002,2024_Jan_11_1404,MFTM_A_new1021,2021.2.3,59.839426899164096,
,,,,,,,,stim/Instruction_adaptive.png,conditions/adaptive.xlsx,test,0.6,0.6,0.6,-0.6,-0.6,right,R,,,,,0,1,1,1,0,76,76,64,,,,,,,,,,,,,,,,,,,,,,,,,,,,,,,,,,,,,,,,,,,,630.8079121999908,None,right,1,1.2268769999500364,631.3086284000892,632.593918300001,631.3086284000892,632.0938764999155,631.3086284000892,632.0938764999155,631.3086284000892,632.0938764999155,631.3086284000892,632.0938764999155,631.3086284000892,632.0938764999155,632.0767943998799,632.5770213999785,632.0767943998799,632.5770213999785,632.0767943998799,632.5770213999785,632.0767943998799,632.5770213999785,632.0767943998799,632.5770213999785,632.0767943998799,632.5770213999785,632.0767943998799,632.5770213999785,632.0767943998799,632.5770213999785,631.3086284000892,None,632.5770213999785,634.2964465999976,0.7800000000000005,634.313107999973,None,635.0648958999664,None,,,,,,,[[1.72]],3.1200000000000023,0.6883116883116883,11030,002,2024_Jan_11_1404,MFTM_A_new1021,2021.2.3,59.839426899164096,
,,,,,,,,stim/Instruction_adaptive.png,conditions/adaptive.xlsx,test,-0.6,-0.6,-0.6,0.6,0.6,left,L,,,,,0,1,1,1,0,77,77,29,,,,,,,,,,,,,,,,,,,,,,,,,,,,,,,,,,,,,,,,,,,,635.5650633999612,None,right,0,1.4694169000722468,636.0669819000177,637.3350348998792,636.0669819000177,636.8337346999906,636.0669819000177,636.8337346999906,636.0669819000177,636.8337346999906,636.0669819000177,636.8337346999906,636.0669819000177,636.8337346999906,636.8003763000015,637.3010396000464,636.8003763000015,637.3010396000464,636.8003763000015,637.3010396000464,636.8003763000015,637.3010396000464,636.8003763000015,637.3010396000464,636.8003763000015,637.3010396000464,636.8003763000015,637.3010396000464,636.8003763000015,637.3010396000464,636.0669819000177,None,637.3010396000464,639.0548813000787,0.7600000000000005,639.0700725000352,None,639.8217376999091,None,,,,,,,[[1.74]],3.000000000000002,0.6794871794871795,11030,002,2024_Jan_11_1404,MFTM_A_new1021,2021.2.3,59.839426899164096,
,,,,,,,,stim/Instruction_adaptive.png,conditions/adaptive.xlsx,test,-0.6,-0.6,-0.6,0.6,0.6,left,L,,,,,0,1,1,1,0,78,78,39,,,,,,,,,,,,,,,,,,,,,,,,,,,,,,,,,,,,,,,,,,,,640.3226423999295,None,left,1,1.3446377001237124,640.8231633999385,642.1584568999242,640.8231633999385,641.6579899000935,640.8231633999385,641.6579899000935,640.8231633999385,641.6579899000935,640.8231633999385,641.6579899000935,640.8231633999385,641.6579899000935,641.6252750998829,642.1246187998913,641.6252750998829,642.1246187998913,641.6252750998829,642.1246187998913,641.6252750998829,642.1246187998913,641.6252750998829,642.1246187998913,641.6252750998829,642.1246187998913,641.6252750998829,642.1246187998913,641.6252750998829,642.1246187998913,640.8231633999385,None,642.1246187998913,643.8107429000083,0.8200000000000005,643.8273044999223,None,644.578939500032,None,,,,,,,[[1.68]],3.0400000000000023,0.6835443037974683,11030,002,2024_Jan_11_1404,MFTM_A_new1021,2021.2.3,59.839426899164096,
,,,,,,,,stim/Instruction_adaptive.png,conditions/adaptive.xlsx,test,-0.6,-0.6,-0.6,0.6,0.6,left,L,,,,,0,1,1,1,0,79,79,65,,,,,,,,,,,,,,,,,,,,,,,,,,,,,,,,,,,,,,,,,,,,645.0802468000911,None,right,0,1.356069999979809,645.5798434000462,646.882504499983,645.5798434000462,646.3821105998941,645.5798434000462,646.3821105998941,645.5798434000462,646.3821105998941,645.5798434000462,646.3821105998941,645.5798434000462,646.3821105998941,646.3652627998963,646.8657641999889,646.3652627998963,646.8657641999889,646.3652627998963,646.8657641999889,646.3652627998963,646.8657641999889,646.3652627998963,646.8657641999889,646.3652627998963,646.8657641999889,646.3652627998963,646.8657641999889,646.3652627998963,646.8657641999889,645.5798434000462,None,646.8657641999889,648.5687661999837,0.8000000000000005,648.5841685999185,None,649.336607699981,None,,,,,,,[[1.7]],2.920000000000002,0.675,11030,002,2024_Jan_11_1404,MFTM_A_new1021,2021.2.3,59.839426899164096,
,,,,,,,,stim/Instruction_adaptive.png,conditions/adaptive.xlsx,test,-0.6,-0.6,-0.6,0.6,0.6,left,L,,,,,0,1,1,1,0,80,80,71,,,,,,,,,,,,,,,,,,,,,,,,,,,,,,,,,,,,,,,,,,,,649.8359819001053,None,left,1,1.8707262999378145,650.3372037999798,651.706694799941,650.3372037999798,651.2216084999964,650.3372037999798,651.2216084999964,650.3372037999798,651.2216084999964,650.3372037999798,651.2216084999964,650.3372037999798,651.2216084999964,651.1881311000325,651.6900897000451,651.1881311000325,651.6900897000451,651.1881311000325,651.6900897000451,651.1881311000325,651.6900897000451,651.1881311000325,651.6900897000451,651.1881311000325,651.6900897000451,651.1881311000325,651.6900897000451,651.1881311000325,651.6900897000451,650.3372037999798,None,651.6900897000451,653.3251849000808,0.8700000000000006,653.3411612999626,None,654.0927905999124,None,,,,,,,[[1.63]],2.960000000000002,0.6790123456790124,11030,002,2024_Jan_11_1404,MFTM_A_new1021,2021.2.3,59.839426899164096,
,,,,,,,,stim/Instruction_adaptive.png,conditions/adaptive.xlsx,test,-0.6,-0.6,-0.6,0.6,0.6,left,L,,,,,0,1,1,1,0,81,81,45,,,,,,,,,,,,,,,,,,,,,,,,,,,,,,,,,,,,,,,,,,,,654.5933838000055,None,left,1,1.3372857000213116,655.0944236000068,656.4460247999523,655.0944236000068,655.9457302000374,655.0944236000068,655.9457302000374,655.0944236000068,655.9457302000374,655.0944236000068,655.9457302000374,655.0944236000068,655.9457302000374,655.9287495000754,656.4296442999039,655.9287495000754,656.4296442999039,655.9287495000754,656.4296442999039,655.9287495000754,656.4296442999039,655.9287495000754,656.4296442999039,655.9287495000754,656.4296442999039,655.9287495000754,656.4296442999039,655.9287495000754,656.4296442999039,655.0944236000068,None,656.4296442999039,658.0824378000107,0.8500000000000005,658.0985634000972,None,658.8507973998785,None,,,,,,,[[1.65]],3.000000000000002,0.6829268292682927,11030,002,2024_Jan_11_1404,MFTM_A_new1021,2021.2.3,59.839426899164096,
,,,,,,,,stim/Instruction_adaptive.png,conditions/adaptive.xlsx,test,0.6,0.6,0.6,-0.6,-0.6,right,R,,,,,0,1,1,1,0,82,82,38,,,,,,,,,,,,,,,,,,,,,,,,,,,,,,,,,,,,,,,,,,,,659.3504443001002,None,left,0,1.4438064999412745,659.851784999948,661.1864116999786,659.851784999948,660.6858584999572,659.851784999948,660.6858584999572,659.851784999948,660.6858584999572,659.851784999948,660.6858584999572,659.851784999948,660.6858584999572,660.6527460000943,661.1530782000627,660.6527460000943,661.1530782000627,660.6527460000943,661.1530782000627,660.6527460000943,661.1530782000627,660.6527460000943,661.1530782000627,660.6527460000943,661.1530782000627,660.6527460000943,661.1530782000627,660.6527460000943,661.1530782000627,659.851784999948,None,661.1530782000627,662.8387122999411,0.8200000000000005,662.8554122999776,None,663.6067095999606,None,,,,,,,[[1.68]],2.880000000000002,0.6746987951807228,11030,002,2024_Jan_11_1404,MFTM_A_new1021,2021.2.3,59.839426899164096,
,,,,,,,,stim/Instruction_adaptive.png,conditions/adaptive.xlsx,test,0.6,0.6,0.6,-0.6,-0.6,right,R,,,,,0,1,1,1,0,83,83,24,,,,,,,,,,,,,,,,,,,,,,,,,,,,,,,,,,,,,,,,,,,,664.1074745999649,None,left,0,2.360246099997312,664.6079943000805,666.0113448998891,664.6079943000805,665.5100233000703,664.6079943000805,665.5100233000703,664.6079943000805,665.5100233000703,664.6079943000805,665.5100233000703,664.6079943000805,665.5100233000703,665.4767756999936,665.9778984000441,665.4767756999936,665.9778984000441,665.4767756999936,665.9778984000441,665.4767756999936,665.9778984000441,665.4767756999936,665.9778984000441,665.4767756999936,665.9778984000441,665.4767756999936,665.9778984000441,665.4767756999936,665.9778984000441,664.6079943000805,None,665.9778984000441,667.5957259000279,0.8900000000000006,667.6126459999941,None,668.3642720999196,None,,,,,,,[[1.61]],2.7500000000000018,0.6666666666666666,11030,002,2024_Jan_11_1404,MFTM_A_new1021,2021.2.3,59.839426899164096,
,,,,,,,,stim/Instruction_adaptive.png,conditions/adaptive.xlsx,test,0.6,0.6,0.6,-0.6,-0.6,right,R,,,,,0,1,1,1,0,84,84,72,,,,,,,,,,,,,,,,,,,,,,,,,,,,,,,,,,,,,,,,,,,,668.8646186999977,None,right,1,2.5146994998212904,669.3650879999623,670.8513829000294,669.3650879999623,670.3498859999236,669.3650879999623,670.3498859999236,669.3650879999623,670.3498859999236,669.3650879999623,670.3498859999236,669.3650879999623,670.3498859999236,670.3333566999063,670.8340733998921,670.3333566999063,670.8340733998921,670.3333566999063,670.8340733998921,670.3333566999063,670.8340733998921,670.3333566999063,670.8340733998921,670.3333566999063,670.8340733998921,670.3333566999063,670.8340733998921,670.3333566999063,670.8340733998921,669.3650879999623,None,670.8340733998921,672.3539889999665,0.9800000000000006,672.3692246000282,None,673.1204266001005,None,,,,,,,[[1.52]],2.790000000000002,0.6705882352941176,11030,002,2024_Jan_11_1404,MFTM_A_new1021,2021.2.3,59.839426899164096,
,,,,,,,,stim/Instruction_adaptive.png,conditions/adaptive.xlsx,test,0.6,0.6,0.6,-0.6,-0.6,right,R,,,,,0,1,1,1,0,85,85,42,,,,,,,,,,,,,,,,,,,,,,,,,,,,,,,,,,,,,,,,,,,,673.6221201000735,None,right,1,1.980763099854812,674.1228348000441,675.5750561999157,674.1228348000441,675.0741439999547,674.1228348000441,675.0741439999547,674.1228348000441,675.0741439999547,674.1228348000441,675.0741439999547,674.1228348000441,675.0741439999547,675.0571407000534,675.5582178998739,675.0571407000534,675.5582178998739,675.0571407000534,675.5582178998739,675.0571407000534,675.5582178998739,675.0571407000534,675.5582178998739,675.0571407000534,675.5582178998739,675.0571407000534,675.5582178998739,675.0571407000534,675.5582178998739,674.1228348000441,None,675.5582178998739,677.1103634999599,0.9500000000000006,677.1265348999295,None,677.8784872000106,None,,,,,,,[[1.55]],2.840000000000002,0.6744186046511628,11030,002,2024_Jan_11_1404,MFTM_A_new1021,2021.2.3,59.839426899164096,
,,,,,,,,stim/Instruction_adaptive.png,conditions/adaptive.xlsx,test,-0.6,-0.6,-0.6,0.6,0.6,left,L,,,,,0,1,1,1,0,86,86,73,,,,,,,,,,,,,,,,,,,,,,,,,,,,,,,,,,,,,,,,,,,,678.3794748000801,None,left,1,1.2651090999133885,678.8790623000823,680.2992740001064,678.8790623000823,679.8138905998785,678.8790623000823,679.8138905998785,678.8790623000823,679.8138905998785,678.8790623000823,679.8138905998785,678.8790623000823,679.8138905998785,679.7808161000721,680.2821577000432,679.7808161000721,680.2821577000432,679.7808161000721,680.2821577000432,679.7808161000721,680.2821577000432,679.7808161000721,680.2821577000432,679.7808161000721,680.2821577000432,679.7808161000721,680.2821577000432,679.7808161000721,680.2821577000432,678.8790623000823,None,680.2821577000432,681.8676263000816,0.9200000000000006,681.8842758999672,None,682.6347842998803,None,,,,,,,[[1.58]],2.880000000000002,0.6781609195402298,11030,002,2024_Jan_11_1404,MFTM_A_new1021,2021.2.3,59.839426899164096,
,,,,,,,,stim/Instruction_adaptive.png,conditions/adaptive.xlsx,test,-0.6,-0.6,-0.6,0.6,0.6,left,L,,,,,0,1,1,1,0,87,87,81,,,,,,,,,,,,,,,,,,,,,,,,,,,,,,,,,,,,,,,,,,,,683.1358833999839,None,left,1,1.3072637000586838,683.6364994000178,685.0381133998744,683.6364994000178,684.5381751998793,683.6364994000178,684.5381751998793,683.6364994000178,684.5381751998793,683.6364994000178,684.5381751998793,683.6364994000178,684.5381751998793,684.5041954999324,685.005397599889,684.5041954999324,685.005397599889,684.5041954999324,685.005397599889,684.5041954999324,685.005397599889,684.5041954999324,685.005397599889,684.5041954999324,685.005397599889,684.5041954999324,685.005397599889,684.5041954999324,685.005397599889,683.6364994000178,None,685.005397599889,686.625988899963,0.8900000000000006,686.6403638001066,None,687.3924525000621,None,,,,,,,[[1.61]],2.920000000000002,0.6818181818181818,11030,002,2024_Jan_11_1404,MFTM_A_new1021,2021.2.3,59.839426899164096,
,,,,,,,,stim/Instruction_adaptive.png,conditions/adaptive.xlsx,test,0.6,0.6,0.6,-0.6,-0.6,right,R,,,,,0,1,1,1,0,88,88,6,,,,,,,,,,,,,,,,,,,,,,,,,,,,,,,,,,,,,,,,,,,,687.892660100013,None,right,1,0.8945283000357449,688.3931209000293,689.7791468999349,688.3931209000293,689.2782443999313,688.3931209000293,689.2782443999313,688.3931209000293,689.2782443999313,688.3931209000293,689.2782443999313,688.3931209000293,689.2782443999313,689.2449521000963,689.7453369998839,689.2449521000963,689.7453369998839,689.2449521000963,689.7453369998839,689.2449521000963,689.7453369998839,689.2449521000963,689.7453369998839,689.2449521000963,689.7453369998839,689.2449521000963,689.7453369998839,689.2449521000963,689.7453369998839,688.3931209000293,None,689.7453369998839,691.3809702000581,0.8700000000000006,691.3982488999609,None,692.149445099989,None,,,,,,,[[1.63]],2.960000000000002,0.6853932584269663,11030,002,2024_Jan_11_1404,MFTM_A_new1021,2021.2.3,59.839426899164096,
,,,,,,,,stim/Instruction_adaptive.png,conditions/adaptive.xlsx,test,0.6,0.6,0.6,-0.6,-0.6,right,R,,,,,0,1,1,1,0,89,89,88,,,,,,,,,,,,,,,,,,,,,,,,,,,,,,,,,,,,,,,,,,,,692.6496166998986,None,left,0,1.3616281999275088,693.1502012000419,694.5028424998745,693.1502012000419,694.0026358999312,693.1502012000419,694.0026358999312,693.1502012000419,694.0026358999312,693.1502012000419,694.0026358999312,693.1502012000419,694.0026358999312,693.9849533999804,694.4862351999618,693.9849533999804,694.4862351999618,693.9849533999804,694.4862351999618,693.9849533999804,694.4862351999618,693.9849533999804,694.4862351999618,693.9849533999804,694.4862351999618,693.9849533999804,694.4862351999618,693.9849533999804,694.4862351999618,693.1502012000419,None,694.4862351999618,696.138721199939,0.8500000000000005,696.1542032998987,None,696.9065012999345,None,,,,,,,[[1.65]],2.8500000000000023,0.6777777777777778,11030,002,2024_Jan_11_1404,MFTM_A_new1021,2021.2.3,59.839426899164096,
,,,,,,,,stim/Instruction_adaptive.png,conditions/adaptive.xlsx,test,-0.6,-0.6,-0.6,0.6,0.6,left,L,,,,,0,1,1,1,0,90,90,89,,,,,,,,,,,,,,,,,,,,,,,,,,,,,,,,,,,,,,,,,,,,697.4068406999577,None,right,0,1.95661859982647,697.9073089000303,699.3262058000546,697.9073089000303,698.8257967000827,697.9073089000303,698.8257967000827,697.9073089000303,698.8257967000827,697.9073089000303,698.8257967000827,697.9073089000303,698.8257967000827,698.8091225000098,699.3100930000655,698.8091225000098,699.3100930000655,698.8091225000098,699.3100930000655,698.8091225000098,699.3100930000655,698.8091225000098,699.3100930000655,698.8091225000098,699.3100930000655,698.8091225000098,699.3100930000655,698.8091225000098,699.3100930000655,697.9073089000303,None,699.2934874000493,700.8955216000322,0.9100000000000006,700.9117946999613,None,701.6632373998873,None,,,,,,,[[1.59]],2.730000000000002,0.6703296703296703,11030,002,2024_Jan_11_1404,MFTM_A_new1021,2021.2.3,59.839426899164096,
,,,,,,,,stim/Instruction_adaptive.png,conditions/adaptive.xlsx,test,0.6,0.6,0.6,-0.6,-0.6,right,R,,,,,0,1,1,1,0,91,91,16,,,,,,,,,,,,,,,,,,,,,,,,,,,,,,,,,,,,,,,,,,,,702.164037700044,None,left,0,1.5834641999099404,702.6646121998783,704.1671714000404,702.6646121998783,703.6657591999974,702.6646121998783,703.6657591999974,702.6646121998783,703.6657591999974,702.6646121998783,703.6657591999974,702.6646121998783,703.6657591999974,703.6323406998999,704.1343843999784,703.6323406998999,704.1343843999784,703.6323406998999,704.1343843999784,703.6323406998999,704.1343843999784,703.6323406998999,704.1343843999784,703.6323406998999,704.1343843999784,703.6323406998999,704.1343843999784,703.6323406998999,704.1343843999784,702.6646121998783,None,704.1343843999784,705.6527479998767,0.9900000000000007,705.6690654999111,None,706.4206310000736,None,,,,,,,[[1.51]],2.600000000000002,0.6630434782608695,11030,002,2024_Jan_11_1404,MFTM_A_new1021,2021.2.3,59.839426899164096,
,,,,,,,,stim/Instruction_adaptive.png,conditions/adaptive.xlsx,test,0.6,0.6,0.6,-0.6,-0.6,right,R,,,,,0,1,1,1,0,92,92,54,,,,,,,,,,,,,,,,,,,,,,,,,,,,,,,,,,,,,,,,,,,,706.9205986999441,None,right,1,1.9540149001404643,707.4214959999081,709.0246176000219,707.4214959999081,708.5231705999468,707.4214959999081,708.5231705999468,707.4214959999081,708.5231705999468,707.4214959999081,708.5231705999468,707.4214959999081,708.5231705999468,708.4897634000517,708.991253899876,708.4897634000517,708.991253899876,708.4897634000517,708.991253899876,708.4897634000517,708.991253899876,708.4897634000517,708.991253899876,708.4897634000517,708.991253899876,708.4897634000517,708.991253899876,708.4897634000517,708.991253899876,707.4214959999081,None,708.991253899876,710.4104132000357,1.0900000000000007,710.4258799999952,None,711.1770234000869,None,,,,,,,[[1.41]],2.650000000000002,0.6666666666666666,11030,002,2024_Jan_11_1404,MFTM_A_new1021,2021.2.3,59.839426899164096,
,,,,,,,,stim/Instruction_adaptive.png,conditions/adaptive.xlsx,test,0.6,0.6,0.6,-0.6,-0.6,right,R,,,,,0,1,1,1,0,93,93,22,,,,,,,,,,,,,,,,,,,,,,,,,,,,,,,,,,,,,,,,,,,,711.6775825999212,None,right,1,1.997331399936229,712.1785893000197,713.7312129000202,712.1785893000197,713.2307025000919,712.1785893000197,713.2307025000919,712.1785893000197,713.2307025000919,712.1785893000197,713.2307025000919,712.1785893000197,713.2307025000919,713.2139783001039,713.7147947999183,713.2139783001039,713.7147947999183,713.2139783001039,713.7147947999183,713.2139783001039,713.7147947999183,713.2139783001039,713.7147947999183,713.2139783001039,713.7147947999183,713.2139783001039,713.7147947999183,713.2139783001039,713.7147947999183,712.1785893000197,None,713.7147947999183,715.1663865998853,1.0500000000000007,715.1835034000687,None,715.9348257998936,None,,,,,,,[[1.45]],2.690000000000002,0.6702127659574468,11030,002,2024_Jan_11_1404,MFTM_A_new1021,2021.2.3,59.839426899164096,
,,,,,,,,stim/Instruction_adaptive.png,conditions/adaptive.xlsx,test,-0.6,-0.6,-0.6,0.6,0.6,left,L,,,,,0,1,1,1,0,94,94,21,,,,,,,,,,,,,,,,,,,,,,,,,,,,,,,,,,,,,,,,,,,,716.4347703999374,None,left,1,1.2403780999593437,716.935584800085,718.4553151999135,716.935584800085,717.9708571000956,716.935584800085,717.9708571000956,716.935584800085,717.9708571000956,716.935584800085,717.9708571000956,716.935584800085,717.9708571000956,717.9377963999286,718.4384461999871,717.9377963999286,718.4384461999871,717.9377963999286,718.4384461999871,717.9377963999286,718.4384461999871,717.9377963999286,718.4384461999871,717.9377963999286,718.4384461999871,717.9377963999286,718.4384461999871,717.9377963999286,718.4384461999871,716.935584800085,None,718.4384461999871,719.9231861000881,1.0200000000000007,719.9400696998928,None,720.6915907000657,None,,,,,,,[[1.48]],2.730000000000002,0.6736842105263158,11030,002,2024_Jan_11_1404,MFTM_A_new1021,2021.2.3,59.839426899164096,
