arrwidth1,arrwidth2,arrwidth3,arrwidth4,arrwidth5,keyb,type,orientation,instruction_image,block_filename,block_type,arrow11,arrow22,arrow33,arrow44,arrow55,keyb_3,orientation3,trials.thisRepN,trials.thisTrialN,trials.thisN,trials.thisIndex,trials_3.thisRepN,trials_3.thisTrialN,trials_3.thisN,trials_3.thisIndex,trials_2.thisRepN,trials_2.thisTrialN,trials_2.thisN,trials_2.thisIndex,welcome.started,welcome.stopped,key_resp.keys,key_resp.rt,key_resp.started,key_resp.stopped,instruction_example.started,instruction_example.stopped,key_resp_3.keys,key_resp_3.rt,key_resp_3.started,key_resp_3.stopped,instruction_task.started,instruction_task.stopped,key_resp_2.keys,key_resp_2.rt,key_resp_2.started,key_resp_2.stopped,text_2.started,text_2.stopped,A1.started,A1.stopped,A2.started,A2.stopped,A3.started,A3.stopped,A4.started,A4.stopped,A5.started,A5.stopped,key_resp_4.keys,key_resp_4.corr,key_resp_4.rt,key_resp_4.started,key_resp_4.stopped,fb.started,fb.stopped,instruction_block.started,instruction_block.stopped,key_resp_8.keys,key_resp_8.rt,key_resp_8.started,key_resp_8.stopped,text_8.started,text_8.stopped,key_resp_9.keys,key_resp_9.corr,key_resp_9.rt,text_5.started,text_5.stopped,A11_3.started,A11_3.stopped,A22_2.started,A22_2.stopped,A33_2.started,A33_2.stopped,A44_2.started,A44_2.stopped,A55_2.started,A55_2.stopped,M1_3.started,M1_3.stopped,M2_2.started,M2_2.stopped,M3_2.started,M3_2.stopped,M4_2.started,M4_2.stopped,M5_2.started,M5_2.stopped,M6_2.started,M6_2.stopped,M7_2.started,M7_2.stopped,M8_2.started,M8_2.stopped,key_resp_9.started,key_resp_9.stopped,fixation.started,fixation.stopped,ET,fb_3.started,fb_3.stopped,text_9.started,text_9.stopped,fb_4.started,fb_4.stopped,text_7.started,text_7.stopped,endtext.started,endtext.stopped,fixation_ITI,CCC,Acc,participant,session,date,expName,psychopyVersion,frameRate,
,,,,,,,,,,,,,,,,,,,,,,,,,,,,,,15.346970200000214,None,right,2.093755699999747,15.346970200000214,None,,,,,,,,,,,,,,,,,,,,,,,,,,,,,,,,,,,,,,,,,,,,,,,,,,,,,,,,,,,,,,,,,,,,,,,,,,,,,,,,,,,,,,,,,11038,002,2024_Mar_12_1335,MFTM_A_new1021,2021.2.3,60.29577489422689,
,,,,,,,,,,,,,,,,,,,,,,,,,,,,,,,,,,,,17.466791299999386,None,left,2.1662586999991618,17.466791299999386,None,,,,,,,,,,,,,,,,,,,,,,,,,,,,,,,,,,,,,,,,,,,,,,,,,,,,,,,,,,,,,,,,,,,,,,,,,,,,,,,,,,,11038,002,2024_Mar_12_1335,MFTM_A_new1021,2021.2.3,60.29577489422689,
,,,,,,,,,,,,,,,,,,,,,,,,,,,,,,,,,,,,,,,,,,19.65347970000039,None,left,2.9717909999999392,19.65347970000039,None,,,,,,,,,,,,,,,,,,,,,,,,,,,,,,,,,,,,,,,,,,,,,,,,,,,,,,,,,,,,,,,,,,,,,,,,,,,,,11038,002,2024_Mar_12_1335,MFTM_A_new1021,2021.2.3,60.29577489422689,
0.6,0.6,0.6,-0.6,-0.6,right,3:2,R,,,,,,,,,,,0,0,0,0,,,,,,,,,,,,,,,,,,,,,,,,,,,22.709022400000322,None,22.709022400000322,None,22.709022400000322,None,22.709022400000322,None,22.709022400000322,None,22.709022400000322,None,left,0,1.9159485000000132,22.709022400000322,None,24.710965399999623,None,,,,,,,,,,,,,,,,,,,,,,,,,,,,,,,,,,,,,,,,,,,,,,,,,,,,,,,,,,11038,002,2024_Mar_12_1335,MFTM_A_new1021,2021.2.3,60.29577489422689,
-0.6,-0.6,-0.6,0.6,0.6,left,3:2,L,,,,,,,,,,,0,1,1,1,,,,,,,,,,,,,,,,,,,,,,,,,,,25.41208000000006,None,25.41208000000006,None,25.41208000000006,None,25.41208000000006,None,25.41208000000006,None,25.41208000000006,None,left,1,2.5971641000014642,25.41208000000006,None,28.04968109999936,None,,,,,,,,,,,,,,,,,,,,,,,,,,,,,,,,,,,,,,,,,,,,,,,,,,,,,,,,,,11038,002,2024_Mar_12_1335,MFTM_A_new1021,2021.2.3,60.29577489422689,
0.6,0.6,0.6,-0.6,-0.6,right,3:2,R,,,,,,,,,,,1,0,2,0,,,,,,,,,,,,,,,,,,,,,,,,,,,28.800882600000477,None,28.800882600000477,None,28.800882600000477,None,28.800882600000477,None,28.800882600000477,None,28.800882600000477,None,right,1,2.072154800000135,28.800882600000477,None,30.903685999999652,None,,,,,,,,,,,,,,,,,,,,,,,,,,,,,,,,,,,,,,,,,,,,,,,,,,,,,,,,,,11038,002,2024_Mar_12_1335,MFTM_A_new1021,2021.2.3,60.29577489422689,
-0.6,-0.6,-0.6,0.6,0.6,left,3:2,L,,,,,,,,,,,1,1,3,1,,,,,,,,,,,,,,,,,,,,,,,,,,,31.655564000000595,None,31.655564000000595,None,31.655564000000595,None,31.655564000000595,None,31.655564000000595,None,31.655564000000595,None,left,1,2.065920900000492,31.655564000000595,None,33.74126050000086,None,,,,,,,,,,,,,,,,,,,,,,,,,,,,,,,,,,,,,,,,,,,,,,,,,,,,,,,,,,11038,002,2024_Mar_12_1335,MFTM_A_new1021,2021.2.3,60.29577489422689,
,,,,,,,,stim/Instruction_mask.png,conditions/adaptive.xlsx,practice,-0.6,-0.6,-0.6,0.6,0.6,left,L,,,,,0,0,0,0,0,0,0,97,,,,,,,,,,,,,,,,,,,,,,,,,,,,,,,,,,,,,,34.92658560000018,None,left,2.467097200000353,34.92658560000018,None,37.581151799999134,None,left,1,1.7589324000000488,37.93065240000033,None,37.93065240000033,40.935449900000094,37.93065240000033,40.935449900000094,37.93065240000033,40.935449900000094,37.93065240000033,40.935449900000094,37.93065240000033,40.935449900000094,40.91876950000005,41.41960049999943,40.91876950000005,41.41960049999943,40.91876950000005,41.41960049999943,40.91876950000005,41.41960049999943,40.91876950000005,41.41960049999943,40.91876950000005,41.41960049999943,40.91876950000005,41.41960049999943,40.91876950000005,41.41960049999943,37.93065240000033,None,41.41960049999943,41.41960049999943,3,41.436229700000695,None,42.18720460000077,None,,,,,,,,,,11038,002,2024_Mar_12_1335,MFTM_A_new1021,2021.2.3,60.29577489422689,
,,,,,,,,stim/Instruction_mask.png,conditions/adaptive.xlsx,practice,-0.6,-0.6,-0.6,0.6,0.6,left,L,,,,,0,0,0,0,0,1,1,71,,,,,,,,,,,,,,,,,,,,,,,,,,,,,,,,,,,,,,,,,,,,42.68804669999918,None,left,1,0.8604168000001664,43.18892600000072,45.192246599999635,43.18892600000072,44.691613200000575,43.18892600000072,44.691613200000575,43.18892600000072,44.691613200000575,43.18892600000072,44.691613200000575,43.18892600000072,44.691613200000575,44.67476689999967,45.17527759999939,44.67476689999967,45.17527759999939,44.67476689999967,45.17527759999939,44.67476689999967,45.17527759999939,44.67476689999967,45.17527759999939,44.67476689999967,45.17527759999939,44.67476689999967,45.17527759999939,44.67476689999967,45.17527759999939,43.18892600000072,None,45.17527759999939,46.67747640000016,1.5,46.694191200000205,None,47.44522069999948,None,,,,,,,,,,11038,002,2024_Mar_12_1335,MFTM_A_new1021,2021.2.3,60.29577489422689,
,,,,,,,,stim/Instruction_mask.png,conditions/adaptive.xlsx,practice,-0.6,-0.6,-0.6,0.6,0.6,left,L,,,,,0,0,0,0,0,2,2,27,,,,,,,,,,,,,,,,,,,,,,,,,,,,,,,,,,,,,,,,,,,,47.946102199999586,None,left,1,1.3699243999999453,48.4476324999996,49.74886350000088,48.4476324999996,49.248105900000155,48.4476324999996,49.248105900000155,48.4476324999996,49.248105900000155,48.4476324999996,49.248105900000155,48.4476324999996,49.248105900000155,49.23135000000002,49.73215589999927,49.23135000000002,49.73215589999927,49.23135000000002,49.73215589999927,49.23135000000002,49.73215589999927,49.23135000000002,49.73215589999927,49.23135000000002,49.73215589999927,49.23135000000002,49.73215589999927,49.23135000000002,49.73215589999927,48.4476324999996,None,49.73215589999927,51.93535890000021,0.8,51.95214490000035,None,52.703157300000385,None,,,,,,,,,,11038,002,2024_Mar_12_1335,MFTM_A_new1021,2021.2.3,60.29577489422689,
,,,,,,,,stim/Instruction_mask.png,conditions/adaptive.xlsx,practice,-0.6,-0.6,-0.6,0.6,0.6,left,L,,,,,0,0,0,0,0,3,3,95,,,,,,,,,,,,,,,,,,,,,,,,,,,,,,,,,,,,,,,,,,,,53.20395160000044,None,left,1,1.1855467000004865,53.7045550999992,54.45589859999927,53.7045550999992,53.955796800000826,53.7045550999992,53.955796800000826,53.7045550999992,53.955796800000826,53.7045550999992,53.955796800000826,53.7045550999992,53.955796800000826,53.93833459999951,54.43917390000024,53.93833459999951,54.43917390000024,53.93833459999951,54.43917390000024,53.93833459999951,54.43917390000024,53.93833459999951,54.43917390000024,53.93833459999951,54.43917390000024,53.93833459999951,54.43917390000024,53.93833459999951,54.43917390000024,53.7045550999992,None,54.43917390000024,57.19321780000064,3,57.20997180000086,None,57.96119329999965,None,,,,,,,,,,11038,002,2024_Mar_12_1335,MFTM_A_new1021,2021.2.3,60.29577489422689,
,,,,,,,,stim/Instruction_mask.png,conditions/adaptive.xlsx,practice,,,,,,,,,,,,0,0,0,0,,,,,,,,,,,,,,,,,,,,,,,,,,,,,,,,,,,,,,,,,,,,,,,,,,,,,,,,,,,,,,,,,,,,,,,,,,,,,,,,,,,,,,,,,,58.54537420000088,59.54719560000012,59.48009210000055,59.48009210000055,59.48009210000055,None,,,,11038,002,2024_Mar_12_1335,MFTM_A_new1021,2021.2.3,60.29577489422689,
,,,,,,,,stim/Instruction_adaptive.png,conditions/adaptive.xlsx,test,-0.6,-0.6,-0.6,0.6,0.6,left,L,,,,,0,1,1,1,0,0,0,97,,,,,,,,,,,,,,,,,,,,,,,,,,,,,,,,,,,,,,62.73486969999976,None,left,1.5312355999994907,62.73486969999976,None,64.32087970000066,None,left,1,2.381173800000397,64.80509549999988,None,64.80509549999988,67.80928830000084,64.80509549999988,67.80928830000084,64.80509549999988,67.80928830000084,64.80509549999988,67.80928830000084,64.80509549999988,67.80928830000084,67.79273719999946,68.29338199999984,67.79273719999946,68.29338199999984,67.79273719999946,68.29338199999984,67.79273719999946,68.29338199999984,67.79273719999946,68.29338199999984,67.79273719999946,68.29338199999984,67.79273719999946,68.29338199999984,67.79273719999946,68.29338199999984,64.80509549999988,None,68.29338199999984,68.29338199999984,3,68.31009799999993,None,69.06121469999925,None,,,,,,,0,6.000000000000005,1.0,11038,002,2024_Mar_12_1335,MFTM_A_new1021,2021.2.3,60.29577489422689,
,,,,,,,,stim/Instruction_adaptive.png,conditions/adaptive.xlsx,test,0.6,0.6,0.6,-0.6,-0.6,right,R,,,,,0,1,1,1,0,1,1,90,,,,,,,,,,,,,,,,,,,,,,,,,,,,,,,,,,,,,,,,,,,,69.5623842999994,None,left,0,1.7153432999984943,70.06291749999946,70.81380010000066,70.06291749999946,70.3136314000003,70.06291749999946,70.3136314000003,70.06291749999946,70.3136314000003,70.06291749999946,70.3136314000003,70.06291749999946,70.3136314000003,70.29749070000071,70.79782610000075,70.29749070000071,70.79782610000075,70.29749070000071,70.79782610000075,70.29749070000071,70.79782610000075,70.29749070000071,70.79782610000075,70.29749070000071,70.79782610000075,70.29749070000071,70.79782610000075,70.29749070000071,70.79782610000075,70.06291749999946,None,70.79782610000075,71.79917000000023,0.25,71.81508349999967,None,72.5665181000004,None,,,,,,,[0.875],2.570000000000002,0.5,11038,002,2024_Mar_12_1335,MFTM_A_new1021,2021.2.3,60.29577489422689,
,,,,,,,,stim/Instruction_adaptive.png,conditions/adaptive.xlsx,test,-0.6,-0.6,-0.6,0.6,0.6,left,L,,,,,0,1,1,1,0,2,2,9,,,,,,,,,,,,,,,,,,,,,,,,,,,,,,,,,,,,,,,,,,,,73.06779529999949,None,left,1,2.2984503999996377,73.5679956999993,75.18702889999986,73.5679956999993,74.68640779999987,73.5679956999993,74.68640779999987,73.5679956999993,74.68640779999987,73.5679956999993,74.68640779999987,73.5679956999993,74.68640779999987,74.65294779999931,75.15441199999987,74.65294779999931,75.15441199999987,74.65294779999931,75.15441199999987,74.65294779999931,75.15441199999987,74.65294779999931,75.15441199999987,74.65294779999931,75.15441199999987,74.65294779999931,75.15441199999987,74.65294779999931,75.15441199999987,73.5679956999993,None,75.15441199999987,76.20537979999972,1.1100000000000008,76.23862279999958,None,76.98999059999915,None,,,,,,,[1.04666667],3.3800000000000026,0.6666666666666666,11038,002,2024_Mar_12_1335,MFTM_A_new1021,2021.2.3,60.29577489422689,
,,,,,,,,stim/Instruction_adaptive.png,conditions/adaptive.xlsx,test,-0.6,-0.6,-0.6,0.6,0.6,left,L,,,,,0,1,1,1,0,3,3,71,,,,,,,,,,,,,,,,,,,,,,,,,,,,,,,,,,,,,,,,,,,,77.49117409999963,None,left,1,1.3230801000008796,77.99138700000003,79.12643989999924,77.99138700000003,78.62564179999936,77.99138700000003,78.62564179999936,77.99138700000003,78.62564179999936,77.99138700000003,78.62564179999936,77.99138700000003,78.62564179999936,78.60891090000041,79.10969049999949,78.60891090000041,79.10969049999949,78.60891090000041,79.10969049999949,78.60891090000041,79.10969049999949,78.60891090000041,79.10969049999949,78.60891090000041,79.10969049999949,78.60891090000041,79.10969049999949,78.60891090000041,79.10969049999949,77.99138700000003,None,79.10969049999949,80.36202840000078,0.6300000000000003,80.37830059999942,None,81.13000439999996,None,,,,,,,[1.2525],3.940000000000003,0.75,11038,002,2024_Mar_12_1335,MFTM_A_new1021,2021.2.3,60.29577489422689,
,,,,,,,,stim/Instruction_adaptive.png,conditions/adaptive.xlsx,test,0.6,0.6,0.6,-0.6,-0.6,right,R,,,,,0,1,1,1,0,4,4,36,,,,,,,,,,,,,,,,,,,,,,,,,,,,,,,,,,,,,,,,,,,,81.6300682000001,None,right,1,1.2318955999999162,82.1307586999992,83.06572830000005,82.1307586999992,82.56559080000079,82.1307586999992,82.56559080000079,82.1307586999992,82.56559080000079,82.1307586999992,82.56559080000079,82.1307586999992,82.56559080000079,82.54864160000034,83.04894009999953,82.54864160000034,83.04894009999953,82.54864160000034,83.04894009999953,82.54864160000034,83.04894009999953,82.54864160000034,83.04894009999953,82.54864160000034,83.04894009999953,82.54864160000034,83.04894009999953,82.54864160000034,83.04894009999953,82.1307586999992,None,83.04894009999953,84.46885760000077,0.43000000000000016,84.48433010000008,None,85.23587150000094,None,,,,,,,[1.416],4.370000000000004,0.8,11038,002,2024_Mar_12_1335,MFTM_A_new1021,2021.2.3,60.29577489422689,
,,,,,,,,stim/Instruction_adaptive.png,conditions/adaptive.xlsx,test,-0.6,-0.6,-0.6,0.6,0.6,left,L,,,,,0,1,1,1,0,5,5,81,,,,,,,,,,,,,,,,,,,,,,,,,,,,,,,,,,,,,,,,,,,,85.73636629999964,None,right,0,1.5336340999983804,86.23706449999918,87.07233989999986,86.23706449999918,86.57095719999961,86.23706449999918,86.57095719999961,86.23706449999918,86.57095719999961,86.23706449999918,86.57095719999961,86.23706449999918,86.57095719999961,86.53750570000011,87.03865330000008,86.53750570000011,87.03865330000008,86.53750570000011,87.03865330000008,86.53750570000011,87.03865330000008,86.53750570000011,87.03865330000008,86.53750570000011,87.03865330000008,86.53750570000011,87.03865330000008,86.53750570000011,87.03865330000008,86.23706449999918,None,87.03865330000008,88.59061839999958,0.32000000000000006,88.6084050999998,None,89.35836960000051,None,,,,,,,[1.54333333],3.5400000000000027,0.6666666666666666,11038,002,2024_Mar_12_1335,MFTM_A_new1021,2021.2.3,60.29577489422689,
,,,,,,,,stim/Instruction_adaptive.png,conditions/adaptive.xlsx,test,-0.6,-0.6,-0.6,0.6,0.6,left,L,,,,,0,1,1,1,0,6,6,29,,,,,,,,,,,,,,,,,,,,,,,,,,,,,,,,,,,,,,,,,,,,89.85911739999938,None,left,1,1.7073143999987224,90.3599520000007,91.44497890000093,90.3599520000007,90.94489330000033,90.3599520000007,90.94489330000033,90.3599520000007,90.94489330000033,90.3599520000007,90.94489330000033,90.3599520000007,90.94489330000033,90.9108952000006,91.41171249999934,90.9108952000006,91.41171249999934,90.9108952000006,91.41171249999934,90.9108952000006,91.41171249999934,90.9108952000006,91.41171249999934,90.9108952000006,91.41171249999934,90.9108952000006,91.41171249999934,90.9108952000006,91.41171249999934,90.3599520000007,None,91.41171249999934,93.01392060000035,0.5700000000000003,93.03050529999928,None,93.78181629999926,None,,,,,,,[1.59857143],3.8700000000000028,0.7142857142857143,11038,002,2024_Mar_12_1335,MFTM_A_new1021,2021.2.3,60.29577489422689,
,,,,,,,,stim/Instruction_adaptive.png,conditions/adaptive.xlsx,test,0.6,0.6,0.6,-0.6,-0.6,right,R,,,,,0,1,1,1,0,7,7,86,,,,,,,,,,,,,,,,,,,,,,,,,,,,,,,,,,,,,,,,,,,,94.2828370999996,None,left,0,1.3867792999990343,94.78395180000007,95.73514299999988,94.78395180000007,95.23405439999988,94.78395180000007,95.23405439999988,94.78395180000007,95.23405439999988,94.78395180000007,95.23405439999988,94.78395180000007,95.23405439999988,95.21748470000057,95.71794640000007,95.21748470000057,95.71794640000007,95.21748470000057,95.71794640000007,95.21748470000057,95.71794640000007,95.21748470000057,95.71794640000007,95.21748470000057,95.71794640000007,95.21748470000057,95.71794640000007,95.21748470000057,95.71794640000007,94.78395180000007,None,95.71794640000007,97.38718420000077,0.4500000000000002,97.4035457000009,None,98.15578800000003,None,,,,,,,[1.655],3.1600000000000024,0.625,11038,002,2024_Mar_12_1335,MFTM_A_new1021,2021.2.3,60.29577489422689,
,,,,,,,,stim/Instruction_adaptive.png,conditions/adaptive.xlsx,test,0.6,0.6,0.6,-0.6,-0.6,right,R,,,,,0,1,1,1,0,8,8,38,,,,,,,,,,,,,,,,,,,,,,,,,,,,,,,,,,,,,,,,,,,,98.65567050000027,None,right,1,2.317650400000275,99.15738469999997,100.40905860000021,99.15738469999997,99.90758780000033,99.15738469999997,99.90758780000033,99.15738469999997,99.90758780000033,99.15738469999997,99.90758780000033,99.15738469999997,99.90758780000033,99.8743816999995,100.37506580000081,99.8743816999995,100.37506580000081,99.8743816999995,100.37506580000081,99.8743816999995,100.37506580000081,99.8743816999995,100.37506580000081,99.8743816999995,100.37506580000081,99.8743816999995,100.37506580000081,99.8743816999995,100.37506580000081,99.15738469999997,None,100.37506580000081,102.04430300000058,0.7400000000000004,102.07749719999993,None,102.8288152999994,None,,,,,,,[1.66666667],3.450000000000003,0.6666666666666666,11038,002,2024_Mar_12_1335,MFTM_A_new1021,2021.2.3,60.29577489422689,
,,,,,,,,stim/Instruction_adaptive.png,conditions/adaptive.xlsx,test,-0.6,-0.6,-0.6,0.6,0.6,left,L,,,,,0,1,1,1,0,9,9,17,,,,,,,,,,,,,,,,,,,,,,,,,,,,,,,,,,,,,,,,,,,,103.32950750000055,None,left,1,1.0609881000000314,103.83015039999918,104.93197519999921,103.83015039999918,104.43137260000003,103.83015039999918,104.43137260000003,103.83015039999918,104.43137260000003,103.83015039999918,104.43137260000003,103.83015039999918,104.43137260000003,104.41462409999986,104.91613829999915,104.41462409999986,104.91613829999915,104.41462409999986,104.91613829999915,104.41462409999986,104.91613829999915,104.41462409999986,104.91613829999915,104.41462409999986,104.91613829999915,104.41462409999986,104.91613829999915,104.41462409999986,104.91613829999915,103.83015039999918,None,104.91613829999915,106.61809560000074,0.6000000000000003,106.63499799999954,None,107.38628869999957,None,,,,,,,[1.69],3.6700000000000026,0.7,11038,002,2024_Mar_12_1335,MFTM_A_new1021,2021.2.3,60.29577489422689,
,,,,,,,,stim/Instruction_adaptive.png,conditions/adaptive.xlsx,test,0.6,0.6,0.6,-0.6,-0.6,right,R,,,,,0,1,1,1,0,10,10,92,,,,,,,,,,,,,,,,,,,,,,,,,,,,,,,,,,,,,,,,,,,,107.8867066999992,None,right,1,1.4797302999995736,108.38747780000085,109.42201940000086,108.38747780000085,108.92122949999975,108.38747780000085,108.92122949999975,108.38747780000085,108.92122949999975,108.38747780000085,108.92122949999975,108.38747780000085,108.92122949999975,108.88841519999914,109.38904480000019,108.88841519999914,109.38904480000019,108.88841519999914,109.38904480000019,108.88841519999914,109.38904480000019,108.88841519999914,109.38904480000019,108.88841519999914,109.38904480000019,108.88841519999914,109.38904480000019,108.88841519999914,109.38904480000019,108.38747780000085,None,109.38904480000019,111.10870740000064,0.5200000000000002,111.1245003999993,None,111.8756443000002,None,,,,,,,[1.71636364],3.860000000000003,0.7272727272727273,11038,002,2024_Mar_12_1335,MFTM_A_new1021,2021.2.3,60.29577489422689,
,,,,,,,,stim/Instruction_adaptive.png,conditions/adaptive.xlsx,test,0.6,0.6,0.6,-0.6,-0.6,right,R,,,,,0,1,1,1,0,11,11,96,,,,,,,,,,,,,,,,,,,,,,,,,,,,,,,,,,,,,,,,,,,,112.37696519999918,None,right,1,1.8380256999989797,112.87728679999964,113.82927410000048,112.87728679999964,113.32787339999959,112.87728679999964,113.32787339999959,112.87728679999964,113.32787339999959,112.87728679999964,113.32787339999959,112.87728679999964,113.32787339999959,113.31111419999979,113.8120345999996,113.31111419999979,113.8120345999996,113.31111419999979,113.8120345999996,113.31111419999979,113.8120345999996,113.31111419999979,113.8120345999996,113.31111419999979,113.8120345999996,113.31111419999979,113.8120345999996,113.31111419999979,113.8120345999996,112.87728679999964,None,113.8120345999996,115.56451179999931,0.4500000000000002,115.58128570000008,None,116.33247130000018,None,,,,,,,[1.74416667],4.020000000000003,0.75,11038,002,2024_Mar_12_1335,MFTM_A_new1021,2021.2.3,60.29577489422689,
,,,,,,,,stim/Instruction_adaptive.png,conditions/adaptive.xlsx,test,0.6,0.6,0.6,-0.6,-0.6,right,R,,,,,0,1,1,1,0,12,12,70,,,,,,,,,,,,,,,,,,,,,,,,,,,,,,,,,,,,,,,,,,,,116.83308279999983,None,right,1,1.5085836999987805,117.33474290000049,118.25254809999933,117.33474290000049,117.75247300000046,117.33474290000049,117.75247300000046,117.33474290000049,117.75247300000046,117.33474290000049,117.75247300000046,117.33474290000049,117.75247300000046,117.71875910000017,118.21923070000048,117.71875910000017,118.21923070000048,117.71875910000017,118.21923070000048,117.71875910000017,118.21923070000048,117.71875910000017,118.21923070000048,117.71875910000017,118.21923070000048,117.71875910000017,118.21923070000048,117.71875910000017,118.21923070000048,117.33474290000049,None,118.21923070000048,120.00464570000076,0.41000000000000014,120.02135479999924,None,120.77332770000066,None,,,,,,,[1.77076923],4.160000000000004,0.7692307692307693,11038,002,2024_Mar_12_1335,MFTM_A_new1021,2021.2.3,60.29577489422689,
,,,,,,,,stim/Instruction_adaptive.png,conditions/adaptive.xlsx,test,0.6,0.6,0.6,-0.6,-0.6,right,R,,,,,0,1,1,1,0,13,13,52,,,,,,,,,,,,,,,,,,,,,,,,,,,,,,,,,,,,,,,,,,,,121.27321280000069,None,left,0,1.508407299999817,121.77499220000027,122.6593527999994,121.77499220000027,122.15864089999923,121.77499220000027,122.15864089999923,121.77499220000027,122.15864089999923,121.77499220000027,122.15864089999923,121.77499220000027,122.15864089999923,122.12474780000048,122.62543469999946,122.12474780000048,122.62543469999946,122.12474780000048,122.62543469999946,122.12474780000048,122.62543469999946,122.12474780000048,122.62543469999946,122.12474780000048,122.62543469999946,122.12474780000048,122.62543469999946,122.12474780000048,122.62543469999946,121.77499220000027,None,122.62543469999946,124.42843580000044,0.3700000000000001,124.4445837000003,None,125.19587730000057,None,,,,,,,[1.79642857],3.800000000000003,0.7142857142857143,11038,002,2024_Mar_12_1335,MFTM_A_new1021,2021.2.3,60.29577489422689,
,,,,,,,,stim/Instruction_adaptive.png,conditions/adaptive.xlsx,test,-0.6,-0.6,-0.6,0.6,0.6,left,L,,,,,0,1,1,1,0,14,14,25,,,,,,,,,,,,,,,,,,,,,,,,,,,,,,,,,,,,,,,,,,,,125.69663140000011,None,left,1,1.7430092999984481,126.19790040000044,127.18277499999931,126.19790040000044,126.68202750000091,126.19790040000044,126.68202750000091,126.19790040000044,126.68202750000091,126.19790040000044,126.68202750000091,126.19790040000044,126.68202750000091,126.64795860000049,127.14868270000079,126.64795860000049,127.14868270000079,126.64795860000049,127.14868270000079,126.64795860000049,127.14868270000079,126.64795860000049,127.14868270000079,126.64795860000049,127.14868270000079,126.64795860000049,127.14868270000079,126.64795860000049,127.14868270000079,126.19790040000044,None,127.14868270000079,128.96814149999955,0.4700000000000002,128.9848392999993,None,129.73594749999938,None,,,,,,,[1.812],3.9300000000000033,0.7333333333333333,11038,002,2024_Mar_12_1335,MFTM_A_new1021,2021.2.3,60.29577489422689,
,,,,,,,,stim/Instruction_adaptive.png,conditions/adaptive.xlsx,test,0.6,0.6,0.6,-0.6,-0.6,right,R,,,,,0,1,1,1,0,15,15,66,,,,,,,,,,,,,,,,,,,,,,,,,,,,,,,,,,,,,,,,,,,,130.2368409999999,None,right,1,1.6985381999984384,130.73760220000077,131.67206740000074,130.73760220000077,131.1722291999995,130.73760220000077,131.1722291999995,130.73760220000077,131.1722291999995,130.73760220000077,131.1722291999995,130.73760220000077,131.1722291999995,131.15478790000088,131.6553913000007,131.15478790000088,131.6553913000007,131.15478790000088,131.6553913000007,131.15478790000088,131.6553913000007,131.15478790000088,131.6553913000007,131.15478790000088,131.6553913000007,131.15478790000088,131.6553913000007,131.15478790000088,131.6553913000007,130.73760220000077,None,131.6553913000007,133.49204739999914,0.43000000000000016,133.50818810000055,None,134.25931320000018,None,,,,,,,[1.828125],4.050000000000003,0.75,11038,002,2024_Mar_12_1335,MFTM_A_new1021,2021.2.3,60.29577489422689,
,,,,,,,,stim/Instruction_adaptive.png,conditions/adaptive.xlsx,test,0.6,0.6,0.6,-0.6,-0.6,right,R,,,,,0,1,1,1,0,16,16,0,,,,,,,,,,,,,,,,,,,,,,,,,,,,,,,,,,,,,,,,,,,,134.76028249999945,None,left,0,1.695198800000071,135.26098160000038,136.1639596999994,135.26098160000038,135.66159460000017,135.26098160000038,135.66159460000017,135.26098160000038,135.66159460000017,135.26098160000038,135.66159460000017,135.26098160000038,135.66159460000017,135.6449192,136.1456421999992,135.6449192,136.1456421999992,135.6449192,136.1456421999992,135.6449192,136.1456421999992,135.6449192,136.1456421999992,135.6449192,136.1456421999992,135.6449192,136.1456421999992,135.6449192,136.1456421999992,135.26098160000038,None,136.1456421999992,137.99848089999978,0.40000000000000013,138.01514719999977,None,138.76680099999976,None,,,,,,,[1.84411765],3.730000000000003,0.7058823529411765,11038,002,2024_Mar_12_1335,MFTM_A_new1021,2021.2.3,60.29577489422689,
,,,,,,,,stim/Instruction_adaptive.png,conditions/adaptive.xlsx,test,-0.6,-0.6,-0.6,0.6,0.6,left,L,,,,,0,1,1,1,0,17,17,21,,,,,,,,,,,,,,,,,,,,,,,,,,,,,,,,,,,,,,,,,,,,139.2670665000005,None,left,1,1.7958577000008518,139.76828260000002,140.76930490000086,139.76828260000002,140.26834249999956,139.76828260000002,140.26834249999956,139.76828260000002,140.26834249999956,139.76828260000002,140.26834249999956,139.76828260000002,140.26834249999956,140.25237799999923,140.7525401999992,140.25237799999923,140.7525401999992,140.25237799999923,140.7525401999992,140.25237799999923,140.7525401999992,140.25237799999923,140.7525401999992,140.25237799999923,140.7525401999992,140.25237799999923,140.7525401999992,140.25237799999923,140.7525401999992,139.76828260000002,None,140.7525401999992,142.60541849999936,0.5000000000000002,142.6221776000002,None,143.37325410000085,None,,,,,,,[1.85277778],3.850000000000003,0.7222222222222222,11038,002,2024_Mar_12_1335,MFTM_A_new1021,2021.2.3,60.29577489422689,
,,,,,,,,stim/Instruction_adaptive.png,conditions/adaptive.xlsx,test,0.6,0.6,0.6,-0.6,-0.6,right,R,,,,,0,1,1,1,0,18,18,30,,,,,,,,,,,,,,,,,,,,,,,,,,,,,,,,,,,,,,,,,,,,143.8745428000002,None,left,0,1.6054733999990276,144.37482239999918,145.34283379999943,144.37482239999918,144.84255510000003,144.37482239999918,144.84255510000003,144.37482239999918,144.84255510000003,144.37482239999918,144.84255510000003,144.37482239999918,144.84255510000003,144.80906920000052,145.30946550000044,144.80906920000052,145.30946550000044,144.80906920000052,145.30946550000044,144.80906920000052,145.30946550000044,144.80906920000052,145.30946550000044,144.80906920000052,145.30946550000044,144.80906920000052,145.30946550000044,144.80906920000052,145.30946550000044,144.37482239999918,None,145.30946550000044,147.17899749999924,0.4600000000000002,147.22965590000058,None,147.9805761000007,None,,,,,,,[1.86263158],3.530000000000003,0.6842105263157895,11038,002,2024_Mar_12_1335,MFTM_A_new1021,2021.2.3,60.29577489422689,
,,,,,,,,stim/Instruction_adaptive.png,conditions/adaptive.xlsx,test,0.6,0.6,0.6,-0.6,-0.6,right,R,,,,,0,1,1,1,0,19,19,6,,,,,,,,,,,,,,,,,,,,,,,,,,,,,,,,,,,,,,,,,,,,148.4810120000002,None,right,1,1.526721099999122,148.98157490000085,150.06663599999956,148.98157490000085,149.5658284000001,148.98157490000085,149.5658284000001,148.98157490000085,149.5658284000001,148.98157490000085,149.5658284000001,148.98157490000085,149.5658284000001,149.53238280000005,150.03322200000002,149.53238280000005,150.03322200000002,149.53238280000005,150.03322200000002,149.53238280000005,150.03322200000002,149.53238280000005,150.03322200000002,149.53238280000005,150.03322200000002,149.53238280000005,150.03322200000002,149.53238280000005,150.03322200000002,148.98157490000085,None,150.03322200000002,151.90386790000048,0.5700000000000003,151.91930580000007,None,152.67058859999997,None,,,,,,,[1.866],3.650000000000003,0.7,11038,002,2024_Mar_12_1335,MFTM_A_new1021,2021.2.3,60.29577489422689,
,,,,,,,,stim/Instruction_adaptive.png,conditions/adaptive.xlsx,test,0.6,0.6,0.6,-0.6,-0.6,right,R,,,,,0,1,1,1,0,20,20,10,,,,,,,,,,,,,,,,,,,,,,,,,,,,,,,,,,,,,,,,,,,,153.1712220999998,None,right,1,1.9165991999998369,153.67188899999928,154.70700209999995,153.67188899999928,154.20598539999992,153.67188899999928,154.20598539999992,153.67188899999928,154.20598539999992,153.67188899999928,154.20598539999992,153.67188899999928,154.20598539999992,154.17343660000006,154.67412719999993,154.17343660000006,154.67412719999993,154.17343660000006,154.67412719999993,154.17343660000006,154.67412719999993,154.17343660000006,154.67412719999993,154.17343660000006,154.67412719999993,154.17343660000006,154.67412719999993,154.17343660000006,154.67412719999993,153.67188899999928,None,154.67412719999993,156.56023490000007,0.5200000000000002,156.5764669,None,157.32800169999973,None,,,,,,,[1.87142857],3.7500000000000027,0.7142857142857143,11038,002,2024_Mar_12_1335,MFTM_A_new1021,2021.2.3,60.29577489422689,
,,,,,,,,stim/Instruction_adaptive.png,conditions/adaptive.xlsx,test,-0.6,-0.6,-0.6,0.6,0.6,left,L,,,,,0,1,1,1,0,21,21,87,,,,,,,,,,,,,,,,,,,,,,,,,,,,,,,,,,,,,,,,,,,,157.82835759999944,None,left,1,1.5634575999993103,158.32898709999972,159.33112540000002,158.32898709999972,158.83044100000006,158.32898709999972,158.83044100000006,158.32898709999972,158.83044100000006,158.32898709999972,158.83044100000006,158.32898709999972,158.83044100000006,158.79704839999977,159.2972688000009,158.79704839999977,159.2972688000009,158.79704839999977,159.2972688000009,158.79704839999977,159.2972688000009,158.79704839999977,159.2972688000009,158.79704839999977,159.2972688000009,158.79704839999977,159.2972688000009,158.79704839999977,159.2972688000009,158.32898709999972,None,159.2972688000009,161.18598220000058,0.4900000000000002,161.1997236999996,None,161.9513408999992,None,,,,,,,[1.87772727],3.850000000000003,0.7272727272727273,11038,002,2024_Mar_12_1335,MFTM_A_new1021,2021.2.3,60.29577489422689,
,,,,,,,,stim/Instruction_adaptive.png,conditions/adaptive.xlsx,test,-0.6,-0.6,-0.6,0.6,0.6,left,L,,,,,0,1,1,1,0,22,22,23,,,,,,,,,,,,,,,,,,,,,,,,,,,,,,,,,,,,,,,,,,,,162.45200690000092,None,left,1,1.3959341999998287,162.95270850000088,163.92093980000027,162.95270850000088,163.42000290000033,162.95270850000088,163.42000290000033,162.95270850000088,163.42000290000033,162.95270850000088,163.42000290000033,162.95270850000088,163.42000290000033,163.40322430000015,163.90462950000074,163.40322430000015,163.90462950000074,163.40322430000015,163.90462950000074,163.40322430000015,163.90462950000074,163.40322430000015,163.90462950000074,163.40322430000015,163.90462950000074,163.40322430000015,163.90462950000074,163.40322430000015,163.90462950000074,162.95270850000088,None,163.90462950000074,165.7901892000009,0.4600000000000002,165.80689730000086,None,166.55818609999915,None,,,,,,,[1.88478261],3.9300000000000033,0.7391304347826086,11038,002,2024_Mar_12_1335,MFTM_A_new1021,2021.2.3,60.29577489422689,
,,,,,,,,stim/Instruction_adaptive.png,conditions/adaptive.xlsx,test,-0.6,-0.6,-0.6,0.6,0.6,left,L,,,,,0,1,1,1,0,23,23,45,,,,,,,,,,,,,,,,,,,,,,,,,,,,,,,,,,,,,,,,,,,,167.05933910000022,None,left,1,1.3099344999991445,167.55949470000087,168.49442269999963,167.55949470000087,167.9941144000004,167.55949470000087,167.9941144000004,167.55949470000087,167.9941144000004,167.55949470000087,167.9941144000004,167.55949470000087,167.9941144000004,167.97698669999954,168.47783759999948,167.97698669999954,168.47783759999948,167.97698669999954,168.47783759999948,167.97698669999954,168.47783759999948,167.97698669999954,168.47783759999948,167.97698669999954,168.47783759999948,167.97698669999954,168.47783759999948,167.97698669999954,168.47783759999948,167.55949470000087,None,168.47783759999948,170.38069969999924,0.43000000000000016,170.39721660000032,None,171.1482756000005,None,,,,,,,[1.8925],4.010000000000003,0.75,11038,002,2024_Mar_12_1335,MFTM_A_new1021,2021.2.3,60.29577489422689,
,,,,,,,,stim/Instruction_adaptive.png,conditions/adaptive.xlsx,test,0.6,0.6,0.6,-0.6,-0.6,right,R,,,,,0,1,1,1,0,24,24,62,,,,,,,,,,,,,,,,,,,,,,,,,,,,,,,,,,,,,,,,,,,,171.64947390000088,None,left,0,1.5589593999993667,172.15027069999996,173.06832480000048,172.15027069999996,172.56710419999945,172.15027069999996,172.56710419999945,172.15027069999996,172.56710419999945,172.15027069999996,172.56710419999945,172.15027069999996,172.56710419999945,172.55095520000032,173.05154779999975,172.55095520000032,173.05154779999975,172.55095520000032,173.05154779999975,172.55095520000032,173.05154779999975,172.55095520000032,173.05154779999975,172.55095520000032,173.05154779999975,172.55095520000032,173.05154779999975,172.55095520000032,173.05154779999975,172.15027069999996,None,173.05154779999975,174.95394920000035,0.41000000000000014,174.97041750000062,None,175.7221086999998,None,,,,,,,[1.9004],3.7900000000000027,0.72,11038,002,2024_Mar_12_1335,MFTM_A_new1021,2021.2.3,60.29577489422689,
,,,,,,,,stim/Instruction_adaptive.png,conditions/adaptive.xlsx,test,-0.6,-0.6,-0.6,0.6,0.6,left,L,,,,,0,1,1,1,0,25,25,99,,,,,,,,,,,,,,,,,,,,,,,,,,,,,,,,,,,,,,,,,,,,176.22255550000045,None,left,1,1.3300589000009495,176.7234824999996,177.70922450000035,176.7234824999996,177.20777029999954,176.7234824999996,177.20777029999954,176.7234824999996,177.20777029999954,176.7234824999996,177.20777029999954,176.7234824999996,177.20777029999954,177.19080070000018,177.69148649999988,177.19080070000018,177.69148649999988,177.19080070000018,177.69148649999988,177.19080070000018,177.69148649999988,177.19080070000018,177.69148649999988,177.19080070000018,177.69148649999988,177.19080070000018,177.69148649999988,177.19080070000018,177.69148649999988,176.7234824999996,None,177.69148649999988,None,0.4800000000000002,179.6283256000006,None,180.3797723000007,None,,,,,,,[1.905],3.8700000000000028,0.7307692307692307,11038,002,2024_Mar_12_1335,MFTM_A_new1021,2021.2.3,60.29577489422689,
,,,,,,,,stim/Instruction_adaptive.png,conditions/adaptive.xlsx,test,-0.6,-0.6,-0.6,0.6,0.6,left,L,,,,,0,1,1,1,0,26,26,15,,,,,,,,,,,,,,,,,,,,,,,,,,,,,,,,,,,,,,,,,,,,180.87964210000064,None,left,1,1.4562967000001663,181.3812772000001,182.3319432999997,181.3812772000001,181.83109850000073,181.3812772000001,181.83109850000073,181.3812772000001,181.83109850000073,181.3812772000001,181.83109850000073,181.3812772000001,181.83109850000073,181.8149410999995,182.3156414999994,181.8149410999995,182.3156414999994,181.8149410999995,182.3156414999994,181.8149410999995,182.3156414999994,181.8149410999995,182.3156414999994,181.8149410999995,182.3156414999994,181.8149410999995,182.3156414999994,181.8149410999995,182.3156414999994,181.3812772000001,None,182.3156414999994,184.23482329999933,0.4500000000000002,184.25151929999993,None,185.00321149999945,None,,,,,,,[1.91037037],3.940000000000003,0.7407407407407407,11038,002,2024_Mar_12_1335,MFTM_A_new1021,2021.2.3,60.29577489422689,
,,,,,,,,stim/Instruction_adaptive.png,conditions/adaptive.xlsx,test,0.6,0.6,0.6,-0.6,-0.6,right,R,,,,,0,1,1,1,0,27,27,48,,,,,,,,,,,,,,,,,,,,,,,,,,,,,,,,,,,,,,,,,,,,185.50333630000023,None,left,0,1.4575368000005255,186.00405030000002,186.9388044999996,186.00405030000002,186.43863950000014,186.00405030000002,186.43863950000014,186.00405030000002,186.43863950000014,186.00405030000002,186.43863950000014,186.00405030000002,186.43863950000014,186.42189209999924,186.92210259999956,186.42189209999924,186.92210259999956,186.42189209999924,186.92210259999956,186.42189209999924,186.92210259999956,186.42189209999924,186.92210259999956,186.42189209999924,186.92210259999956,186.42189209999924,186.92210259999956,186.42189209999924,186.92210259999956,186.00405030000002,None,186.92210259999956,188.84179699999913,0.43000000000000016,188.8584178000001,None,189.60947250000027,None,,,,,,,[1.91607143],3.740000000000003,0.7142857142857143,11038,002,2024_Mar_12_1335,MFTM_A_new1021,2021.2.3,60.29577489422689,
,,,,,,,,stim/Instruction_adaptive.png,conditions/adaptive.xlsx,test,-0.6,-0.6,-0.6,0.6,0.6,left,L,,,,,0,1,1,1,0,28,28,49,,,,,,,,,,,,,,,,,,,,,,,,,,,,,,,,,,,,,,,,,,,,190.1107864000005,None,left,1,1.4984621000003244,190.61098420000053,191.6127348000009,190.61098420000053,191.11167080000087,190.61098420000053,191.11167080000087,190.61098420000053,191.11167080000087,190.61098420000053,191.11167080000087,190.61098420000053,191.11167080000087,191.07832640000015,191.5792996,191.07832640000015,191.5792996,191.07832640000015,191.5792996,191.07832640000015,191.5792996,191.07832640000015,191.5792996,191.07832640000015,191.5792996,191.07832640000015,191.5792996,191.07832640000015,191.5792996,190.61098420000053,None,191.5792996,193.4994526999999,0.4900000000000002,193.53260860000046,None,194.2834782000009,None,,,,,,,[1.91931034],3.810000000000003,0.7241379310344828,11038,002,2024_Mar_12_1335,MFTM_A_new1021,2021.2.3,60.29577489422689,
,,,,,,,,stim/Instruction_adaptive.png,conditions/adaptive.xlsx,test,-0.6,-0.6,-0.6,0.6,0.6,left,L,,,,,0,1,1,1,0,29,29,51,,,,,,,,,,,,,,,,,,,,,,,,,,,,,,,,,,,,,,,,,,,,194.78473180000037,None,right,0,1.5287623000003805,195.2847984,196.26950129999932,195.2847984,195.76871369999935,195.2847984,195.76871369999935,195.2847984,195.76871369999935,195.2847984,195.76871369999935,195.2847984,195.76871369999935,195.7357066000004,196.2360351999996,195.7357066000004,196.2360351999996,195.7357066000004,196.2360351999996,195.7357066000004,196.2360351999996,195.7357066000004,196.2360351999996,195.7357066000004,196.2360351999996,195.7357066000004,196.2360351999996,195.7357066000004,196.2360351999996,195.2847984,None,196.2360351999996,198.17304390000027,0.4700000000000002,198.1889355000003,None,198.94085389999964,None,,,,,,,[1.923],3.6000000000000028,0.7,11038,002,2024_Mar_12_1335,MFTM_A_new1021,2021.2.3,60.29577489422689,
,,,,,,,,stim/Instruction_adaptive.png,conditions/adaptive.xlsx,test,0.6,0.6,0.6,-0.6,-0.6,right,R,,,,,0,1,1,1,0,30,30,60,,,,,,,,,,,,,,,,,,,,,,,,,,,,,,,,,,,,,,,,,,,,199.44132589999936,None,left,0,2.0959703999997146,199.94167249999919,200.99318889999995,199.94167249999919,200.49348389999977,199.94167249999919,200.49348389999977,199.94167249999919,200.49348389999977,199.94167249999919,200.49348389999977,199.94167249999919,200.49348389999977,200.45908489999965,200.96058409999932,200.45908489999965,200.96058409999932,200.45908489999965,200.96058409999932,200.45908489999965,200.96058409999932,200.45908489999965,200.96058409999932,200.45908489999965,200.96058409999932,200.45908489999965,200.96058409999932,200.45908489999965,200.96058409999932,199.94167249999919,None,200.96058409999932,202.89658790000067,0.5400000000000003,202.91289979999965,None,203.66403329999957,None,,,,,,,[1.92419355],3.3700000000000028,0.6774193548387096,11038,002,2024_Mar_12_1335,MFTM_A_new1021,2021.2.3,60.29577489422689,
,,,,,,,,stim/Instruction_adaptive.png,conditions/adaptive.xlsx,test,-0.6,-0.6,-0.6,0.6,0.6,left,L,,,,,0,1,1,1,0,31,31,5,,,,,,,,,,,,,,,,,,,,,,,,,,,,,,,,,,,,,,,,,,,,204.16471490000004,None,left,1,1.5961537999992288,204.66552240000055,205.8172670999993,204.66552240000055,205.31702120000045,204.66552240000055,205.31702120000045,204.66552240000055,205.31702120000045,204.66552240000055,205.31702120000045,204.66552240000055,205.31702120000045,205.2836540999997,205.78435300000092,205.2836540999997,205.78435300000092,205.2836540999997,205.78435300000092,205.2836540999997,205.78435300000092,205.2836540999997,205.78435300000092,205.2836540999997,205.78435300000092,205.2836540999997,205.78435300000092,205.2836540999997,205.78435300000092,204.66552240000055,None,205.78435300000092,207.65564110000014,0.6400000000000003,207.68779619999987,None,208.4378486000005,None,,,,,,,[[1.86]],3.4600000000000026,0.6875,11038,002,2024_Mar_12_1335,MFTM_A_new1021,2021.2.3,60.29577489422689,
,,,,,,,,stim/Instruction_adaptive.png,conditions/adaptive.xlsx,test,-0.6,-0.6,-0.6,0.6,0.6,left,L,,,,,0,1,1,1,0,32,32,3,,,,,,,,,,,,,,,,,,,,,,,,,,,,,,,,,,,,,,,,,,,,208.9392914,None,left,1,1.6542393999989145,209.43959429999995,210.54115699999966,209.43959429999995,210.0401939000003,209.43959429999995,210.0401939000003,209.43959429999995,210.0401939000003,209.43959429999995,210.0401939000003,209.43959429999995,210.0401939000003,210.02371979999953,210.52519679999932,210.02371979999953,210.52519679999932,210.02371979999953,210.52519679999932,210.02371979999953,210.52519679999932,210.02371979999953,210.52519679999932,210.02371979999953,210.52519679999932,210.02371979999953,210.52519679999932,210.02371979999953,210.52519679999932,209.43959429999995,None,210.52519679999932,212.42710540000007,0.6000000000000003,212.44384940000054,None,213.19508300000052,None,,,,,,,[[1.9]],3.530000000000003,0.696969696969697,11038,002,2024_Mar_12_1335,MFTM_A_new1021,2021.2.3,60.29577489422689,
,,,,,,,,stim/Instruction_adaptive.png,conditions/adaptive.xlsx,test,-0.6,-0.6,-0.6,0.6,0.6,left,L,,,,,0,1,1,1,0,33,33,47,,,,,,,,,,,,,,,,,,,,,,,,,,,,,,,,,,,,,,,,,,,,213.69564619999983,None,left,1,1.7536068999997951,214.19666030000008,215.28203229999963,214.19666030000008,214.7808301999994,214.19666030000008,214.7808301999994,214.19666030000008,214.7808301999994,214.19666030000008,214.7808301999994,214.19666030000008,214.7808301999994,214.747926,215.24887230000058,214.747926,215.24887230000058,214.747926,215.24887230000058,214.747926,215.24887230000058,214.747926,215.24887230000058,214.747926,215.24887230000058,214.747926,215.24887230000058,214.747926,215.24887230000058,214.19666030000008,None,215.24887230000058,217.18493130000024,0.5700000000000003,217.2011192000009,None,217.95218139999997,None,,,,,,,[1.92176471],3.6000000000000028,0.7058823529411765,11038,002,2024_Mar_12_1335,MFTM_A_new1021,2021.2.3,60.29577489422689,
,,,,,,,,stim/Instruction_adaptive.png,conditions/adaptive.xlsx,test,-0.6,-0.6,-0.6,0.6,0.6,left,L,,,,,0,1,1,1,0,34,34,65,,,,,,,,,,,,,,,,,,,,,,,,,,,,,,,,,,,,,,,,,,,,218.45305569999982,None,left,1,1.7883894000005967,218.95376939999915,220.00530350000008,218.95376939999915,219.50515319999977,218.95376939999915,219.50515319999977,218.95376939999915,219.50515319999977,218.95376939999915,219.50515319999977,218.95376939999915,219.50515319999977,219.4719814,219.9717985999996,219.4719814,219.9717985999996,219.4719814,219.9717985999996,219.4719814,219.9717985999996,219.4719814,219.9717985999996,219.4719814,219.9717985999996,219.4719814,219.9717985999996,219.4719814,219.9717985999996,218.95376939999915,None,219.9717985999996,221.90857350000078,0.5400000000000003,221.92492830000083,None,222.67603400000007,None,,,,,,,[1.92285714],3.6700000000000026,0.7142857142857143,11038,002,2024_Mar_12_1335,MFTM_A_new1021,2021.2.3,60.29577489422689,
,,,,,,,,stim/Instruction_adaptive.png,conditions/adaptive.xlsx,test,-0.6,-0.6,-0.6,0.6,0.6,left,L,,,,,0,1,1,1,0,35,35,91,,,,,,,,,,,,,,,,,,,,,,,,,,,,,,,,,,,,,,,,,,,,223.17736460000015,None,right,0,1.1859481999999844,223.67741729999943,224.71311699999933,223.67741729999943,224.2118085000002,223.67741729999943,224.2118085000002,223.67741729999943,224.2118085000002,223.67741729999943,224.2118085000002,223.67741729999943,224.2118085000002,224.17817490000016,224.67924090000088,224.17817490000016,224.67924090000088,224.17817490000016,224.67924090000088,224.17817490000016,224.67924090000088,224.17817490000016,224.67924090000088,224.17817490000016,224.67924090000088,224.17817490000016,224.67924090000088,224.17817490000016,224.67924090000088,223.67741729999943,None,224.67924090000088,226.61532909999914,0.5200000000000002,226.63235669999995,None,227.3839437000006,None,,,,,,,[1.92444444],3.4800000000000026,0.6944444444444444,11038,002,2024_Mar_12_1335,MFTM_A_new1021,2021.2.3,60.29577489422689,
,,,,,,,,stim/Instruction_adaptive.png,conditions/adaptive.xlsx,test,-0.6,-0.6,-0.6,0.6,0.6,left,L,,,,,0,1,1,1,0,36,36,27,,,,,,,,,,,,,,,,,,,,,,,,,,,,,,,,,,,,,,,,,,,,227.8838137999992,None,left,1,0.9979107999988628,228.38450179999927,229.48698759999934,228.38450179999927,228.98576110000067,228.38450179999927,228.98576110000067,228.38450179999927,228.98576110000067,228.38450179999927,228.98576110000067,228.38450179999927,228.98576110000067,228.95217670000056,229.45350320000034,228.95217670000056,229.45350320000034,228.95217670000056,229.45350320000034,228.95217670000056,229.45350320000034,228.95217670000056,229.45350320000034,228.95217670000056,229.45350320000034,228.95217670000056,229.45350320000034,228.95217670000056,229.45350320000034,228.38450179999927,None,229.45350320000034,231.3723525000005,0.5900000000000003,231.38905200000045,None,232.14029189999928,None,,,,,,,[[1.91]],3.5500000000000025,0.7027027027027027,11038,002,2024_Mar_12_1335,MFTM_A_new1021,2021.2.3,60.29577489422689,
,,,,,,,,stim/Instruction_adaptive.png,conditions/adaptive.xlsx,test,-0.6,-0.6,-0.6,0.6,0.6,left,L,,,,,0,1,1,1,0,37,37,39,,,,,,,,,,,,,,,,,,,,,,,,,,,,,,,,,,,,,,,,,,,,232.64099180000085,None,left,1,1.2326708000000508,233.1417130000009,234.21007549999922,233.1417130000009,233.7091691000005,233.1417130000009,233.7091691000005,233.1417130000009,233.7091691000005,233.1417130000009,233.7091691000005,233.1417130000009,233.7091691000005,233.6927237,234.19336769999973,233.6927237,234.19336769999973,233.6927237,234.19336769999973,233.6927237,234.19336769999973,233.6927237,234.19336769999973,233.6927237,234.19336769999973,233.6927237,234.19336769999973,233.6927237,234.19336769999973,233.1417130000009,None,234.19336769999973,None,0.5600000000000003,236.1295028000004,None,236.88063370000054,None,,,,,,,[1.92447368],3.610000000000003,0.7105263157894737,11038,002,2024_Mar_12_1335,MFTM_A_new1021,2021.2.3,60.29577489422689,
,,,,,,,,stim/Instruction_adaptive.png,conditions/adaptive.xlsx,test,-0.6,-0.6,-0.6,0.6,0.6,left,L,,,,,0,1,1,1,0,38,38,33,,,,,,,,,,,,,,,,,,,,,,,,,,,,,,,,,,,,,,,,,,,,237.38164479999978,None,left,1,2.004162700000961,237.89955999999984,238.95106020000094,237.89955999999984,238.45025689999966,237.89955999999984,238.45025689999966,237.89955999999984,238.45025689999966,237.89955999999984,238.45025689999966,237.89955999999984,238.45025689999966,238.41673310000078,238.91726310000013,238.41673310000078,238.91726310000013,238.41673310000078,238.91726310000013,238.41673310000078,238.91726310000013,238.41673310000078,238.91726310000013,238.41673310000078,238.91726310000013,238.41673310000078,238.91726310000013,238.41673310000078,238.91726310000013,237.89955999999984,None,238.91726310000013,240.8535978,0.5400000000000003,240.87033089999932,None,241.62159810000048,None,,,,,,,[1.92538462],3.6700000000000026,0.717948717948718,11038,002,2024_Mar_12_1335,MFTM_A_new1021,2021.2.3,60.29577489422689,
,,,,,,,,stim/Instruction_adaptive.png,conditions/adaptive.xlsx,test,-0.6,-0.6,-0.6,0.6,0.6,left,L,,,,,0,1,1,1,0,39,39,53,,,,,,,,,,,,,,,,,,,,,,,,,,,,,,,,,,,,,,,,,,,,242.12218080000093,None,right,0,1.1119529000006878,242.62278650000007,243.6575112999999,242.62278650000007,243.15690770000037,242.62278650000007,243.15690770000037,242.62278650000007,243.15690770000037,242.62278650000007,243.15690770000037,242.62278650000007,243.15690770000037,243.12323599999945,243.62487019999935,243.12323599999945,243.62487019999935,243.12323599999945,243.62487019999935,243.12323599999945,243.62487019999935,243.12323599999945,243.62487019999935,243.12323599999945,243.62487019999935,243.12323599999945,243.62487019999935,243.12323599999945,243.62487019999935,242.62278650000007,None,243.62487019999935,245.56104290000076,0.5200000000000002,245.57687500000065,None,246.32886700000017,None,,,,,,,[1.92675],3.5100000000000025,0.7,11038,002,2024_Mar_12_1335,MFTM_A_new1021,2021.2.3,60.29577489422689,
,,,,,,,,stim/Instruction_adaptive.png,conditions/adaptive.xlsx,test,-0.6,-0.6,-0.6,0.6,0.6,left,L,,,,,0,1,1,1,0,40,40,31,,,,,,,,,,,,,,,,,,,,,,,,,,,,,,,,,,,,,,,,,,,,246.82904450000024,None,left,1,1.604994600000282,247.3298522999994,248.41467910000028,247.3298522999994,247.9140993000001,247.3298522999994,247.9140993000001,247.3298522999994,247.9140993000001,247.3298522999994,247.9140993000001,247.3298522999994,247.9140993000001,247.89729719999923,248.3980431,247.89729719999923,248.3980431,247.89729719999923,248.3980431,247.89729719999923,248.3980431,247.89729719999923,248.3980431,247.89729719999923,248.3980431,247.89729719999923,248.3980431,247.89729719999923,248.3980431,247.3298522999994,None,248.3980431,250.3176994000005,0.5800000000000003,250.33461290000014,None,251.08551550000084,None,,,,,,,[[1.92]],3.5600000000000027,0.7073170731707317,11038,002,2024_Mar_12_1335,MFTM_A_new1021,2021.2.3,60.29577489422689,
,,,,,,,,stim/Instruction_adaptive.png,conditions/adaptive.xlsx,test,0.6,0.6,0.6,-0.6,-0.6,right,R,,,,,0,1,1,1,0,41,41,94,,,,,,,,,,,,,,,,,,,,,,,,,,,,,,,,,,,,,,,,,,,,251.58670669999992,None,right,1,1.471943000000465,252.0869944999995,253.1554175000001,252.0869944999995,252.65551550000055,252.0869944999995,252.65551550000055,252.0869944999995,252.65551550000055,252.0869944999995,252.65551550000055,252.0869944999995,252.65551550000055,252.63778319999983,253.13837579999927,252.63778319999983,253.13837579999927,252.63778319999983,253.13837579999927,252.63778319999983,253.13837579999927,252.63778319999983,253.13837579999927,252.63778319999983,253.13837579999927,252.63778319999983,253.13837579999927,252.63778319999983,253.13837579999927,252.0869944999995,None,253.12204369999927,255.05892789999962,0.5600000000000003,255.07482600000003,None,255.82593430000088,None,,,,,,,[1.92690476],3.6200000000000028,0.7142857142857143,11038,002,2024_Mar_12_1335,MFTM_A_new1021,2021.2.3,60.29577489422689,
,,,,,,,,stim/Instruction_adaptive.png,conditions/adaptive.xlsx,test,0.6,0.6,0.6,-0.6,-0.6,right,R,,,,,0,1,1,1,0,42,42,44,,,,,,,,,,,,,,,,,,,,,,,,,,,,,,,,,,,,,,,,,,,,256.3267037000005,None,left,0,1.6365846999997302,256.8273869000004,257.8796877999994,256.8273869000004,257.3788354999997,256.8273869000004,257.3788354999997,256.8273869000004,257.3788354999997,256.8273869000004,257.3788354999997,256.8273869000004,257.3788354999997,257.34503120000045,257.8461626999997,257.34503120000045,257.8461626999997,257.34503120000045,257.8461626999997,257.34503120000045,257.8461626999997,257.34503120000045,257.8461626999997,257.34503120000045,257.8461626999997,257.34503120000045,257.8461626999997,257.34503120000045,257.8461626999997,256.8273869000004,None,257.8461626999997,259.78263230000084,0.5400000000000003,259.8164901,None,260.5663724999995,None,,,,,,,[1.92767442],3.4600000000000026,0.6976744186046512,11038,002,2024_Mar_12_1335,MFTM_A_new1021,2021.2.3,60.29577489422689,
,,,,,,,,stim/Instruction_adaptive.png,conditions/adaptive.xlsx,test,0.6,0.6,0.6,-0.6,-0.6,right,R,,,,,0,1,1,1,0,43,43,74,,,,,,,,,,,,,,,,,,,,,,,,,,,,,,,,,,,,,,,,,,,,261.06710139999996,None,left,0,1.1186503999997512,261.56844979999914,262.6696680999994,261.56844979999914,262.1687309000008,261.56844979999914,262.1687309000008,261.56844979999914,262.1687309000008,261.56844979999914,262.1687309000008,261.56844979999914,262.1687309000008,262.15267889999996,262.65296579999995,262.15267889999996,262.65296579999995,262.15267889999996,262.65296579999995,262.15267889999996,262.65296579999995,262.15267889999996,262.65296579999995,262.15267889999996,262.65296579999995,262.15267889999996,262.65296579999995,262.15267889999996,262.65296579999995,261.56844979999914,None,262.65296579999995,264.55783110000084,0.6000000000000003,264.59004859999914,None,265.3415038000003,None,,,,,,,[[1.9]],3.2900000000000027,0.6818181818181818,11038,002,2024_Mar_12_1335,MFTM_A_new1021,2021.2.3,60.29577489422689,
,,,,,,,,stim/Instruction_adaptive.png,conditions/adaptive.xlsx,test,0.6,0.6,0.6,-0.6,-0.6,right,R,,,,,0,1,1,1,0,44,44,32,,,,,,,,,,,,,,,,,,,,,,,,,,,,,,,,,,,,,,,,,,,,265.84152820000054,None,right,1,1.1944071000016265,266.34188879999965,267.5281763999992,266.34188879999965,267.0270118999997,266.34188879999965,267.0270118999997,266.34188879999965,267.0270118999997,266.34188879999965,267.0270118999997,266.34188879999965,267.0270118999997,266.9931536999993,267.49360460000025,266.9931536999993,267.49360460000025,266.9931536999993,267.49360460000025,266.9931536999993,267.49360460000025,266.9931536999993,267.49360460000025,266.9931536999993,267.49360460000025,266.9931536999993,267.49360460000025,266.9931536999993,267.49360460000025,266.34188879999965,None,267.49360460000025,269.32953819999966,0.6700000000000004,269.3462571,None,270.09743589999925,None,,,,,,,[[1.83]],3.3500000000000023,0.6888888888888889,11038,002,2024_Mar_12_1335,MFTM_A_new1021,2021.2.3,60.29577489422689,
,,,,,,,,stim/Instruction_adaptive.png,conditions/adaptive.xlsx,test,-0.6,-0.6,-0.6,0.6,0.6,left,L,,,,,0,1,1,1,0,45,45,1,,,,,,,,,,,,,,,,,,,,,,,,,,,,,,,,,,,,,,,,,,,,270.5987337000006,None,left,1,1.140489899999011,271.0991030999994,272.25069110000004,271.0991030999994,271.7507372,271.0991030999994,271.7507372,271.0991030999994,271.7507372,271.0991030999994,271.7507372,271.0991030999994,271.7507372,271.7331969000006,272.23409490000085,271.7331969000006,272.23409490000085,271.7331969000006,272.23409490000085,271.7331969000006,272.23409490000085,271.7331969000006,272.23409490000085,271.7331969000006,272.23409490000085,271.7331969000006,272.23409490000085,271.7331969000006,272.23409490000085,271.0991030999994,None,272.23409490000085,274.0871045999993,0.6500000000000004,274.1034185999997,None,274.85465040000054,None,,,,,,,[[1.85]],3.410000000000003,0.6956521739130435,11038,002,2024_Mar_12_1335,MFTM_A_new1021,2021.2.3,60.29577489422689,
,,,,,,,,stim/Instruction_adaptive.png,conditions/adaptive.xlsx,test,-0.6,-0.6,-0.6,0.6,0.6,left,L,,,,,0,1,1,1,0,46,46,57,,,,,,,,,,,,,,,,,,,,,,,,,,,,,,,,,,,,,,,,,,,,275.3558389000009,None,left,1,1.9361112999995385,275.85618369999975,276.9913354,275.85618369999975,276.49028200000066,275.85618369999975,276.49028200000066,275.85618369999975,276.49028200000066,275.85618369999975,276.49028200000066,275.85618369999975,276.49028200000066,276.45742360000077,276.95837290000054,276.45742360000077,276.95837290000054,276.45742360000077,276.95837290000054,276.45742360000077,276.95837290000054,276.45742360000077,276.95837290000054,276.45742360000077,276.95837290000054,276.45742360000077,276.95837290000054,276.45742360000077,276.95837290000054,275.85618369999975,None,276.95837290000054,278.84462730000087,0.6200000000000003,278.86065059999964,None,279.6118260000003,None,,,,,,,[[1.88]],3.4600000000000026,0.7021276595744681,11038,002,2024_Mar_12_1335,MFTM_A_new1021,2021.2.3,60.29577489422689,
,,,,,,,,stim/Instruction_adaptive.png,conditions/adaptive.xlsx,test,0.6,0.6,0.6,-0.6,-0.6,right,R,,,,,0,1,1,1,0,47,47,8,,,,,,,,,,,,,,,,,,,,,,,,,,,,,,,,,,,,,,,,,,,,280.1126944000007,None,right,1,1.082318499999019,280.6138549999996,281.7149571000009,280.6138549999996,281.2146510999992,280.6138549999996,281.2146510999992,280.6138549999996,281.2146510999992,280.6138549999996,281.2146510999992,280.6138549999996,281.2146510999992,281.1976572000003,281.69848439999987,281.1976572000003,281.69848439999987,281.1976572000003,281.69848439999987,281.1976572000003,281.69848439999987,281.1976572000003,281.69848439999987,281.1976572000003,281.69848439999987,281.1976572000003,281.69848439999987,281.1976572000003,281.69848439999987,280.6138549999996,None,281.69848439999987,283.6012303999996,0.6000000000000003,283.61849450000045,None,284.3695219000001,None,,,,,,,[[1.9]],3.5100000000000025,0.7083333333333334,11038,002,2024_Mar_12_1335,MFTM_A_new1021,2021.2.3,60.29577489422689,
,,,,,,,,stim/Instruction_adaptive.png,conditions/adaptive.xlsx,test,-0.6,-0.6,-0.6,0.6,0.6,left,L,,,,,0,1,1,1,0,48,48,67,,,,,,,,,,,,,,,,,,,,,,,,,,,,,,,,,,,,,,,,,,,,284.87041580000005,None,right,0,1.0857095999999729,285.37044720000085,286.45550399999956,285.37044720000085,285.9553018000006,285.37044720000085,285.9553018000006,285.37044720000085,285.9553018000006,285.37044720000085,285.9553018000006,285.37044720000085,285.9553018000006,285.9384117999998,286.4390736999994,285.9384117999998,286.4390736999994,285.9384117999998,286.4390736999994,285.9384117999998,286.4390736999994,285.9384117999998,286.4390736999994,285.9384117999998,286.4390736999994,285.9384117999998,286.4390736999994,285.9384117999998,286.4390736999994,285.37044720000085,None,286.4390736999994,288.3584367000003,0.5800000000000003,288.3748230000001,None,289.1263882000003,None,,,,,,,[[1.92]],3.3700000000000028,0.6938775510204082,11038,002,2024_Mar_12_1335,MFTM_A_new1021,2021.2.3,60.29577489422689,
,,,,,,,,stim/Instruction_adaptive.png,conditions/adaptive.xlsx,test,-0.6,-0.6,-0.6,0.6,0.6,left,L,,,,,0,1,1,1,0,49,49,55,,,,,,,,,,,,,,,,,,,,,,,,,,,,,,,,,,,,,,,,,,,,289.6275815000008,None,right,0,1.0324501000013697,290.1277035000003,291.2795055000006,290.1277035000003,290.7786484999997,290.1277035000003,290.7786484999997,290.1277035000003,290.7786484999997,290.1277035000003,290.7786484999997,290.1277035000003,290.7786484999997,290.74558289999914,291.2464099000008,290.74558289999914,291.2464099000008,290.74558289999914,291.2464099000008,290.74558289999914,291.2464099000008,290.74558289999914,291.2464099000008,290.74558289999914,291.2464099000008,290.74558289999914,291.2464099000008,290.74558289999914,291.2464099000008,290.1277035000003,None,291.2464099000008,293.11560819999977,0.6400000000000003,293.13229429999956,None,293.8834344000006,None,,,,,,,[[1.86]],3.2100000000000026,0.68,11038,002,2024_Mar_12_1335,MFTM_A_new1021,2021.2.3,60.29577489422689,
,,,,,,,,stim/Instruction_adaptive.png,conditions/adaptive.xlsx,test,0.6,0.6,0.6,-0.6,-0.6,right,R,,,,,0,1,1,1,0,50,50,64,,,,,,,,,,,,,,,,,,,,,,,,,,,,,,,,,,,,,,,,,,,,294.38467560000026,None,right,1,1.2274147999996785,294.88477629999943,296.1032395000002,294.88477629999943,295.6025301999998,294.88477629999943,295.6025301999998,294.88477629999943,295.6025301999998,294.88477629999943,295.6025301999998,294.88477629999943,295.6025301999998,295.5691403000001,296.0701188999992,295.5691403000001,296.0701188999992,295.5691403000001,296.0701188999992,295.5691403000001,296.0701188999992,295.5691403000001,296.0701188999992,295.5691403000001,296.0701188999992,295.5691403000001,296.0701188999992,295.5691403000001,296.0701188999992,294.88477629999943,None,296.0701188999992,297.8731422000001,0.7100000000000004,297.88942619999943,None,298.6406279999992,None,,,,,,,[[1.79]],3.2700000000000022,0.6862745098039216,11038,002,2024_Mar_12_1335,MFTM_A_new1021,2021.2.3,60.29577489422689,
,,,,,,,,stim/Instruction_adaptive.png,conditions/adaptive.xlsx,test,0.6,0.6,0.6,-0.6,-0.6,right,R,,,,,0,1,1,1,0,51,51,34,,,,,,,,,,,,,,,,,,,,,,,,,,,,,,,,,,,,,,,,,,,,299.14174880000064,None,right,1,0.9904542999993282,299.64280789999975,300.82772509999995,299.64280789999975,300.3271327000002,299.64280789999975,300.3271327000002,299.64280789999975,300.3271327000002,299.64280789999975,300.3271327000002,299.64280789999975,300.3271327000002,300.30977189999976,300.8108331000003,300.30977189999976,300.8108331000003,300.30977189999976,300.8108331000003,300.30977189999976,300.8108331000003,300.30977189999976,300.8108331000003,300.30977189999976,300.8108331000003,300.30977189999976,300.8108331000003,300.30977189999976,300.8108331000003,299.64280789999975,None,300.8108331000003,None,0.6800000000000004,302.64622810000037,None,303.3978494999992,None,,,,,,,[[1.82]],3.3200000000000025,0.6923076923076923,11038,002,2024_Mar_12_1335,MFTM_A_new1021,2021.2.3,60.29577489422689,
,,,,,,,,stim/Instruction_adaptive.png,conditions/adaptive.xlsx,test,0.6,0.6,0.6,-0.6,-0.6,right,R,,,,,0,1,1,1,0,52,52,68,,,,,,,,,,,,,,,,,,,,,,,,,,,,,,,,,,,,,,,,,,,,303.8989359999996,None,right,1,1.1764502999994875,304.3997990000007,305.56766939999943,304.3997990000007,305.06703259999995,304.3997990000007,305.06703259999995,304.3997990000007,305.06703259999995,304.3997990000007,305.06703259999995,304.3997990000007,305.06703259999995,305.05072309999923,305.55091600000014,305.05072309999923,305.55091600000014,305.05072309999923,305.55091600000014,305.05072309999923,305.55091600000014,305.05072309999923,305.55091600000014,305.05072309999923,305.55091600000014,305.05072309999923,305.55091600000014,305.05072309999923,305.55091600000014,304.3997990000007,None,305.5349466000007,307.38703800000076,0.6600000000000004,307.40371889999915,None,308.1548837999999,None,,,,,,,[[1.84]],3.3700000000000028,0.6981132075471698,11038,002,2024_Mar_12_1335,MFTM_A_new1021,2021.2.3,60.29577489422689,
,,,,,,,,stim/Instruction_adaptive.png,conditions/adaptive.xlsx,test,0.6,0.6,0.6,-0.6,-0.6,right,R,,,,,0,1,1,1,0,53,53,24,,,,,,,,,,,,,,,,,,,,,,,,,,,,,,,,,,,,,,,,,,,,308.6562976999994,None,left,0,1.4114559999998164,309.15689270000075,310.3085850999996,309.15689270000075,309.8074183000008,309.15689270000075,309.8074183000008,309.15689270000075,309.8074183000008,309.15689270000075,309.8074183000008,309.15689270000075,309.8074183000008,309.7744683000001,310.27473909999935,309.7744683000001,310.27473909999935,309.7744683000001,310.27473909999935,309.7744683000001,310.27473909999935,309.7744683000001,310.27473909999935,309.7744683000001,310.27473909999935,309.7744683000001,310.27473909999935,309.7744683000001,310.27473909999935,309.15689270000075,None,310.27473909999935,312.14500729999963,0.6400000000000003,312.1607227000004,None,312.9120598999998,None,,,,,,,[[1.86]],3.2200000000000024,0.6851851851851852,11038,002,2024_Mar_12_1335,MFTM_A_new1021,2021.2.3,60.29577489422689,
,,,,,,,,stim/Instruction_adaptive.png,conditions/adaptive.xlsx,test,0.6,0.6,0.6,-0.6,-0.6,right,R,,,,,0,1,1,1,0,54,54,2,,,,,,,,,,,,,,,,,,,,,,,,,,,,,,,,,,,,,,,,,,,,313.41273829999955,None,right,1,1.0080173999995168,313.9133877999993,315.1321392000009,313.9133877999993,314.6319662999995,313.9133877999993,314.6319662999995,313.9133877999993,314.6319662999995,313.9133877999993,314.6319662999995,313.9133877999993,314.6319662999995,314.6150402000003,315.1154927000007,314.6150402000003,315.1154927000007,314.6150402000003,315.1154927000007,314.6150402000003,315.1154927000007,314.6150402000003,315.1154927000007,314.6150402000003,315.1154927000007,314.6150402000003,315.1154927000007,314.6150402000003,315.1154927000007,313.9133877999993,None,315.1154927000007,None,0.7100000000000004,316.9179999000007,None,317.66924330000074,None,,,,,,,[[1.79]],3.2700000000000022,0.6909090909090909,11038,002,2024_Mar_12_1335,MFTM_A_new1021,2021.2.3,60.29577489422689,
,,,,,,,,stim/Instruction_adaptive.png,conditions/adaptive.xlsx,test,-0.6,-0.6,-0.6,0.6,0.6,left,L,,,,,0,1,1,1,0,55,55,59,,,,,,,,,,,,,,,,,,,,,,,,,,,,,,,,,,,,,,,,,,,,318.1698660999991,None,left,1,1.3935622000008152,318.6711138999999,319.8558634000001,318.6711138999999,319.3554863999998,318.6711138999999,319.3554863999998,318.6711138999999,319.3554863999998,318.6711138999999,319.3554863999998,318.6711138999999,319.3554863999998,319.3385392,319.83905629999936,319.3385392,319.83905629999936,319.3385392,319.83905629999936,319.3385392,319.83905629999936,319.3385392,319.83905629999936,319.3385392,319.83905629999936,319.3385392,319.83905629999936,319.3385392,319.83905629999936,318.6711138999999,None,319.83905629999936,321.6593303000009,0.6800000000000004,321.6751629999999,None,322.42634069999986,None,,,,,,,[[1.82]],3.3200000000000025,0.6964285714285714,11038,002,2024_Mar_12_1335,MFTM_A_new1021,2021.2.3,60.29577489422689,
,,,,,,,,stim/Instruction_adaptive.png,conditions/adaptive.xlsx,test,0.6,0.6,0.6,-0.6,-0.6,right,R,,,,,0,1,1,1,0,56,56,78,,,,,,,,,,,,,,,,,,,,,,,,,,,,,,,,,,,,,,,,,,,,322.92763600000035,None,left,0,1.437146099999154,323.4280221000008,324.5962861000007,323.4280221000008,324.0955678999999,323.4280221000008,324.0955678999999,323.4280221000008,324.0955678999999,323.4280221000008,324.0955678999999,323.4280221000008,324.0955678999999,324.0787944999993,324.57953049999924,324.0787944999993,324.57953049999924,324.0787944999993,324.57953049999924,324.0787944999993,324.57953049999924,324.0787944999993,324.57953049999924,324.0787944999993,324.57953049999924,324.0787944999993,324.57953049999924,324.0787944999993,324.57953049999924,323.4280221000008,None,324.57953049999924,None,0.6600000000000004,326.43220479999945,None,327.18350239999927,None,,,,,,,[[1.84]],3.190000000000002,0.6842105263157895,11038,002,2024_Mar_12_1335,MFTM_A_new1021,2021.2.3,60.29577489422689,
,,,,,,,,stim/Instruction_adaptive.png,conditions/adaptive.xlsx,test,0.6,0.6,0.6,-0.6,-0.6,right,R,,,,,0,1,1,1,0,57,57,4,,,,,,,,,,,,,,,,,,,,,,,,,,,,,,,,,,,,,,,,,,,,327.6845572000002,None,right,1,1.1838143999993918,328.1854523000002,329.4214174000008,328.1854523000002,328.91962720000083,328.1854523000002,328.91962720000083,328.1854523000002,328.91962720000083,328.1854523000002,328.91962720000083,328.1854523000002,328.91962720000083,328.8861557,329.38676339999984,328.8861557,329.38676339999984,328.8861557,329.38676339999984,328.8861557,329.38676339999984,328.8861557,329.38676339999984,328.8861557,329.38676339999984,328.8861557,329.38676339999984,328.8861557,329.38676339999984,328.1854523000002,None,329.38676339999984,331.1734037999995,0.7200000000000004,331.1894940000002,None,331.9407052000006,None,,,,,,,[[1.78]],3.230000000000002,0.6896551724137931,11038,002,2024_Mar_12_1335,MFTM_A_new1021,2021.2.3,60.29577489422689,
,,,,,,,,stim/Instruction_adaptive.png,conditions/adaptive.xlsx,test,0.6,0.6,0.6,-0.6,-0.6,right,R,,,,,0,1,1,1,0,58,58,84,,,,,,,,,,,,,,,,,,,,,,,,,,,,,,,,,,,,,,,,,,,,332.44194620000053,None,right,1,1.107236699999703,332.94210790000034,334.1439566000008,332.94210790000034,333.6437464999999,332.94210790000034,333.6437464999999,332.94210790000034,333.6437464999999,332.94210790000034,333.6437464999999,332.94210790000034,333.6437464999999,333.6271264999996,334.1275643000008,333.6271264999996,334.1275643000008,333.6271264999996,334.1275643000008,333.6271264999996,334.1275643000008,333.6271264999996,334.1275643000008,333.6271264999996,334.1275643000008,333.6271264999996,334.1275643000008,333.6271264999996,334.1275643000008,332.94210790000034,None,334.1275643000008,335.9307494000004,0.7000000000000004,335.94659049999973,None,336.69780159999937,None,,,,,,,[[1.8]],3.2800000000000025,0.6949152542372882,11038,002,2024_Mar_12_1335,MFTM_A_new1021,2021.2.3,60.29577489422689,
,,,,,,,,stim/Instruction_adaptive.png,conditions/adaptive.xlsx,test,-0.6,-0.6,-0.6,0.6,0.6,left,L,,,,,0,1,1,1,0,59,59,11,,,,,,,,,,,,,,,,,,,,,,,,,,,,,,,,,,,,,,,,,,,,337.1993180999998,None,right,0,1.2785086000003503,337.6994551000007,338.8844007000007,337.6994551000007,338.3840086,337.6994551000007,338.3840086,337.6994551000007,338.3840086,337.6994551000007,338.3840086,337.6994551000007,338.3840086,338.36671019999994,338.8677616999994,338.36671019999994,338.8677616999994,338.36671019999994,338.8677616999994,338.36671019999994,338.8677616999994,338.36671019999994,338.8677616999994,338.36671019999994,338.8677616999994,338.36671019999994,338.8677616999994,338.36671019999994,338.8677616999994,337.6994551000007,None,338.8677616999994,340.6870789000004,0.6800000000000004,340.70448860000033,None,341.4549207,None,,,,,,,[[1.82]],3.150000000000002,0.6833333333333333,11038,002,2024_Mar_12_1335,MFTM_A_new1021,2021.2.3,60.29577489422689,
,,,,,,,,stim/Instruction_adaptive.png,conditions/adaptive.xlsx,test,0.6,0.6,0.6,-0.6,-0.6,right,R,,,,,0,1,1,1,0,60,60,18,,,,,,,,,,,,,,,,,,,,,,,,,,,,,,,,,,,,,,,,,,,,341.95580340000015,None,left,0,1.185591999999815,342.4566952999994,343.7086374999999,342.4566952999994,343.20774750000055,342.4566952999994,343.20774750000055,342.4566952999994,343.20774750000055,342.4566952999994,343.20774750000055,342.4566952999994,343.20774750000055,343.17430500000046,343.6752661999999,343.17430500000046,343.6752661999999,343.17430500000046,343.6752661999999,343.17430500000046,343.6752661999999,343.17430500000046,343.6752661999999,343.17430500000046,343.6752661999999,343.17430500000046,343.6752661999999,343.17430500000046,343.6752661999999,342.4566952999994,None,343.6752661999999,345.44534679999924,0.7400000000000004,345.4609436999999,None,346.2126286999992,None,,,,,,,[[1.76]],3.000000000000002,0.6721311475409836,11038,002,2024_Mar_12_1335,MFTM_A_new1021,2021.2.3,60.29577489422689,
,,,,,,,,stim/Instruction_adaptive.png,conditions/adaptive.xlsx,test,-0.6,-0.6,-0.6,0.6,0.6,left,L,,,,,0,1,1,1,0,61,61,69,,,,,,,,,,,,,,,,,,,,,,,,,,,,,,,,,,,,,,,,,,,,346.7130784000001,None,left,1,1.4832735999989382,347.2142490999995,348.5324722000005,347.2142490999995,348.0492178000004,347.2142490999995,348.0492178000004,347.2142490999995,348.0492178000004,347.2142490999995,348.0492178000004,347.2142490999995,348.0492178000004,348.01560640000025,348.51963780000005,348.01560640000025,348.51963780000005,348.01560640000025,348.51963780000005,348.01560640000025,348.51963780000005,348.01560640000025,348.51963780000005,348.01560640000025,348.51963780000005,348.01560640000025,348.51963780000005,348.01560640000025,348.51963780000005,347.2142490999995,None,348.51963780000005,350.20167670000046,0.8200000000000005,350.2189538999992,None,350.96926580000036,None,,,,,,,[[1.68]],3.0600000000000023,0.6774193548387096,11038,002,2024_Mar_12_1335,MFTM_A_new1021,2021.2.3,60.29577489422689,
,,,,,,,,stim/Instruction_adaptive.png,conditions/adaptive.xlsx,test,0.6,0.6,0.6,-0.6,-0.6,right,R,,,,,0,1,1,1,0,62,62,20,,,,,,,,,,,,,,,,,,,,,,,,,,,,,,,,,,,,,,,,,,,,351.4707443999996,None,right,1,1.2701483000000735,351.9715176000009,353.27300710000054,351.9715176000009,352.7726165999993,351.9715176000009,352.7726165999993,351.9715176000009,352.7726165999993,351.9715176000009,352.7726165999993,351.9715176000009,352.7726165999993,352.738781,353.23944219999976,352.738781,353.23944219999976,352.738781,353.23944219999976,352.738781,353.23944219999976,352.738781,353.23944219999976,352.738781,353.23944219999976,352.738781,353.23944219999976,352.738781,353.23944219999976,351.9715176000009,None,353.23944219999976,354.95932560000074,0.7900000000000005,354.97552580000047,None,355.72642599999926,None,,,,,,,[[1.71]],3.1000000000000023,0.6825396825396826,11038,002,2024_Mar_12_1335,MFTM_A_new1021,2021.2.3,60.29577489422689,
,,,,,,,,stim/Instruction_adaptive.png,conditions/adaptive.xlsx,test,-0.6,-0.6,-0.6,0.6,0.6,left,L,,,,,0,1,1,1,0,63,63,7,,,,,,,,,,,,,,,,,,,,,,,,,,,,,,,,,,,,,,,,,,,,356.2273728,None,right,0,1.56234989999939,356.72800500000085,358.01335140000083,356.72800500000085,357.51265760000024,356.72800500000085,357.51265760000024,356.72800500000085,357.51265760000024,356.72800500000085,357.51265760000024,356.72800500000085,357.51265760000024,357.4797744000007,357.98011380000025,357.4797744000007,357.98011380000025,357.4797744000007,357.98011380000025,357.4797744000007,357.98011380000025,357.4797744000007,357.98011380000025,357.4797744000007,357.98011380000025,357.4797744000007,357.98011380000025,357.4797744000007,357.98011380000025,356.72800500000085,None,357.98011380000025,359.7159453000004,0.7700000000000005,359.7327478999996,None,360.48359809999965,None,,,,,,,[[1.73]],2.960000000000002,0.671875,11038,002,2024_Mar_12_1335,MFTM_A_new1021,2021.2.3,60.29577489422689,
,,,,,,,,stim/Instruction_adaptive.png,conditions/adaptive.xlsx,test,0.6,0.6,0.6,-0.6,-0.6,right,R,,,,,0,1,1,1,0,64,64,46,,,,,,,,,,,,,,,,,,,,,,,,,,,,,,,,,,,,,,,,,,,,360.9845210000003,None,right,1,1.2761291000006167,361.48575080000046,362.83737929999916,361.48575080000046,362.33764469999915,361.48575080000046,362.33764469999915,361.48575080000046,362.33764469999915,361.48575080000046,362.33764469999915,361.48575080000046,362.33764469999915,362.3197517999997,362.82066699999996,362.3197517999997,362.82066699999996,362.3197517999997,362.82066699999996,362.3197517999997,362.82066699999996,362.3197517999997,362.82066699999996,362.3197517999997,362.82066699999996,362.3197517999997,362.82066699999996,362.3197517999997,362.82066699999996,361.48575080000046,None,362.82066699999996,364.4737977999994,0.8500000000000005,364.50744769999983,None,365.2578439000008,None,,,,,,,[[1.65]],3.0100000000000025,0.676923076923077,11038,002,2024_Mar_12_1335,MFTM_A_new1021,2021.2.3,60.29577489422689,
,,,,,,,,stim/Instruction_adaptive.png,conditions/adaptive.xlsx,test,0.6,0.6,0.6,-0.6,-0.6,right,R,,,,,0,1,1,1,0,65,65,26,,,,,,,,,,,,,,,,,,,,,,,,,,,,,,,,,,,,,,,,,,,,365.75832570000057,None,right,1,2.047047600000951,366.25908510000045,367.59446919999937,366.25908510000045,367.0937341000008,366.25908510000045,367.0937341000008,366.25908510000045,367.0937341000008,366.25908510000045,367.0937341000008,366.25908510000045,367.0937341000008,367.06036029999996,367.56095389999973,367.06036029999996,367.56095389999973,367.06036029999996,367.56095389999973,367.06036029999996,367.56095389999973,367.06036029999996,367.56095389999973,367.06036029999996,367.56095389999973,367.06036029999996,367.56095389999973,367.06036029999996,367.56095389999973,366.25908510000045,None,367.56095389999973,369.2469196999991,0.8200000000000005,369.26362510000035,None,370.0148518999995,None,,,,,,,[[1.68]],3.0600000000000023,0.6818181818181818,11038,002,2024_Mar_12_1335,MFTM_A_new1021,2021.2.3,60.29577489422689,
,,,,,,,,stim/Instruction_adaptive.png,conditions/adaptive.xlsx,test,0.6,0.6,0.6,-0.6,-0.6,right,R,,,,,0,1,1,1,0,66,66,16,,,,,,,,,,,,,,,,,,,,,,,,,,,,,,,,,,,,,,,,,,,,370.5160176999998,None,left,0,1.1938835000000836,371.0162517000008,372.31821630000013,371.0162517000008,371.8178399999997,371.0162517000008,371.8178399999997,371.0162517000008,371.8178399999997,371.0162517000008,371.8178399999997,371.0162517000008,371.8178399999997,371.7839347000008,372.2846976000001,371.7839347000008,372.2846976000001,371.7839347000008,372.2846976000001,371.7839347000008,372.2846976000001,371.7839347000008,372.2846976000001,371.7839347000008,372.2846976000001,371.7839347000008,372.2846976000001,371.7839347000008,372.2846976000001,371.0162517000008,None,372.2846976000001,374.0041308,0.7900000000000005,374.0213774999993,None,374.77192599999944,None,,,,,,,[[1.71]],2.9300000000000024,0.6716417910447762,11038,002,2024_Mar_12_1335,MFTM_A_new1021,2021.2.3,60.29577489422689,
,,,,,,,,stim/Instruction_adaptive.png,conditions/adaptive.xlsx,test,0.6,0.6,0.6,-0.6,-0.6,right,R,,,,,0,1,1,1,0,67,67,82,,,,,,,,,,,,,,,,,,,,,,,,,,,,,,,,,,,,,,,,,,,,375.27264880000075,None,right,1,1.276817399999345,375.77338149999923,377.1422017999994,375.77338149999923,376.64204269999937,375.77338149999923,376.64204269999937,375.77338149999923,376.64204269999937,375.77338149999923,376.64204269999937,375.77338149999923,376.64204269999937,376.62545540000065,377.12556269999914,376.62545540000065,377.12556269999914,376.62545540000065,377.12556269999914,376.62545540000065,377.12556269999914,376.62545540000065,377.12556269999914,376.62545540000065,377.12556269999914,376.62545540000065,377.12556269999914,376.62545540000065,377.12556269999914,375.77338149999923,None,377.1088447000002,378.76248680000026,0.8600000000000005,378.7955142999999,None,379.54652499999975,None,,,,,,,[[1.64]],2.9700000000000024,0.6764705882352942,11038,002,2024_Mar_12_1335,MFTM_A_new1021,2021.2.3,60.29577489422689,
,,,,,,,,stim/Instruction_adaptive.png,conditions/adaptive.xlsx,test,-0.6,-0.6,-0.6,0.6,0.6,left,L,,,,,0,1,1,1,0,68,68,13,,,,,,,,,,,,,,,,,,,,,,,,,,,,,,,,,,,,,,,,,,,,380.0466202000007,None,right,0,1.519259200000306,380.54741699999977,381.89923719999933,380.54741699999977,381.3985255000007,380.54741699999977,381.3985255000007,380.54741699999977,381.3985255000007,380.54741699999977,381.3985255000007,380.54741699999977,381.3985255000007,381.36509060000026,381.8660999999993,381.36509060000026,381.8660999999993,381.36509060000026,381.8660999999993,381.36509060000026,381.8660999999993,381.36509060000026,381.8660999999993,381.36509060000026,381.8660999999993,381.36509060000026,381.8660999999993,381.36509060000026,381.8660999999993,380.54741699999977,None,381.8660999999993,383.5351687000002,0.8400000000000005,383.55146910000076,None,384.3029301000006,None,,,,,,,[[1.66]],2.840000000000002,0.6666666666666666,11038,002,2024_Mar_12_1335,MFTM_A_new1021,2021.2.3,60.29577489422689,
,,,,,,,,stim/Instruction_adaptive.png,conditions/adaptive.xlsx,test,-0.6,-0.6,-0.6,0.6,0.6,left,L,,,,,0,1,1,1,0,69,69,35,,,,,,,,,,,,,,,,,,,,,,,,,,,,,,,,,,,,,,,,,,,,384.8040987000004,None,left,1,1.7460571999999956,385.3044989000009,386.7398859999994,385.3044989000009,386.23920250000083,385.3044989000009,386.23920250000083,385.3044989000009,386.23920250000083,385.3044989000009,386.23920250000083,385.3044989000009,386.23920250000083,386.2058022000001,386.7064842,386.2058022000001,386.7064842,386.2058022000001,386.7064842,386.2058022000001,386.7064842,386.2058022000001,386.7064842,386.2058022000001,386.7064842,386.2058022000001,386.7064842,386.2058022000001,386.7064842,385.3044989000009,None,386.7064842,388.2923745999997,0.9200000000000006,388.3088205999993,None,389.0600102999997,None,,,,,,,[[1.58]],2.880000000000002,0.6714285714285714,11038,002,2024_Mar_12_1335,MFTM_A_new1021,2021.2.3,60.29577489422689,
,,,,,,,,stim/Instruction_adaptive.png,conditions/adaptive.xlsx,test,0.6,0.6,0.6,-0.6,-0.6,right,R,,,,,0,1,1,1,0,70,70,28,,,,,,,,,,,,,,,,,,,,,,,,,,,,,,,,,,,,,,,,,,,,389.56150399999933,None,left,0,1.6863092000003235,390.0614019000004,391.46361699999943,390.0614019000004,390.9629437000003,390.0614019000004,390.9629437000003,390.0614019000004,390.9629437000003,390.0614019000004,390.9629437000003,390.0614019000004,390.9629437000003,390.94623160000083,391.44687879999947,390.94623160000083,391.44687879999947,390.94623160000083,391.44687879999947,390.94623160000083,391.44687879999947,390.94623160000083,391.44687879999947,390.94623160000083,391.44687879999947,390.94623160000083,391.44687879999947,390.94623160000083,391.44687879999947,390.0614019000004,None,391.44687879999947,None,0.8900000000000006,393.06622959999913,None,393.81793819999984,None,,,,,,,[[1.61]],2.740000000000002,0.6619718309859155,11038,002,2024_Mar_12_1335,MFTM_A_new1021,2021.2.3,60.29577489422689,
,,,,,,,,stim/Instruction_adaptive.png,conditions/adaptive.xlsx,test,-0.6,-0.6,-0.6,0.6,0.6,left,L,,,,,0,1,1,1,0,71,71,63,,,,,,,,,,,,,,,,,,,,,,,,,,,,,,,,,,,,,,,,,,,,394.31809710000016,None,left,1,1.6561304999995627,394.8187299000001,396.3045576000004,394.8187299000001,395.80370949999997,394.8187299000001,395.80370949999997,394.8187299000001,395.80370949999997,394.8187299000001,395.80370949999997,394.8187299000001,395.80370949999997,395.78697160000047,396.2883278999998,395.78697160000047,396.2883278999998,395.78697160000047,396.2883278999998,395.78697160000047,396.2883278999998,395.78697160000047,396.2883278999998,395.78697160000047,396.2883278999998,395.78697160000047,396.2883278999998,395.78697160000047,396.2883278999998,394.8187299000001,None,396.2883278999998,None,0.9800000000000006,397.82331259999955,None,398.57477780000045,None,,,,,,,[[1.52]],2.790000000000002,0.6666666666666666,11038,002,2024_Mar_12_1335,MFTM_A_new1021,2021.2.3,60.29577489422689,
,,,,,,,,stim/Instruction_adaptive.png,conditions/adaptive.xlsx,test,0.6,0.6,0.6,-0.6,-0.6,right,R,,,,,0,1,1,1,0,72,72,54,,,,,,,,,,,,,,,,,,,,,,,,,,,,,,,,,,,,,,,,,,,,399.0752142000001,None,right,1,1.6360021000000415,399.5758210999993,401.02909929999987,399.5758210999993,400.52795049999986,399.5758210999993,400.52795049999986,399.5758210999993,400.52795049999986,399.5758210999993,400.52795049999986,399.5758210999993,400.52795049999986,400.51115390000086,401.0120502000009,400.51115390000086,401.0120502000009,400.51115390000086,401.0120502000009,400.51115390000086,401.0120502000009,400.51115390000086,401.0120502000009,400.51115390000086,401.0120502000009,400.51115390000086,401.0120502000009,400.51115390000086,401.0120502000009,399.5758210999993,None,401.0120502000009,402.56379689999994,0.9500000000000006,402.5805295000009,None,403.33229220000067,None,,,,,,,[[1.55]],2.840000000000002,0.6712328767123288,11038,002,2024_Mar_12_1335,MFTM_A_new1021,2021.2.3,60.29577489422689,
,,,,,,,,stim/Instruction_adaptive.png,conditions/adaptive.xlsx,test,-0.6,-0.6,-0.6,0.6,0.6,left,L,,,,,0,1,1,1,0,73,73,85,,,,,,,,,,,,,,,,,,,,,,,,,,,,,,,,,,,,,,,,,,,,403.83240079999996,None,left,1,1.229960000000574,404.3330339000004,405.7527043000009,404.3330339000004,405.2681623999997,404.3330339000004,405.2681623999997,404.3330339000004,405.2681623999997,404.3330339000004,405.2681623999997,404.3330339000004,405.2681623999997,405.2343944999993,405.7356172,405.2343944999993,405.7356172,405.2343944999993,405.7356172,405.2343944999993,405.7356172,405.2343944999993,405.7356172,405.2343944999993,405.7356172,405.2343944999993,405.7356172,405.2343944999993,405.7356172,404.3330339000004,None,405.7356172,407.32094250000046,0.9200000000000006,407.33775330000026,None,408.08938809999927,None,,,,,,,[[1.58]],2.880000000000002,0.6756756756756757,11038,002,2024_Mar_12_1335,MFTM_A_new1021,2021.2.3,60.29577489422689,
,,,,,,,,stim/Instruction_adaptive.png,conditions/adaptive.xlsx,test,-0.6,-0.6,-0.6,0.6,0.6,left,L,,,,,0,1,1,1,0,74,74,95,,,,,,,,,,,,,,,,,,,,,,,,,,,,,,,,,,,,,,,,,,,,408.5894945,None,left,1,1.1769060000005993,409.0902409999999,410.49251489999915,409.0902409999999,409.9916057999999,409.0902409999999,409.9916057999999,409.0902409999999,409.9916057999999,409.0902409999999,409.9916057999999,409.0902409999999,409.9916057999999,409.9581417999998,410.45962300000065,409.9581417999998,410.45962300000065,409.9581417999998,410.45962300000065,409.9581417999998,410.45962300000065,409.9581417999998,410.45962300000065,409.9581417999998,410.45962300000065,409.9581417999998,410.45962300000065,409.9581417999998,410.45962300000065,409.0902409999999,None,410.45962300000065,412.0801384999995,0.8900000000000006,412.1124946,None,412.8632233999997,None,,,,,,,[[1.61]],2.9300000000000024,0.68,11038,002,2024_Mar_12_1335,MFTM_A_new1021,2021.2.3,60.29577489422689,
,,,,,,,,stim/Instruction_adaptive.png,conditions/adaptive.xlsx,test,-0.6,-0.6,-0.6,0.6,0.6,left,L,,,,,0,1,1,1,0,75,75,41,,,,,,,,,,,,,,,,,,,,,,,,,,,,,,,,,,,,,,,,,,,,413.3648788999999,None,right,0,1.8510473999995156,413.86414350000086,415.2328398999998,413.86414350000086,414.7321609999999,413.86414350000086,414.7321609999999,413.86414350000086,414.7321609999999,413.86414350000086,414.7321609999999,413.86414350000086,414.7321609999999,414.6990915000006,415.20009030000074,414.6990915000006,415.20009030000074,414.6990915000006,415.20009030000074,414.6990915000006,415.20009030000074,414.6990915000006,415.20009030000074,414.6990915000006,415.20009030000074,414.6990915000006,415.20009030000074,414.6990915000006,415.20009030000074,413.86414350000086,None,415.20009030000074,416.8518827000007,0.8600000000000005,416.86896440000055,None,417.62003689999983,None,,,,,,,[[1.64]],2.8100000000000023,0.6710526315789473,11038,002,2024_Mar_12_1335,MFTM_A_new1021,2021.2.3,60.29577489422689,
,,,,,,,,stim/Instruction_adaptive.png,conditions/adaptive.xlsx,test,0.6,0.6,0.6,-0.6,-0.6,right,R,,,,,0,1,1,1,0,76,76,76,,,,,,,,,,,,,,,,,,,,,,,,,,,,,,,,,,,,,,,,,,,,418.12045059999946,None,right,1,1.7259388000002218,418.6215351999999,420.07360139999946,418.6215351999999,419.5727043000006,418.6215351999999,419.5727043000006,418.6215351999999,419.5727043000006,418.6215351999999,419.5727043000006,418.6215351999999,419.5727043000006,419.5392861,420.04026019999947,419.5392861,420.04026019999947,419.5392861,420.04026019999947,419.5392861,420.04026019999947,419.5392861,420.04026019999947,419.5392861,420.04026019999947,419.5392861,420.04026019999947,419.5392861,420.04026019999947,418.6215351999999,None,420.04026019999947,421.61109659999966,0.9400000000000006,421.6435242999996,None,422.3943311000003,None,,,,,,,[[1.56]],2.8500000000000023,0.6753246753246753,11038,002,2024_Mar_12_1335,MFTM_A_new1021,2021.2.3,60.29577489422689,
,,,,,,,,stim/Instruction_adaptive.png,conditions/adaptive.xlsx,test,-0.6,-0.6,-0.6,0.6,0.6,left,L,,,,,0,1,1,1,0,77,77,77,,,,,,,,,,,,,,,,,,,,,,,,,,,,,,,,,,,,,,,,,,,,422.8943431000007,None,left,1,1.7603027000004658,423.39528280000013,424.81404509999993,423.39528280000013,424.31387689999974,423.39528280000013,424.31387689999974,423.39528280000013,424.31387689999974,423.39528280000013,424.31387689999974,423.39528280000013,424.31387689999974,424.29708709999977,424.79763289999937,424.29708709999977,424.79763289999937,424.29708709999977,424.79763289999937,424.29708709999977,424.79763289999937,424.29708709999977,424.79763289999937,424.29708709999977,424.79763289999937,424.29708709999977,424.79763289999937,424.29708709999977,424.79763289999937,423.39528280000013,None,424.79763289999937,None,0.9100000000000006,426.3996274000001,None,427.1513630999998,None,,,,,,,[[1.59]],2.8900000000000023,0.6794871794871795,11038,002,2024_Mar_12_1335,MFTM_A_new1021,2021.2.3,60.29577489422689,
,,,,,,,,stim/Instruction_adaptive.png,conditions/adaptive.xlsx,test,0.6,0.6,0.6,-0.6,-0.6,right,R,,,,,0,1,1,1,0,78,78,14,,,,,,,,,,,,,,,,,,,,,,,,,,,,,,,,,,,,,,,,,,,,427.65178820000074,None,left,0,1.4673596000011457,428.15240559999984,429.5551885999994,428.15240559999984,429.05369710000014,428.15240559999984,429.05369710000014,428.15240559999984,429.05369710000014,428.15240559999984,429.05369710000014,428.15240559999984,429.05369710000014,429.0208729999995,429.5218196000005,429.0208729999995,429.5218196000005,429.0208729999995,429.5218196000005,429.0208729999995,429.5218196000005,429.0208729999995,429.5218196000005,429.0208729999995,429.5218196000005,429.0208729999995,429.5218196000005,429.0208729999995,429.5218196000005,428.15240559999984,None,429.5218196000005,431.1408845999995,0.8900000000000006,431.15664500000094,None,431.9087113000005,None,,,,,,,[[1.61]],2.7700000000000022,0.6708860759493671,11038,002,2024_Mar_12_1335,MFTM_A_new1021,2021.2.3,60.29577489422689,
,,,,,,,,stim/Instruction_adaptive.png,conditions/adaptive.xlsx,test,0.6,0.6,0.6,-0.6,-0.6,right,R,,,,,0,1,1,1,0,79,79,42,,,,,,,,,,,,,,,,,,,,,,,,,,,,,,,,,,,,,,,,,,,,432.4094100000002,None,right,1,1.2617689999988215,432.9099951999997,434.37846379999974,432.9099951999997,433.87790909999967,432.9099951999997,433.87790909999967,432.9099951999997,433.87790909999967,432.9099951999997,433.87790909999967,432.9099951999997,433.87790909999967,433.86118420000093,434.3620584,433.86118420000093,434.3620584,433.86118420000093,434.3620584,433.86118420000093,434.3620584,433.86118420000093,434.3620584,433.86118420000093,434.3620584,433.86118420000093,434.3620584,433.86118420000093,434.3620584,432.9099951999997,None,434.3620584,None,0.9600000000000006,435.9137888000005,None,436.66510799999924,None,,,,,,,[[1.54]],2.8100000000000023,0.675,11038,002,2024_Mar_12_1335,MFTM_A_new1021,2021.2.3,60.29577489422689,
,,,,,,,,stim/Instruction_adaptive.png,conditions/adaptive.xlsx,test,-0.6,-0.6,-0.6,0.6,0.6,left,L,,,,,0,1,1,1,0,80,80,83,,,,,,,,,,,,,,,,,,,,,,,,,,,,,,,,,,,,,,,,,,,,437.16601660000015,None,right,0,2.025234899998395,437.6666982000006,439.1189130999992,437.6666982000006,438.6182793000007,437.6666982000006,438.6182793000007,437.6666982000006,438.6182793000007,437.6666982000006,438.6182793000007,437.6666982000006,438.6182793000007,438.5845234999997,439.0853939000008,438.5845234999997,439.0853939000008,438.5845234999997,439.0853939000008,438.5845234999997,439.0853939000008,438.5845234999997,439.0853939000008,438.5845234999997,439.0853939000008,438.5845234999997,439.0853939000008,438.5845234999997,439.0853939000008,437.6666982000006,None,439.0853939000008,440.6546694000008,0.9400000000000006,440.67219509999995,None,441.42227430000094,None,,,,,,,[[1.56]],2.690000000000002,0.6666666666666666,11038,002,2024_Mar_12_1335,MFTM_A_new1021,2021.2.3,60.29577489422689,
,,,,,,,,stim/Instruction_adaptive.png,conditions/adaptive.xlsx,test,0.6,0.6,0.6,-0.6,-0.6,right,R,,,,,0,1,1,1,0,81,81,12,,,,,,,,,,,,,,,,,,,,,,,,,,,,,,,,,,,,,,,,,,,,441.9236022999994,None,right,1,1.8766714000012144,442.4244457999994,443.9595783999994,442.4244457999994,443.45885310000085,442.4244457999994,443.45885310000085,442.4244457999994,443.45885310000085,442.4244457999994,443.45885310000085,442.4244457999994,443.45885310000085,443.4255097000005,443.92621990000043,443.4255097000005,443.92621990000043,443.4255097000005,443.92621990000043,443.4255097000005,443.92621990000043,443.4255097000005,443.92621990000043,443.4255097000005,443.92621990000043,443.4255097000005,443.92621990000043,443.4255097000005,443.92621990000043,442.4244457999994,None,443.92621990000043,445.4122631000009,1.0200000000000007,445.42847230000007,None,446.17962389999957,None,,,,,,,[[1.48]],2.730000000000002,0.6707317073170732,11038,002,2024_Mar_12_1335,MFTM_A_new1021,2021.2.3,60.29577489422689,
,,,,,,,,stim/Instruction_adaptive.png,conditions/adaptive.xlsx,test,0.6,0.6,0.6,-0.6,-0.6,right,R,,,,,0,1,1,1,0,82,82,40,,,,,,,,,,,,,,,,,,,,,,,,,,,,,,,,,,,,,,,,,,,,446.6803581000004,None,right,1,1.894368699999177,447.1817957000003,448.6836323999996,447.1817957000003,448.1827083999997,447.1817957000003,448.1827083999997,447.1817957000003,448.1827083999997,447.1817957000003,448.1827083999997,447.1817957000003,448.1827083999997,448.1492808999992,448.64992209999946,448.1492808999992,448.64992209999946,448.1492808999992,448.64992209999946,448.1492808999992,448.64992209999946,448.1492808999992,448.64992209999946,448.1492808999992,448.64992209999946,448.1492808999992,448.64992209999946,448.1492808999992,448.64992209999946,447.1817957000003,None,448.64992209999946,450.1691979999996,0.9900000000000007,450.18570609999915,None,450.9368396000009,None,,,,,,,[[1.51]],2.7700000000000022,0.6746987951807228,11038,002,2024_Mar_12_1335,MFTM_A_new1021,2021.2.3,60.29577489422689,
,,,,,,,,stim/Instruction_adaptive.png,conditions/adaptive.xlsx,test,-0.6,-0.6,-0.6,0.6,0.6,left,L,,,,,0,1,1,1,0,83,83,73,,,,,,,,,,,,,,,,,,,,,,,,,,,,,,,,,,,,,,,,,,,,451.4374552999998,None,left,1,1.369937100000243,451.93826850000005,453.4071358000001,451.93826850000005,452.9066755999993,451.93826850000005,452.9066755999993,451.93826850000005,452.9066755999993,451.93826850000005,452.9066755999993,451.93826850000005,452.9066755999993,452.8897285000003,453.3911239000008,452.8897285000003,453.3911239000008,452.8897285000003,453.3911239000008,452.8897285000003,453.3911239000008,452.8897285000003,453.3911239000008,452.8897285000003,453.3911239000008,452.8897285000003,453.3911239000008,452.8897285000003,453.3911239000008,451.93826850000005,None,453.3911239000008,None,0.9600000000000006,454.94275369999923,None,455.69401429999925,None,,,,,,,[[1.54]],2.8100000000000023,0.6785714285714286,11038,002,2024_Mar_12_1335,MFTM_A_new1021,2021.2.3,60.29577489422689,
,,,,,,,,stim/Instruction_adaptive.png,conditions/adaptive.xlsx,test,0.6,0.6,0.6,-0.6,-0.6,right,R,,,,,0,1,1,1,0,84,84,50,,,,,,,,,,,,,,,,,,,,,,,,,,,,,,,,,,,,,,,,,,,,456.1949896999995,None,right,1,1.0451047000005929,456.6953967999998,458.1475250000003,456.6953967999998,457.6468987999997,456.6953967999998,457.6468987999997,456.6953967999998,457.6468987999997,456.6953967999998,457.6468987999997,456.6953967999998,457.6468987999997,457.6134258000002,458.11408760000086,457.6134258000002,458.11408760000086,457.6134258000002,458.11408760000086,457.6134258000002,458.11408760000086,457.6134258000002,458.11408760000086,457.6134258000002,458.11408760000086,457.6134258000002,458.11408760000086,457.6134258000002,458.11408760000086,456.6953967999998,None,458.11408760000086,459.6832059999997,0.9400000000000006,459.6999477999998,None,460.4510931999994,None,,,,,,,[[1.56]],2.8500000000000023,0.6823529411764706,11038,002,2024_Mar_12_1335,MFTM_A_new1021,2021.2.3,60.29577489422689,
,,,,,,,,stim/Instruction_adaptive.png,conditions/adaptive.xlsx,test,0.6,0.6,0.6,-0.6,-0.6,right,R,,,,,0,1,1,1,0,85,85,98,,,,,,,,,,,,,,,,,,,,,,,,,,,,,,,,,,,,,,,,,,,,460.95209350000005,None,right,1,1.6471882999994705,461.4532600000002,462.87147340000047,461.4532600000002,462.3706722000006,461.4532600000002,462.3706722000006,461.4532600000002,462.3706722000006,461.4532600000002,462.3706722000006,461.4532600000002,462.3706722000006,462.33718579999913,462.83804079999936,462.33718579999913,462.83804079999936,462.33718579999913,462.83804079999936,462.33718579999913,462.83804079999936,462.33718579999913,462.83804079999936,462.33718579999913,462.83804079999936,462.33718579999913,462.83804079999936,462.33718579999913,462.83804079999936,461.4532600000002,None,462.83804079999936,464.44030960000055,0.9100000000000006,464.45711239999946,None,465.2085341000002,None,,,,,,,[[1.59]],2.880000000000002,0.686046511627907,11038,002,2024_Mar_12_1335,MFTM_A_new1021,2021.2.3,60.29577489422689,
,,,,,,,,stim/Instruction_adaptive.png,conditions/adaptive.xlsx,test,0.6,0.6,0.6,-0.6,-0.6,right,R,,,,,0,1,1,1,0,86,86,58,,,,,,,,,,,,,,,,,,,,,,,,,,,,,,,,,,,,,,,,,,,,465.70948879999924,None,right,1,2.0035728000002564,466.20960379999997,467.6124731,466.20960379999997,467.11116220000076,466.20960379999997,467.11116220000076,466.20960379999997,467.11116220000076,466.20960379999997,467.11116220000076,466.20960379999997,467.11116220000076,467.0779488999997,467.5789839000008,467.0779488999997,467.5789839000008,467.0779488999997,467.5789839000008,467.0779488999997,467.5789839000008,467.0779488999997,467.5789839000008,467.0779488999997,467.5789839000008,467.0779488999997,467.5789839000008,467.0779488999997,467.5789839000008,466.20960379999997,None,467.5789839000008,469.1978799999997,0.8900000000000006,469.21424579999984,None,469.9653994,None,,,,,,,[[1.61]],2.920000000000002,0.6896551724137931,11038,002,2024_Mar_12_1335,MFTM_A_new1021,2021.2.3,60.29577489422689,
,,,,,,,,stim/Instruction_adaptive.png,conditions/adaptive.xlsx,test,-0.6,-0.6,-0.6,0.6,0.6,left,L,,,,,0,1,1,1,0,87,87,37,,,,,,,,,,,,,,,,,,,,,,,,,,,,,,,,,,,,,,,,,,,,470.4669345000002,None,left,1,1.718820100000812,470.9669460999994,472.3528590999995,470.9669460999994,471.8517802000006,470.9669460999994,471.8517802000006,470.9669460999994,471.8517802000006,470.9669460999994,471.8517802000006,470.9669460999994,471.8517802000006,471.81835820000015,472.3188678000006,471.81835820000015,472.3188678000006,471.81835820000015,472.3188678000006,471.81835820000015,472.3188678000006,471.81835820000015,472.3188678000006,471.81835820000015,472.3188678000006,471.81835820000015,472.3188678000006,471.81835820000015,472.3188678000006,470.9669460999994,None,472.3188678000006,473.9554645999997,0.8700000000000006,473.9889719999992,None,474.7396031999997,None,,,,,,,[[1.63]],2.950000000000002,0.6931818181818182,11038,002,2024_Mar_12_1335,MFTM_A_new1021,2021.2.3,60.29577489422689,
,,,,,,,,stim/Instruction_adaptive.png,conditions/adaptive.xlsx,test,0.6,0.6,0.6,-0.6,-0.6,right,R,,,,,0,1,1,1,0,88,88,22,,,,,,,,,,,,,,,,,,,,,,,,,,,,,,,,,,,,,,,,,,,,475.2408011999996,None,right,1,1.1361809000009089,475.74065469999914,477.09280919999946,475.74065469999914,476.5922805000009,475.74065469999914,476.5922805000009,475.74065469999914,476.5922805000009,475.74065469999914,476.5922805000009,475.74065469999914,476.5922805000009,476.5754782999993,477.0768652000006,476.5754782999993,477.0768652000006,476.5754782999993,477.0768652000006,476.5754782999993,477.0768652000006,476.5754782999993,477.0768652000006,476.5754782999993,477.0768652000006,476.5754782999993,477.0768652000006,476.5754782999993,477.0768652000006,475.74065469999914,None,477.0768652000006,478.72860969999965,0.8500000000000005,478.7462123000005,None,479.49641580000025,None,,,,,,,[[1.65]],2.980000000000002,0.6966292134831461,11038,002,2024_Mar_12_1335,MFTM_A_new1021,2021.2.3,60.29577489422689,
,,,,,,,,stim/Instruction_adaptive.png,conditions/adaptive.xlsx,test,-0.6,-0.6,-0.6,0.6,0.6,left,L,,,,,0,1,1,1,0,89,89,75,,,,,,,,,,,,,,,,,,,,,,,,,,,,,,,,,,,,,,,,,,,,479.9971366000009,None,left,1,1.1312985999993543,480.49784589999945,481.83316919999925,480.49784589999945,481.3326563999999,480.49784589999945,481.3326563999999,480.49784589999945,481.3326563999999,480.49784589999945,481.3326563999999,480.49784589999945,481.3326563999999,481.31592140000066,481.8164715999992,481.31592140000066,481.8164715999992,481.31592140000066,481.8164715999992,481.31592140000066,481.8164715999992,481.31592140000066,481.8164715999992,481.31592140000066,481.8164715999992,481.31592140000066,481.8164715999992,481.31592140000066,481.8164715999992,480.49784589999945,None,481.8164715999992,None,0.8300000000000005,483.5022965999997,None,484.2537245000003,None,,,,,,,[[1.67]],3.0100000000000025,0.7,11038,002,2024_Mar_12_1335,MFTM_A_new1021,2021.2.3,60.29577489422689,
,,,,,,,,stim/Instruction_adaptive.png,conditions/adaptive.xlsx,test,-0.6,-0.6,-0.6,0.6,0.6,left,L,,,,,0,1,1,1,0,90,90,89,,,,,,,,,,,,,,,,,,,,,,,,,,,,,,,,,,,,,,,,,,,,484.75425840000025,None,left,1,1.1502984999988257,485.254954,486.5903698000002,485.254954,486.0900466000003,485.254954,486.0900466000003,485.254954,486.0900466000003,485.254954,486.0900466000003,485.254954,486.0900466000003,486.0563079000003,486.5570110999997,486.0563079000003,486.5570110999997,486.0563079000003,486.5570110999997,486.0563079000003,486.5570110999997,486.0563079000003,486.5570110999997,486.0563079000003,486.5570110999997,486.0563079000003,486.5570110999997,486.0563079000003,486.5570110999997,485.254954,None,486.5570110999997,488.2429013000001,0.8200000000000005,488.260037,None,489.0110588000007,None,,,,,,,[[1.68]],3.0400000000000023,0.7032967032967034,11038,002,2024_Mar_12_1335,MFTM_A_new1021,2021.2.3,60.29577489422689,
,,,,,,,,stim/Instruction_adaptive.png,conditions/adaptive.xlsx,test,-0.6,-0.6,-0.6,0.6,0.6,left,L,,,,,0,1,1,1,0,91,91,93,,,,,,,,,,,,,,,,,,,,,,,,,,,,,,,,,,,,,,,,,,,,489.5120501000001,None,right,0,1.6248543999990943,490.0124632999996,491.3141405000006,490.0124632999996,490.8135077000006,490.0124632999996,490.8135077000006,490.0124632999996,490.8135077000006,490.0124632999996,490.8135077000006,490.0124632999996,490.8135077000006,490.7969319999993,491.2981854000009,490.7969319999993,491.2981854000009,490.7969319999993,491.2981854000009,490.7969319999993,491.2981854000009,490.7969319999993,491.2981854000009,490.7969319999993,491.2981854000009,490.7969319999993,491.2981854000009,490.7969319999993,491.2981854000009,490.0124632999996,None,491.2981854000009,493.00056349999977,0.8000000000000005,493.0166437000007,None,493.7681893000008,None,,,,,,,[[1.7]],2.950000000000002,0.6956521739130435,11038,002,2024_Mar_12_1335,MFTM_A_new1021,2021.2.3,60.29577489422689,
,,,,,,,,stim/Instruction_adaptive.png,conditions/adaptive.xlsx,test,0.6,0.6,0.6,-0.6,-0.6,right,R,,,,,0,1,1,1,0,92,92,72,,,,,,,,,,,,,,,,,,,,,,,,,,,,,,,,,,,,,,,,,,,,494.2691670000004,None,right,1,1.1402556000011828,494.7695485000004,496.1215338000002,494.7695485000004,495.6206693000004,494.7695485000004,495.6206693000004,494.7695485000004,495.6206693000004,494.7695485000004,495.6206693000004,494.7695485000004,495.6206693000004,495.60403190000034,496.1046428999998,495.60403190000034,496.1046428999998,495.60403190000034,496.1046428999998,495.60403190000034,496.1046428999998,495.60403190000034,496.1046428999998,495.60403190000034,496.1046428999998,495.60403190000034,496.1046428999998,495.60403190000034,496.1046428999998,494.7695485000004,None,496.1046428999998,497.7585077999993,0.8500000000000005,497.77372529999957,None,498.52494429999933,None,,,,,,,[[1.65]],2.980000000000002,0.6989247311827957,11038,002,2024_Mar_12_1335,MFTM_A_new1021,2021.2.3,60.29577489422689,
,,,,,,,,stim/Instruction_adaptive.png,conditions/adaptive.xlsx,test,-0.6,-0.6,-0.6,0.6,0.6,left,L,,,,,0,1,1,1,0,93,93,61,,,,,,,,,,,,,,,,,,,,,,,,,,,,,,,,,,,,,,,,,,,,499.02649439999914,None,left,1,1.0631865999985166,499.52665139999954,500.86240240000006,499.52665139999954,500.3612269999994,499.52665139999954,500.3612269999994,499.52665139999954,500.3612269999994,499.52665139999954,500.3612269999994,499.52665139999954,500.3612269999994,500.3444983999998,500.8459686999995,500.3444983999998,500.8459686999995,500.3444983999998,500.8459686999995,500.3444983999998,500.8459686999995,500.3444983999998,500.8459686999995,500.3444983999998,500.8459686999995,500.3444983999998,500.8459686999995,500.3444983999998,500.8459686999995,499.52665139999954,None,500.8459686999995,None,0.8300000000000005,502.5310522,None,503.2824959999998,None,,,,,,,[[1.67]],3.0100000000000025,0.7021276595744681,11038,002,2024_Mar_12_1335,MFTM_A_new1021,2021.2.3,60.29577489422689,
