arrwidth1,arrwidth2,arrwidth3,arrwidth4,arrwidth5,keyb,type,orientation,instruction_image,block_filename,block_type,arrow11,arrow22,arrow33,arrow44,arrow55,keyb_3,orientation3,trials.thisRepN,trials.thisTrialN,trials.thisN,trials.thisIndex,trials_3.thisRepN,trials_3.thisTrialN,trials_3.thisN,trials_3.thisIndex,trials_2.thisRepN,trials_2.thisTrialN,trials_2.thisN,trials_2.thisIndex,welcome.started,welcome.stopped,key_resp.keys,key_resp.rt,key_resp.started,key_resp.stopped,instruction_example.started,instruction_example.stopped,key_resp_3.keys,key_resp_3.rt,key_resp_3.started,key_resp_3.stopped,instruction_task.started,instruction_task.stopped,key_resp_2.keys,key_resp_2.rt,key_resp_2.started,key_resp_2.stopped,text_2.started,text_2.stopped,A1.started,A1.stopped,A2.started,A2.stopped,A3.started,A3.stopped,A4.started,A4.stopped,A5.started,A5.stopped,key_resp_4.keys,key_resp_4.corr,key_resp_4.rt,key_resp_4.started,key_resp_4.stopped,fb.started,fb.stopped,instruction_block.started,instruction_block.stopped,key_resp_8.keys,key_resp_8.rt,key_resp_8.started,key_resp_8.stopped,text_8.started,text_8.stopped,key_resp_9.keys,key_resp_9.corr,key_resp_9.rt,text_5.started,text_5.stopped,A11_3.started,A11_3.stopped,A22_2.started,A22_2.stopped,A33_2.started,A33_2.stopped,A44_2.started,A44_2.stopped,A55_2.started,A55_2.stopped,M1_3.started,M1_3.stopped,M2_2.started,M2_2.stopped,M3_2.started,M3_2.stopped,M4_2.started,M4_2.stopped,M5_2.started,M5_2.stopped,M6_2.started,M6_2.stopped,M7_2.started,M7_2.stopped,M8_2.started,M8_2.stopped,key_resp_9.started,key_resp_9.stopped,fixation.started,fixation.stopped,ET,fb_3.started,fb_3.stopped,text_9.started,text_9.stopped,fb_4.started,fb_4.stopped,text_7.started,text_7.stopped,endtext.started,endtext.stopped,fixation_ITI,CCC,Acc,participant,session,date,expName,psychopyVersion,frameRate,
,,,,,,,,,,,,,,,,,,,,,,,,,,,,,,10.212647899985313,None,up,9.008999200013932,10.212647899985313,None,,,,,,,,,,,,,,,,,,,,,,,,,,,,,,,,,,,,,,,,,,,,,,,,,,,,,,,,,,,,,,,,,,,,,,,,,,,,,,,,,,,,,,,,,11034,001,2024_Jan_16_1026,MFTM_A_new1021,2021.2.3,60.32964115851272,
,,,,,,,,,,,,,,,,,,,,,,,,,,,,,,,,,,,,19.243448499997612,None,up,19.082380299980287,19.243448499997612,None,,,,,,,,,,,,,,,,,,,,,,,,,,,,,,,,,,,,,,,,,,,,,,,,,,,,,,,,,,,,,,,,,,,,,,,,,,,,,,,,,,,11034,001,2024_Jan_16_1026,MFTM_A_new1021,2021.2.3,60.32964115851272,
,,,,,,,,,,,,,,,,,,,,,,,,,,,,,,,,,,,,,,,,,,38.3551781999995,None,up,8.47501110000303,38.3551781999995,None,,,,,,,,,,,,,,,,,,,,,,,,,,,,,,,,,,,,,,,,,,,,,,,,,,,,,,,,,,,,,,,,,,,,,,,,,,,,,11034,001,2024_Jan_16_1026,MFTM_A_new1021,2021.2.3,60.32964115851272,
0.6,0.6,0.6,-0.6,-0.6,right,3:2,R,,,,,,,,,,,0,0,0,0,,,,,,,,,,,,,,,,,,,,,,,,,,,46.86815870000282,None,46.86815870000282,None,46.86815870000282,None,46.86815870000282,None,46.86815870000282,None,46.86815870000282,None,right,1,1.2980524000013247,46.86815870000282,None,48.2035135999904,None,,,,,,,,,,,,,,,,,,,,,,,,,,,,,,,,,,,,,,,,,,,,,,,,,,,,,,,,,,11034,001,2024_Jan_16_1026,MFTM_A_new1021,2021.2.3,60.32964115851272,
-0.6,-0.6,-0.6,0.6,0.6,left,3:2,L,,,,,,,,,,,0,1,1,1,,,,,,,,,,,,,,,,,,,,,,,,,,,48.95507679998991,None,48.95507679998991,None,48.95507679998991,None,48.95507679998991,None,48.95507679998991,None,48.95507679998991,None,left,1,2.9391678999818396,48.95507679998991,None,51.92592650000006,None,,,,,,,,,,,,,,,,,,,,,,,,,,,,,,,,,,,,,,,,,,,,,,,,,,,,,,,,,,11034,001,2024_Jan_16_1026,MFTM_A_new1021,2021.2.3,60.32964115851272,
0.6,0.6,0.6,-0.6,-0.6,right,3:2,R,,,,,,,,,,,1,0,2,0,,,,,,,,,,,,,,,,,,,,,,,,,,,52.67754609999247,None,52.67754609999247,None,52.67754609999247,None,52.67754609999247,None,52.67754609999247,None,52.67754609999247,None,right,1,2.049431099992944,52.67754609999247,None,54.7465653999825,None,,,,,,,,,,,,,,,,,,,,,,,,,,,,,,,,,,,,,,,,,,,,,,,,,,,,,,,,,,11034,001,2024_Jan_16_1026,MFTM_A_new1021,2021.2.3,60.32964115851272,
-0.6,-0.6,-0.6,0.6,0.6,left,3:2,L,,,,,,,,,,,1,1,3,1,,,,,,,,,,,,,,,,,,,,,,,,,,,55.49868190000416,None,55.49868190000416,None,55.49868190000416,None,55.49868190000416,None,55.49868190000416,None,55.49868190000416,None,left,1,1.2119826000125613,55.49868190000416,None,56.73287839998375,None,,,,,,,,,,,,,,,,,,,,,,,,,,,,,,,,,,,,,,,,,,,,,,,,,,,,,,,,,,11034,001,2024_Jan_16_1026,MFTM_A_new1021,2021.2.3,60.32964115851272,
,,,,,,,,stim/Instruction_mask.png,conditions/adaptive.xlsx,practice,-0.6,-0.6,-0.6,0.6,0.6,left,L,,,,,0,0,0,0,0,0,0,79,,,,,,,,,,,,,,,,,,,,,,,,,,,,,,,,,,,,,,57.7176441999909,None,up,33.033886299992446,57.7176441999909,None,90.85237189999316,None,left,1,0.6821248999913223,91.2850661999837,None,91.2850661999837,94.28975759999594,91.2850661999837,94.28975759999594,91.2850661999837,94.28975759999594,91.2850661999837,94.28975759999594,91.2850661999837,94.28975759999594,94.27305849999539,94.77391029999126,94.27305849999539,94.77391029999126,94.27305849999539,94.77391029999126,94.27305849999539,94.77391029999126,94.27305849999539,94.77391029999126,94.27305849999539,94.77391029999126,94.27305849999539,94.77391029999126,94.27305849999539,94.77391029999126,91.2850661999837,None,94.77391029999126,94.77391029999126,3,94.79040309999255,None,95.54162069997983,None,,,,,,,,,,11034,001,2024_Jan_16_1026,MFTM_A_new1021,2021.2.3,60.32964115851272,
,,,,,,,,stim/Instruction_mask.png,conditions/adaptive.xlsx,practice,-0.6,-0.6,-0.6,0.6,0.6,left,L,,,,,0,0,0,0,0,1,1,33,,,,,,,,,,,,,,,,,,,,,,,,,,,,,,,,,,,,,,,,,,,,96.04247909999685,None,left,1,1.8244537999853492,96.54313649999676,98.54693469998892,96.54313649999676,98.04543509997893,96.54313649999676,98.04543509997893,96.54313649999676,98.04543509997893,96.54313649999676,98.04543509997893,96.54313649999676,98.04543509997893,98.0286409999826,98.5294973999844,98.0286409999826,98.5294973999844,98.0286409999826,98.5294973999844,98.0286409999826,98.5294973999844,98.0286409999826,98.5294973999844,98.0286409999826,98.5294973999844,98.0286409999826,98.5294973999844,98.0286409999826,98.5294973999844,96.54313649999676,None,98.5294973999844,100.03183669998543,1.5,100.04844799998682,None,100.79938599999878,None,,,,,,,,,,11034,001,2024_Jan_16_1026,MFTM_A_new1021,2021.2.3,60.32964115851272,
,,,,,,,,stim/Instruction_mask.png,conditions/adaptive.xlsx,practice,-0.6,-0.6,-0.6,0.6,0.6,left,L,,,,,0,0,0,0,0,2,2,75,,,,,,,,,,,,,,,,,,,,,,,,,,,,,,,,,,,,,,,,,,,,101.30105259999982,None,left,1,1.2457465000043157,101.80197569998563,103.10276729997713,101.80197569998563,102.60207319998881,101.80197569998563,102.60207319998881,101.80197569998563,102.60207319998881,101.80197569998563,102.60207319998881,101.80197569998563,102.60207319998881,102.58738979999907,103.10276729997713,102.58738979999907,103.10276729997713,102.58738979999907,103.10276729997713,102.58738979999907,103.10276729997713,102.58738979999907,103.10276729997713,102.58738979999907,103.10276729997713,102.58738979999907,103.10276729997713,102.58738979999907,103.10276729997713,101.80197569998563,None,103.08631079999031,105.289655999979,0.8,105.3060778999934,None,106.05742519997875,None,,,,,,,,,,11034,001,2024_Jan_16_1026,MFTM_A_new1021,2021.2.3,60.32964115851272,
,,,,,,,,stim/Instruction_mask.png,conditions/adaptive.xlsx,practice,0.6,0.6,0.6,-0.6,-0.6,right,R,,,,,0,0,0,0,0,3,3,24,,,,,,,,,,,,,,,,,,,,,,,,,,,,,,,,,,,,,,,,,,,,106.5583243999863,None,right,1,0.9408607000077609,107.05892680000397,107.80998379999073,107.05892680000397,107.309434099996,107.05892680000397,107.309434099996,107.05892680000397,107.309434099996,107.05892680000397,107.309434099996,107.05892680000397,107.309434099996,107.29272119997768,107.79325719998451,107.29272119997768,107.79325719998451,107.29272119997768,107.79325719998451,107.29272119997768,107.79325719998451,107.29272119997768,107.79325719998451,107.29272119997768,107.79325719998451,107.29272119997768,107.79325719998451,107.29272119997768,107.79325719998451,107.05892680000397,None,107.79325719998451,110.54779589999816,3,110.56459189997986,None,111.31596429998172,None,,,,,,,,,,11034,001,2024_Jan_16_1026,MFTM_A_new1021,2021.2.3,60.32964115851272,
,,,,,,,,stim/Instruction_mask.png,conditions/adaptive.xlsx,practice,,,,,,,,,,,,0,0,0,0,,,,,,,,,,,,,,,,,,,,,,,,,,,,,,,,,,,,,,,,,,,,,,,,,,,,,,,,,,,,,,,,,,,,,,,,,,,,,,,,,,,,,,,,,,111.84979419998126,112.85183559998404,112.8351863999851,112.8351863999851,112.8351863999851,None,,,,11034,001,2024_Jan_16_1026,MFTM_A_new1021,2021.2.3,60.32964115851272,
,,,,,,,,stim/Instruction_adaptive.png,conditions/adaptive.xlsx,test,0.6,0.6,0.6,-0.6,-0.6,right,R,,,,,0,1,1,1,0,0,0,16,,,,,,,,,,,,,,,,,,,,,,,,,,,,,,,,,,,,,,115.97215220000362,None,left,30.429649300000165,115.97215220000362,None,146.434679900005,None,right,1,1.9446155999903567,146.93661559998873,None,146.93661559998873,149.9405809000018,146.93661559998873,149.9405809000018,146.93661559998873,149.9405809000018,146.93661559998873,149.9405809000018,146.93661559998873,149.9405809000018,149.92485229999875,150.42431469997973,149.92485229999875,150.42431469997973,149.92485229999875,150.42431469997973,149.92485229999875,150.42431469997973,149.92485229999875,150.42431469997973,149.92485229999875,150.42431469997973,149.92485229999875,150.42431469997973,149.92485229999875,150.42431469997973,146.93661559998873,None,150.42431469997973,150.42431469997973,3,150.4410592999775,None,151.19219829997746,None,,,,,,,0,6.000000000000005,1.0,11034,001,2024_Jan_16_1026,MFTM_A_new1021,2021.2.3,60.32964115851272,
,,,,,,,,stim/Instruction_adaptive.png,conditions/adaptive.xlsx,test,0.6,0.6,0.6,-0.6,-0.6,right,R,,,,,0,1,1,1,0,1,1,80,,,,,,,,,,,,,,,,,,,,,,,,,,,,,,,,,,,,,,,,,,,,151.6928581999964,None,left,0,0.9828940999868792,152.1941360999772,152.94502909999574,152.1941360999772,152.44448409997858,152.1941360999772,152.44448409997858,152.1941360999772,152.44448409997858,152.1941360999772,152.44448409997858,152.1941360999772,152.44448409997858,152.42756149999332,152.92809869998018,152.42756149999332,152.92809869998018,152.42756149999332,152.92809869998018,152.42756149999332,152.92809869998018,152.42756149999332,152.92809869998018,152.42756149999332,152.92809869998018,152.42756149999332,152.92809869998018,152.42756149999332,152.92809869998018,152.1941360999772,None,152.92809869998018,153.81424139998853,0.25,153.847299999994,None,154.5974556999863,None,,,,,,,[0.875],2.570000000000002,0.5,11034,001,2024_Jan_16_1026,MFTM_A_new1021,2021.2.3,60.32964115851272,
,,,,,,,,stim/Instruction_adaptive.png,conditions/adaptive.xlsx,test,0.6,0.6,0.6,-0.6,-0.6,right,R,,,,,0,1,1,1,0,2,2,48,,,,,,,,,,,,,,,,,,,,,,,,,,,,,,,,,,,,,,,,,,,,155.09809689997928,None,right,1,1.522606899990933,155.5987883999769,157.2182208999875,155.5987883999769,156.71736809998401,155.5987883999769,156.71736809998401,155.5987883999769,156.71736809998401,155.5987883999769,156.71736809998401,155.5987883999769,156.71736809998401,156.68370739999227,157.184635099984,156.68370739999227,157.184635099984,156.68370739999227,157.184635099984,156.68370739999227,157.184635099984,156.68370739999227,157.184635099984,156.68370739999227,157.184635099984,156.68370739999227,157.184635099984,156.68370739999227,157.184635099984,155.5987883999769,None,157.184635099984,158.2362318999949,1.1100000000000008,158.27017279999563,None,159.02087079998455,None,,,,,,,[1.04666667],3.3800000000000026,0.6666666666666666,11034,001,2024_Jan_16_1026,MFTM_A_new1021,2021.2.3,60.32964115851272,
,,,,,,,,stim/Instruction_adaptive.png,conditions/adaptive.xlsx,test,-0.6,-0.6,-0.6,0.6,0.6,left,L,,,,,0,1,1,1,0,3,3,27,,,,,,,,,,,,,,,,,,,,,,,,,,,,,,,,,,,,,,,,,,,,159.521877399995,None,left,1,1.283380799985025,160.02226789999986,161.15904199998477,160.02226789999986,160.6564861999941,160.02226789999986,160.6564861999941,160.02226789999986,160.6564861999941,160.02226789999986,160.6564861999941,160.02226789999986,160.6564861999941,160.64065899999696,161.14069729999756,160.64065899999696,161.14069729999756,160.64065899999696,161.14069729999756,160.64065899999696,161.14069729999756,160.64065899999696,161.14069729999756,160.64065899999696,161.14069729999756,160.64065899999696,161.14069729999756,160.64065899999696,161.14069729999756,160.02226789999986,None,161.14069729999756,162.39372019999428,0.6300000000000003,162.4097124999971,None,163.1610006999981,None,,,,,,,[1.2525],3.940000000000003,0.75,11034,001,2024_Jan_16_1026,MFTM_A_new1021,2021.2.3,60.32964115851272,
,,,,,,,,stim/Instruction_adaptive.png,conditions/adaptive.xlsx,test,-0.6,-0.6,-0.6,0.6,0.6,left,L,,,,,0,1,1,1,0,4,4,35,,,,,,,,,,,,,,,,,,,,,,,,,,,,,,,,,,,,,,,,,,,,163.66084070000215,None,left,1,1.2715919000038411,164.1617574999982,165.09672780000255,164.1617574999982,164.59587039999315,164.1617574999982,164.59587039999315,164.1617574999982,164.59587039999315,164.1617574999982,164.59587039999315,164.1617574999982,164.59587039999315,164.57896859999164,165.08003789998475,164.57896859999164,165.08003789998475,164.57896859999164,165.08003789998475,164.57896859999164,165.08003789998475,164.57896859999164,165.08003789998475,164.57896859999164,165.08003789998475,164.57896859999164,165.08003789998475,164.57896859999164,165.08003789998475,164.1617574999982,None,165.08003789998475,166.49862929998199,0.43000000000000016,166.5162991999823,None,167.26877149997745,None,,,,,,,[1.416],4.370000000000004,0.8,11034,001,2024_Jan_16_1026,MFTM_A_new1021,2021.2.3,60.32964115851272,
,,,,,,,,stim/Instruction_adaptive.png,conditions/adaptive.xlsx,test,0.6,0.6,0.6,-0.6,-0.6,right,R,,,,,0,1,1,1,0,5,5,10,,,,,,,,,,,,,,,,,,,,,,,,,,,,,,,,,,,,,,,,,,,,167.7838791999966,None,right,1,0.900956600002246,168.2689296999888,169.10271320000174,168.2689296999888,168.60187260000384,168.2689296999888,168.60187260000384,168.2689296999888,168.60187260000384,168.2689296999888,168.60187260000384,168.2689296999888,168.60187260000384,168.56854039998143,169.06931189997704,168.56854039998143,169.06931189997704,168.56854039998143,169.06931189997704,168.56854039998143,169.06931189997704,168.56854039998143,169.06931189997704,168.56854039998143,169.06931189997704,168.56854039998143,169.06931189997704,168.56854039998143,169.06931189997704,168.2689296999888,None,169.06931189997704,170.6217376999848,0.32000000000000006,170.63931769999908,None,171.38958349998575,None,,,,,,,[1.54333333],4.7100000000000035,0.8333333333333334,11034,001,2024_Jan_16_1026,MFTM_A_new1021,2021.2.3,60.32964115851272,
,,,,,,,,stim/Instruction_adaptive.png,conditions/adaptive.xlsx,test,-0.6,-0.6,-0.6,0.6,0.6,left,L,,,,,0,1,1,1,0,6,6,97,,,,,,,,,,,,,,,,,,,,,,,,,,,,,,,,,,,,,,,,,,,,171.89017139998032,None,left,1,0.8750414999958593,172.3909431999782,173.14266519999364,172.3909431999782,172.64119880000362,172.3909431999782,172.64119880000362,172.3909431999782,172.64119880000362,172.3909431999782,172.64119880000362,172.3909431999782,172.64119880000362,172.62469189998228,173.12574789999053,172.62469189998228,173.12574789999053,172.62469189998228,173.12574789999053,172.62469189998228,173.12574789999053,172.62469189998228,173.12574789999053,172.62469189998228,173.12574789999053,172.62469189998228,173.12574789999053,172.62469189998228,173.12574789999053,172.3909431999782,None,173.12574789999053,174.77877049997915,0.25,174.79516629999853,None,175.54577629998676,None,,,,,,,[1.64428571],4.980000000000004,0.8571428571428571,11034,001,2024_Jan_16_1026,MFTM_A_new1021,2021.2.3,60.32964115851272,
,,,,,,,,stim/Instruction_adaptive.png,conditions/adaptive.xlsx,test,-0.6,-0.6,-0.6,0.6,0.6,left,L,,,,,0,1,1,1,0,7,7,75,,,,,,,,,,,,,,,,,,,,,,,,,,,,,,,,,,,,,,,,,,,,176.04643679998117,None,right,0,0.8866783000121359,176.54724019998685,177.29832649999298,176.54724019998685,176.7981525999785,176.54724019998685,176.7981525999785,176.54724019998685,176.7981525999785,176.54724019998685,176.7981525999785,176.54724019998685,176.7981525999785,176.78094480000436,177.2817384999944,176.78094480000436,177.2817384999944,176.78094480000436,177.2817384999944,176.78094480000436,177.2817384999944,176.78094480000436,177.2817384999944,176.78094480000436,177.2817384999944,176.78094480000436,177.2817384999944,176.78094480000436,177.2817384999944,176.54724019998685,None,177.2817384999944,179.001317199989,0.25,179.01748179999413,None,179.76903569998103,None,,,,,,,[1.72],4.270000000000003,0.75,11034,001,2024_Jan_16_1026,MFTM_A_new1021,2021.2.3,60.32964115851272,
,,,,,,,,stim/Instruction_adaptive.png,conditions/adaptive.xlsx,test,0.6,0.6,0.6,-0.6,-0.6,right,R,,,,,0,1,1,1,0,8,8,88,,,,,,,,,,,,,,,,,,,,,,,,,,,,,,,,,,,,,,,,,,,,180.26948249997804,None,right,1,1.096368500002427,180.77022919998853,181.6222002999857,180.77022919998853,181.1210600999766,180.77022919998853,181.1210600999766,180.77022919998853,181.1210600999766,180.77022919998853,181.1210600999766,180.77022919998853,181.1210600999766,181.08754149999004,181.5885891999933,181.08754149999004,181.5885891999933,181.08754149999004,181.5885891999933,181.08754149999004,181.5885891999933,181.08754149999004,181.5885891999933,181.08754149999004,181.5885891999933,181.08754149999004,181.5885891999933,181.08754149999004,181.5885891999933,180.77022919998853,None,181.5885891999933,183.35749100000248,0.3400000000000001,183.390960299992,None,184.143052600004,None,,,,,,,[1.76888889],4.510000000000003,0.7777777777777778,11034,001,2024_Jan_16_1026,MFTM_A_new1021,2021.2.3,60.32964115851272,
,,,,,,,,stim/Instruction_adaptive.png,conditions/adaptive.xlsx,test,0.6,0.6,0.6,-0.6,-0.6,right,R,,,,,0,1,1,1,0,9,9,14,,,,,,,,,,,,,,,,,,,,,,,,,,,,,,,,,,,,,,,,,,,,184.64331459999084,None,right,1,0.9067935000057332,185.14354199997615,185.94441569998162,185.14354199997615,185.4446118999913,185.14354199997615,185.4446118999913,185.14354199997615,185.4446118999913,185.14354199997615,185.4446118999913,185.14354199997615,185.4446118999913,185.41072139999596,185.91125209999154,185.41072139999596,185.91125209999154,185.41072139999596,185.91125209999154,185.41072139999596,185.91125209999154,185.41072139999596,185.91125209999154,185.41072139999596,185.91125209999154,185.41072139999596,185.91125209999154,185.41072139999596,185.91125209999154,185.14354199997615,None,185.91125209999154,187.73077239998383,0.29000000000000004,187.74758159997873,None,188.49905289997696,None,,,,,,,[1.813],4.7100000000000035,0.8,11034,001,2024_Jan_16_1026,MFTM_A_new1021,2021.2.3,60.32964115851272,
,,,,,,,,stim/Instruction_adaptive.png,conditions/adaptive.xlsx,test,0.6,0.6,0.6,-0.6,-0.6,right,R,,,,,0,1,1,1,0,10,10,38,,,,,,,,,,,,,,,,,,,,,,,,,,,,,,,,,,,,,,,,,,,,188.99937549998867,None,left,0,0.8864297000109218,189.50014729998657,190.25117869998212,189.50014729998657,189.75062360000447,189.50014729998657,189.75062360000447,189.50014729998657,189.75062360000447,189.50014729998657,189.75062360000447,189.50014729998657,189.75062360000447,189.7337340999802,190.23429319998831,189.7337340999802,190.23429319998831,189.7337340999802,190.23429319998831,189.7337340999802,190.23429319998831,189.7337340999802,190.23429319998831,189.7337340999802,190.23429319998831,189.7337340999802,190.23429319998831,189.7337340999802,190.23429319998831,189.50014729998657,None,190.23429319998831,192.08728279999923,0.25,192.10408729998744,None,192.85501679999288,None,,,,,,,[1.85272727],4.230000000000003,0.7272727272727273,11034,001,2024_Jan_16_1026,MFTM_A_new1021,2021.2.3,60.32964115851272,
,,,,,,,,stim/Instruction_adaptive.png,conditions/adaptive.xlsx,test,0.6,0.6,0.6,-0.6,-0.6,right,R,,,,,0,1,1,1,0,11,11,60,,,,,,,,,,,,,,,,,,,,,,,,,,,,,,,,,,,,,,,,,,,,193.35635499999626,None,right,1,0.9134805999929085,193.8574026999995,194.70810659998097,193.8574026999995,194.20775989998947,193.8574026999995,194.20775989998947,193.8574026999995,194.20775989998947,193.8574026999995,194.20775989998947,193.8574026999995,194.20775989998947,194.19060770000215,194.6913024999958,194.19060770000215,194.6913024999958,194.19060770000215,194.6913024999958,194.19060770000215,194.6913024999958,194.19060770000215,194.6913024999958,194.19060770000215,194.6913024999958,194.19060770000215,194.6913024999958,194.19060770000215,194.6913024999958,193.8574026999995,None,194.6913024999958,196.5776372999826,0.3500000000000001,196.59407789999386,None,197.3453082999913,None,,,,,,,[1.8775],4.410000000000004,0.75,11034,001,2024_Jan_16_1026,MFTM_A_new1021,2021.2.3,60.32964115851272,
,,,,,,,,stim/Instruction_adaptive.png,conditions/adaptive.xlsx,test,0.6,0.6,0.6,-0.6,-0.6,right,R,,,,,0,1,1,1,0,12,12,58,,,,,,,,,,,,,,,,,,,,,,,,,,,,,,,,,,,,,,,,,,,,197.84597510000458,None,left,0,0.9037716999882832,198.34683629998472,199.16547819998232,198.34683629998472,198.66546190000372,198.34683629998472,198.66546190000372,198.34683629998472,198.66546190000372,198.34683629998472,198.66546190000372,198.34683629998472,198.66546190000372,198.6474312999926,199.1482352000021,198.6474312999926,199.1482352000021,198.6474312999926,199.1482352000021,198.6474312999926,199.1482352000021,198.6474312999926,199.1482352000021,198.6474312999926,199.1482352000021,198.6474312999926,199.1482352000021,198.6474312999926,199.1482352000021,198.34683629998472,None,199.1482352000021,201.05083029999514,0.31000000000000005,201.06792040000437,None,201.8185378999915,None,,,,,,,[1.90153846],3.950000000000003,0.6923076923076923,11034,001,2024_Jan_16_1026,MFTM_A_new1021,2021.2.3,60.32964115851272,
,,,,,,,,stim/Instruction_adaptive.png,conditions/adaptive.xlsx,test,-0.6,-0.6,-0.6,0.6,0.6,left,L,,,,,0,1,1,1,0,13,13,93,,,,,,,,,,,,,,,,,,,,,,,,,,,,,,,,,,,,,,,,,,,,202.31957829999737,None,left,1,1.0622064999770373,202.82056870000088,203.75494990000152,202.82056870000088,203.25409989999025,202.82056870000088,203.25409989999025,202.82056870000088,203.25409989999025,202.82056870000088,203.25409989999025,202.82056870000088,203.25409989999025,203.23772049997933,203.73906989998068,203.23772049997933,203.73906989998068,203.23772049997933,203.73906989998068,203.23772049997933,203.73906989998068,203.23772049997933,203.73906989998068,203.23772049997933,203.73906989998068,203.23772049997933,203.73906989998068,203.23772049997933,203.73906989998068,202.82056870000088,None,203.73906989998068,205.65795949997846,0.43000000000000016,205.67457979999017,None,206.42603069997858,None,,,,,,,[1.91357143],4.1300000000000034,0.7142857142857143,11034,001,2024_Jan_16_1026,MFTM_A_new1021,2021.2.3,60.32964115851272,
,,,,,,,,stim/Instruction_adaptive.png,conditions/adaptive.xlsx,test,-0.6,-0.6,-0.6,0.6,0.6,left,L,,,,,0,1,1,1,0,14,14,83,,,,,,,,,,,,,,,,,,,,,,,,,,,,,,,,,,,,,,,,,,,,206.92672469999525,None,right,0,0.8316765000054147,207.42742429999635,208.31196229998022,207.42742429999635,207.81111109998892,207.42742429999635,207.81111109998892,207.42742429999635,207.81111109998892,207.42742429999635,207.81111109998892,207.42742429999635,207.81111109998892,207.79461409998476,208.2959797999938,207.79461409998476,208.2959797999938,207.79461409998476,208.2959797999938,207.79461409998476,208.2959797999938,207.79461409998476,208.2959797999938,207.79461409998476,208.2959797999938,207.79461409998476,208.2959797999938,207.79461409998476,208.2959797999938,207.42742429999635,None,208.2959797999938,210.2313499999873,0.3800000000000001,210.2480186999892,None,210.99932199998875,None,,,,,,,[1.92733333],3.6700000000000026,0.6666666666666666,11034,001,2024_Jan_16_1026,MFTM_A_new1021,2021.2.3,60.32964115851272,
,,,,,,,,stim/Instruction_adaptive.png,conditions/adaptive.xlsx,test,-0.6,-0.6,-0.6,0.6,0.6,left,L,,,,,0,1,1,1,0,15,15,53,,,,,,,,,,,,,,,,,,,,,,,,,,,,,,,,,,,,,,,,,,,,211.50060349999694,None,left,1,0.7378987000265624,212.00091189998784,213.0357455999765,212.00091189998784,212.53610669999034,212.00091189998784,212.53610669999034,212.00091189998784,212.53610669999034,212.00091189998784,212.53610669999034,212.00091189998784,212.53610669999034,212.50170480000088,213.0030839999963,212.50170480000088,213.0030839999963,212.50170480000088,213.0030839999963,212.50170480000088,213.0030839999963,212.50170480000088,213.0030839999963,212.50170480000088,213.0030839999963,212.50170480000088,213.0030839999963,212.50170480000088,213.0030839999963,212.00091189998784,None,213.0030839999963,214.93933939997805,0.5200000000000002,214.9555458999821,None,215.7069520999794,None,,,,,,,[1.930625],3.840000000000003,0.6875,11034,001,2024_Jan_16_1026,MFTM_A_new1021,2021.2.3,60.32964115851272,
,,,,,,,,stim/Instruction_adaptive.png,conditions/adaptive.xlsx,test,0.6,0.6,0.6,-0.6,-0.6,right,R,,,,,0,1,1,1,0,16,16,40,,,,,,,,,,,,,,,,,,,,,,,,,,,,,,,,,,,,,,,,,,,,216.20716779999202,None,left,0,0.9190209999796934,216.70796639999026,217.67657339997822,216.70796639999026,217.17546269999002,216.70796639999026,217.17546269999002,216.70796639999026,217.17546269999002,216.70796639999026,217.17546269999002,216.70796639999026,217.17546269999002,217.1589225999778,217.66003219998674,217.1589225999778,217.66003219998674,217.1589225999778,217.66003219998674,217.1589225999778,217.66003219998674,217.1589225999778,217.66003219998674,217.1589225999778,217.66003219998674,217.1589225999778,217.66003219998674,217.1589225999778,217.66003219998674,216.70796639999026,None,217.66003219998674,None,0.4600000000000002,219.61229950000416,None,220.36390060000122,None,,,,,,,[1.93705882],3.3900000000000023,0.6470588235294118,11034,001,2024_Jan_16_1026,MFTM_A_new1021,2021.2.3,60.32964115851272,
,,,,,,,,stim/Instruction_adaptive.png,conditions/adaptive.xlsx,test,0.6,0.6,0.6,-0.6,-0.6,right,R,,,,,0,1,1,1,0,17,17,2,,,,,,,,,,,,,,,,,,,,,,,,,,,,,,,,,,,,,,,,,,,,220.86497480000253,None,right,1,0.8938021000067238,221.3656022999785,222.49969769999734,221.3656022999785,221.9990382999822,221.3656022999785,221.9990382999822,221.3656022999785,221.9990382999822,221.3656022999785,221.9990382999822,221.3656022999785,221.9990382999822,221.98253369997838,222.4832705000008,221.98253369997838,222.4832705000008,221.98253369997838,222.4832705000008,221.98253369997838,222.4832705000008,221.98253369997838,222.4832705000008,221.98253369997838,222.4832705000008,221.98253369997838,222.4832705000008,221.98253369997838,222.4832705000008,221.3656022999785,None,222.4832705000008,224.3541815999779,0.6300000000000003,224.3692877999856,None,225.12112369999522,None,,,,,,,[[1.87]],3.5600000000000027,0.6666666666666666,11034,001,2024_Jan_16_1026,MFTM_A_new1021,2021.2.3,60.32964115851272,
,,,,,,,,stim/Instruction_adaptive.png,conditions/adaptive.xlsx,test,-0.6,-0.6,-0.6,0.6,0.6,left,L,,,,,0,1,1,1,0,18,18,59,,,,,,,,,,,,,,,,,,,,,,,,,,,,,,,,,,,,,,,,,,,,225.62131049999152,None,left,1,0.9691783000016585,226.12245450000046,227.19075069998507,226.12245450000046,226.69012799998745,226.12245450000046,226.69012799998745,226.12245450000046,226.69012799998745,226.12245450000046,226.69012799998745,226.12245450000046,226.69012799998745,226.67317880000337,227.17398199997842,226.67317880000337,227.17398199997842,226.67317880000337,227.17398199997842,226.67317880000337,227.17398199997842,226.67317880000337,227.17398199997842,226.67317880000337,227.17398199997842,226.67317880000337,227.17398199997842,226.67317880000337,227.17398199997842,226.12245450000046,None,227.15686570000253,229.0933645000041,0.5600000000000003,229.1263422999764,None,229.87767379998695,None,,,,,,,[1.93368421],3.7100000000000026,0.6842105263157895,11034,001,2024_Jan_16_1026,MFTM_A_new1021,2021.2.3,60.32964115851272,
,,,,,,,,stim/Instruction_adaptive.png,conditions/adaptive.xlsx,test,-0.6,-0.6,-0.6,0.6,0.6,left,L,,,,,0,1,1,1,0,19,19,1,,,,,,,,,,,,,,,,,,,,,,,,,,,,,,,,,,,,,,,,,,,,230.37918469999568,None,left,1,1.0043115000007674,230.87923520000186,231.88070639999933,230.87923520000186,231.3802924999909,230.87923520000186,231.3802924999909,230.87923520000186,231.3802924999909,230.87923520000186,231.3802924999909,230.87923520000186,231.3802924999909,231.36341429999447,231.86415389998,231.36341429999447,231.86415389998,231.36341429999447,231.86415389998,231.36341429999447,231.86415389998,231.36341429999447,231.86415389998,231.36341429999447,231.86415389998,231.36341429999447,231.86415389998,231.36341429999447,231.86415389998,230.87923520000186,None,231.86415389998,233.80035449998104,0.5000000000000002,233.81711119998363,None,234.56827469999553,None,,,,,,,[1.937],3.840000000000003,0.7,11034,001,2024_Jan_16_1026,MFTM_A_new1021,2021.2.3,60.32964115851272,
,,,,,,,,stim/Instruction_adaptive.png,conditions/adaptive.xlsx,test,0.6,0.6,0.6,-0.6,-0.6,right,R,,,,,0,1,1,1,0,20,20,62,,,,,,,,,,,,,,,,,,,,,,,,,,,,,,,,,,,,,,,,,,,,235.06911240000045,None,right,1,1.1219744999834802,235.56977259999258,236.5376180000021,235.56977259999258,236.03709389999858,235.56977259999258,236.03709389999858,235.56977259999258,236.03709389999858,235.56977259999258,236.03709389999858,235.56977259999258,236.03709389999858,236.02061879998655,236.52146309998352,236.02061879998655,236.52146309998352,236.02061879998655,236.52146309998352,236.02061879998655,236.52146309998352,236.02061879998655,236.52146309998352,236.02061879998655,236.52146309998352,236.02061879998655,236.52146309998352,236.02061879998655,236.52146309998352,235.56977259999258,None,236.50453559999005,238.4573835999763,0.4600000000000002,238.47400899999775,None,239.22505389997968,None,,,,,,,[1.94190476],3.950000000000003,0.7142857142857143,11034,001,2024_Jan_16_1026,MFTM_A_new1021,2021.2.3,60.32964115851272,
,,,,,,,,stim/Instruction_adaptive.png,conditions/adaptive.xlsx,test,-0.6,-0.6,-0.6,0.6,0.6,left,L,,,,,0,1,1,1,0,21,21,5,,,,,,,,,,,,,,,,,,,,,,,,,,,,,,,,,,,,,,,,,,,,239.72663819999434,None,left,1,0.6893141999898944,240.22678119997727,241.16147969997837,240.22678119997727,240.66212120000273,240.22678119997727,240.66212120000273,240.22678119997727,240.66212120000273,240.22678119997727,240.66212120000273,240.22678119997727,240.66212120000273,240.6441275999823,241.14475330000278,240.6441275999823,241.14475330000278,240.6441275999823,241.14475330000278,240.6441275999823,241.14475330000278,240.6441275999823,241.14475330000278,240.6441275999823,241.14475330000278,240.6441275999823,241.14475330000278,240.6441275999823,241.14475330000278,240.22678119997727,None,241.14475330000278,243.0998813000042,0.43000000000000016,243.11437649998697,None,243.86562629998662,None,,,,,,,[1.94772727],4.050000000000003,0.7272727272727273,11034,001,2024_Jan_16_1026,MFTM_A_new1021,2021.2.3,60.32964115851272,
,,,,,,,,stim/Instruction_adaptive.png,conditions/adaptive.xlsx,test,-0.6,-0.6,-0.6,0.6,0.6,left,L,,,,,0,1,1,1,0,22,22,71,,,,,,,,,,,,,,,,,,,,,,,,,,,,,,,,,,,,,,,,,,,,244.36629549998906,None,left,1,0.6410757999983616,244.86676959999022,245.76831919999677,244.86676959999022,245.26813319997746,244.86676959999022,245.26813319997746,244.86676959999022,245.26813319997746,244.86676959999022,245.26813319997746,244.86676959999022,245.26813319997746,245.25106919999234,245.75178449999657,245.25106919999234,245.75178449999657,245.25106919999234,245.75178449999657,245.25106919999234,245.75178449999657,245.25106919999234,245.75178449999657,245.25106919999234,245.75178449999657,245.25106919999234,245.75178449999657,245.25106919999234,245.75178449999657,244.86676959999022,None,245.75178449999657,247.70573249997688,0.40000000000000013,247.72173419999308,None,248.47247819998302,None,,,,,,,[1.95434783],4.140000000000003,0.7391304347826086,11034,001,2024_Jan_16_1026,MFTM_A_new1021,2021.2.3,60.32964115851272,
,,,,,,,,stim/Instruction_adaptive.png,conditions/adaptive.xlsx,test,0.6,0.6,0.6,-0.6,-0.6,right,R,,,,,0,1,1,1,0,23,23,84,,,,,,,,,,,,,,,,,,,,,,,,,,,,,,,,,,,,,,,,,,,,248.97323079998023,None,left,0,0.65023930001189,249.47416250000242,250.35944309999468,249.47416250000242,249.85784759998205,249.47416250000242,249.85784759998205,249.47416250000242,249.85784759998205,249.47416250000242,249.85784759998205,249.47416250000242,249.85784759998205,249.82462459997623,250.32536499999696,249.82462459997623,250.32536499999696,249.82462459997623,250.32536499999696,249.82462459997623,250.32536499999696,249.82462459997623,250.32536499999696,249.82462459997623,250.32536499999696,249.82462459997623,250.32536499999696,249.82462459997623,250.32536499999696,249.47416250000242,None,250.32536499999696,252.29514089997974,0.3700000000000001,252.3115374999761,None,253.062772699981,None,,,,,,,[1.96166667],3.900000000000003,0.7083333333333334,11034,001,2024_Jan_16_1026,MFTM_A_new1021,2021.2.3,60.32964115851272,
,,,,,,,,stim/Instruction_adaptive.png,conditions/adaptive.xlsx,test,-0.6,-0.6,-0.6,0.6,0.6,left,L,,,,,0,1,1,1,0,24,24,55,,,,,,,,,,,,,,,,,,,,,,,,,,,,,,,,,,,,,,,,,,,,253.56341699999757,None,left,1,0.5803218000219204,254.06433510000352,255.01555339997867,254.06433510000352,254.5155104000005,254.06433510000352,254.5155104000005,254.06433510000352,254.5155104000005,254.06433510000352,254.5155104000005,254.06433510000352,254.5155104000005,254.48172660000273,254.98220009999932,254.48172660000273,254.98220009999932,254.48172660000273,254.98220009999932,254.48172660000273,254.98220009999932,254.48172660000273,254.98220009999932,254.48172660000273,254.98220009999932,254.48172660000273,254.98220009999932,254.48172660000273,254.98220009999932,254.06433510000352,None,254.98220009999932,256.952049399988,0.44000000000000017,256.98540589999175,None,257.737009799981,None,,,,,,,[1.9656],3.990000000000003,0.72,11034,001,2024_Jan_16_1026,MFTM_A_new1021,2021.2.3,60.32964115851272,
,,,,,,,,stim/Instruction_adaptive.png,conditions/adaptive.xlsx,test,0.6,0.6,0.6,-0.6,-0.6,right,R,,,,,0,1,1,1,0,25,25,22,,,,,,,,,,,,,,,,,,,,,,,,,,,,,,,,,,,,,,,,,,,,258.2372752999945,None,left,0,0.7547993999905884,258.73794709998765,259.657925699983,258.73794709998765,259.1557035000005,258.73794709998765,259.1557035000005,258.73794709998765,259.1557035000005,258.73794709998765,259.1557035000005,258.73794709998765,259.1557035000005,259.12183769998956,259.62271789999795,259.12183769998956,259.62271789999795,259.12183769998956,259.62271789999795,259.12183769998956,259.62271789999795,259.12183769998956,259.62271789999795,259.12183769998956,259.62271789999795,259.12183769998956,259.62271789999795,259.12183769998956,259.62271789999795,258.73794709998765,None,259.62271789999795,261.5924060999823,0.41000000000000014,261.62559079998755,None,262.3769626999856,None,,,,,,,[1.97038462],3.740000000000003,0.6923076923076923,11034,001,2024_Jan_16_1026,MFTM_A_new1021,2021.2.3,60.32964115851272,
,,,,,,,,stim/Instruction_adaptive.png,conditions/adaptive.xlsx,test,-0.6,-0.6,-0.6,0.6,0.6,left,L,,,,,0,1,1,1,0,26,26,99,,,,,,,,,,,,,,,,,,,,,,,,,,,,,,,,,,,,,,,,,,,,262.87758119998034,None,right,0,0.770061799994437,263.37829709998914,264.3799858999846,263.37829709998914,263.8791731999954,263.37829709998914,263.8791731999954,263.37829709998914,263.8791731999954,263.37829709998914,263.8791731999954,263.37829709998914,263.8791731999954,263.84583809998,264.34638969998923,263.84583809998,264.34638969998923,263.84583809998,264.34638969998923,263.84583809998,264.34638969998923,263.84583809998,264.34638969998923,263.84583809998,264.34638969998923,263.84583809998,264.34638969998923,263.84583809998,264.34638969998923,263.37829709998914,None,264.34638969998923,266.3326775000023,0.4900000000000002,266.34948639999493,None,267.100465800002,None,,,,,,,[1.97185185],3.4600000000000026,0.6666666666666666,11034,001,2024_Jan_16_1026,MFTM_A_new1021,2021.2.3,60.32964115851272,
,,,,,,,,stim/Instruction_adaptive.png,conditions/adaptive.xlsx,test,-0.6,-0.6,-0.6,0.6,0.6,left,L,,,,,0,1,1,1,0,27,27,3,,,,,,,,,,,,,,,,,,,,,,,,,,,,,,,,,,,,,,,,,,,,267.6014266999846,None,left,1,0.7671724999963772,268.10220269998536,269.20375689998036,268.10220269998536,268.70315019998816,268.10220269998536,268.70315019998816,268.10220269998536,268.70315019998816,268.10220269998536,268.70315019998816,268.10220269998536,268.70315019998816,268.6864195999806,269.18697179999435,268.6864195999806,269.18697179999435,268.6864195999806,269.18697179999435,268.6864195999806,269.18697179999435,268.6864195999806,269.18697179999435,268.6864195999806,269.18697179999435,268.6864195999806,269.18697179999435,268.6864195999806,269.18697179999435,268.10220269998536,None,269.18697179999435,271.09088859998155,0.6000000000000003,271.1071121999994,None,271.858516599983,None,,,,,,,[[1.9]],3.5600000000000027,0.6785714285714286,11034,001,2024_Jan_16_1026,MFTM_A_new1021,2021.2.3,60.32964115851272,
,,,,,,,,stim/Instruction_adaptive.png,conditions/adaptive.xlsx,test,0.6,0.6,0.6,-0.6,-0.6,right,R,,,,,0,1,1,1,0,28,28,20,,,,,,,,,,,,,,,,,,,,,,,,,,,,,,,,,,,,,,,,,,,,272.3594174000027,None,right,1,0.7456400999799371,272.8592505999841,273.92763309998554,272.8592505999841,273.4271153000009,272.8592505999841,273.4271153000009,272.8592505999841,273.4271153000009,272.8592505999841,273.4271153000009,272.8592505999841,273.4271153000009,273.39368379997904,273.89410679999855,273.39368379997904,273.89410679999855,273.39368379997904,273.89410679999855,273.39368379997904,273.89410679999855,273.39368379997904,273.89410679999855,273.39368379997904,273.89410679999855,273.39368379997904,273.89410679999855,273.39368379997904,273.89410679999855,272.8592505999841,None,273.89410679999855,275.847113900003,0.5600000000000003,275.86392069997964,None,276.6150762999896,None,,,,,,,[[1.94]],3.660000000000003,0.6896551724137931,11034,001,2024_Jan_16_1026,MFTM_A_new1021,2021.2.3,60.32964115851272,
,,,,,,,,stim/Instruction_adaptive.png,conditions/adaptive.xlsx,test,-0.6,-0.6,-0.6,0.6,0.6,left,L,,,,,0,1,1,1,0,29,29,43,,,,,,,,,,,,,,,,,,,,,,,,,,,,,,,,,,,,,,,,,,,,277.1162674999796,None,right,0,0.8043595000053756,277.6167194999871,278.6511213000049,277.6167194999871,278.15072239999427,277.6167194999871,278.15072239999427,277.6167194999871,278.15072239999427,277.6167194999871,278.15072239999427,277.6167194999871,278.15072239999427,278.1171519999916,278.61806599999545,278.1171519999916,278.61806599999545,278.1171519999916,278.61806599999545,278.1171519999916,278.61806599999545,278.1171519999916,278.61806599999545,278.1171519999916,278.61806599999545,278.1171519999916,278.61806599999545,278.1171519999916,278.61806599999545,277.6167194999871,None,278.61806599999545,280.5891433999932,0.5200000000000002,280.6041016999807,None,281.35554599997704,None,,,,,,,[1.96866667],3.4000000000000026,0.6666666666666666,11034,001,2024_Jan_16_1026,MFTM_A_new1021,2021.2.3,60.32964115851272,
,,,,,,,,stim/Instruction_adaptive.png,conditions/adaptive.xlsx,test,0.6,0.6,0.6,-0.6,-0.6,right,R,,,,,0,1,1,1,0,30,30,8,,,,,,,,,,,,,,,,,,,,,,,,,,,,,,,,,,,,,,,,,,,,281.8559437999793,None,left,0,1.0803507000091486,282.3568580999854,283.49191620000056,282.3568580999854,282.9918753999809,282.3568580999854,282.9918753999809,282.3568580999854,282.9918753999809,282.3568580999854,282.9918753999809,282.3568580999854,282.9918753999809,282.9582071999903,283.45863320000353,282.9582071999903,283.45863320000353,282.9582071999903,283.45863320000353,282.9582071999903,283.45863320000353,282.9582071999903,283.45863320000353,282.9582071999903,283.45863320000353,282.9582071999903,283.45863320000353,282.9582071999903,283.45863320000353,282.3568580999854,None,283.45863320000353,285.34497649999685,0.6200000000000003,285.36149539999315,None,286.1126946999866,None,,,,,,,[[1.88]],3.1000000000000023,0.6451612903225806,11034,001,2024_Jan_16_1026,MFTM_A_new1021,2021.2.3,60.32964115851272,
,,,,,,,,stim/Instruction_adaptive.png,conditions/adaptive.xlsx,test,0.6,0.6,0.6,-0.6,-0.6,right,R,,,,,0,1,1,1,0,31,31,6,,,,,,,,,,,,,,,,,,,,,,,,,,,,,,,,,,,,,,,,,,,,286.61373049998656,None,right,1,1.0832879000226967,287.1141781999904,288.3996394999849,287.1141781999904,287.89866710000206,287.1141781999904,287.89866710000206,287.1141781999904,287.89866710000206,287.1141781999904,287.89866710000206,287.1141781999904,287.89866710000206,287.86524379998446,288.36612039999454,287.86524379998446,288.36612039999454,287.86524379998446,288.36612039999454,287.86524379998446,288.36612039999454,287.86524379998446,288.36612039999454,287.86524379998446,288.36612039999454,287.86524379998446,288.36612039999454,287.86524379998446,288.36612039999454,287.1141781999904,None,288.36612039999454,290.1022307999956,0.7700000000000005,290.11877259999164,None,290.8698635000037,None,,,,,,,[[1.73]],3.2100000000000026,0.65625,11034,001,2024_Jan_16_1026,MFTM_A_new1021,2021.2.3,60.32964115851272,
,,,,,,,,stim/Instruction_adaptive.png,conditions/adaptive.xlsx,test,-0.6,-0.6,-0.6,0.6,0.6,left,L,,,,,0,1,1,1,0,32,32,15,,,,,,,,,,,,,,,,,,,,,,,,,,,,,,,,,,,,,,,,,,,,291.37076299998444,None,right,0,0.9421855000255164,291.8712135999813,293.08998329998576,291.8712135999813,292.58981149998726,291.8712135999813,292.58981149998726,291.8712135999813,292.58981149998726,291.8712135999813,292.58981149998726,291.8712135999813,292.58981149998726,292.57249109999975,293.0732562999765,292.57249109999975,293.0732562999765,292.57249109999975,293.0732562999765,292.57249109999975,293.0732562999765,292.57249109999975,293.0732562999765,292.57249109999975,293.0732562999765,292.57249109999975,293.0732562999765,292.57249109999975,293.0732562999765,291.8712135999813,None,293.0564716999943,294.85919190000277,0.7100000000000004,294.8758683000051,None,295.6269423000049,None,,,,,,,[[1.79]],2.900000000000002,0.6363636363636364,11034,001,2024_Jan_16_1026,MFTM_A_new1021,2021.2.3,60.32964115851272,
,,,,,,,,stim/Instruction_adaptive.png,conditions/adaptive.xlsx,test,-0.6,-0.6,-0.6,0.6,0.6,left,L,,,,,0,1,1,1,0,33,33,89,,,,,,,,,,,,,,,,,,,,,,,,,,,,,,,,,,,,,,,,,,,,296.1282653999806,None,left,1,0.9366427999921143,296.62887590000173,298.01399310000124,296.62887590000173,297.51371339999605,296.62887590000173,297.51371339999605,296.62887590000173,297.51371339999605,296.62887590000173,297.51371339999605,296.62887590000173,297.51371339999605,297.49729259999003,297.998093400005,297.49729259999003,297.998093400005,297.49729259999003,297.998093400005,297.49729259999003,297.998093400005,297.49729259999003,297.998093400005,297.49729259999003,297.998093400005,297.49729259999003,297.998093400005,297.49729259999003,297.998093400005,296.62887590000173,None,297.98076609999407,299.5997537999938,0.8800000000000006,299.63262970000505,None,300.38463089999277,None,,,,,,,[[1.62]],3.0200000000000022,0.6470588235294118,11034,001,2024_Jan_16_1026,MFTM_A_new1021,2021.2.3,60.32964115851272,
,,,,,,,,stim/Instruction_adaptive.png,conditions/adaptive.xlsx,test,0.6,0.6,0.6,-0.6,-0.6,right,R,,,,,0,1,1,1,0,34,34,68,,,,,,,,,,,,,,,,,,,,,,,,,,,,,,,,,,,,,,,,,,,,300.8847775000031,None,right,1,1.307776500005275,301.3856861999957,302.7075334999827,301.3856861999957,302.2035898999893,301.3856861999957,302.2035898999893,301.3856861999957,302.2035898999893,301.3856861999957,302.2035898999893,301.3856861999957,302.2035898999893,302.1870790999965,302.6877041999833,302.1870790999965,302.6877041999833,302.1870790999965,302.6877041999833,302.1870790999965,302.6877041999833,302.1870790999965,302.6877041999833,302.1870790999965,302.6877041999833,302.1870790999965,302.6877041999833,302.1870790999965,302.6877041999833,301.3856861999957,None,302.6877041999833,None,0.8100000000000005,304.3904305000033,None,305.14137899997877,None,,,,,,,[[1.69]],3.1200000000000023,0.6571428571428571,11034,001,2024_Jan_16_1026,MFTM_A_new1021,2021.2.3,60.32964115851272,
,,,,,,,,stim/Instruction_adaptive.png,conditions/adaptive.xlsx,test,-0.6,-0.6,-0.6,0.6,0.6,left,L,,,,,0,1,1,1,0,35,35,21,,,,,,,,,,,,,,,,,,,,,,,,,,,,,,,,,,,,,,,,,,,,305.6421491999936,None,right,0,1.022782099986216,306.1429827999964,307.411454999994,306.1429827999964,306.9116762999911,306.1429827999964,306.9116762999911,306.1429827999964,306.9116762999911,306.1429827999964,306.9116762999911,306.1429827999964,306.9116762999911,306.87739229999715,307.37812189999386,306.87739229999715,307.37812189999386,306.87739229999715,307.37812189999386,306.87739229999715,307.37812189999386,306.87739229999715,307.37812189999386,306.87739229999715,307.37812189999386,306.87739229999715,307.37812189999386,306.87739229999715,307.37812189999386,306.1429827999964,None,307.37812189999386,309.13094879998243,0.7600000000000005,309.147467999981,None,309.8985890999902,None,,,,,,,[[1.74]],2.840000000000002,0.6388888888888888,11034,001,2024_Jan_16_1026,MFTM_A_new1021,2021.2.3,60.32964115851272,
,,,,,,,,stim/Instruction_adaptive.png,conditions/adaptive.xlsx,test,-0.6,-0.6,-0.6,0.6,0.6,left,L,,,,,0,1,1,1,0,36,36,17,,,,,,,,,,,,,,,,,,,,,,,,,,,,,,,,,,,,,,,,,,,,310.39921350000077,None,right,0,1.2494036999996752,310.90018709999276,312.33561320000445,310.90018709999276,311.8348355999915,310.90018709999276,311.8348355999915,310.90018709999276,311.8348355999915,310.90018709999276,311.8348355999915,310.90018709999276,311.8348355999915,311.8020916999958,312.30216969997855,311.8020916999958,312.30216969997855,311.8020916999958,312.30216969997855,311.8020916999958,312.30216969997855,311.8020916999958,312.30216969997855,311.8020916999958,312.30216969997855,311.8020916999958,312.30216969997855,311.8020916999958,312.30216969997855,310.90018709999276,None,312.30216969997855,313.88815969999996,0.9200000000000006,313.904411800002,None,314.6558916999784,None,,,,,,,[[1.58]],2.490000000000002,0.6216216216216216,11034,001,2024_Jan_16_1026,MFTM_A_new1021,2021.2.3,60.32964115851272,
,,,,,,,,stim/Instruction_adaptive.png,conditions/adaptive.xlsx,test,0.6,0.6,0.6,-0.6,-0.6,right,R,,,,,0,1,1,1,0,37,37,36,,,,,,,,,,,,,,,,,,,,,,,,,,,,,,,,,,,,,,,,,,,,315.1565730999864,None,left,0,1.2283913999854121,315.65774249998503,317.343146899977,315.65774249998503,316.842402499984,315.65774249998503,316.842402499984,315.65774249998503,316.842402499984,315.65774249998503,316.842402499984,315.65774249998503,316.842402499984,316.80882360000396,317.30969369999366,316.80882360000396,317.30969369999366,316.80882360000396,317.30969369999366,316.80882360000396,317.30969369999366,316.80882360000396,317.30969369999366,316.80882360000396,317.30969369999366,316.80882360000396,317.30969369999366,316.80882360000396,317.30969369999366,315.65774249998503,None,317.30969369999366,318.6451761999924,1.1700000000000008,318.66174519999186,None,319.4133796999813,None,,,,,,,[[1.33]],2.0500000000000016,0.6052631578947368,11034,001,2024_Jan_16_1026,MFTM_A_new1021,2021.2.3,60.32964115851272,
,,,,,,,,stim/Instruction_adaptive.png,conditions/adaptive.xlsx,test,-0.6,-0.6,-0.6,0.6,0.6,left,L,,,,,0,1,1,1,0,38,38,87,,,,,,,,,,,,,,,,,,,,,,,,,,,,,,,,,,,,,,,,,,,,319.91374829999404,None,right,0,1.5600797999941278,320.4148378999962,322.51750970000285,320.4148378999962,322.0169679999817,320.4148378999962,322.0169679999817,320.4148378999962,322.0169679999817,320.4148378999962,322.0169679999817,320.4148378999962,322.0169679999817,321.98345739999786,322.4847941999906,321.98345739999786,322.4847941999906,321.98345739999786,322.4847941999906,321.98345739999786,322.4847941999906,321.98345739999786,322.4847941999906,321.98345739999786,322.4847941999906,321.98345739999786,322.4847941999906,321.98345739999786,322.4847941999906,320.4148378999962,None,322.4847941999906,323.40220549999503,1.5900000000000012,323.4188219999778,None,324.17011740000453,None,,,,,,,[[0.91]],1.3900000000000008,0.5897435897435898,11034,001,2024_Jan_16_1026,MFTM_A_new1021,2021.2.3,60.32964115851272,
,,,,,,,,stim/Instruction_adaptive.png,conditions/adaptive.xlsx,test,-0.6,-0.6,-0.6,0.6,0.6,left,L,,,,,0,1,1,1,0,39,39,69,,,,,,,,,,,,,,,,,,,,,,,,,,,,,,,,,,,,,,,,,,,,324.67206109999097,None,left,1,1.8271187000209466,325.1715994999977,None,325.1715994999977,327.69207799999276,325.1715994999977,327.69207799999276,325.1715994999977,327.69207799999276,325.1715994999977,327.69207799999276,325.1715994999977,327.69207799999276,327.6586524999875,328.15926379998564,327.6586524999875,328.15926379998564,327.6586524999875,328.15926379998564,327.6586524999875,328.15926379998564,327.6586524999875,328.15926379998564,327.6586524999875,328.15926379998564,327.6586524999875,328.15926379998564,327.6586524999875,328.15926379998564,325.1715994999977,None,328.15926379998564,328.15926379998564,2.510000000000002,328.1926717000024,None,328.9439829000039,None,,,,,,,0,1.680000000000001,0.6,11034,001,2024_Jan_16_1026,MFTM_A_new1021,2021.2.3,60.32964115851272,
,,,,,,,,stim/Instruction_adaptive.png,conditions/adaptive.xlsx,test,0.6,0.6,0.6,-0.6,-0.6,right,R,,,,,0,1,1,1,0,40,40,94,,,,,,,,,,,,,,,,,,,,,,,,,,,,,,,,,,,,,,,,,,,,329.44486219997634,None,right,1,1.6290013999969233,329.9455928999814,332.4992390999978,329.9455928999814,331.99874819998513,329.9455928999814,331.99874819998513,329.9455928999814,331.99874819998513,329.9455928999814,331.99874819998513,329.9455928999814,331.99874819998513,331.9821318000031,332.4828561999893,331.9821318000031,332.4828561999893,331.9821318000031,332.4828561999893,331.9821318000031,332.4828561999893,331.9821318000031,332.4828561999893,331.9821318000031,332.4828561999893,331.9821318000031,332.4828561999893,331.9821318000031,332.4828561999893,329.9455928999814,None,332.4828561999893,332.9335140000039,2.0500000000000016,332.9518933999934,None,333.70119920000434,None,,,,,,,[[0.45]],1.8800000000000012,0.6097560975609756,11034,001,2024_Jan_16_1026,MFTM_A_new1021,2021.2.3,60.32964115851272,
,,,,,,,,stim/Instruction_adaptive.png,conditions/adaptive.xlsx,test,-0.6,-0.6,-0.6,0.6,0.6,left,L,,,,,0,1,1,1,0,41,41,13,,,,,,,,,,,,,,,,,,,,,,,,,,,,,,,,,,,,,,,,,,,,334.20207879997906,None,left,1,1.320045200001914,334.7027694999997,337.0061454999959,334.7027694999997,336.5055198999762,334.7027694999997,336.5055198999762,334.7027694999997,336.5055198999762,334.7027694999997,336.5055198999762,334.7027694999997,336.5055198999762,336.47213169999304,336.97273419998237,336.47213169999304,336.97273419998237,336.47213169999304,336.97273419998237,336.47213169999304,336.97273419998237,336.47213169999304,336.97273419998237,336.47213169999304,336.97273419998237,336.47213169999304,336.97273419998237,336.47213169999304,336.97273419998237,334.7027694999997,None,336.97273419998237,337.6915216999769,1.7900000000000014,337.7079418999783,None,338.4582797999901,None,,,,,,,[[0.71]],2.0400000000000014,0.6190476190476191,11034,001,2024_Jan_16_1026,MFTM_A_new1021,2021.2.3,60.32964115851272,
,,,,,,,,stim/Instruction_adaptive.png,conditions/adaptive.xlsx,test,0.6,0.6,0.6,-0.6,-0.6,right,R,,,,,0,1,1,1,0,42,42,72,,,,,,,,,,,,,,,,,,,,,,,,,,,,,,,,,,,,,,,,,,,,338.95909599997685,None,right,1,1.2268723000015598,339.45992339999066,341.56310499997926,339.45992339999066,341.0624055999797,339.45992339999066,341.0624055999797,339.45992339999066,341.0624055999797,339.45992339999066,341.0624055999797,339.45992339999066,341.0624055999797,341.0457546999969,341.5471139999863,341.0457546999969,341.5471139999863,341.0457546999969,341.5471139999863,341.0457546999969,341.5471139999863,341.0457546999969,341.5471139999863,341.0457546999969,341.5471139999863,341.0457546999969,341.5471139999863,341.0457546999969,341.5471139999863,339.45992339999066,None,341.5471139999863,342.44800029997714,1.6000000000000012,342.46443039999576,None,343.2157670999877,None,,,,,,,[[0.9]],2.1700000000000017,0.627906976744186,11034,001,2024_Jan_16_1026,MFTM_A_new1021,2021.2.3,60.32964115851272,
,,,,,,,,stim/Instruction_adaptive.png,conditions/adaptive.xlsx,test,0.6,0.6,0.6,-0.6,-0.6,right,R,,,,,0,1,1,1,0,43,43,50,,,,,,,,,,,,,,,,,,,,,,,,,,,,,,,,,,,,,,,,,,,,343.71663300000364,None,right,1,1.7410277999879327,344.2177214999974,346.1880215999845,344.2177214999974,345.68601009997656,344.2177214999974,345.68601009997656,344.2177214999974,345.68601009997656,344.2177214999974,345.68601009997656,344.2177214999974,345.68601009997656,345.6525806999998,346.1531555999827,345.6525806999998,346.1531555999827,345.6525806999998,346.1531555999827,345.6525806999998,346.1531555999827,345.6525806999998,346.1531555999827,345.6525806999998,346.1531555999827,345.6525806999998,346.1531555999827,345.6525806999998,346.1531555999827,344.2177214999974,None,346.1531555999827,347.20490280000377,1.460000000000001,347.22172439997667,None,347.97270529999514,None,,,,,,,[[1.04]],2.2800000000000016,0.6363636363636364,11034,001,2024_Jan_16_1026,MFTM_A_new1021,2021.2.3,60.32964115851272,
,,,,,,,,stim/Instruction_adaptive.png,conditions/adaptive.xlsx,test,0.6,0.6,0.6,-0.6,-0.6,right,R,,,,,0,1,1,1,0,44,44,18,,,,,,,,,,,,,,,,,,,,,,,,,,,,,,,,,,,,,,,,,,,,348.4735418999917,None,right,1,1.737007799994899,348.9743016999855,350.8275115999859,348.9743016999855,350.32628249999834,348.9743016999855,350.32628249999834,348.9743016999855,350.32628249999834,348.9743016999855,350.32628249999834,348.9743016999855,350.32628249999834,350.30969789999654,350.81042510000407,350.30969789999654,350.81042510000407,350.30969789999654,350.81042510000407,350.30969789999654,350.81042510000407,350.30969789999654,350.81042510000407,350.30969789999654,350.81042510000407,350.30969789999654,350.81042510000407,350.30969789999654,350.81042510000407,348.9743016999855,None,350.81042510000407,351.9620156000019,1.350000000000001,351.97950409998884,None,352.73001659999136,None,,,,,,,[[1.15]],2.3800000000000017,0.6444444444444445,11034,001,2024_Jan_16_1026,MFTM_A_new1021,2021.2.3,60.32964115851272,
,,,,,,,,stim/Instruction_adaptive.png,conditions/adaptive.xlsx,test,0.6,0.6,0.6,-0.6,-0.6,right,R,,,,,0,1,1,1,0,45,45,52,,,,,,,,,,,,,,,,,,,,,,,,,,,,,,,,,,,,,,,,,,,,353.23066420000396,None,right,1,1.6101167000015266,353.73306209998555,355.50073519998114,353.73306209998555,354.9999158999999,353.73306209998555,354.9999158999999,353.73306209998555,354.9999158999999,353.73306209998555,354.9999158999999,353.73306209998555,354.9999158999999,354.9832308999903,355.484109299985,354.9832308999903,355.484109299985,354.9832308999903,355.484109299985,354.9832308999903,355.484109299985,354.9832308999903,355.484109299985,354.9832308999903,355.484109299985,354.9832308999903,355.484109299985,354.9832308999903,355.484109299985,353.73306209998555,None,355.46744789998047,356.72079379999195,1.260000000000001,356.73618259999785,None,357.4871358999808,None,,,,,,,[[1.24]],2.4600000000000017,0.6521739130434783,11034,001,2024_Jan_16_1026,MFTM_A_new1021,2021.2.3,60.32964115851272,
,,,,,,,,stim/Instruction_adaptive.png,conditions/adaptive.xlsx,test,-0.6,-0.6,-0.6,0.6,0.6,left,L,,,,,0,1,1,1,0,46,46,77,,,,,,,,,,,,,,,,,,,,,,,,,,,,,,,,,,,,,,,,,,,,357.98879109998234,None,right,0,1.5110748000151943,358.4886173999985,360.19295769999735,358.4886173999985,359.69117089998326,358.4886173999985,359.69117089998326,358.4886173999985,359.69117089998326,358.4886173999985,359.69117089998326,358.4886173999985,359.69117089998326,359.67419069999596,360.1745168999769,359.67419069999596,360.1745168999769,359.67419069999596,360.1745168999769,359.67419069999596,360.1745168999769,359.67419069999596,360.1745168999769,359.67419069999596,360.1745168999769,359.67419069999596,360.1745168999769,359.67419069999596,360.1745168999769,358.4886173999985,None,360.1745168999769,361.4772854000039,1.2000000000000008,361.4931524999847,None,362.244332799979,None,,,,,,,[[1.3]],2.2200000000000015,0.6382978723404256,11034,001,2024_Jan_16_1026,MFTM_A_new1021,2021.2.3,60.32964115851272,
,,,,,,,,stim/Instruction_adaptive.png,conditions/adaptive.xlsx,test,0.6,0.6,0.6,-0.6,-0.6,right,R,,,,,0,1,1,1,0,47,47,78,,,,,,,,,,,,,,,,,,,,,,,,,,,,,,,,,,,,,,,,,,,,362.74505169998156,None,left,0,1.6337651000067126,363.2457822999859,365.1654476999829,363.2457822999859,364.6649400999886,363.2457822999859,364.6649400999886,363.2457822999859,364.6649400999886,363.2457822999859,364.6649400999886,363.2457822999859,364.6649400999886,364.63118189998204,365.1320743999968,364.63118189998204,365.1320743999968,364.63118189998204,365.1320743999968,364.63118189998204,365.1320743999968,364.63118189998204,365.1320743999968,364.63118189998204,365.1320743999968,364.63118189998204,365.1320743999968,364.63118189998204,365.1320743999968,363.2457822999859,None,365.1320743999968,366.23453739998513,1.410000000000001,366.25080989999697,None,367.0014346999815,None,,,,,,,[[1.09]],1.9400000000000013,0.625,11034,001,2024_Jan_16_1026,MFTM_A_new1021,2021.2.3,60.32964115851272,
,,,,,,,,stim/Instruction_adaptive.png,conditions/adaptive.xlsx,test,-0.6,-0.6,-0.6,0.6,0.6,left,L,,,,,0,1,1,1,0,48,48,9,,,,,,,,,,,,,,,,,,,,,,,,,,,,,,,,,,,,,,,,,,,,367.5022508999973,None,left,1,1.7171866999997292,368.0028128999984,370.2230767000001,368.0028128999984,369.72211020000395,368.0028128999984,369.72211020000395,368.0028128999984,369.72211020000395,368.0028128999984,369.72211020000395,368.0028128999984,369.72211020000395,369.68898679999984,370.18951119997655,369.68898679999984,370.18951119997655,369.68898679999984,370.18951119997655,369.68898679999984,370.18951119997655,369.68898679999984,370.18951119997655,369.68898679999984,370.18951119997655,369.68898679999984,370.18951119997655,369.68898679999984,370.18951119997655,368.0028128999984,None,370.18951119997655,370.9908206999826,1.7100000000000013,371.0075387999823,None,371.75869819999207,None,,,,,,,[[0.79]],2.0400000000000014,0.6326530612244898,11034,001,2024_Jan_16_1026,MFTM_A_new1021,2021.2.3,60.32964115851272,
,,,,,,,,stim/Instruction_adaptive.png,conditions/adaptive.xlsx,test,0.6,0.6,0.6,-0.6,-0.6,right,R,,,,,0,1,1,1,0,49,49,4,,,,,,,,,,,,,,,,,,,,,,,,,,,,,,,,,,,,,,,,,,,,372.25968629997806,None,right,1,0.9918391000246629,372.76019829997676,374.8636675000016,372.76019829997676,374.3635116999794,372.76019829997676,374.3635116999794,372.76019829997676,374.3635116999794,372.76019829997676,374.3635116999794,372.76019829997676,374.3635116999794,374.34656009997707,374.84667189998436,374.34656009997707,374.84667189998436,374.34656009997707,374.84667189998436,374.34656009997707,374.84667189998436,374.34656009997707,374.84667189998436,374.34656009997707,374.84667189998436,374.34656009997707,374.84667189998436,374.34656009997707,374.84667189998436,372.76019829997676,None,374.84667189998436,375.747984799993,1.6000000000000012,375.76477809998323,None,376.5158040999959,None,,,,,,,[[0.9]],2.1400000000000015,0.64,11034,001,2024_Jan_16_1026,MFTM_A_new1021,2021.2.3,60.32964115851272,
,,,,,,,,stim/Instruction_adaptive.png,conditions/adaptive.xlsx,test,-0.6,-0.6,-0.6,0.6,0.6,left,L,,,,,0,1,1,1,0,50,50,23,,,,,,,,,,,,,,,,,,,,,,,,,,,,,,,,,,,,,,,,,,,,377.0169934000005,None,right,0,1.089977399999043,377.51799789999495,379.5204473999911,377.51799789999495,379.01968789999955,377.51799789999495,379.01968789999955,377.51799789999495,379.01968789999955,377.51799789999495,379.01968789999955,377.51799789999495,379.01968789999955,378.9863288999768,379.48773059999803,378.9863288999768,379.48773059999803,378.9863288999768,379.48773059999803,378.9863288999768,379.48773059999803,378.9863288999768,379.48773059999803,378.9863288999768,379.48773059999803,378.9863288999768,379.48773059999803,378.9863288999768,379.48773059999803,377.51799789999495,None,379.48773059999803,380.50515529999393,1.490000000000001,380.52188759998535,None,381.2732582000026,None,,,,,,,[[1.01]],1.8800000000000012,0.6274509803921569,11034,001,2024_Jan_16_1026,MFTM_A_new1021,2021.2.3,60.32964115851272,
,,,,,,,,stim/Instruction_adaptive.png,conditions/adaptive.xlsx,test,0.6,0.6,0.6,-0.6,-0.6,right,R,,,,,0,1,1,1,0,51,51,44,,,,,,,,,,,,,,,,,,,,,,,,,,,,,,,,,,,,,,,,,,,,381.77367179997964,None,right,1,1.3733750999963377,382.27462079998804,384.57820639997954,382.27462079998804,384.0773862999922,382.27462079998804,384.0773862999922,382.27462079998804,384.0773862999922,382.27462079998804,384.0773862999922,382.27462079998804,384.0773862999922,384.04389619998983,384.5445601999818,384.04389619998983,384.5445601999818,384.04389619998983,384.5445601999818,384.04389619998983,384.5445601999818,384.04389619998983,384.5445601999818,384.04389619998983,384.5445601999818,384.04389619998983,384.5445601999818,384.04389619998983,384.5445601999818,382.27462079998804,None,384.5445601999818,385.2624915000051,1.7900000000000014,385.2790383999818,None,386.0300864999881,None,,,,,,,[[0.71]],1.9700000000000013,0.6346153846153846,11034,001,2024_Jan_16_1026,MFTM_A_new1021,2021.2.3,60.32964115851272,
,,,,,,,,stim/Instruction_adaptive.png,conditions/adaptive.xlsx,test,0.6,0.6,0.6,-0.6,-0.6,right,R,,,,,0,1,1,1,0,52,52,54,,,,,,,,,,,,,,,,,,,,,,,,,,,,,,,,,,,,,,,,,,,,386.5308299000026,None,right,1,0.9043781000073068,387.0317580999981,389.2184999999881,387.0317580999981,388.7188116000034,387.0317580999981,388.7188116000034,387.0317580999981,388.7188116000034,387.0317580999981,388.7188116000034,387.0317580999981,388.7188116000034,388.6843554999796,389.18490480000037,388.6843554999796,389.18490480000037,388.6843554999796,389.18490480000037,388.6843554999796,389.18490480000037,388.6843554999796,389.18490480000037,388.6843554999796,389.18490480000037,388.6843554999796,389.18490480000037,388.6843554999796,389.18490480000037,387.0317580999981,None,389.18490480000037,390.0194714999816,1.6800000000000013,390.03631679998944,None,390.78752240000176,None,,,,,,,[[0.82]],2.0600000000000014,0.6415094339622641,11034,001,2024_Jan_16_1026,MFTM_A_new1021,2021.2.3,60.32964115851272,
,,,,,,,,stim/Instruction_adaptive.png,conditions/adaptive.xlsx,test,0.6,0.6,0.6,-0.6,-0.6,right,R,,,,,0,1,1,1,0,53,53,26,,,,,,,,,,,,,,,,,,,,,,,,,,,,,,,,,,,,,,,,,,,,391.28958469998906,None,right,1,1.267413800000213,391.7889679999789,393.87523089998285,391.7889679999789,393.37541639999836,391.7889679999789,393.37541639999836,391.7889679999789,393.37541639999836,391.7889679999789,393.37541639999836,391.7889679999789,393.37541639999836,393.3591149999993,393.85849179999786,393.3591149999993,393.85849179999786,393.3591149999993,393.85849179999786,393.3591149999993,393.85849179999786,393.3591149999993,393.85849179999786,393.3591149999993,393.85849179999786,393.3591149999993,393.85849179999786,393.3591149999993,393.85849179999786,391.7889679999789,None,393.85849179999786,None,1.5800000000000012,394.7933673999796,None,395.5451344999892,None,,,,,,,[[0.92]],2.1400000000000015,0.6481481481481481,11034,001,2024_Jan_16_1026,MFTM_A_new1021,2021.2.3,60.32964115851272,
,,,,,,,,stim/Instruction_adaptive.png,conditions/adaptive.xlsx,test,-0.6,-0.6,-0.6,0.6,0.6,left,L,,,,,0,1,1,1,0,54,54,45,,,,,,,,,,,,,,,,,,,,,,,,,,,,,,,,,,,,,,,,,,,,396.04517119997763,None,right,0,1.5022317999973893,396.5462475999957,398.54916100000264,396.5462475999957,398.0485369999951,396.5462475999957,398.0485369999951,396.5462475999957,398.0485369999951,396.5462475999957,398.0485369999951,396.5462475999957,398.0485369999951,398.01546470000176,398.51589139999123,398.01546470000176,398.51589139999123,398.01546470000176,398.51589139999123,398.01546470000176,398.51589139999123,398.01546470000176,398.51589139999123,398.01546470000176,398.51589139999123,398.01546470000176,398.51589139999123,398.01546470000176,398.51589139999123,396.5462475999957,None,398.51589139999123,399.5337296999933,1.490000000000001,399.5505612999841,None,400.30242089999956,None,,,,,,,[[1.01]],1.9200000000000013,0.6363636363636364,11034,001,2024_Jan_16_1026,MFTM_A_new1021,2021.2.3,60.32964115851272,
,,,,,,,,stim/Instruction_adaptive.png,conditions/adaptive.xlsx,test,0.6,0.6,0.6,-0.6,-0.6,right,R,,,,,0,1,1,1,0,55,55,32,,,,,,,,,,,,,,,,,,,,,,,,,,,,,,,,,,,,,,,,,,,,400.8034572000033,None,right,1,1.5373177000146825,401.30327939998824,403.5563265999954,401.30327939998824,403.05599389999406,401.30327939998824,403.05599389999406,401.30327939998824,403.05599389999406,401.30327939998824,403.05599389999406,401.30327939998824,403.05599389999406,403.02240819999133,403.5233517999877,403.02240819999133,403.5233517999877,403.02240819999133,403.5233517999877,403.02240819999133,403.5233517999877,403.02240819999133,403.5233517999877,403.02240819999133,403.5233517999877,403.02240819999133,403.5233517999877,403.02240819999133,403.5233517999877,401.30327939998824,None,403.5233517999877,404.29114719998324,1.7400000000000013,404.3076376999961,None,405.0587427999999,None,,,,,,,[[0.76]],2.0000000000000013,0.6428571428571429,11034,001,2024_Jan_16_1026,MFTM_A_new1021,2021.2.3,60.32964115851272,
,,,,,,,,stim/Instruction_adaptive.png,conditions/adaptive.xlsx,test,0.6,0.6,0.6,-0.6,-0.6,right,R,,,,,0,1,1,1,0,56,56,30,,,,,,,,,,,,,,,,,,,,,,,,,,,,,,,,,,,,,,,,,,,,405.5597792000044,None,right,1,0.9718105000210926,406.0613328999898,408.2136753999803,406.0613328999898,407.7128603000019,406.0613328999898,407.7128603000019,406.0613328999898,407.7128603000019,406.0613328999898,407.7128603000019,406.0613328999898,407.7128603000019,407.6802226,408.18089200000395,407.6802226,408.18089200000395,407.6802226,408.18089200000395,407.6802226,408.18089200000395,407.6802226,408.18089200000395,407.6802226,408.18089200000395,407.6802226,408.18089200000395,407.6802226,408.18089200000395,406.0613328999898,None,408.18089200000395,409.04898039999534,1.6400000000000012,409.0650740999845,None,409.8160636999819,None,,,,,,,[[0.86]],2.070000000000001,0.6491228070175439,11034,001,2024_Jan_16_1026,MFTM_A_new1021,2021.2.3,60.32964115851272,
,,,,,,,,stim/Instruction_adaptive.png,conditions/adaptive.xlsx,test,-0.6,-0.6,-0.6,0.6,0.6,left,L,,,,,0,1,1,1,0,57,57,49,,,,,,,,,,,,,,,,,,,,,,,,,,,,,,,,,,,,,,,,,,,,410.3169626999879,None,right,0,1.6870583000127226,410.8176561,412.8875427999883,410.8176561,412.4035204999964,410.8176561,412.4035204999964,410.8176561,412.4035204999964,410.8176561,412.4035204999964,410.8176561,412.4035204999964,412.36986049998086,412.87080330000026,412.36986049998086,412.87080330000026,412.36986049998086,412.87080330000026,412.36986049998086,412.87080330000026,412.36986049998086,412.87080330000026,412.36986049998086,412.87080330000026,412.36986049998086,412.87080330000026,412.36986049998086,412.87080330000026,410.8176561,None,412.87080330000026,413.80557889997726,1.5700000000000012,413.82222589998855,None,414.57309029999305,None,,,,,,,[[0.93]],1.8600000000000012,0.6379310344827587,11034,001,2024_Jan_16_1026,MFTM_A_new1021,2021.2.3,60.32964115851272,
,,,,,,,,stim/Instruction_adaptive.png,conditions/adaptive.xlsx,test,-0.6,-0.6,-0.6,0.6,0.6,left,L,,,,,0,1,1,1,0,58,58,19,,,,,,,,,,,,,,,,,,,,,,,,,,,,,,,,,,,,,,,,,,,,415.07409859998734,None,left,1,1.442017900000792,415.5751164999965,417.8949306999857,415.5751164999965,417.39422789998935,415.5751164999965,417.39422789998935,415.5751164999965,417.39422789998935,415.5751164999965,417.39422789998935,415.5751164999965,417.39422789998935,417.3622955000028,417.86197299999185,417.3622955000028,417.86197299999185,417.3622955000028,417.86197299999185,417.3622955000028,417.86197299999185,417.3622955000028,417.86197299999185,417.3622955000028,417.86197299999185,417.3622955000028,417.86197299999185,417.3622955000028,417.86197299999185,415.5751164999965,None,417.86197299999185,418.5623646999884,1.8100000000000014,418.57953909999924,None,419.3313453999872,None,,,,,,,[[0.69]],1.9400000000000013,0.6440677966101694,11034,001,2024_Jan_16_1026,MFTM_A_new1021,2021.2.3,60.32964115851272,
,,,,,,,,stim/Instruction_adaptive.png,conditions/adaptive.xlsx,test,-0.6,-0.6,-0.6,0.6,0.6,left,L,,,,,0,1,1,1,0,59,59,63,,,,,,,,,,,,,,,,,,,,,,,,,,,,,,,,,,,,,,,,,,,,419.83161769999424,None,left,1,1.9010208999970928,420.33236589998705,422.5524399999995,420.33236589998705,422.05130789999384,420.33236589998705,422.05130789999384,420.33236589998705,422.05130789999384,420.33236589998705,422.05130789999384,420.33236589998705,422.05130789999384,422.0181697999942,422.52022529998794,422.0181697999942,422.52022529998794,422.0181697999942,422.52022529998794,422.0181697999942,422.52022529998794,422.0181697999942,422.52022529998794,422.0181697999942,422.52022529998794,422.0181697999942,422.52022529998794,422.0181697999942,422.52022529998794,420.33236589998705,None,422.52022529998794,423.32007200000226,1.7100000000000013,423.3365581999824,None,424.0876806000015,None,,,,,,,[[0.79]],2.0100000000000016,0.65,11034,001,2024_Jan_16_1026,MFTM_A_new1021,2021.2.3,60.32964115851272,
,,,,,,,,stim/Instruction_adaptive.png,conditions/adaptive.xlsx,test,-0.6,-0.6,-0.6,0.6,0.6,left,L,,,,,0,1,1,1,0,60,60,79,,,,,,,,,,,,,,,,,,,,,,,,,,,,,,,,,,,,,,,,,,,,424.5886501999921,None,left,1,1.5762489000044297,425.0893616999965,427.22572899999795,425.0893616999965,426.7251303999801,425.0893616999965,426.7251303999801,425.0893616999965,426.7251303999801,425.0893616999965,426.7251303999801,425.0893616999965,426.7251303999801,426.70823759998893,427.20912240000325,426.70823759998893,427.20912240000325,426.70823759998893,427.20912240000325,426.70823759998893,427.20912240000325,426.70823759998893,427.20912240000325,426.70823759998893,427.20912240000325,426.70823759998893,427.20912240000325,426.70823759998893,427.20912240000325,425.0893616999965,None,427.20912240000325,None,1.6300000000000012,428.093781100004,None,428.8456884000043,None,,,,,,,[[0.87]],2.070000000000001,0.6557377049180327,11034,001,2024_Jan_16_1026,MFTM_A_new1021,2021.2.3,60.32964115851272,
,,,,,,,,stim/Instruction_adaptive.png,conditions/adaptive.xlsx,test,-0.6,-0.6,-0.6,0.6,0.6,left,L,,,,,0,1,1,1,0,61,61,29,,,,,,,,,,,,,,,,,,,,,,,,,,,,,,,,,,,,,,,,,,,,429.34623929997906,None,left,1,1.8434035999816842,429.84640229999786,431.9161141999939,429.84640229999786,431.4156086999865,429.84640229999786,431.4156086999865,429.84640229999786,431.4156086999865,429.84640229999786,431.4156086999865,429.84640229999786,431.4156086999865,431.3987259999849,431.8994439999806,431.3987259999849,431.8994439999806,431.3987259999849,431.8994439999806,431.3987259999849,431.8994439999806,431.3987259999849,431.8994439999806,431.3987259999849,431.8994439999806,431.3987259999849,431.8994439999806,431.3987259999849,431.8994439999806,429.84640229999786,None,431.8994439999806,432.834245999984,1.5700000000000012,432.8516416999919,None,433.6021583999973,None,,,,,,,[[0.93]],2.1300000000000017,0.6612903225806451,11034,001,2024_Jan_16_1026,MFTM_A_new1021,2021.2.3,60.32964115851272,
,,,,,,,,stim/Instruction_adaptive.png,conditions/adaptive.xlsx,test,-0.6,-0.6,-0.6,0.6,0.6,left,L,,,,,0,1,1,1,0,62,62,31,,,,,,,,,,,,,,,,,,,,,,,,,,,,,,,,,,,,,,,,,,,,434.10345029999735,None,left,1,1.812589899986051,434.60500630000024,436.6063793999783,434.60500630000024,436.10589350000373,434.60500630000024,436.10589350000373,434.60500630000024,436.10589350000373,434.60500630000024,436.10589350000373,434.60500630000024,436.10589350000373,436.08900019997964,436.58990419999463,436.08900019997964,436.58990419999463,436.08900019997964,436.58990419999463,436.08900019997964,436.58990419999463,436.08900019997964,436.58990419999463,436.08900019997964,436.58990419999463,436.08900019997964,436.58990419999463,436.08900019997964,436.58990419999463,434.60500630000024,None,436.58990419999463,437.5913192000007,1.500000000000001,437.60802980000153,None,438.36007339999196,None,,,,,,,[[1.]],2.1900000000000013,0.6666666666666666,11034,001,2024_Jan_16_1026,MFTM_A_new1021,2021.2.3,60.32964115851272,
,,,,,,,,stim/Instruction_adaptive.png,conditions/adaptive.xlsx,test,0.6,0.6,0.6,-0.6,-0.6,right,R,,,,,0,1,1,1,0,63,63,74,,,,,,,,,,,,,,,,,,,,,,,,,,,,,,,,,,,,,,,,,,,,438.8604964999831,None,right,1,1.648384799977066,439.3615599999903,441.3139275999856,439.3615599999903,440.8134156999877,439.3615599999903,440.8134156999877,439.3615599999903,440.8134156999877,439.3615599999903,440.8134156999877,439.3615599999903,440.8134156999877,440.77964159997646,441.2805970000045,440.77964159997646,441.2805970000045,440.77964159997646,441.2805970000045,440.77964159997646,441.2805970000045,440.77964159997646,441.2805970000045,440.77964159997646,441.2805970000045,440.77964159997646,441.2805970000045,440.77964159997646,441.2805970000045,439.3615599999903,None,441.2805970000045,442.34878309999476,1.440000000000001,442.36535350000486,None,443.1171031999984,None,,,,,,,[[1.06]],2.2400000000000015,0.671875,11034,001,2024_Jan_16_1026,MFTM_A_new1021,2021.2.3,60.32964115851272,
,,,,,,,,stim/Instruction_adaptive.png,conditions/adaptive.xlsx,test,0.6,0.6,0.6,-0.6,-0.6,right,R,,,,,0,1,1,1,0,64,64,70,,,,,,,,,,,,,,,,,,,,,,,,,,,,,,,,,,,,,,,,,,,,443.6177936999884,None,right,1,1.4282009000016842,444.11766759998864,446.0209440999897,444.11766759998864,445.52088629998616,444.11766759998864,445.52088629998616,444.11766759998864,445.52088629998616,444.11766759998864,445.52088629998616,444.11766759998864,445.52088629998616,445.48670239999774,445.98850720000337,445.48670239999774,445.98850720000337,445.48670239999774,445.98850720000337,445.48670239999774,445.98850720000337,445.48670239999774,445.98850720000337,445.48670239999774,445.98850720000337,445.48670239999774,445.98850720000337,445.48670239999774,445.98850720000337,444.11766759998864,None,445.98850720000337,447.10592059997725,1.390000000000001,447.1226972999866,None,447.87391659998684,None,,,,,,,[[1.11]],2.290000000000002,0.676923076923077,11034,001,2024_Jan_16_1026,MFTM_A_new1021,2021.2.3,60.32964115851272,
,,,,,,,,stim/Instruction_adaptive.png,conditions/adaptive.xlsx,test,-0.6,-0.6,-0.6,0.6,0.6,left,L,,,,,0,1,1,1,0,65,65,41,,,,,,,,,,,,,,,,,,,,,,,,,,,,,,,,,,,,,,,,,,,,448.3745185000007,None,right,0,1.2633124999993015,448.8750385000021,450.7284061999817,448.8750385000021,450.2273927999777,448.8750385000021,450.2273927999777,448.8750385000021,450.2273927999777,448.8750385000021,450.2273927999777,448.8750385000021,450.2273927999777,450.21046780000324,450.7110852999904,450.21046780000324,450.7110852999904,450.21046780000324,450.7110852999904,450.21046780000324,450.7110852999904,450.21046780000324,450.7110852999904,450.21046780000324,450.7110852999904,450.21046780000324,450.7110852999904,450.21046780000324,450.7110852999904,448.8750385000021,None,450.7110852999904,451.8638648999913,1.350000000000001,451.88018369997735,None,452.63070999999763,None,,,,,,,[[1.15]],2.1500000000000012,0.6666666666666666,11034,001,2024_Jan_16_1026,MFTM_A_new1021,2021.2.3,60.32964115851272,
,,,,,,,,stim/Instruction_adaptive.png,conditions/adaptive.xlsx,test,-0.6,-0.6,-0.6,0.6,0.6,left,L,,,,,0,1,1,1,0,66,66,95,,,,,,,,,,,,,,,,,,,,,,,,,,,,,,,,,,,,,,,,,,,,453.13184759998694,None,left,1,1.4424481999885757,453.6324764000019,455.6186609999859,453.6324764000019,455.11911830000463,453.6324764000019,455.11911830000463,453.6324764000019,455.11911830000463,453.6324764000019,455.11911830000463,453.6324764000019,455.11911830000463,455.1012606000004,455.6019249999954,455.1012606000004,455.6019249999954,455.1012606000004,455.6019249999954,455.1012606000004,455.6019249999954,455.1012606000004,455.6019249999954,455.1012606000004,455.6019249999954,455.1012606000004,455.6019249999954,455.1012606000004,455.6019249999954,453.6324764000019,None,455.6019249999954,None,1.480000000000001,456.63668599998346,None,457.38814500000444,None,,,,,,,[[1.02]],2.2000000000000015,0.6716417910447762,11034,001,2024_Jan_16_1026,MFTM_A_new1021,2021.2.3,60.32964115851272,
,,,,,,,,stim/Instruction_adaptive.png,conditions/adaptive.xlsx,test,-0.6,-0.6,-0.6,0.6,0.6,left,L,,,,,0,1,1,1,0,67,67,85,,,,,,,,,,,,,,,,,,,,,,,,,,,,,,,,,,,,,,,,,,,,457.8895980999805,None,right,0,1.548984199995175,458.38950950000435,460.32576479998534,458.38950950000435,459.8250502999872,458.38950950000435,459.8250502999872,458.38950950000435,459.8250502999872,458.38950950000435,459.8250502999872,458.38950950000435,459.8250502999872,459.8082478999859,460.30901869997615,459.8082478999859,460.30901869997615,459.8082478999859,460.30901869997615,459.8082478999859,460.30901869997615,459.8082478999859,460.30901869997615,459.8082478999859,460.30901869997615,459.8082478999859,460.30901869997615,459.8082478999859,460.30901869997615,458.38950950000435,None,460.30901869997615,None,1.430000000000001,461.3938057999767,None,462.1451078999962,None,,,,,,,[[1.07]],2.0500000000000016,0.6617647058823529,11034,001,2024_Jan_16_1026,MFTM_A_new1021,2021.2.3,60.32964115851272,
,,,,,,,,stim/Instruction_adaptive.png,conditions/adaptive.xlsx,test,0.6,0.6,0.6,-0.6,-0.6,right,R,,,,,0,1,1,1,0,68,68,12,,,,,,,,,,,,,,,,,,,,,,,,,,,,,,,,,,,,,,,,,,,,462.6465220999962,None,right,1,1.1436442999984138,463.14676010000403,465.25085129999206,463.14676010000403,464.74916809998103,463.14676010000403,464.74916809998103,463.14676010000403,464.74916809998103,463.14676010000403,464.74916809998103,463.14676010000403,464.74916809998103,464.7158763000043,465.21652479999466,464.7158763000043,465.21652479999466,464.7158763000043,465.21652479999466,464.7158763000043,465.21652479999466,464.7158763000043,465.21652479999466,464.7158763000043,465.21652479999466,464.7158763000043,465.21652479999466,464.7158763000043,465.21652479999466,463.14676010000403,None,465.21652479999466,466.1357468999922,1.5900000000000012,466.15086840000004,None,466.90230169999995,None,,,,,,,[[0.91]],2.1000000000000014,0.6666666666666666,11034,001,2024_Jan_16_1026,MFTM_A_new1021,2021.2.3,60.32964115851272,
,,,,,,,,stim/Instruction_adaptive.png,conditions/adaptive.xlsx,test,-0.6,-0.6,-0.6,0.6,0.6,left,L,,,,,0,1,1,1,0,69,69,7,,,,,,,,,,,,,,,,,,,,,,,,,,,,,,,,,,,,,,,,,,,,467.4029534999863,None,right,0,1.1863734000071418,467.9041675000044,469.9407999999821,467.9041675000044,469.4398411999864,467.9041675000044,469.4398411999864,467.9041675000044,469.4398411999864,467.9041675000044,469.4398411999864,467.9041675000044,469.4398411999864,469.42302339998423,469.9237207999977,469.42302339998423,469.9237207999977,469.42302339998423,469.9237207999977,469.42302339998423,469.9237207999977,469.42302339998423,469.9237207999977,469.42302339998423,469.9237207999977,469.42302339998423,469.9237207999977,469.42302339998423,469.9237207999977,467.9041675000044,None,469.9237207999977,None,1.5300000000000011,470.90825549999136,None,471.65951629998744,None,,,,,,,[[0.97]],1.9600000000000013,0.6571428571428571,11034,001,2024_Jan_16_1026,MFTM_A_new1021,2021.2.3,60.32964115851272,
,,,,,,,,stim/Instruction_adaptive.png,conditions/adaptive.xlsx,test,0.6,0.6,0.6,-0.6,-0.6,right,R,,,,,0,1,1,1,0,70,70,28,,,,,,,,,,,,,,,,,,,,,,,,,,,,,,,,,,,,,,,,,,,,472.1605988999945,None,right,1,1.3897816999815404,472.66178510000464,474.86450460000196,472.66178510000464,474.3643787000037,472.66178510000464,474.3643787000037,472.66178510000464,474.3643787000037,472.66178510000464,474.3643787000037,472.66178510000464,474.3643787000037,474.33064820000436,474.8310940999945,474.33064820000436,474.8310940999945,474.33064820000436,474.8310940999945,474.33064820000436,474.8310940999945,474.33064820000436,474.8310940999945,474.33064820000436,474.8310940999945,474.33064820000436,474.8310940999945,474.33064820000436,474.8310940999945,472.66178510000464,None,474.8310940999945,475.6495922000031,1.6900000000000013,475.66564209997887,None,476.4170576999895,None,,,,,,,[[0.81]],2.0100000000000016,0.6619718309859155,11034,001,2024_Jan_16_1026,MFTM_A_new1021,2021.2.3,60.32964115851272,
,,,,,,,,stim/Instruction_adaptive.png,conditions/adaptive.xlsx,test,-0.6,-0.6,-0.6,0.6,0.6,left,L,,,,,0,1,1,1,0,71,71,81,,,,,,,,,,,,,,,,,,,,,,,,,,,,,,,,,,,,,,,,,,,,476.9176654999901,None,left,1,0.8963158999977168,477.4188737999939,479.554879000003,477.4188737999939,479.05436599999666,477.4188737999939,479.05436599999666,477.4188737999939,479.05436599999666,477.4188737999939,479.05436599999666,477.4188737999939,479.05436599999666,479.0387516999908,479.5387499999779,479.0387516999908,479.5387499999779,479.0387516999908,479.5387499999779,479.0387516999908,479.5387499999779,479.0387516999908,479.5387499999779,479.0387516999908,479.5387499999779,479.0387516999908,479.5387499999779,479.0387516999908,479.5387499999779,477.4188737999939,None,479.5387499999779,None,1.6300000000000012,480.4228583999793,None,481.17388279997976,None,,,,,,,[[0.87]],2.0600000000000014,0.6666666666666666,11034,001,2024_Jan_16_1026,MFTM_A_new1021,2021.2.3,60.32964115851272,
,,,,,,,,stim/Instruction_adaptive.png,conditions/adaptive.xlsx,test,0.6,0.6,0.6,-0.6,-0.6,right,R,,,,,0,1,1,1,0,72,72,98,,,,,,,,,,,,,,,,,,,,,,,,,,,,,,,,,,,,,,,,,,,,481.6746487999917,None,right,1,1.259421500028111,482.1755035999813,484.2620473999996,482.1755035999813,483.76116490000277,482.1755035999813,483.76116490000277,482.1755035999813,483.76116490000277,482.1755035999813,483.76116490000277,482.1755035999813,483.76116490000277,483.74450400000205,484.2454024000035,483.74450400000205,484.2454024000035,483.74450400000205,484.2454024000035,483.74450400000205,484.2454024000035,483.74450400000205,484.2454024000035,483.74450400000205,484.2454024000035,483.74450400000205,484.2454024000035,483.74450400000205,484.2454024000035,482.1755035999813,None,484.2454024000035,None,1.5800000000000012,485.1801101999881,None,485.9309831999999,None,,,,,,,[[0.92]],2.1000000000000014,0.6712328767123288,11034,001,2024_Jan_16_1026,MFTM_A_new1021,2021.2.3,60.32964115851272,
,,,,,,,,stim/Instruction_adaptive.png,conditions/adaptive.xlsx,test,0.6,0.6,0.6,-0.6,-0.6,right,R,,,,,0,1,1,1,0,73,73,90,,,,,,,,,,,,,,,,,,,,,,,,,,,,,,,,,,,,,,,,,,,,486.4318791999831,None,right,1,1.1360224999953061,486.9327830999973,488.9689677999995,486.9327830999973,488.46839959998033,486.9327830999973,488.46839959998033,486.9327830999973,488.46839959998033,486.9327830999973,488.46839959998033,486.9327830999973,488.46839959998033,488.4517562999972,488.9522652000014,488.4517562999972,488.9522652000014,488.4517562999972,488.9522652000014,488.4517562999972,488.9522652000014,488.4517562999972,488.9522652000014,488.4517562999972,488.9522652000014,488.4517562999972,488.9522652000014,488.4517562999972,488.9522652000014,486.9327830999973,None,488.9522652000014,None,1.5300000000000011,489.93722999998135,None,490.6891398000007,None,,,,,,,[[0.97]],2.1500000000000012,0.6756756756756757,11034,001,2024_Jan_16_1026,MFTM_A_new1021,2021.2.3,60.32964115851272,
,,,,,,,,stim/Instruction_adaptive.png,conditions/adaptive.xlsx,test,-0.6,-0.6,-0.6,0.6,0.6,left,L,,,,,0,1,1,1,0,74,74,65,,,,,,,,,,,,,,,,,,,,,,,,,,,,,,,,,,,,,,,,,,,,491.18909830000484,None,left,1,0.953465899976436,491.69036089998554,493.6763147999882,491.69036089998554,493.1760825999954,491.69036089998554,493.1760825999954,491.69036089998554,493.1760825999954,491.69036089998554,493.1760825999954,491.69036089998554,493.1760825999954,493.1586152999953,493.6595463999838,493.1586152999953,493.6595463999838,493.1586152999953,493.6595463999838,493.1586152999953,493.6595463999838,493.1586152999953,493.6595463999838,493.1586152999953,493.6595463999838,493.1586152999953,493.6595463999838,493.1586152999953,493.6595463999838,491.69036089998554,None,493.6595463999838,None,1.480000000000001,494.69434519999777,None,495.44557729997905,None,,,,,,,[[1.02]],2.1900000000000013,0.68,11034,001,2024_Jan_16_1026,MFTM_A_new1021,2021.2.3,60.32964115851272,
,,,,,,,,stim/Instruction_adaptive.png,conditions/adaptive.xlsx,test,0.6,0.6,0.6,-0.6,-0.6,right,R,,,,,0,1,1,1,0,75,75,92,,,,,,,,,,,,,,,,,,,,,,,,,,,,,,,,,,,,,,,,,,,,495.9463807999855,None,right,1,1.0445091000001412,496.44689579997794,498.4004139000026,496.44689579997794,497.89944799998193,496.44689579997794,497.89944799998193,496.44689579997794,497.89944799998193,496.44689579997794,497.89944799998193,496.44689579997794,497.89944799998193,497.8656920999929,498.3670754999912,497.8656920999929,498.3670754999912,497.8656920999929,498.3670754999912,497.8656920999929,498.3670754999912,497.8656920999929,498.3670754999912,497.8656920999929,498.3670754999912,497.8656920999929,498.3670754999912,497.8656920999929,498.3670754999912,496.44689579997794,None,498.3670754999912,499.434759900003,1.440000000000001,499.45161550000194,None,500.20268869999563,None,,,,,,,[[1.06]],2.2300000000000013,0.6842105263157895,11034,001,2024_Jan_16_1026,MFTM_A_new1021,2021.2.3,60.32964115851272,
,,,,,,,,stim/Instruction_adaptive.png,conditions/adaptive.xlsx,test,0.6,0.6,0.6,-0.6,-0.6,right,R,,,,,0,1,1,1,0,76,76,64,,,,,,,,,,,,,,,,,,,,,,,,,,,,,,,,,,,,,,,,,,,,500.7032646999869,None,right,1,1.1357778999954462,501.20440789998975,503.10709679999854,501.20440789998975,502.60633459998644,501.20440789998975,502.60633459998644,501.20440789998975,502.60633459998644,501.20440789998975,502.60633459998644,501.20440789998975,502.60633459998644,502.5902250999934,503.09031629998935,502.5902250999934,503.09031629998935,502.5902250999934,503.09031629998935,502.5902250999934,503.09031629998935,502.5902250999934,503.09031629998935,502.5902250999934,503.09031629998935,502.5902250999934,503.09031629998935,502.5902250999934,503.09031629998935,501.20440789998975,None,503.09031629998935,504.19302499998594,1.400000000000001,504.20871569999144,None,504.95992890000343,None,,,,,,,[[1.1]],2.2700000000000014,0.6883116883116883,11034,001,2024_Jan_16_1026,MFTM_A_new1021,2021.2.3,60.32964115851272,
,,,,,,,,stim/Instruction_adaptive.png,conditions/adaptive.xlsx,test,-0.6,-0.6,-0.6,0.6,0.6,left,L,,,,,0,1,1,1,0,77,77,61,,,,,,,,,,,,,,,,,,,,,,,,,,,,,,,,,,,,,,,,,,,,505.4605137000035,None,left,1,0.9624377000145614,505.9613741999783,507.83159459999297,505.9613741999783,507.33073649997823,505.9613741999783,507.33073649997823,505.9613741999783,507.33073649997823,505.9613741999783,507.33073649997823,505.9613741999783,507.33073649997823,507.29733329999726,507.7975058000011,507.29733329999726,507.7975058000011,507.29733329999726,507.7975058000011,507.29733329999726,507.7975058000011,507.29733329999726,507.7975058000011,507.29733329999726,507.7975058000011,507.29733329999726,507.7975058000011,507.29733329999726,507.7975058000011,505.9613741999783,None,507.7975058000011,508.9512339999783,1.360000000000001,508.9656516999821,None,509.71738970000297,None,,,,,,,[[1.14]],2.3000000000000016,0.6923076923076923,11034,001,2024_Jan_16_1026,MFTM_A_new1021,2021.2.3,60.32964115851272,
,,,,,,,,stim/Instruction_adaptive.png,conditions/adaptive.xlsx,test,-0.6,-0.6,-0.6,0.6,0.6,left,L,,,,,0,1,1,1,0,78,78,51,,,,,,,,,,,,,,,,,,,,,,,,,,,,,,,,,,,,,,,,,,,,510.21764509999775,None,left,1,1.165283999987878,510.7184642999782,512.5713934999949,510.7184642999782,512.0705724,510.7184642999782,512.0705724,510.7184642999782,512.0705724,510.7184642999782,512.0705724,510.7184642999782,512.0705724,512.037018300005,512.5377564999799,512.037018300005,512.5377564999799,512.037018300005,512.5377564999799,512.037018300005,512.5377564999799,512.037018300005,512.5377564999799,512.037018300005,512.5377564999799,512.037018300005,512.5377564999799,512.037018300005,512.5377564999799,510.7184642999782,None,512.5377564999799,513.706952699984,1.340000000000001,513.7230782999832,None,514.4742629999819,None,,,,,,,[[1.16]],2.3400000000000016,0.6962025316455697,11034,001,2024_Jan_16_1026,MFTM_A_new1021,2021.2.3,60.32964115851272,
,,,,,,,,stim/Instruction_adaptive.png,conditions/adaptive.xlsx,test,0.6,0.6,0.6,-0.6,-0.6,right,R,,,,,0,1,1,1,0,79,79,56,,,,,,,,,,,,,,,,,,,,,,,,,,,,,,,,,,,,,,,,,,,,514.9758438999997,None,right,1,0.7757970000093337,515.4761388000043,517.2789809999813,515.4761388000043,516.7775670999836,515.4761388000043,516.7775670999836,515.4761388000043,516.7775670999836,515.4761388000043,516.7775670999836,515.4761388000043,516.7775670999836,516.7607313999906,517.2617771999794,516.7607313999906,517.2617771999794,516.7607313999906,517.2617771999794,516.7607313999906,517.2617771999794,516.7607313999906,517.2617771999794,516.7607313999906,517.2617771999794,516.7607313999906,517.2617771999794,516.7607313999906,517.2617771999794,515.4761388000043,None,517.2617771999794,518.4636564999819,1.300000000000001,518.4804408999917,None,519.2316732000036,None,,,,,,,[[1.2]],2.370000000000002,0.7,11034,001,2024_Jan_16_1026,MFTM_A_new1021,2021.2.3,60.32964115851272,
,,,,,,,,stim/Instruction_adaptive.png,conditions/adaptive.xlsx,test,-0.6,-0.6,-0.6,0.6,0.6,left,L,,,,,0,1,1,1,0,80,80,57,,,,,,,,,,,,,,,,,,,,,,,,,,,,,,,,,,,,,,,,,,,,519.7321832999878,None,right,0,0.9552683999936562,520.2328366999864,522.0023561999842,520.2328366999864,521.5028329999768,520.2328366999864,521.5028329999768,520.2328366999864,521.5028329999768,520.2328366999864,521.5028329999768,520.2328366999864,521.5028329999768,521.4851468999987,521.9858706999803,521.4851468999987,521.9858706999803,521.4851468999987,521.9858706999803,521.4851468999987,521.9858706999803,521.4851468999987,521.9858706999803,521.4851468999987,521.9858706999803,521.4851468999987,521.9858706999803,521.4851468999987,521.9858706999803,520.2328366999864,None,521.9858706999803,523.2218868999917,1.270000000000001,523.2369203999988,None,523.9884866999928,None,,,,,,,[[1.23]],2.2700000000000014,0.691358024691358,11034,001,2024_Jan_16_1026,MFTM_A_new1021,2021.2.3,60.32964115851272,
,,,,,,,,stim/Instruction_adaptive.png,conditions/adaptive.xlsx,test,0.6,0.6,0.6,-0.6,-0.6,right,R,,,,,0,1,1,1,0,81,81,96,,,,,,,,,,,,,,,,,,,,,,,,,,,,,,,,,,,,,,,,,,,,524.4893154999882,None,right,1,1.1580468000029214,524.9901459999965,526.8599085999886,524.9901459999965,526.3594869999797,524.9901459999965,526.3594869999797,524.9901459999965,526.3594869999797,524.9901459999965,526.3594869999797,524.9901459999965,526.3594869999797,526.3422920999874,526.8435815999983,526.3422920999874,526.8435815999983,526.3422920999874,526.8435815999983,526.3422920999874,526.8435815999983,526.3422920999874,526.8435815999983,526.3422920999874,526.8435815999983,526.3422920999874,526.8435815999983,526.3422920999874,526.8435815999983,524.9901459999965,None,526.8265092999791,527.9788846999872,1.360000000000001,527.9947379999794,None,528.7457328999881,None,,,,,,,[[1.14]],2.3100000000000014,0.6951219512195121,11034,001,2024_Jan_16_1026,MFTM_A_new1021,2021.2.3,60.32964115851272,
,,,,,,,,stim/Instruction_adaptive.png,conditions/adaptive.xlsx,test,-0.6,-0.6,-0.6,0.6,0.6,left,L,,,,,0,1,1,1,0,82,82,91,,,,,,,,,,,,,,,,,,,,,,,,,,,,,,,,,,,,,,,,,,,,529.24748369999,None,right,0,1.153535399993416,529.7472781999968,531.5840056999878,529.7472781999968,531.0831796999846,529.7472781999968,531.0831796999846,529.7472781999968,531.0831796999846,529.7472781999968,531.0831796999846,529.7472781999968,531.0831796999846,531.0658809999877,531.5677179000049,531.0658809999877,531.5677179000049,531.0658809999877,531.5677179000049,531.0658809999877,531.5677179000049,531.0658809999877,531.5677179000049,531.0658809999877,531.5677179000049,531.0658809999877,531.5677179000049,531.0658809999877,531.5677179000049,529.7472781999968,None,531.5677179000049,None,1.330000000000001,532.7517818000051,None,533.5029923999973,None,,,,,,,[[1.17]],2.2100000000000017,0.6867469879518072,11034,001,2024_Jan_16_1026,MFTM_A_new1021,2021.2.3,60.32964115851272,
,,,,,,,,stim/Instruction_adaptive.png,conditions/adaptive.xlsx,test,0.6,0.6,0.6,-0.6,-0.6,right,R,,,,,0,1,1,1,0,83,83,82,,,,,,,,,,,,,,,,,,,,,,,,,,,,,,,,,,,,,,,,,,,,534.0047284000029,None,left,0,1.4282773000013549,534.5044881999784,536.4239385999972,534.5044881999784,535.923365900002,534.5044881999784,535.923365900002,534.5044881999784,535.923365900002,534.5044881999784,535.923365900002,534.5044881999784,535.923365900002,535.9067654999963,536.4085342999897,535.9067654999963,536.4085342999897,535.9067654999963,536.4085342999897,535.9067654999963,536.4085342999897,535.9067654999963,536.4085342999897,535.9067654999963,536.4085342999897,535.9067654999963,536.4085342999897,535.9067654999963,536.4085342999897,534.5044881999784,None,536.4085342999897,537.4923251,1.420000000000001,537.5095926999929,None,538.262567400001,None,,,,,,,[[1.08]],2.110000000000001,0.6785714285714286,11034,001,2024_Jan_16_1026,MFTM_A_new1021,2021.2.3,60.32964115851272,
,,,,,,,,stim/Instruction_adaptive.png,conditions/adaptive.xlsx,test,-0.6,-0.6,-0.6,0.6,0.6,left,L,,,,,0,1,1,1,0,84,84,37,,,,,,,,,,,,,,,,,,,,,,,,,,,,,,,,,,,,,,,,,,,,538.7616525999911,None,right,0,0.7592597999901045,539.26167539999,541.2823506999994,539.26167539999,540.7984870999935,539.26167539999,540.7984870999935,539.26167539999,540.7984870999935,539.26167539999,540.7984870999935,539.26167539999,540.7984870999935,540.7638284999994,541.2654617999797,540.7638284999994,541.2654617999797,540.7638284999994,541.2654617999797,540.7638284999994,541.2654617999797,540.7638284999994,541.2654617999797,540.7638284999994,541.2654617999797,540.7638284999994,541.2654617999797,540.7638284999994,541.2654617999797,539.26167539999,None,541.2654617999797,542.24982919998,1.5200000000000011,542.2661419999786,None,543.017369499983,None,,,,,,,[[0.98]],2.0000000000000013,0.6705882352941176,11034,001,2024_Jan_16_1026,MFTM_A_new1021,2021.2.3,60.32964115851272,
,,,,,,,,stim/Instruction_adaptive.png,conditions/adaptive.xlsx,test,0.6,0.6,0.6,-0.6,-0.6,right,R,,,,,0,1,1,1,0,85,85,86,,,,,,,,,,,,,,,,,,,,,,,,,,,,,,,,,,,,,,,,,,,,543.5180601000029,None,right,1,1.1457152999937534,544.0190467999782,546.1719702999981,544.0190467999782,545.671420300001,544.0190467999782,545.671420300001,544.0190467999782,545.671420300001,544.0190467999782,545.671420300001,544.0190467999782,545.671420300001,545.6381443999999,546.1388454999833,545.6381443999999,546.1388454999833,545.6381443999999,546.1388454999833,545.6381443999999,546.1388454999833,545.6381443999999,546.1388454999833,545.6381443999999,546.1388454999833,545.6381443999999,546.1388454999833,545.6381443999999,546.1388454999833,544.0190467999782,None,546.1388454999833,547.0080994000018,1.6400000000000012,547.0402133000025,None,547.7914341999858,None,,,,,,,[[0.86]],2.0400000000000014,0.6744186046511628,11034,001,2024_Jan_16_1026,MFTM_A_new1021,2021.2.3,60.32964115851272,
,,,,,,,,stim/Instruction_adaptive.png,conditions/adaptive.xlsx,test,-0.6,-0.6,-0.6,0.6,0.6,left,L,,,,,0,1,1,1,0,86,86,39,,,,,,,,,,,,,,,,,,,,,,,,,,,,,,,,,,,,,,,,,,,,548.2929799999984,None,right,0,2.019770499988226,548.7933248999761,550.8957168999768,548.7933248999761,550.395271299989,548.7933248999761,550.395271299989,548.7933248999761,550.395271299989,548.7933248999761,550.395271299989,548.7933248999761,550.395271299989,550.3784082999919,550.8802572999848,550.3784082999919,550.8802572999848,550.3784082999919,550.8802572999848,550.3784082999919,550.8802572999848,550.3784082999919,550.8802572999848,550.3784082999919,550.8802572999848,550.3784082999919,550.8802572999848,550.3784082999919,550.8802572999848,548.7933248999761,None,550.8802572999848,551.7811927000002,1.6000000000000012,551.7969403000025,None,552.5493472999951,None,,,,,,,[[0.9]],1.9200000000000013,0.6666666666666666,11034,001,2024_Jan_16_1026,MFTM_A_new1021,2021.2.3,60.32964115851272,
,,,,,,,,stim/Instruction_adaptive.png,conditions/adaptive.xlsx,test,-0.6,-0.6,-0.6,0.6,0.6,left,L,,,,,0,1,1,1,0,87,87,73,,,,,,,,,,,,,,,,,,,,,,,,,,,,,,,,,,,,,,,,,,,,553.0493256999762,None,left,1,1.2702275999763515,553.5507365999802,555.8042486000049,553.5507365999802,555.3032603999891,553.5507365999802,555.3032603999891,553.5507365999802,555.3032603999891,553.5507365999802,555.3032603999891,553.5507365999802,555.3032603999891,555.2690647999989,555.7699332000047,555.2690647999989,555.7699332000047,555.2690647999989,555.7699332000047,555.2690647999989,555.7699332000047,555.2690647999989,555.7699332000047,555.2690647999989,555.7699332000047,555.2690647999989,555.7699332000047,555.2690647999989,555.7699332000047,553.5507365999802,None,555.7699332000047,556.5376136999985,1.7400000000000013,556.554851199995,None,557.3056335999863,None,,,,,,,[[0.76]],1.9600000000000013,0.6704545454545454,11034,001,2024_Jan_16_1026,MFTM_A_new1021,2021.2.3,60.32964115851272,
,,,,,,,,stim/Instruction_adaptive.png,conditions/adaptive.xlsx,test,0.6,0.6,0.6,-0.6,-0.6,right,R,,,,,0,1,1,1,0,88,88,66,,,,,,,,,,,,,,,,,,,,,,,,,,,,,,,,,,,,,,,,,,,,557.8063831999898,None,right,1,2.5375658000120893,558.3086283000011,560.5111757999985,558.3086283000011,560.0097200000018,558.3086283000011,560.0097200000018,558.3086283000011,560.0097200000018,558.3086283000011,560.0097200000018,558.3086283000011,560.0097200000018,559.9762852999847,560.4769443999976,559.9762852999847,560.4769443999976,559.9762852999847,560.4769443999976,559.9762852999847,560.4769443999976,559.9762852999847,560.4769443999976,559.9762852999847,560.4769443999976,559.9762852999847,560.4769443999976,559.9762852999847,560.4769443999976,558.3086283000011,None,560.4769443999976,561.2957492999849,1.6900000000000013,561.311632099998,None,562.0625882000022,None,,,,,,,[[0.81]],2.0000000000000013,0.6741573033707865,11034,001,2024_Jan_16_1026,MFTM_A_new1021,2021.2.3,60.32964115851272,
,,,,,,,,stim/Instruction_adaptive.png,conditions/adaptive.xlsx,test,-0.6,-0.6,-0.6,0.6,0.6,left,L,,,,,0,1,1,1,0,89,89,11,,,,,,,,,,,,,,,,,,,,,,,,,,,,,,,,,,,,,,,,,,,,562.5634751000034,None,left,1,1.0048203000042122,563.0643278999778,565.2175572999986,563.0643278999778,564.7177093999926,563.0643278999778,564.7177093999926,563.0643278999778,564.7177093999926,563.0643278999778,564.7177093999926,563.0643278999778,564.7177093999926,564.6833093999885,565.1849354000005,564.6833093999885,565.1849354000005,564.6833093999885,565.1849354000005,564.6833093999885,565.1849354000005,564.6833093999885,565.1849354000005,564.6833093999885,565.1849354000005,564.6833093999885,565.1849354000005,564.6833093999885,565.1849354000005,563.0643278999778,None,565.1849354000005,566.0521646999987,1.6400000000000012,566.0688631999947,None,566.8201141000027,None,,,,,,,[[0.86]],2.0400000000000014,0.6777777777777778,11034,001,2024_Jan_16_1026,MFTM_A_new1021,2021.2.3,60.32964115851272,
,,,,,,,,stim/Instruction_adaptive.png,conditions/adaptive.xlsx,test,-0.6,-0.6,-0.6,0.6,0.6,left,L,,,,,0,1,1,1,0,90,90,47,,,,,,,,,,,,,,,,,,,,,,,,,,,,,,,,,,,,,,,,,,,,567.3207494999806,None,right,0,0.8315584999800194,567.8221438000037,569.9247935999883,567.8221438000037,569.4257643999881,567.8221438000037,569.4257643999881,567.8221438000037,569.4257643999881,567.8221438000037,569.4257643999881,567.8221438000037,569.4257643999881,569.4071361999959,569.9081195000035,569.4071361999959,569.9081195000035,569.4071361999959,569.9081195000035,569.4071361999959,569.9081195000035,569.4071361999959,569.9081195000035,569.4071361999959,569.9081195000035,569.4071361999959,569.9081195000035,569.4071361999959,569.9081195000035,567.8221438000037,None,569.9081195000035,570.8111952999898,1.6000000000000012,570.8440444000007,None,571.5946364999982,None,,,,,,,[[0.9]],1.9300000000000013,0.6703296703296703,11034,001,2024_Jan_16_1026,MFTM_A_new1021,2021.2.3,60.32964115851272,
,,,,,,,,stim/Instruction_adaptive.png,conditions/adaptive.xlsx,test,0.6,0.6,0.6,-0.6,-0.6,right,R,,,,,0,1,1,1,0,91,91,76,,,,,,,,,,,,,,,,,,,,,,,,,,,,,,,,,,,,,,,,,,,,572.0952058999974,None,right,1,1.0263998999726027,572.5954083999968,574.8320762999938,572.5954083999968,574.3315390999778,572.5954083999968,574.3315390999778,572.5954083999968,574.3315390999778,572.5954083999968,574.3315390999778,572.5954083999968,574.3315390999778,574.29794639998,574.7985809999809,574.29794639998,574.7985809999809,574.29794639998,574.7985809999809,574.29794639998,574.7985809999809,574.29794639998,574.7985809999809,574.29794639998,574.7985809999809,574.29794639998,574.7985809999809,574.29794639998,574.7985809999809,572.5954083999968,None,574.7985809999809,575.5835735999863,1.7300000000000013,575.5998502000002,None,576.3508678999788,None,,,,,,,[[0.77]],1.9700000000000013,0.6739130434782609,11034,001,2024_Jan_16_1026,MFTM_A_new1021,2021.2.3,60.32964115851272,
,,,,,,,,stim/Instruction_adaptive.png,conditions/adaptive.xlsx,test,0.6,0.6,0.6,-0.6,-0.6,right,R,,,,,0,1,1,1,0,92,92,24,,,,,,,,,,,,,,,,,,,,,,,,,,,,,,,,,,,,,,,,,,,,576.8521662999992,None,right,1,0.8854086000064854,577.3530966999824,579.5400363999943,577.3530966999824,579.0383828000049,577.3530966999824,579.0383828000049,577.3530966999824,579.0383828000049,577.3530966999824,579.0383828000049,577.3530966999824,579.0383828000049,579.0217639000039,579.5234539999801,579.0217639000039,579.5234539999801,579.0217639000039,579.5234539999801,579.0217639000039,579.5234539999801,579.0217639000039,579.5234539999801,579.0217639000039,579.5234539999801,579.0217639000039,579.5234539999801,579.0217639000039,579.5234539999801,577.3530966999824,None,579.5056771999807,580.3412096999818,1.6800000000000013,580.3568274999852,None,581.1087842999841,None,,,,,,,[[0.82]],2.0000000000000013,0.6774193548387096,11034,001,2024_Jan_16_1026,MFTM_A_new1021,2021.2.3,60.32964115851272,
,,,,,,,,stim/Instruction_adaptive.png,conditions/adaptive.xlsx,test,-0.6,-0.6,-0.6,0.6,0.6,left,L,,,,,0,1,1,1,0,93,93,33,,,,,,,,,,,,,,,,,,,,,,,,,,,,,,,,,,,,,,,,,,,,581.608870600001,None,left,1,1.1765019999875221,582.1096224999928,584.2641919000016,582.1096224999928,583.762426500005,582.1096224999928,583.762426500005,582.1096224999928,583.762426500005,582.1096224999928,583.762426500005,582.1096224999928,583.762426500005,583.7288397999946,584.2303867999872,583.7288397999946,584.2303867999872,583.7288397999946,584.2303867999872,583.7288397999946,584.2303867999872,583.7288397999946,584.2303867999872,583.7288397999946,584.2303867999872,583.7288397999946,584.2303867999872,583.7288397999946,584.2303867999872,582.1096224999928,None,584.2303867999872,585.0975522999943,1.6400000000000012,585.1142916999815,None,585.8663649999944,None,,,,,,,[[0.86]],2.0400000000000014,0.6808510638297872,11034,001,2024_Jan_16_1026,MFTM_A_new1021,2021.2.3,60.32964115851272,
