arrwidth1,arrwidth2,arrwidth3,arrwidth4,arrwidth5,keyb,type,orientation,instruction_image,block_filename,block_type,arrow11,arrow22,arrow33,arrow44,arrow55,keyb_3,orientation3,trials.thisRepN,trials.thisTrialN,trials.thisN,trials.thisIndex,trials_3.thisRepN,trials_3.thisTrialN,trials_3.thisN,trials_3.thisIndex,trials_2.thisRepN,trials_2.thisTrialN,trials_2.thisN,trials_2.thisIndex,welcome.started,welcome.stopped,key_resp.keys,key_resp.rt,key_resp.started,key_resp.stopped,instruction_example.started,instruction_example.stopped,key_resp_3.keys,key_resp_3.rt,key_resp_3.started,key_resp_3.stopped,instruction_task.started,instruction_task.stopped,key_resp_2.keys,key_resp_2.rt,key_resp_2.started,key_resp_2.stopped,text_2.started,text_2.stopped,A1.started,A1.stopped,A2.started,A2.stopped,A3.started,A3.stopped,A4.started,A4.stopped,A5.started,A5.stopped,key_resp_4.keys,key_resp_4.corr,key_resp_4.rt,key_resp_4.started,key_resp_4.stopped,fb.started,fb.stopped,instruction_block.started,instruction_block.stopped,key_resp_8.keys,key_resp_8.rt,key_resp_8.started,key_resp_8.stopped,text_8.started,text_8.stopped,key_resp_9.keys,key_resp_9.corr,key_resp_9.rt,text_5.started,text_5.stopped,A11_3.started,A11_3.stopped,A22_2.started,A22_2.stopped,A33_2.started,A33_2.stopped,A44_2.started,A44_2.stopped,A55_2.started,A55_2.stopped,M1_3.started,M1_3.stopped,M2_2.started,M2_2.stopped,M3_2.started,M3_2.stopped,M4_2.started,M4_2.stopped,M5_2.started,M5_2.stopped,M6_2.started,M6_2.stopped,M7_2.started,M7_2.stopped,M8_2.started,M8_2.stopped,key_resp_9.started,key_resp_9.stopped,fixation.started,fixation.stopped,ET,fb_3.started,fb_3.stopped,text_9.started,text_9.stopped,fb_4.started,fb_4.stopped,text_7.started,text_7.stopped,endtext.started,endtext.stopped,fixation_ITI,CCC,Acc,participant,session,date,expName,psychopyVersion,frameRate,
,,,,,,,,,,,,,,,,,,,,,,,,,,,,,,13.05916599999182,None,space,2.955220999981975,13.05916599999182,None,,,,,,,,,,,,,,,,,,,,,,,,,,,,,,,,,,,,,,,,,,,,,,,,,,,,,,,,,,,,,,,,,,,,,,,,,,,,,,,,,,,,,,,,,11039,002,2024_Mar_14_1003,MFTM_A_new1021,2021.2.3,59.86296170644484,
,,,,,,,,,,,,,,,,,,,,,,,,,,,,,,,,,,,,16.030564699991373,None,space,12.736263400001917,16.030564699991373,None,,,,,,,,,,,,,,,,,,,,,,,,,,,,,,,,,,,,,,,,,,,,,,,,,,,,,,,,,,,,,,,,,,,,,,,,,,,,,,,,,,,11039,002,2024_Mar_14_1003,MFTM_A_new1021,2021.2.3,59.86296170644484,
,,,,,,,,,,,,,,,,,,,,,,,,,,,,,,,,,,,,,,,,,,28.782794800004922,None,down,2.6324145999969915,28.782794800004922,None,,,,,,,,,,,,,,,,,,,,,,,,,,,,,,,,,,,,,,,,,,,,,,,,,,,,,,,,,,,,,,,,,,,,,,,,,,,,,11039,002,2024_Mar_14_1003,MFTM_A_new1021,2021.2.3,59.86296170644484,
-0.6,-0.6,-0.6,0.6,0.6,left,3:2,L,,,,,,,,,,,0,0,0,1,,,,,,,,,,,,,,,,,,,,,,,,,,,31.45465040000272,None,31.45465040000272,None,31.45465040000272,None,31.45465040000272,None,31.45465040000272,None,31.45465040000272,None,left,1,1.1444983999826945,31.45465040000272,None,32.6387526000035,None,,,,,,,,,,,,,,,,,,,,,,,,,,,,,,,,,,,,,,,,,,,,,,,,,,,,,,,,,,11039,002,2024_Mar_14_1003,MFTM_A_new1021,2021.2.3,59.86296170644484,
0.6,0.6,0.6,-0.6,-0.6,right,3:2,R,,,,,,,,,,,0,1,1,0,,,,,,,,,,,,,,,,,,,,,,,,,,,33.39000019998639,None,33.39000019998639,None,33.39000019998639,None,33.39000019998639,None,33.39000019998639,None,33.39000019998639,None,right,1,1.3608271999983117,33.39000019998639,None,34.77539959998103,None,,,,,,,,,,,,,,,,,,,,,,,,,,,,,,,,,,,,,,,,,,,,,,,,,,,,,,,,,,11039,002,2024_Mar_14_1003,MFTM_A_new1021,2021.2.3,59.86296170644484,
-0.6,-0.6,-0.6,0.6,0.6,left,3:2,L,,,,,,,,,,,1,0,2,1,,,,,,,,,,,,,,,,,,,,,,,,,,,35.52659739999217,None,35.52659739999217,None,35.52659739999217,None,35.52659739999217,None,35.52659739999217,None,35.52659739999217,None,left,1,0.928494599997066,35.52659739999217,None,36.47776619999786,None,,,,,,,,,,,,,,,,,,,,,,,,,,,,,,,,,,,,,,,,,,,,,,,,,,,,,,,,,,11039,002,2024_Mar_14_1003,MFTM_A_new1021,2021.2.3,59.86296170644484,
0.6,0.6,0.6,-0.6,-0.6,right,3:2,R,,,,,,,,,,,1,1,3,0,,,,,,,,,,,,,,,,,,,,,,,,,,,37.22995009997976,None,37.22995009997976,None,37.22995009997976,None,37.22995009997976,None,37.22995009997976,None,37.22995009997976,None,right,1,1.1770762999949511,37.22995009997976,None,38.43078070000047,None,,,,,,,,,,,,,,,,,,,,,,,,,,,,,,,,,,,,,,,,,,,,,,,,,,,,,,,,,,11039,002,2024_Mar_14_1003,MFTM_A_new1021,2021.2.3,59.86296170644484,
,,,,,,,,stim/Instruction_mask.png,conditions/adaptive.xlsx,practice,0.6,0.6,0.6,-0.6,-0.6,right,R,,,,,0,0,0,0,0,0,0,8,,,,,,,,,,,,,,,,,,,,,,,,,,,,,,,,,,,,,,39.41481469999417,None,down,1.9209540000010747,39.41481469999417,None,41.41806009999709,None,right,1,3.4499039000074845,41.86935219998122,None,41.86935219998122,44.87491690000752,41.86935219998122,44.87491690000752,41.86935219998122,44.87491690000752,41.86935219998122,44.87491690000752,41.86935219998122,44.87491690000752,44.857929299992975,45.35857829998713,44.857929299992975,45.35857829998713,44.857929299992975,45.35857829998713,44.857929299992975,45.35857829998713,44.857929299992975,45.35857829998713,44.857929299992975,45.35857829998713,44.857929299992975,45.35857829998713,44.857929299992975,45.35857829998713,41.86935219998122,None,45.35857829998713,45.35857829998713,3,45.37509289997979,None,46.12635269999737,None,,,,,,,,,,11039,002,2024_Mar_14_1003,MFTM_A_new1021,2021.2.3,59.86296170644484,
,,,,,,,,stim/Instruction_mask.png,conditions/adaptive.xlsx,practice,-0.6,-0.6,-0.6,0.6,0.6,left,L,,,,,0,0,0,0,0,1,1,95,,,,,,,,,,,,,,,,,,,,,,,,,,,,,,,,,,,,,,,,,,,,46.62768509998568,None,left,1,0.8962757999834139,47.127230099984445,49.13031680000131,47.127230099984445,48.63092169997981,47.127230099984445,48.63092169997981,47.127230099984445,48.63092169997981,47.127230099984445,48.63092169997981,47.127230099984445,48.63092169997981,48.61284149999847,49.113561999984086,48.61284149999847,49.113561999984086,48.61284149999847,49.113561999984086,48.61284149999847,49.113561999984086,48.61284149999847,49.113561999984086,48.61284149999847,49.113561999984086,48.61284149999847,49.113561999984086,48.61284149999847,49.113561999984086,47.127230099984445,None,49.113561999984086,50.61583949998021,1.5,50.632518500002334,None,51.38447019999148,None,,,,,,,,,,11039,002,2024_Mar_14_1003,MFTM_A_new1021,2021.2.3,59.86296170644484,
,,,,,,,,stim/Instruction_mask.png,conditions/adaptive.xlsx,practice,-0.6,-0.6,-0.6,0.6,0.6,left,L,,,,,0,0,0,0,0,2,2,61,,,,,,,,,,,,,,,,,,,,,,,,,,,,,,,,,,,,,,,,,,,,51.885282899980666,None,left,1,1.094086299999617,52.385255200002575,53.68738799999119,52.385255200002575,53.18616009998368,52.385255200002575,53.18616009998368,52.385255200002575,53.18616009998368,52.385255200002575,53.18616009998368,52.385255200002575,53.18616009998368,53.169610299984924,53.67054150000331,53.169610299984924,53.67054150000331,53.169610299984924,53.67054150000331,53.169610299984924,53.67054150000331,53.169610299984924,53.67054150000331,53.169610299984924,53.67054150000331,53.169610299984924,53.67054150000331,53.169610299984924,53.67054150000331,52.385255200002575,None,53.67054150000331,55.87381920000189,0.8,55.89046299998881,None,56.64200259998324,None,,,,,,,,,,11039,002,2024_Mar_14_1003,MFTM_A_new1021,2021.2.3,59.86296170644484,
,,,,,,,,stim/Instruction_mask.png,conditions/adaptive.xlsx,practice,0.6,0.6,0.6,-0.6,-0.6,right,R,,,,,0,0,0,0,0,3,3,10,,,,,,,,,,,,,,,,,,,,,,,,,,,,,,,,,,,,,,,,,,,,57.14248599999701,None,right,1,0.8203016999759711,57.643084199982695,58.39431949998834,57.643084199982695,57.89352489999146,57.643084199982695,57.89352489999146,57.643084199982695,57.89352489999146,57.643084199982695,57.89352489999146,57.643084199982695,57.89352489999146,57.87678269998287,58.37749280000571,57.87678269998287,58.37749280000571,57.87678269998287,58.37749280000571,57.87678269998287,58.37749280000571,57.87678269998287,58.37749280000571,57.87678269998287,58.37749280000571,57.87678269998287,58.37749280000571,57.87678269998287,58.37749280000571,57.643084199982695,None,58.37749280000571,61.13189910000074,3,61.14846189998207,None,61.899625399993965,None,,,,,,,,,,11039,002,2024_Mar_14_1003,MFTM_A_new1021,2021.2.3,59.86296170644484,
,,,,,,,,stim/Instruction_mask.png,conditions/adaptive.xlsx,practice,,,,,,,,,,,,0,0,0,0,,,,,,,,,,,,,,,,,,,,,,,,,,,,,,,,,,,,,,,,,,,,,,,,,,,,,,,,,,,,,,,,,,,,,,,,,,,,,,,,,,,,,,,,,,62.43356790000689,63.436376700003166,63.41846349998377,63.41846349998377,63.41846349998377,None,,,,11039,002,2024_Mar_14_1003,MFTM_A_new1021,2021.2.3,59.86296170644484,
,,,,,,,,stim/Instruction_adaptive.png,conditions/adaptive.xlsx,test,0.6,0.6,0.6,-0.6,-0.6,right,R,,,,,0,1,1,1,0,0,0,44,,,,,,,,,,,,,,,,,,,,,,,,,,,,,,,,,,,,,,66.58971430000383,None,down,2.2341377999982797,66.58971430000383,None,68.86004989998764,None,right,1,1.6309882999921683,69.36067679998814,None,69.36067679998814,72.36604429999716,69.36067679998814,72.36604429999716,69.36067679998814,72.36604429999716,69.36067679998814,72.36604429999716,69.36067679998814,72.36604429999716,72.33212909998838,72.83366079998086,72.33212909998838,72.83366079998086,72.33212909998838,72.83366079998086,72.33212909998838,72.83366079998086,72.33212909998838,72.83366079998086,72.33212909998838,72.83366079998086,72.33212909998838,72.83366079998086,72.33212909998838,72.83366079998086,69.36067679998814,None,72.83366079998086,72.83366079998086,3,72.86665109999012,None,73.61725059998571,None,,,,,,,0,6.000000000000005,1.0,11039,002,2024_Mar_14_1003,MFTM_A_new1021,2021.2.3,59.86296170644484,
,,,,,,,,stim/Instruction_adaptive.png,conditions/adaptive.xlsx,test,0.6,0.6,0.6,-0.6,-0.6,right,R,,,,,0,1,1,1,0,1,1,38,,,,,,,,,,,,,,,,,,,,,,,,,,,,,,,,,,,,,,,,,,,,74.11900310000055,None,left,0,0.765437900001416,74.618804800004,75.37044450000394,74.618804800004,74.86926779997884,74.618804800004,74.86926779997884,74.618804800004,74.86926779997884,74.618804800004,74.86926779997884,74.618804800004,74.86926779997884,74.85224929999094,75.35314669998479,74.85224929999094,75.35314669998479,74.85224929999094,75.35314669998479,74.85224929999094,75.35314669998479,74.85224929999094,75.35314669998479,74.85224929999094,75.35314669998479,74.85224929999094,75.35314669998479,74.85224929999094,75.35314669998479,74.618804800004,None,75.35314669998479,76.23888879999868,0.25,76.27242669998668,None,77.02221070000087,None,,,,,,,[0.875],2.570000000000002,0.5,11039,002,2024_Mar_14_1003,MFTM_A_new1021,2021.2.3,59.86296170644484,
,,,,,,,,stim/Instruction_adaptive.png,conditions/adaptive.xlsx,test,0.6,0.6,0.6,-0.6,-0.6,right,R,,,,,0,1,1,1,0,2,2,70,,,,,,,,,,,,,,,,,,,,,,,,,,,,,,,,,,,,,,,,,,,,77.52340410000761,None,right,1,1.1835015999968164,78.02438990000519,79.64297640000586,78.02438990000519,79.14224660000764,78.02438990000519,79.14224660000764,78.02438990000519,79.14224660000764,78.02438990000519,79.14224660000764,78.02438990000519,79.14224660000764,79.10969489999115,79.60947789999773,79.10969489999115,79.60947789999773,79.10969489999115,79.60947789999773,79.10969489999115,79.60947789999773,79.10969489999115,79.60947789999773,79.10969489999115,79.60947789999773,79.10969489999115,79.60947789999773,79.10969489999115,79.60947789999773,78.02438990000519,None,79.60947789999773,80.66131639998639,1.1100000000000008,80.69442600000184,None,81.44759120000526,None,,,,,,,[1.04666667],3.3800000000000026,0.6666666666666666,11039,002,2024_Mar_14_1003,MFTM_A_new1021,2021.2.3,59.86296170644484,
,,,,,,,,stim/Instruction_adaptive.png,conditions/adaptive.xlsx,test,-0.6,-0.6,-0.6,0.6,0.6,left,L,,,,,0,1,1,1,0,3,3,15,,,,,,,,,,,,,,,,,,,,,,,,,,,,,,,,,,,,,,,,,,,,81.9464239999943,None,left,1,0.8567699000122957,82.44746830000076,83.58237409999128,82.44746830000076,83.08212519998779,82.44746830000076,83.08212519998779,82.44746830000076,83.08212519998779,82.44746830000076,83.08212519998779,82.44746830000076,83.08212519998779,83.06580529999337,83.56568810000317,83.06580529999337,83.56568810000317,83.06580529999337,83.56568810000317,83.06580529999337,83.56568810000317,83.06580529999337,83.56568810000317,83.06580529999337,83.56568810000317,83.06580529999337,83.56568810000317,83.06580529999337,83.56568810000317,82.44746830000076,None,83.54875509999692,84.80077299999539,0.6300000000000003,84.83424419999938,None,85.58539110000129,None,,,,,,,[1.2525],3.940000000000003,0.75,11039,002,2024_Mar_14_1003,MFTM_A_new1021,2021.2.3,59.86296170644484,
,,,,,,,,stim/Instruction_adaptive.png,conditions/adaptive.xlsx,test,-0.6,-0.6,-0.6,0.6,0.6,left,L,,,,,0,1,1,1,0,4,4,89,,,,,,,,,,,,,,,,,,,,,,,,,,,,,,,,,,,,,,,,,,,,86.0867643999809,None,left,1,0.8362324000045191,86.58782479999354,87.5215241999831,86.58782479999354,87.02076479999232,86.58782479999354,87.02076479999232,86.58782479999354,87.02076479999232,86.58782479999354,87.02076479999232,86.58782479999354,87.02076479999232,87.00416759998188,87.50472840000293,87.00416759998188,87.50472840000293,87.00416759998188,87.50472840000293,87.00416759998188,87.50472840000293,87.00416759998188,87.50472840000293,87.00416759998188,87.50472840000293,87.00416759998188,87.50472840000293,87.00416759998188,87.50472840000293,86.58782479999354,None,87.50472840000293,88.92495739998412,0.43000000000000016,88.94047549998504,None,89.69187959999545,None,,,,,,,[1.416],4.370000000000004,0.8,11039,002,2024_Mar_14_1003,MFTM_A_new1021,2021.2.3,59.86296170644484,
,,,,,,,,stim/Instruction_adaptive.png,conditions/adaptive.xlsx,test,0.6,0.6,0.6,-0.6,-0.6,right,R,,,,,0,1,1,1,0,5,5,14,,,,,,,,,,,,,,,,,,,,,,,,,,,,,,,,,,,,,,,,,,,,90.19233449999592,None,right,1,0.7476346000039484,90.6930294999911,91.52800629998092,90.6930294999911,91.027505200007,90.6930294999911,91.027505200007,90.6930294999911,91.027505200007,90.6930294999911,91.027505200007,90.6930294999911,91.027505200007,90.99471539998194,91.4946767000074,90.99471539998194,91.4946767000074,90.99471539998194,91.4946767000074,90.99471539998194,91.4946767000074,90.99471539998194,91.4946767000074,90.99471539998194,91.4946767000074,90.99471539998194,91.4946767000074,90.99471539998194,91.4946767000074,90.6930294999911,None,91.4946767000074,93.04644559998997,0.32000000000000006,93.06351189999259,None,93.81538139999611,None,,,,,,,[1.54333333],4.7100000000000035,0.8333333333333334,11039,002,2024_Mar_14_1003,MFTM_A_new1021,2021.2.3,59.86296170644484,
,,,,,,,,stim/Instruction_adaptive.png,conditions/adaptive.xlsx,test,-0.6,-0.6,-0.6,0.6,0.6,left,L,,,,,0,1,1,1,0,6,6,55,,,,,,,,,,,,,,,,,,,,,,,,,,,,,,,,,,,,,,,,,,,,94.31507680000504,None,right,0,0.9449539000052027,94.81575409998186,95.56748840000364,94.81575409998186,95.06777249998413,94.81575409998186,95.06777249998413,94.81575409998186,95.06777249998413,94.81575409998186,95.06777249998413,94.81575409998186,95.06777249998413,95.05078339998727,95.55074360000435,95.05078339998727,95.55074360000435,95.05078339998727,95.55074360000435,95.05078339998727,95.55074360000435,95.05078339998727,95.55074360000435,95.05078339998727,95.55074360000435,95.05078339998727,95.55074360000435,95.05078339998727,95.55074360000435,94.81575409998186,None,95.55074360000435,97.20285589998821,0.25,97.21953060000669,None,97.97058170000673,None,,,,,,,[1.64428571],4.010000000000003,0.7142857142857143,11039,002,2024_Mar_14_1003,MFTM_A_new1021,2021.2.3,59.86296170644484,
,,,,,,,,stim/Instruction_adaptive.png,conditions/adaptive.xlsx,test,-0.6,-0.6,-0.6,0.6,0.6,left,L,,,,,0,1,1,1,0,7,7,63,,,,,,,,,,,,,,,,,,,,,,,,,,,,,,,,,,,,,,,,,,,,98.4716022000066,None,left,1,0.7563521999982186,98.97220990000642,99.89104789998964,98.97220990000642,99.38931289999164,98.97220990000642,99.38931289999164,98.97220990000642,99.38931289999164,98.97220990000642,99.38931289999164,98.97220990000642,99.38931289999164,99.37302009999985,99.87345399998594,99.37302009999985,99.87345399998594,99.37302009999985,99.87345399998594,99.37302009999985,99.87345399998594,99.37302009999985,99.87345399998594,99.37302009999985,99.87345399998594,99.37302009999985,99.87345399998594,99.37302009999985,99.87345399998594,98.97220990000642,None,99.87345399998594,101.57625459998962,0.41000000000000014,101.59256659998209,None,102.34521939998376,None,,,,,,,[1.7],4.280000000000003,0.75,11039,002,2024_Mar_14_1003,MFTM_A_new1021,2021.2.3,59.86296170644484,
,,,,,,,,stim/Instruction_adaptive.png,conditions/adaptive.xlsx,test,0.6,0.6,0.6,-0.6,-0.6,right,R,,,,,0,1,1,1,0,8,8,56,,,,,,,,,,,,,,,,,,,,,,,,,,,,,,,,,,,,,,,,,,,,102.845465099992,None,left,0,0.9835039000026882,103.3453760999837,104.1972976999823,103.3453760999837,103.69586109998636,103.3453760999837,103.69586109998636,103.3453760999837,103.69586109998636,103.3453760999837,103.69586109998636,103.3453760999837,103.69586109998636,103.66248229998746,104.16310529998736,103.66248229998746,104.16310529998736,103.66248229998746,104.16310529998736,103.66248229998746,104.16310529998736,103.66248229998746,104.16310529998736,103.66248229998746,104.16310529998736,103.66248229998746,104.16310529998736,103.66248229998746,104.16310529998736,103.3453760999837,None,104.16310529998736,105.91589999999269,0.3400000000000001,105.94924079999328,None,106.70062970000436,None,,,,,,,[1.75111111],3.650000000000003,0.6666666666666666,11039,002,2024_Mar_14_1003,MFTM_A_new1021,2021.2.3,59.86296170644484,
,,,,,,,,stim/Instruction_adaptive.png,conditions/adaptive.xlsx,test,0.6,0.6,0.6,-0.6,-0.6,right,R,,,,,0,1,1,1,0,9,9,52,,,,,,,,,,,,,,,,,,,,,,,,,,,,,,,,,,,,,,,,,,,,107.20171749999281,None,left,0,0.8424437000066973,107.70251559998724,108.73668629999156,107.70251559998724,108.23598850000417,107.70251559998724,108.23598850000417,107.70251559998724,108.23598850000417,107.70251559998724,108.23598850000417,107.70251559998724,108.23598850000417,108.20252469999832,108.70349849999184,108.20252469999832,108.70349849999184,108.20252469999832,108.70349849999184,108.20252469999832,108.70349849999184,108.20252469999832,108.70349849999184,108.20252469999832,108.70349849999184,108.20252469999832,108.70349849999184,108.20252469999832,108.70349849999184,107.70251559998724,None,108.70349849999184,110.48945180000737,0.5200000000000002,110.50617079998483,None,111.25731689998065,None,,,,,,,[1.774],2.940000000000002,0.6,11039,002,2024_Mar_14_1003,MFTM_A_new1021,2021.2.3,59.86296170644484,
,,,,,,,,stim/Instruction_adaptive.png,conditions/adaptive.xlsx,test,0.6,0.6,0.6,-0.6,-0.6,right,R,,,,,0,1,1,1,0,10,10,0,,,,,,,,,,,,,,,,,,,,,,,,,,,,,,,,,,,,,,,,,,,,111.75837249998585,None,right,1,1.2301100000040606,112.25884239998413,113.6276472999889,112.25884239998413,113.12675589998253,112.25884239998413,113.12675589998253,112.25884239998413,113.12675589998253,112.25884239998413,113.12675589998253,112.25884239998413,113.12675589998253,113.09336480000638,113.59408899999107,113.09336480000638,113.59408899999107,113.09336480000638,113.59408899999107,113.09336480000638,113.59408899999107,113.09336480000638,113.59408899999107,113.09336480000638,113.59408899999107,113.09336480000638,113.59408899999107,113.09336480000638,113.59408899999107,112.25884239998413,None,113.59408899999107,115.24676169999293,0.8600000000000005,115.26269589998992,None,116.01438760000747,None,,,,,,,[[1.64]],3.230000000000002,0.6363636363636364,11039,002,2024_Mar_14_1003,MFTM_A_new1021,2021.2.3,59.86296170644484,
,,,,,,,,stim/Instruction_adaptive.png,conditions/adaptive.xlsx,test,-0.6,-0.6,-0.6,0.6,0.6,left,L,,,,,0,1,1,1,0,11,11,43,,,,,,,,,,,,,,,,,,,,,,,,,,,,,,,,,,,,,,,,,,,,116.5154193000053,None,left,1,1.0094377000059467,117.01576919999206,118.2182627999864,117.01576919999206,117.71696829999564,117.01576919999206,117.71696829999564,117.01576919999206,117.71696829999564,117.01576919999206,117.71696829999564,117.01576919999206,117.71696829999564,117.70040489998064,118.20109499999671,117.70040489998064,118.20109499999671,117.70040489998064,118.20109499999671,117.70040489998064,118.20109499999671,117.70040489998064,118.20109499999671,117.70040489998064,118.20109499999671,117.70040489998064,118.20109499999671,117.70040489998064,118.20109499999671,117.01576919999206,None,118.20109499999671,119.97034639999038,0.7000000000000004,119.98695799999405,None,120.73963739999454,None,,,,,,,[1.765],3.4600000000000026,0.6666666666666666,11039,002,2024_Mar_14_1003,MFTM_A_new1021,2021.2.3,59.86296170644484,
,,,,,,,,stim/Instruction_adaptive.png,conditions/adaptive.xlsx,test,-0.6,-0.6,-0.6,0.6,0.6,left,L,,,,,0,1,1,1,0,12,12,41,,,,,,,,,,,,,,,,,,,,,,,,,,,,,,,,,,,,,,,,,,,,121.23891879999428,None,left,1,1.0610779999988154,121.74021489999723,122.84230429999297,121.74021489999723,122.34050229997956,121.74021489999723,122.34050229997956,121.74021489999723,122.34050229997956,121.74021489999723,122.34050229997956,121.74021489999723,122.34050229997956,122.32372600000235,122.8248595999903,122.32372600000235,122.8248595999903,122.32372600000235,122.8248595999903,122.32372600000235,122.8248595999903,122.32372600000235,122.8248595999903,122.32372600000235,122.8248595999903,122.32372600000235,122.8248595999903,122.32372600000235,122.8248595999903,121.74021489999723,None,122.8248595999903,124.6106949999812,0.6000000000000003,124.62747559999116,None,125.37856250000186,None,,,,,,,[1.77538462],3.640000000000003,0.6923076923076923,11039,002,2024_Mar_14_1003,MFTM_A_new1021,2021.2.3,59.86296170644484,
,,,,,,,,stim/Instruction_adaptive.png,conditions/adaptive.xlsx,test,-0.6,-0.6,-0.6,0.6,0.6,left,L,,,,,0,1,1,1,0,13,13,85,,,,,,,,,,,,,,,,,,,,,,,,,,,,,,,,,,,,,,,,,,,,125.88035550000495,None,left,1,0.9731386000057682,126.38024420000147,127.41544039998553,126.38024420000147,126.91479369997978,126.38024420000147,126.91479369997978,126.38024420000147,126.91479369997978,126.38024420000147,126.91479369997978,126.38024420000147,126.91479369997978,126.89749639999354,127.39908279999509,126.89749639999354,127.39908279999509,126.89749639999354,127.39908279999509,126.89749639999354,127.39908279999509,126.89749639999354,127.39908279999509,126.89749639999354,127.39908279999509,126.89749639999354,127.39908279999509,126.89749639999354,127.39908279999509,126.38024420000147,None,127.39908279999509,None,0.5300000000000002,129.2016556999879,None,129.95206300000427,None,,,,,,,[1.78928571],3.800000000000003,0.7142857142857143,11039,002,2024_Mar_14_1003,MFTM_A_new1021,2021.2.3,59.86296170644484,
,,,,,,,,stim/Instruction_adaptive.png,conditions/adaptive.xlsx,test,0.6,0.6,0.6,-0.6,-0.6,right,R,,,,,0,1,1,1,0,14,14,64,,,,,,,,,,,,,,,,,,,,,,,,,,,,,,,,,,,,,,,,,,,,130.45299489999888,None,left,0,0.8629079000093043,130.95448630000465,131.93946900000446,130.95448630000465,131.43775499999174,130.95448630000465,131.43775499999174,130.95448630000465,131.43775499999174,130.95448630000465,131.43775499999174,130.95448630000465,131.43775499999174,131.40434929999174,131.90513519998058,131.40434929999174,131.90513519998058,131.40434929999174,131.90513519998058,131.40434929999174,131.90513519998058,131.40434929999174,131.90513519998058,131.40434929999174,131.90513519998058,131.40434929999174,131.90513519998058,131.40434929999174,131.90513519998058,130.95448630000465,None,131.90513519998058,133.72539559999132,0.4700000000000002,133.74128099999507,None,134.49235169999884,None,,,,,,,[1.80533333],3.4000000000000026,0.6666666666666666,11039,002,2024_Mar_14_1003,MFTM_A_new1021,2021.2.3,59.86296170644484,
,,,,,,,,stim/Instruction_adaptive.png,conditions/adaptive.xlsx,test,-0.6,-0.6,-0.6,0.6,0.6,left,L,,,,,0,1,1,1,0,15,15,91,,,,,,,,,,,,,,,,,,,,,,,,,,,,,,,,,,,,,,,,,,,,134.99280019997968,None,left,1,0.9722602000110783,135.49384739997913,136.62908769998467,135.49384739997913,136.12832289998187,135.49384739997913,136.12832289998187,135.49384739997913,136.12832289998187,135.49384739997913,136.12832289998187,135.49384739997913,136.12832289998187,136.09561079999548,136.59549039998092,136.09561079999548,136.59549039998092,136.09561079999548,136.59549039998092,136.09561079999548,136.59549039998092,136.09561079999548,136.59549039998092,136.09561079999548,136.59549039998092,136.09561079999548,136.59549039998092,136.09561079999548,136.59549039998092,135.49384739997913,None,136.59549039998092,138.41489699998056,0.6200000000000003,138.4315730999806,None,139.1825542000006,None,,,,,,,[1.81],3.5500000000000025,0.6875,11039,002,2024_Mar_14_1003,MFTM_A_new1021,2021.2.3,59.86296170644484,
,,,,,,,,stim/Instruction_adaptive.png,conditions/adaptive.xlsx,test,-0.6,-0.6,-0.6,0.6,0.6,left,L,,,,,0,1,1,1,0,16,16,3,,,,,,,,,,,,,,,,,,,,,,,,,,,,,,,,,,,,,,,,,,,,139.68422379999538,None,right,0,0.8740357999922708,140.18433540000115,141.2528844999906,140.18433540000115,140.75205680000363,140.18433540000115,140.75205680000363,140.18433540000115,140.75205680000363,140.18433540000115,140.75205680000363,140.18433540000115,140.75205680000363,140.71948539998266,141.21955029998207,140.71948539998266,141.21955029998207,140.71948539998266,141.21955029998207,140.71948539998266,141.21955029998207,140.71948539998266,141.21955029998207,140.71948539998266,141.21955029998207,140.71948539998266,141.21955029998207,140.71948539998266,141.21955029998207,140.18433540000115,None,141.21955029998207,143.03846700000577,0.5600000000000003,143.0720064000052,None,143.82294250000268,None,,,,,,,[1.81764706],3.150000000000002,0.6470588235294118,11039,002,2024_Mar_14_1003,MFTM_A_new1021,2021.2.3,59.86296170644484,
,,,,,,,,stim/Instruction_adaptive.png,conditions/adaptive.xlsx,test,-0.6,-0.6,-0.6,0.6,0.6,left,L,,,,,0,1,1,1,0,17,17,27,,,,,,,,,,,,,,,,,,,,,,,,,,,,,,,,,,,,,,,,,,,,144.32453379998333,None,left,1,1.0815433000097983,144.82538100000238,146.0764952999889,144.82538100000238,145.5757217000064,144.82538100000238,145.5757217000064,144.82538100000238,145.5757217000064,144.82538100000238,145.5757217000064,144.82538100000238,145.5757217000064,145.54322709998814,146.043130999984,145.54322709998814,146.043130999984,145.54322709998814,146.043130999984,145.54322709998814,146.043130999984,145.54322709998814,146.043130999984,145.54322709998814,146.043130999984,145.54322709998814,146.043130999984,145.54322709998814,146.043130999984,144.82538100000238,None,146.043130999984,147.81358439999167,0.7400000000000004,147.82931420000386,None,148.58004159998382,None,,,,,,,[[1.76]],3.3100000000000023,0.6666666666666666,11039,002,2024_Mar_14_1003,MFTM_A_new1021,2021.2.3,59.86296170644484,
,,,,,,,,stim/Instruction_adaptive.png,conditions/adaptive.xlsx,test,-0.6,-0.6,-0.6,0.6,0.6,left,L,,,,,0,1,1,1,0,18,18,31,,,,,,,,,,,,,,,,,,,,,,,,,,,,,,,,,,,,,,,,,,,,149.08085030000075,None,left,1,1.0040641000086907,149.5817984000023,150.75090300000738,149.5817984000023,150.24935569998343,149.5817984000023,150.24935569998343,149.5817984000023,150.24935569998343,149.5817984000023,150.24935569998343,149.5817984000023,150.24935569998343,150.23269289999735,150.73331969999708,150.23269289999735,150.73331969999708,150.23269289999735,150.73331969999708,150.23269289999735,150.73331969999708,150.23269289999735,150.73331969999708,150.23269289999735,150.73331969999708,150.23269289999735,150.73331969999708,150.23269289999735,150.73331969999708,149.5817984000023,None,150.71676149999257,152.5370058999979,0.6600000000000004,152.5696304999874,None,153.32148459999007,None,,,,,,,[1.81578947],3.4400000000000026,0.6842105263157895,11039,002,2024_Mar_14_1003,MFTM_A_new1021,2021.2.3,59.86296170644484,
,,,,,,,,stim/Instruction_adaptive.png,conditions/adaptive.xlsx,test,-0.6,-0.6,-0.6,0.6,0.6,left,L,,,,,0,1,1,1,0,19,19,7,,,,,,,,,,,,,,,,,,,,,,,,,,,,,,,,,,,,,,,,,,,,153.8224557999929,None,right,0,1.1519037999969441,154.32261079997988,155.44185400000424,154.32261079997988,154.93983379998826,154.32261079997988,154.93983379998826,154.32261079997988,154.93983379998826,154.32261079997988,154.93983379998826,154.32261079997988,154.93983379998826,154.9231641999795,155.4243753000046,154.9231641999795,155.4243753000046,154.9231641999795,155.4243753000046,154.9231641999795,155.4243753000046,154.9231641999795,155.4243753000046,154.9231641999795,155.4243753000046,154.9231641999795,155.4243753000046,154.9231641999795,155.4243753000046,154.32261079997988,None,155.40735749999294,157.22812709998107,0.6100000000000003,157.25993189998553,None,158.01113060000353,None,,,,,,,[1.8195],3.0900000000000025,0.65,11039,002,2024_Mar_14_1003,MFTM_A_new1021,2021.2.3,59.86296170644484,
,,,,,,,,stim/Instruction_adaptive.png,conditions/adaptive.xlsx,test,-0.6,-0.6,-0.6,0.6,0.6,left,L,,,,,0,1,1,1,0,20,20,21,,,,,,,,,,,,,,,,,,,,,,,,,,,,,,,,,,,,,,,,,,,,158.5119285999972,None,left,1,0.9738484999979846,159.01247849999345,160.29786419999436,159.01247849999345,159.79770979998284,159.01247849999345,159.79770979998284,159.01247849999345,159.79770979998284,159.01247849999345,159.79770979998284,159.01247849999345,159.79770979998284,159.7642221999995,160.26456670000334,159.7642221999995,160.26456670000334,159.7642221999995,160.26456670000334,159.7642221999995,160.26456670000334,159.7642221999995,160.26456670000334,159.7642221999995,160.26456670000334,159.7642221999995,160.26456670000334,159.7642221999995,160.26456670000334,159.01247849999345,None,160.26456670000334,162.00045349998982,0.7700000000000005,162.01705639998545,None,162.76855269999942,None,,,,,,,[[1.73]],3.2200000000000024,0.6666666666666666,11039,002,2024_Mar_14_1003,MFTM_A_new1021,2021.2.3,59.86296170644484,
,,,,,,,,stim/Instruction_adaptive.png,conditions/adaptive.xlsx,test,0.6,0.6,0.6,-0.6,-0.6,right,R,,,,,0,1,1,1,0,21,21,76,,,,,,,,,,,,,,,,,,,,,,,,,,,,,,,,,,,,,,,,,,,,163.26904109999305,None,right,1,1.0089811999932863,163.7694455999881,164.98825480000232,163.7694455999881,164.48754339999869,163.7694455999881,164.48754339999869,163.7694455999881,164.48754339999869,163.7694455999881,164.48754339999869,163.7694455999881,164.48754339999869,164.45504509998136,164.9546956999984,164.45504509998136,164.9546956999984,164.45504509998136,164.9546956999984,164.45504509998136,164.9546956999984,164.45504509998136,164.9546956999984,164.45504509998136,164.9546956999984,164.45504509998136,164.9546956999984,164.45504509998136,164.9546956999984,163.7694455999881,None,164.9546956999984,166.7577762999863,0.7100000000000004,166.7741388999857,None,167.52553959999932,None,,,,,,,[[1.79]],3.3400000000000025,0.6818181818181818,11039,002,2024_Mar_14_1003,MFTM_A_new1021,2021.2.3,59.86296170644484,
,,,,,,,,stim/Instruction_adaptive.png,conditions/adaptive.xlsx,test,0.6,0.6,0.6,-0.6,-0.6,right,R,,,,,0,1,1,1,0,22,22,58,,,,,,,,,,,,,,,,,,,,,,,,,,,,,,,,,,,,,,,,,,,,168.02608929999406,None,right,1,0.9721220000064932,168.527013599989,169.6787275999959,168.527013599989,169.17805119999684,168.527013599989,169.17805119999684,168.527013599989,169.17805119999684,168.527013599989,169.17805119999684,168.527013599989,169.17805119999684,169.16135219999705,169.66286209999816,169.16135219999705,169.66286209999816,169.16135219999705,169.66286209999816,169.16135219999705,169.66286209999816,169.16135219999705,169.66286209999816,169.16135219999705,169.66286209999816,169.16135219999705,169.66286209999816,169.16135219999705,169.66286209999816,168.527013599989,None,169.66286209999816,171.48209669999778,0.6500000000000004,171.4978262000077,None,172.24910650000675,None,,,,,,,[1.81565217],3.4400000000000026,0.6956521739130435,11039,002,2024_Mar_14_1003,MFTM_A_new1021,2021.2.3,59.86296170644484,
,,,,,,,,stim/Instruction_adaptive.png,conditions/adaptive.xlsx,test,0.6,0.6,0.6,-0.6,-0.6,right,R,,,,,0,1,1,1,0,23,23,12,,,,,,,,,,,,,,,,,,,,,,,,,,,,,,,,,,,,,,,,,,,,172.7499089000048,None,left,0,0.9597736000141595,173.2507564999978,174.36910839998745,173.2507564999978,173.8681214999815,173.2507564999978,173.8681214999815,173.2507564999978,173.8681214999815,173.2507564999978,173.8681214999815,173.2507564999978,173.8681214999815,173.85150019999128,174.352498799999,173.85150019999128,174.352498799999,173.85150019999128,174.352498799999,173.85150019999128,174.352498799999,173.85150019999128,174.352498799999,173.85150019999128,174.352498799999,173.85150019999128,174.352498799999,173.85150019999128,174.352498799999,173.2507564999978,None,174.352498799999,176.17182049999246,0.6100000000000003,176.1886067999876,None,176.93967009999324,None,,,,,,,[1.81875],3.1600000000000024,0.6666666666666666,11039,002,2024_Mar_14_1003,MFTM_A_new1021,2021.2.3,59.86296170644484,
,,,,,,,,stim/Instruction_adaptive.png,conditions/adaptive.xlsx,test,0.6,0.6,0.6,-0.6,-0.6,right,R,,,,,0,1,1,1,0,24,24,22,,,,,,,,,,,,,,,,,,,,,,,,,,,,,,,,,,,,,,,,,,,,177.44049670000095,None,right,1,1.3420068999985233,177.94100349998916,179.1930095999851,177.94100349998916,178.69392409999273,177.94100349998916,178.69392409999273,177.94100349998916,178.69392409999273,177.94100349998916,178.69392409999273,177.94100349998916,178.69392409999273,178.65877809998346,179.16106240000227,178.65877809998346,179.16106240000227,178.65877809998346,179.16106240000227,178.65877809998346,179.16106240000227,178.65877809998346,179.16106240000227,178.65877809998346,179.16106240000227,178.65877809998346,179.16106240000227,178.65877809998346,179.16106240000227,177.94100349998916,None,179.16106240000227,180.92956759998924,0.7400000000000004,180.94570720000775,None,181.69759490000433,None,,,,,,,[[1.76]],3.2600000000000025,0.68,11039,002,2024_Mar_14_1003,MFTM_A_new1021,2021.2.3,59.86296170644484,
,,,,,,,,stim/Instruction_adaptive.png,conditions/adaptive.xlsx,test,-0.6,-0.6,-0.6,0.6,0.6,left,L,,,,,0,1,1,1,0,25,25,47,,,,,,,,,,,,,,,,,,,,,,,,,,,,,,,,,,,,,,,,,,,,182.19747369998368,None,left,1,1.1036668000160716,182.69929129999946,183.90061429998605,182.69929129999946,183.39923989999807,182.69929129999946,183.39923989999807,182.69929129999946,183.39923989999807,182.69929129999946,183.39923989999807,182.69929129999946,183.39923989999807,183.36588269998902,183.8668381999887,183.36588269998902,183.8668381999887,183.36588269998902,183.8668381999887,183.36588269998902,183.8668381999887,183.36588269998902,183.8668381999887,183.36588269998902,183.8668381999887,183.36588269998902,183.8668381999887,183.36588269998902,183.8668381999887,182.69929129999946,None,183.8668381999887,185.68696329998784,0.6900000000000004,185.7028752999904,None,186.45406540000113,None,,,,,,,[[1.81]],3.3500000000000023,0.6923076923076923,11039,002,2024_Mar_14_1003,MFTM_A_new1021,2021.2.3,59.86296170644484,
,,,,,,,,stim/Instruction_adaptive.png,conditions/adaptive.xlsx,test,0.6,0.6,0.6,-0.6,-0.6,right,R,,,,,0,1,1,1,0,26,26,88,,,,,,,,,,,,,,,,,,,,,,,,,,,,,,,,,,,,,,,,,,,,186.95477509999182,None,right,1,0.9232752000098117,187.45544570000493,188.60818680000375,187.45544570000493,188.10648640000727,187.45544570000493,188.10648640000727,187.45544570000493,188.10648640000727,187.45544570000493,188.10648640000727,187.45544570000493,188.10648640000727,188.08988449999015,188.59167309998884,188.08988449999015,188.59167309998884,188.08988449999015,188.59167309998884,188.08988449999015,188.59167309998884,188.08988449999015,188.59167309998884,188.08988449999015,188.59167309998884,188.08988449999015,188.59167309998884,188.08988449999015,188.59167309998884,187.45544570000493,None,188.59167309998884,190.41109789998154,0.6500000000000004,190.42616679999628,None,191.17984409999917,None,,,,,,,[1.81740741],3.4400000000000026,0.7037037037037037,11039,002,2024_Mar_14_1003,MFTM_A_new1021,2021.2.3,59.86296170644484,
,,,,,,,,stim/Instruction_adaptive.png,conditions/adaptive.xlsx,test,-0.6,-0.6,-0.6,0.6,0.6,left,L,,,,,0,1,1,1,0,27,27,75,,,,,,,,,,,,,,,,,,,,,,,,,,,,,,,,,,,,,,,,,,,,191.69626629998675,None,left,1,0.9592119000153616,192.1958350999921,193.31521629999042,192.1958350999921,192.8145154999802,192.1958350999921,192.8145154999802,192.1958350999921,192.8145154999802,192.1958350999921,192.8145154999802,192.1958350999921,192.8145154999802,192.78019349998794,193.2809782999975,192.78019349998794,193.2809782999975,192.78019349998794,193.2809782999975,192.78019349998794,193.2809782999975,192.78019349998794,193.2809782999975,192.78019349998794,193.2809782999975,192.78019349998794,193.2809782999975,192.78019349998794,193.2809782999975,192.1958350999921,None,193.2809782999975,195.10038699998404,0.6100000000000003,195.13354629999958,None,195.88564719998976,None,,,,,,,[1.82],3.5100000000000025,0.7142857142857143,11039,002,2024_Mar_14_1003,MFTM_A_new1021,2021.2.3,59.86296170644484,
,,,,,,,,stim/Instruction_adaptive.png,conditions/adaptive.xlsx,test,-0.6,-0.6,-0.6,0.6,0.6,left,L,,,,,0,1,1,1,0,28,28,45,,,,,,,,,,,,,,,,,,,,,,,,,,,,,,,,,,,,,,,,,,,,196.38571989999036,None,left,1,0.8266600999922957,196.88866299999063,197.9714047999878,196.88866299999063,197.4708219000022,196.88866299999063,197.4708219000022,196.88866299999063,197.4708219000022,196.88866299999063,197.4708219000022,196.88866299999063,197.4708219000022,197.4538853999984,197.95587039997918,197.4538853999984,197.95587039997918,197.4538853999984,197.95587039997918,197.4538853999984,197.95587039997918,197.4538853999984,197.95587039997918,197.4538853999984,197.95587039997918,197.4538853999984,197.95587039997918,197.4538853999984,197.95587039997918,196.88866299999063,None,197.95587039997918,199.79057650000323,0.5800000000000003,199.80744179998874,None,200.55842009998742,None,,,,,,,[1.82344828],3.5800000000000027,0.7241379310344828,11039,002,2024_Mar_14_1003,MFTM_A_new1021,2021.2.3,59.86296170644484,
,,,,,,,,stim/Instruction_adaptive.png,conditions/adaptive.xlsx,test,0.6,0.6,0.6,-0.6,-0.6,right,R,,,,,0,1,1,1,0,29,29,30,,,,,,,,,,,,,,,,,,,,,,,,,,,,,,,,,,,,,,,,,,,,201.0593212999811,None,left,0,0.867543599975761,201.56080899998778,202.61264869998558,201.56080899998778,202.1108173999819,201.56080899998778,202.1108173999819,201.56080899998778,202.1108173999819,201.56080899998778,202.1108173999819,201.56080899998778,202.1108173999819,202.09409169998253,202.59505800000625,202.09409169998253,202.59505800000625,202.09409169998253,202.59505800000625,202.09409169998253,202.59505800000625,202.09409169998253,202.59505800000625,202.09409169998253,202.59505800000625,202.09409169998253,202.59505800000625,202.09409169998253,202.59505800000625,201.56080899998778,None,202.59505800000625,204.431373600004,0.5500000000000003,204.44775219997973,None,205.19885459999205,None,,,,,,,[1.82766667],3.3800000000000026,0.7,11039,002,2024_Mar_14_1003,MFTM_A_new1021,2021.2.3,59.86296170644484,
,,,,,,,,stim/Instruction_adaptive.png,conditions/adaptive.xlsx,test,0.6,0.6,0.6,-0.6,-0.6,right,R,,,,,0,1,1,1,0,30,30,68,,,,,,,,,,,,,,,,,,,,,,,,,,,,,,,,,,,,,,,,,,,,205.69959109998308,None,left,0,0.8832850999897346,206.20041600000695,207.33542099999613,206.20041600000695,206.8352462000039,206.20041600000695,206.8352462000039,206.20041600000695,206.8352462000039,206.20041600000695,206.8352462000039,206.20041600000695,206.8352462000039,206.81808959998307,207.31859829998575,206.81808959998307,207.31859829998575,206.81808959998307,207.31859829998575,206.81808959998307,207.31859829998575,206.81808959998307,207.31859829998575,206.81808959998307,207.31859829998575,206.81808959998307,207.31859829998575,206.81808959998307,207.31859829998575,206.20041600000695,None,207.31859829998575,209.15493819999392,0.6300000000000003,209.17154549999395,None,209.9225785000017,None,,,,,,,[1.82903226],3.1700000000000026,0.6774193548387096,11039,002,2024_Mar_14_1003,MFTM_A_new1021,2021.2.3,59.86296170644484,
,,,,,,,,stim/Instruction_adaptive.png,conditions/adaptive.xlsx,test,-0.6,-0.6,-0.6,0.6,0.6,left,L,,,,,0,1,1,1,0,31,31,73,,,,,,,,,,,,,,,,,,,,,,,,,,,,,,,,,,,,,,,,,,,,210.42331499999273,None,left,1,0.9516310000035446,210.92411289998563,212.1604847999988,210.92411289998563,211.66015789998346,210.92411289998563,211.66015789998346,210.92411289998563,211.66015789998346,210.92411289998563,211.66015789998346,210.92411289998563,211.66015789998346,211.6419365000038,212.14274379998096,211.6419365000038,212.14274379998096,211.6419365000038,212.14274379998096,211.6419365000038,212.14274379998096,211.6419365000038,212.14274379998096,211.6419365000038,212.14274379998096,211.6419365000038,212.14274379998096,211.6419365000038,212.14274379998096,210.92411289998563,None,212.14274379998096,213.9129382999963,0.7300000000000004,213.92859769999632,None,214.68052100000205,None,,,,,,,[[1.77]],3.2500000000000027,0.6875,11039,002,2024_Mar_14_1003,MFTM_A_new1021,2021.2.3,59.86296170644484,
,,,,,,,,stim/Instruction_adaptive.png,conditions/adaptive.xlsx,test,0.6,0.6,0.6,-0.6,-0.6,right,R,,,,,0,1,1,1,0,32,32,10,,,,,,,,,,,,,,,,,,,,,,,,,,,,,,,,,,,,,,,,,,,,215.1805011999968,None,right,1,0.9057887999806553,215.6818915999902,216.88394229998812,215.6818915999902,216.38297619999503,215.6818915999902,216.38297619999503,215.6818915999902,216.38297619999503,215.6818915999902,216.38297619999503,215.6818915999902,216.38297619999503,216.34941130000516,216.84993679999025,216.34941130000516,216.84993679999025,216.34941130000516,216.84993679999025,216.34941130000516,216.84993679999025,216.34941130000516,216.84993679999025,216.34941130000516,216.84993679999025,216.34941130000516,216.84993679999025,216.34941130000516,216.84993679999025,215.6818915999902,None,216.84993679999025,218.6691127999802,0.6900000000000004,218.68581429999904,None,219.4370329999947,None,,,,,,,[[1.81]],3.3200000000000025,0.696969696969697,11039,002,2024_Mar_14_1003,MFTM_A_new1021,2021.2.3,59.86296170644484,
,,,,,,,,stim/Instruction_adaptive.png,conditions/adaptive.xlsx,test,-0.6,-0.6,-0.6,0.6,0.6,left,L,,,,,0,1,1,1,0,33,33,79,,,,,,,,,,,,,,,,,,,,,,,,,,,,,,,,,,,,,,,,,,,,219.93801579999854,None,left,1,0.9182869000069331,220.43822149999323,221.60724789998494,220.43822149999323,221.10694909997983,220.43822149999323,221.10694909997983,220.43822149999323,221.10694909997983,220.43822149999323,221.10694909997983,220.43822149999323,221.10694909997983,221.090109199984,221.59090809998452,221.090109199984,221.59090809998452,221.090109199984,221.59090809998452,221.090109199984,221.59090809998452,221.090109199984,221.59090809998452,221.090109199984,221.59090809998452,221.090109199984,221.59090809998452,221.090109199984,221.59090809998452,220.43822149999323,None,221.59090809998452,None,0.6600000000000004,223.42620119999629,None,224.17745669998112,None,,,,,,,[1.82705882],3.3900000000000023,0.7058823529411765,11039,002,2024_Mar_14_1003,MFTM_A_new1021,2021.2.3,59.86296170644484,
,,,,,,,,stim/Instruction_adaptive.png,conditions/adaptive.xlsx,test,0.6,0.6,0.6,-0.6,-0.6,right,R,,,,,0,1,1,1,0,34,34,92,,,,,,,,,,,,,,,,,,,,,,,,,,,,,,,,,,,,,,,,,,,,224.6790684000007,None,right,1,0.9532125999976415,225.17903569998452,226.3143935999833,225.17903569998452,225.8132939999923,225.17903569998452,225.8132939999923,225.17903569998452,225.8132939999923,225.17903569998452,225.8132939999923,225.17903569998452,225.8132939999923,225.7967639999988,226.29759360000025,225.7967639999988,226.29759360000025,225.7967639999988,226.29759360000025,225.7967639999988,226.29759360000025,225.7967639999988,226.29759360000025,225.7967639999988,226.29759360000025,225.7967639999988,226.29759360000025,225.7967639999988,226.29759360000025,225.17903569998452,None,226.29759360000025,228.13592279999284,0.6300000000000003,228.14998149999883,None,228.9012309999962,None,,,,,,,[1.82828571],3.450000000000003,0.7142857142857143,11039,002,2024_Mar_14_1003,MFTM_A_new1021,2021.2.3,59.86296170644484,
,,,,,,,,stim/Instruction_adaptive.png,conditions/adaptive.xlsx,test,0.6,0.6,0.6,-0.6,-0.6,right,R,,,,,0,1,1,1,0,35,35,36,,,,,,,,,,,,,,,,,,,,,,,,,,,,,,,,,,,,,,,,,,,,229.40208390000043,None,left,0,0.7894238000153564,229.90270740000415,231.00500199999078,229.90270740000415,230.50379039999098,229.90270740000415,230.50379039999098,229.90270740000415,230.50379039999098,229.90270740000415,230.50379039999098,229.90270740000415,230.50379039999098,230.48710519997985,230.9884563999949,230.48710519997985,230.9884563999949,230.48710519997985,230.9884563999949,230.48710519997985,230.9884563999949,230.48710519997985,230.9884563999949,230.48710519997985,230.9884563999949,230.48710519997985,230.9884563999949,230.48710519997985,230.9884563999949,229.90270740000415,None,230.9884563999949,232.82452779999585,0.6000000000000003,232.8403335000039,None,233.59172549998038,None,,,,,,,[1.83027778],3.2700000000000022,0.6944444444444444,11039,002,2024_Mar_14_1003,MFTM_A_new1021,2021.2.3,59.86296170644484,
,,,,,,,,stim/Instruction_adaptive.png,conditions/adaptive.xlsx,test,-0.6,-0.6,-0.6,0.6,0.6,left,L,,,,,0,1,1,1,0,36,36,95,,,,,,,,,,,,,,,,,,,,,,,,,,,,,,,,,,,,,,,,,,,,234.09265289999894,None,left,1,0.8750324999855366,234.59330710000359,235.77884119999362,234.59330710000359,235.27759719997994,234.59330710000359,235.27759719997994,234.59330710000359,235.27759719997994,234.59330710000359,235.27759719997994,234.59330710000359,235.27759719997994,235.26091379998252,235.7621048000001,235.26091379998252,235.7621048000001,235.26091379998252,235.7621048000001,235.26091379998252,235.7621048000001,235.26091379998252,235.7621048000001,235.26091379998252,235.7621048000001,235.26091379998252,235.7621048000001,235.26091379998252,235.7621048000001,234.59330710000359,None,235.7621048000001,237.5816045999818,0.6800000000000004,237.59830610000063,None,238.34888149998733,None,,,,,,,[[1.82]],3.3300000000000027,0.7027027027027027,11039,002,2024_Mar_14_1003,MFTM_A_new1021,2021.2.3,59.86296170644484,
,,,,,,,,stim/Instruction_adaptive.png,conditions/adaptive.xlsx,test,-0.6,-0.6,-0.6,0.6,0.6,left,L,,,,,0,1,1,1,0,37,37,39,,,,,,,,,,,,,,,,,,,,,,,,,,,,,,,,,,,,,,,,,,,,238.84943360000034,None,left,1,0.9660538999887649,239.35047809997923,240.50202679997892,239.35047809997923,240.00252690000343,239.35047809997923,240.00252690000343,239.35047809997923,240.00252690000343,239.35047809997923,240.00252690000343,239.35047809997923,240.00252690000343,239.98458580000442,240.48639790000743,239.98458580000442,240.48639790000743,239.98458580000442,240.48639790000743,239.98458580000442,240.48639790000743,239.98458580000442,240.48639790000743,239.98458580000442,240.48639790000743,239.98458580000442,240.48639790000743,239.98458580000442,240.48639790000743,239.35047809997923,None,240.48639790000743,242.32151949999388,0.6500000000000004,242.3382106999925,None,243.09000060000108,None,,,,,,,[1.83052632],3.3900000000000023,0.7105263157894737,11039,002,2024_Mar_14_1003,MFTM_A_new1021,2021.2.3,59.86296170644484,
,,,,,,,,stim/Instruction_adaptive.png,conditions/adaptive.xlsx,test,-0.6,-0.6,-0.6,0.6,0.6,left,L,,,,,0,1,1,1,0,38,38,13,,,,,,,,,,,,,,,,,,,,,,,,,,,,,,,,,,,,,,,,,,,,243.59103720000712,None,right,0,1.128340199997183,244.0918551000068,245.22556009999244,244.0918551000068,244.72593469999265,244.0918551000068,244.72593469999265,244.0918551000068,244.72593469999265,244.0918551000068,244.72593469999265,244.0918551000068,244.72593469999265,244.7096086999809,245.2088769999973,244.7096086999809,245.2088769999973,244.7096086999809,245.2088769999973,244.7096086999809,245.2088769999973,244.7096086999809,245.2088769999973,244.7096086999809,245.2088769999973,244.7096086999809,245.2088769999973,244.7096086999809,245.2088769999973,244.0918551000068,None,245.2088769999973,247.04533470000024,0.6300000000000003,247.06186260000686,None,247.81410819999292,None,,,,,,,[1.83153846],3.2200000000000024,0.6923076923076923,11039,002,2024_Mar_14_1003,MFTM_A_new1021,2021.2.3,59.86296170644484,
,,,,,,,,stim/Instruction_adaptive.png,conditions/adaptive.xlsx,test,-0.6,-0.6,-0.6,0.6,0.6,left,L,,,,,0,1,1,1,0,39,39,25,,,,,,,,,,,,,,,,,,,,,,,,,,,,,,,,,,,,,,,,,,,,248.31390389997978,None,left,1,0.8060130999947432,248.814527599985,250.03338099998655,248.814527599985,249.532398499985,248.814527599985,249.532398499985,248.814527599985,249.532398499985,248.814527599985,249.532398499985,248.814527599985,249.532398499985,249.49886540000443,250.0003366000019,249.49886540000443,250.0003366000019,249.49886540000443,250.0003366000019,249.49886540000443,250.0003366000019,249.49886540000443,250.0003366000019,249.49886540000443,250.0003366000019,249.49886540000443,250.0003366000019,249.49886540000443,250.0003366000019,248.814527599985,None,250.0003366000019,251.8026975999819,0.7100000000000004,251.81896699999925,None,252.57032840000466,None,,,,,,,[[1.79]],3.2800000000000025,0.7,11039,002,2024_Mar_14_1003,MFTM_A_new1021,2021.2.3,59.86296170644484,
,,,,,,,,stim/Instruction_adaptive.png,conditions/adaptive.xlsx,test,0.6,0.6,0.6,-0.6,-0.6,right,R,,,,,0,1,1,1,0,40,40,16,,,,,,,,,,,,,,,,,,,,,,,,,,,,,,,,,,,,,,,,,,,,253.0717600999924,None,right,1,0.8730116999940947,253.5718909999996,254.75689289998263,253.5718909999996,254.256109799986,253.5718909999996,254.256109799986,253.5718909999996,254.256109799986,253.5718909999996,254.256109799986,253.5718909999996,254.256109799986,254.23934699999518,254.74036339999293,254.23934699999518,254.74036339999293,254.23934699999518,254.74036339999293,254.23934699999518,254.74036339999293,254.23934699999518,254.74036339999293,254.23934699999518,254.74036339999293,254.23934699999518,254.74036339999293,254.23934699999518,254.74036339999293,253.5718909999996,None,254.74036339999293,256.5624137999839,0.6800000000000004,256.57631350000156,None,257.3283215999836,None,,,,,,,[[1.82]],3.3400000000000025,0.7073170731707317,11039,002,2024_Mar_14_1003,MFTM_A_new1021,2021.2.3,59.86296170644484,
,,,,,,,,stim/Instruction_adaptive.png,conditions/adaptive.xlsx,test,-0.6,-0.6,-0.6,0.6,0.6,left,L,,,,,0,1,1,1,0,41,41,23,,,,,,,,,,,,,,,,,,,,,,,,,,,,,,,,,,,,,,,,,,,,257.82912949999445,None,left,1,0.8919990000140388,258.32887979998486,259.4820026999805,258.32887979998486,258.9799220999994,258.32887979998486,258.9799220999994,258.32887979998486,258.9799220999994,258.32887979998486,258.9799220999994,258.32887979998486,258.9799220999994,258.9629624999943,259.4647516999976,258.9629624999943,259.4647516999976,258.9629624999943,259.4647516999976,258.9629624999943,259.4647516999976,258.9629624999943,259.4647516999976,258.9629624999943,259.4647516999976,258.9629624999943,259.4647516999976,258.9629624999943,259.4647516999976,258.32887979998486,None,259.4647516999976,261.30013019999024,0.6500000000000004,261.31697789998725,None,262.06820429998334,None,,,,,,,[1.83071429],3.3900000000000023,0.7142857142857143,11039,002,2024_Mar_14_1003,MFTM_A_new1021,2021.2.3,59.86296170644484,
,,,,,,,,stim/Instruction_adaptive.png,conditions/adaptive.xlsx,test,0.6,0.6,0.6,-0.6,-0.6,right,R,,,,,0,1,1,1,0,42,42,42,,,,,,,,,,,,,,,,,,,,,,,,,,,,,,,,,,,,,,,,,,,,262.5692671999859,None,right,1,0.8237652000098024,263.06958250000025,264.20502520000446,263.06958250000025,263.7037911999796,263.06958250000025,263.7037911999796,263.06958250000025,263.7037911999796,263.06958250000025,263.7037911999796,263.06958250000025,263.7037911999796,263.6876833999995,264.1882975999906,263.6876833999995,264.1882975999906,263.6876833999995,264.1882975999906,263.6876833999995,264.1882975999906,263.6876833999995,264.1882975999906,263.6876833999995,264.1882975999906,263.6876833999995,264.1882975999906,263.6876833999995,264.1882975999906,263.06958250000025,None,264.1882975999906,266.02379700000165,0.6300000000000003,266.04135109999334,None,266.7925314999884,None,,,,,,,[1.83162791],3.4400000000000026,0.7209302325581395,11039,002,2024_Mar_14_1003,MFTM_A_new1021,2021.2.3,59.86296170644484,
,,,,,,,,stim/Instruction_adaptive.png,conditions/adaptive.xlsx,test,0.6,0.6,0.6,-0.6,-0.6,right,R,,,,,0,1,1,1,0,43,43,48,,,,,,,,,,,,,,,,,,,,,,,,,,,,,,,,,,,,,,,,,,,,267.29299549999996,None,left,0,0.8925315999949817,267.7930326999922,268.9114034999802,267.7930326999922,268.4109238999954,267.7930326999922,268.4109238999954,267.7930326999922,268.4109238999954,267.7930326999922,268.4109238999954,267.7930326999922,268.4109238999954,268.37749109999277,268.878240799997,268.37749109999277,268.878240799997,268.37749109999277,268.878240799997,268.37749109999277,268.878240799997,268.37749109999277,268.878240799997,268.37749109999277,268.878240799997,268.37749109999277,268.878240799997,268.37749109999277,268.878240799997,267.7930326999922,None,268.878240799997,270.71460399997886,0.6100000000000003,270.7478158999875,None,271.4999758999911,None,,,,,,,[1.83295455],3.3000000000000025,0.7045454545454546,11039,002,2024_Mar_14_1003,MFTM_A_new1021,2021.2.3,59.86296170644484,
,,,,,,,,stim/Instruction_adaptive.png,conditions/adaptive.xlsx,test,0.6,0.6,0.6,-0.6,-0.6,right,R,,,,,0,1,1,1,0,44,44,72,,,,,,,,,,,,,,,,,,,,,,,,,,,,,,,,,,,,,,,,,,,,271.9993627000076,None,right,1,1.1525816000066698,272.50104020000435,273.6854464999924,272.50104020000435,273.1847129999951,272.50104020000435,273.1847129999951,272.50104020000435,273.1847129999951,272.50104020000435,273.1847129999951,272.50104020000435,273.1847129999951,273.15300570000545,273.6528177,273.15300570000545,273.6528177,273.15300570000545,273.6528177,273.15300570000545,273.6528177,273.15300570000545,273.6528177,273.15300570000545,273.6528177,273.15300570000545,273.6528177,273.15300570000545,273.6528177,272.50104020000435,None,273.6528177,275.4880695999891,0.6700000000000004,275.5048996999976,None,276.256066300004,None,,,,,,,[[1.83]],3.3500000000000023,0.7111111111111111,11039,002,2024_Mar_14_1003,MFTM_A_new1021,2021.2.3,59.86296170644484,
,,,,,,,,stim/Instruction_adaptive.png,conditions/adaptive.xlsx,test,-0.6,-0.6,-0.6,0.6,0.6,left,L,,,,,0,1,1,1,0,45,45,49,,,,,,,,,,,,,,,,,,,,,,,,,,,,,,,,,,,,,,,,,,,,276.7566939999815,None,left,1,0.8433460999804083,277.25822240000707,278.4099761999969,277.25822240000707,277.90863920000265,277.25822240000707,277.90863920000265,277.25822240000707,277.90863920000265,277.25822240000707,277.90863920000265,277.25822240000707,277.90863920000265,277.89183179999236,278.39312829999835,277.89183179999236,278.39312829999835,277.89183179999236,278.39312829999835,277.89183179999236,278.39312829999835,277.89183179999236,278.39312829999835,277.89183179999236,278.39312829999835,277.89183179999236,278.39312829999835,277.89183179999236,278.39312829999835,277.25822240000707,None,278.39312829999835,280.22978199998033,0.6500000000000004,280.24496509999153,None,280.9962361000071,None,,,,,,,[1.83326087],3.4000000000000026,0.717391304347826,11039,002,2024_Mar_14_1003,MFTM_A_new1021,2021.2.3,59.86296170644484,
,,,,,,,,stim/Instruction_adaptive.png,conditions/adaptive.xlsx,test,-0.6,-0.6,-0.6,0.6,0.6,left,L,,,,,0,1,1,1,0,46,46,67,,,,,,,,,,,,,,,,,,,,,,,,,,,,,,,,,,,,,,,,,,,,281.4974947999872,None,left,1,0.8076552000129595,281.9980364999792,283.1329358999792,281.9980364999792,282.63227109998115,281.9980364999792,282.63227109998115,281.9980364999792,282.63227109998115,281.9980364999792,282.63227109998115,281.9980364999792,282.63227109998115,282.5989875999803,283.0996257000079,282.5989875999803,283.0996257000079,282.5989875999803,283.0996257000079,282.5989875999803,283.0996257000079,282.5989875999803,283.0996257000079,282.5989875999803,283.0996257000079,282.5989875999803,283.0996257000079,282.5989875999803,283.0996257000079,281.9980364999792,None,283.0996257000079,284.93576930000563,0.6200000000000003,284.95301699999254,None,285.70362029998796,None,,,,,,,[1.83425532],3.4400000000000026,0.723404255319149,11039,002,2024_Mar_14_1003,MFTM_A_new1021,2021.2.3,59.86296170644484,
,,,,,,,,stim/Instruction_adaptive.png,conditions/adaptive.xlsx,test,-0.6,-0.6,-0.6,0.6,0.6,left,L,,,,,0,1,1,1,0,47,47,59,,,,,,,,,,,,,,,,,,,,,,,,,,,,,,,,,,,,,,,,,,,,286.20435119999456,None,right,0,1.0277836000022944,286.7060550999886,287.8246274999983,286.7060550999886,287.323330299987,286.7060550999886,287.323330299987,286.7060550999886,287.323330299987,286.7060550999886,287.323330299987,286.7060550999886,287.323330299987,287.2893437999883,287.7900005999836,287.2893437999883,287.7900005999836,287.2893437999883,287.7900005999836,287.2893437999883,287.7900005999836,287.2893437999883,287.7900005999836,287.2893437999883,287.7900005999836,287.2893437999883,287.7900005999836,287.2893437999883,287.7900005999836,286.7060550999886,None,287.7900005999836,289.6260242999997,0.6100000000000003,289.6594754999969,None,290.4106555999897,None,,,,,,,[1.83541667],3.3100000000000023,0.7083333333333334,11039,002,2024_Mar_14_1003,MFTM_A_new1021,2021.2.3,59.86296170644484,
,,,,,,,,stim/Instruction_adaptive.png,conditions/adaptive.xlsx,test,-0.6,-0.6,-0.6,0.6,0.6,left,L,,,,,0,1,1,1,0,48,48,5,,,,,,,,,,,,,,,,,,,,,,,,,,,,,,,,,,,,,,,,,,,,290.9124171999865,None,left,1,0.9371940999990329,291.41230480000377,292.5807010999997,291.41230480000377,292.079848399997,291.41230480000377,292.079848399997,291.41230480000377,292.079848399997,291.41230480000377,292.079848399997,291.41230480000377,292.079848399997,292.04636849998496,292.54722489998676,292.04636849998496,292.54722489998676,292.04636849998496,292.54722489998676,292.04636849998496,292.54722489998676,292.04636849998496,292.54722489998676,292.04636849998496,292.54722489998676,292.04636849998496,292.54722489998676,292.04636849998496,292.54722489998676,291.41230480000377,None,292.54722489998676,294.38590719999047,0.6600000000000004,294.4167024999915,None,295.16840409999713,None,,,,,,,[1.8355102],3.3600000000000025,0.7142857142857143,11039,002,2024_Mar_14_1003,MFTM_A_new1021,2021.2.3,59.86296170644484,
,,,,,,,,stim/Instruction_adaptive.png,conditions/adaptive.xlsx,test,0.6,0.6,0.6,-0.6,-0.6,right,R,,,,,0,1,1,1,0,49,49,90,,,,,,,,,,,,,,,,,,,,,,,,,,,,,,,,,,,,,,,,,,,,295.6683786000067,None,right,1,0.8129422999918461,296.1693803999806,297.32219949999126,296.1693803999806,296.8215388999961,296.1693803999806,296.8215388999961,296.1693803999806,296.8215388999961,296.1693803999806,296.8215388999961,296.1693803999806,296.8215388999961,296.78756850000354,297.2878165000002,296.78756850000354,297.2878165000002,296.78756850000354,297.2878165000002,296.78756850000354,297.2878165000002,296.78756850000354,297.2878165000002,296.78756850000354,297.2878165000002,296.78756850000354,297.2878165000002,296.78756850000354,297.2878165000002,296.1693803999806,None,297.2878165000002,299.12372380000306,0.6400000000000003,299.1572473999986,None,299.90955349997967,None,,,,,,,[1.836],3.4000000000000026,0.72,11039,002,2024_Mar_14_1003,MFTM_A_new1021,2021.2.3,59.86296170644484,
,,,,,,,,stim/Instruction_adaptive.png,conditions/adaptive.xlsx,test,0.6,0.6,0.6,-0.6,-0.6,right,R,,,,,0,1,1,1,0,50,50,66,,,,,,,,,,,,,,,,,,,,,,,,,,,,,,,,,,,,,,,,,,,,300.409047299996,None,left,0,1.0889482999918982,300.9098369999847,302.04586839998956,300.9098369999847,301.54416809999384,300.9098369999847,301.54416809999384,300.9098369999847,301.54416809999384,300.9098369999847,301.54416809999384,300.9098369999847,301.54416809999384,301.5107772999909,302.01150339999003,301.5107772999909,302.01150339999003,301.5107772999909,302.01150339999003,301.5107772999909,302.01150339999003,301.5107772999909,302.01150339999003,301.5107772999909,302.01150339999003,301.5107772999909,302.01150339999003,301.5107772999909,302.01150339999003,300.9098369999847,None,302.01150339999003,303.84769160000724,0.6200000000000003,303.8808791000047,None,304.6320057999983,None,,,,,,,[1.83686275],3.2800000000000025,0.7058823529411765,11039,002,2024_Mar_14_1003,MFTM_A_new1021,2021.2.3,59.86296170644484,
,,,,,,,,stim/Instruction_adaptive.png,conditions/adaptive.xlsx,test,0.6,0.6,0.6,-0.6,-0.6,right,R,,,,,0,1,1,1,0,51,51,84,,,,,,,,,,,,,,,,,,,,,,,,,,,,,,,,,,,,,,,,,,,,305.1328893000027,None,right,1,0.9885265000048093,305.63373599998886,306.8195318999933,305.63373599998886,306.31835479999427,305.63373599998886,306.31835479999427,305.63373599998886,306.31835479999427,305.63373599998886,306.31835479999427,305.63373599998886,306.31835479999427,306.3012803999882,306.80288949998794,306.3012803999882,306.80288949998794,306.3012803999882,306.80288949998794,306.3012803999882,306.80288949998794,306.3012803999882,306.80288949998794,306.3012803999882,306.80288949998794,306.3012803999882,306.80288949998794,306.3012803999882,306.80288949998794,305.63373599998886,None,306.80288949998794,308.62233939999714,0.6800000000000004,308.6381766999839,None,309.39004949998343,None,,,,,,,[[1.82]],3.3200000000000025,0.7115384615384616,11039,002,2024_Mar_14_1003,MFTM_A_new1021,2021.2.3,59.86296170644484,
,,,,,,,,stim/Instruction_adaptive.png,conditions/adaptive.xlsx,test,0.6,0.6,0.6,-0.6,-0.6,right,R,,,,,0,1,1,1,0,52,52,8,,,,,,,,,,,,,,,,,,,,,,,,,,,,,,,,,,,,,,,,,,,,309.88995419998537,None,right,1,0.8318361999990884,310.3907507999975,311.56011289998423,310.3907507999975,311.05831130000297,310.3907507999975,311.05831130000297,310.3907507999975,311.05831130000297,310.3907507999975,311.05831130000297,310.3907507999975,311.05831130000297,311.0417778999836,311.54332569998223,311.0417778999836,311.54332569998223,311.0417778999836,311.54332569998223,311.0417778999836,311.54332569998223,311.0417778999836,311.54332569998223,311.0417778999836,311.54332569998223,311.0417778999836,311.54332569998223,311.0417778999836,311.54332569998223,310.3907507999975,None,311.54332569998223,313.37933199998224,0.6600000000000004,313.3954983000003,None,314.14653810000164,None,,,,,,,[1.83660377],3.3600000000000025,0.7169811320754716,11039,002,2024_Mar_14_1003,MFTM_A_new1021,2021.2.3,59.86296170644484,
,,,,,,,,stim/Instruction_adaptive.png,conditions/adaptive.xlsx,test,-0.6,-0.6,-0.6,0.6,0.6,left,L,,,,,0,1,1,1,0,53,53,1,,,,,,,,,,,,,,,,,,,,,,,,,,,,,,,,,,,,,,,,,,,,314.64713179998216,None,left,1,0.9947768000129145,315.1477186999982,316.3002945999906,315.1477186999982,315.7991046999814,315.1477186999982,315.7991046999814,315.1477186999982,315.7991046999814,315.1477186999982,315.7991046999814,315.1477186999982,315.7991046999814,315.76557439999306,316.26640209998004,315.76557439999306,316.26640209998004,315.76557439999306,316.26640209998004,315.76557439999306,316.26640209998004,315.76557439999306,316.26640209998004,315.76557439999306,316.26640209998004,315.76557439999306,316.26640209998004,315.76557439999306,316.26640209998004,315.1477186999982,None,316.26640209998004,318.10240889998386,0.6400000000000003,318.1357309999876,None,318.8875958999852,None,,,,,,,[1.83703704],3.4000000000000026,0.7222222222222222,11039,002,2024_Mar_14_1003,MFTM_A_new1021,2021.2.3,59.86296170644484,
,,,,,,,,stim/Instruction_adaptive.png,conditions/adaptive.xlsx,test,-0.6,-0.6,-0.6,0.6,0.6,left,L,,,,,0,1,1,1,0,54,54,71,,,,,,,,,,,,,,,,,,,,,,,,,,,,,,,,,,,,,,,,,,,,319.3884956999973,None,left,1,0.8855580000090413,319.88894730000175,321.0245737999794,319.88894730000175,320.522942999989,319.88894730000175,320.522942999989,319.88894730000175,320.522942999989,319.88894730000175,320.522942999989,319.88894730000175,320.522942999989,320.4895003999991,320.9910016999929,320.4895003999991,320.9910016999929,320.4895003999991,320.9910016999929,320.4895003999991,320.9910016999929,320.4895003999991,320.9910016999929,320.4895003999991,320.9910016999929,320.4895003999991,320.9910016999929,320.4895003999991,320.9910016999929,319.88894730000175,None,320.9910016999929,322.8437186999945,0.6200000000000003,322.8593821999966,None,323.6107364000054,None,,,,,,,[1.83781818],3.4400000000000026,0.7272727272727273,11039,002,2024_Mar_14_1003,MFTM_A_new1021,2021.2.3,59.86296170644484,
,,,,,,,,stim/Instruction_adaptive.png,conditions/adaptive.xlsx,test,-0.6,-0.6,-0.6,0.6,0.6,left,L,,,,,0,1,1,1,0,55,55,99,,,,,,,,,,,,,,,,,,,,,,,,,,,,,,,,,,,,,,,,,,,,324.11217509998824,None,left,1,0.7466054999968037,324.61216629997944,325.7305484999961,324.61216629997944,325.23153530000127,324.61216629997944,325.23153530000127,324.61216629997944,325.23153530000127,324.61216629997944,325.23153530000127,324.61216629997944,325.23153530000127,325.2131448999862,325.71465660000104,325.2131448999862,325.71465660000104,325.2131448999862,325.71465660000104,325.2131448999862,325.71465660000104,325.2131448999862,325.71465660000104,325.2131448999862,325.71465660000104,325.2131448999862,325.71465660000104,325.2131448999862,325.71465660000104,324.61216629997944,None,325.71465660000104,None,0.6100000000000003,327.5667106999899,None,328.31767389999004,None,,,,,,,[1.83875],3.4800000000000026,0.7321428571428571,11039,002,2024_Mar_14_1003,MFTM_A_new1021,2021.2.3,59.86296170644484,
,,,,,,,,stim/Instruction_adaptive.png,conditions/adaptive.xlsx,test,-0.6,-0.6,-0.6,0.6,0.6,left,L,,,,,0,1,1,1,0,56,56,65,,,,,,,,,,,,,,,,,,,,,,,,,,,,,,,,,,,,,,,,,,,,328.81870770000387,None,right,0,0.7428626999899279,329.31985669999267,330.4209062999871,329.31985669999267,329.9202229999937,329.31985669999267,329.9202229999937,329.31985669999267,329.9202229999937,329.31985669999267,329.9202229999937,329.31985669999267,329.9202229999937,329.88710900000297,330.38758379998035,329.88710900000297,330.38758379998035,329.88710900000297,330.38758379998035,329.88710900000297,330.38758379998035,329.88710900000297,330.38758379998035,329.88710900000297,330.38758379998035,329.88710900000297,330.38758379998035,329.88710900000297,330.38758379998035,329.31985669999267,None,330.38758379998035,332.2418255999801,0.5900000000000003,332.2567882000003,None,333.00825250000344,None,,,,,,,[1.84],3.3700000000000028,0.7192982456140351,11039,002,2024_Mar_14_1003,MFTM_A_new1021,2021.2.3,59.86296170644484,
,,,,,,,,stim/Instruction_adaptive.png,conditions/adaptive.xlsx,test,0.6,0.6,0.6,-0.6,-0.6,right,R,,,,,0,1,1,1,0,57,57,94,,,,,,,,,,,,,,,,,,,,,,,,,,,,,,,,,,,,,,,,,,,,333.50904239999363,None,right,1,0.9411815000057686,334.0095233999891,335.1627990999841,334.0095233999891,334.66072580000036,334.0095233999891,334.66072580000036,334.0095233999891,334.66072580000036,334.0095233999891,334.66072580000036,334.0095233999891,334.66072580000036,334.6273199999996,335.1281409999938,334.6273199999996,335.1281409999938,334.6273199999996,335.1281409999938,334.6273199999996,335.1281409999938,334.6273199999996,335.1281409999938,334.6273199999996,335.1281409999938,334.6273199999996,335.1281409999938,334.6273199999996,335.1281409999938,334.0095233999891,None,335.1281409999938,336.9820822000038,0.6400000000000003,336.99683980000555,None,337.7494003000029,None,,,,,,,[1.84034483],3.410000000000003,0.7241379310344828,11039,002,2024_Mar_14_1003,MFTM_A_new1021,2021.2.3,59.86296170644484,
,,,,,,,,stim/Instruction_adaptive.png,conditions/adaptive.xlsx,test,-0.6,-0.6,-0.6,0.6,0.6,left,L,,,,,0,1,1,1,0,58,58,93,,,,,,,,,,,,,,,,,,,,,,,,,,,,,,,,,,,,,,,,,,,,338.2494796999963,None,left,1,0.8969829000125173,338.7501704999886,339.86920180000016,338.7501704999886,339.38563040000736,338.7501704999886,339.38563040000736,338.7501704999886,339.38563040000736,338.7501704999886,339.38563040000736,338.7501704999886,339.38563040000736,339.3511319999816,339.8524616000068,339.3511319999816,339.8524616000068,339.3511319999816,339.8524616000068,339.3511319999816,339.8524616000068,339.3511319999816,339.8524616000068,339.3511319999816,339.8524616000068,339.3511319999816,339.8524616000068,339.3511319999816,339.8524616000068,338.7501704999886,None,339.8524616000068,341.70544749998953,0.6200000000000003,341.721393099986,None,342.47238500000094,None,,,,,,,[1.84101695],3.4400000000000026,0.7288135593220338,11039,002,2024_Mar_14_1003,MFTM_A_new1021,2021.2.3,59.86296170644484,
,,,,,,,,stim/Instruction_adaptive.png,conditions/adaptive.xlsx,test,0.6,0.6,0.6,-0.6,-0.6,right,R,,,,,0,1,1,1,0,59,59,96,,,,,,,,,,,,,,,,,,,,,,,,,,,,,,,,,,,,,,,,,,,,342.97334460000275,None,right,1,0.9570042999985162,343.4743684999994,344.59232150000753,343.4743684999994,344.0912699000037,343.4743684999994,344.0912699000037,343.4743684999994,344.0912699000037,343.4743684999994,344.0912699000037,343.4743684999994,344.0912699000037,344.0746008999995,344.575497599988,344.0746008999995,344.575497599988,344.0746008999995,344.575497599988,344.0746008999995,344.575497599988,344.0746008999995,344.575497599988,344.0746008999995,344.575497599988,344.0746008999995,344.575497599988,344.0746008999995,344.575497599988,343.4743684999994,None,344.5590369999991,346.4126436999941,0.6100000000000003,346.42837720000534,None,347.180145499995,None,,,,,,,[1.84183333],3.4800000000000026,0.7333333333333333,11039,002,2024_Mar_14_1003,MFTM_A_new1021,2021.2.3,59.86296170644484,
,,,,,,,,stim/Instruction_adaptive.png,conditions/adaptive.xlsx,test,0.6,0.6,0.6,-0.6,-0.6,right,R,,,,,0,1,1,1,0,60,60,74,,,,,,,,,,,,,,,,,,,,,,,,,,,,,,,,,,,,,,,,,,,,347.6802625999844,None,left,0,0.8268260000040755,348.1811525999801,349.28374869999243,348.1811525999801,348.78197219999856,348.1811525999801,348.78197219999856,348.1811525999801,348.78197219999856,348.1811525999801,348.78197219999856,348.1811525999801,348.78197219999856,348.74847029999364,349.2506301999965,348.74847029999364,349.2506301999965,348.74847029999364,349.2506301999965,348.74847029999364,349.2506301999965,348.74847029999364,349.2506301999965,348.74847029999364,349.2506301999965,348.74847029999364,349.2506301999965,348.74847029999364,349.2506301999965,348.1811525999801,None,349.2506301999965,351.10218799998984,0.5900000000000003,351.1188140999875,None,351.8700192999968,None,,,,,,,[1.84295082],3.3800000000000026,0.7213114754098361,11039,002,2024_Mar_14_1003,MFTM_A_new1021,2021.2.3,59.86296170644484,
,,,,,,,,stim/Instruction_adaptive.png,conditions/adaptive.xlsx,test,-0.6,-0.6,-0.6,0.6,0.6,left,L,,,,,0,1,1,1,0,61,61,61,,,,,,,,,,,,,,,,,,,,,,,,,,,,,,,,,,,,,,,,,,,,352.37071049999213,None,left,1,0.8878645999939181,352.8714830999961,354.00760849998915,352.8714830999961,353.5059018000029,352.8714830999961,353.5059018000029,352.8714830999961,353.5059018000029,352.8714830999961,353.5059018000029,352.8714830999961,353.5059018000029,353.489247599995,353.9907831999881,353.489247599995,353.9907831999881,353.489247599995,353.9907831999881,353.489247599995,353.9907831999881,353.489247599995,353.9907831999881,353.489247599995,353.9907831999881,353.489247599995,353.9907831999881,353.489247599995,353.9907831999881,352.8714830999961,None,353.9907831999881,355.84335219999775,0.6300000000000003,355.8586840000062,None,356.6108334999881,None,,,,,,,[1.8433871],3.410000000000003,0.7258064516129032,11039,002,2024_Mar_14_1003,MFTM_A_new1021,2021.2.3,59.86296170644484,
,,,,,,,,stim/Instruction_adaptive.png,conditions/adaptive.xlsx,test,-0.6,-0.6,-0.6,0.6,0.6,left,L,,,,,0,1,1,1,0,62,62,69,,,,,,,,,,,,,,,,,,,,,,,,,,,,,,,,,,,,,,,,,,,,357.1113335999835,None,left,1,0.850811899988912,357.61281200000667,358.7477960999822,357.61281200000667,358.24621369998204,357.61281200000667,358.24621369998204,357.61281200000667,358.24621369998204,357.61281200000667,358.24621369998204,357.61281200000667,358.24621369998204,358.2126677999913,358.7137320000038,358.2126677999913,358.7137320000038,358.2126677999913,358.7137320000038,358.2126677999913,358.7137320000038,358.2126677999913,358.7137320000038,358.2126677999913,358.7137320000038,358.2126677999913,358.7137320000038,358.2126677999913,358.7137320000038,357.61281200000667,None,358.7137320000038,360.56834159998107,0.6200000000000003,360.58323570000357,None,361.3340842000034,None,,,,,,,[1.84396825],3.450000000000003,0.7301587301587301,11039,002,2024_Mar_14_1003,MFTM_A_new1021,2021.2.3,59.86296170644484,
,,,,,,,,stim/Instruction_adaptive.png,conditions/adaptive.xlsx,test,0.6,0.6,0.6,-0.6,-0.6,right,R,,,,,0,1,1,1,0,63,63,2,,,,,,,,,,,,,,,,,,,,,,,,,,,,,,,,,,,,,,,,,,,,361.8358536000014,None,right,1,0.7848824000102468,362.335768799996,363.4379191999906,362.335768799996,362.937543499982,362.335768799996,362.937543499982,362.335768799996,362.937543499982,362.335768799996,362.937543499982,362.335768799996,362.937543499982,362.9208052000031,363.4218459999829,362.9208052000031,363.4218459999829,362.9208052000031,363.4218459999829,362.9208052000031,363.4218459999829,362.9208052000031,363.4218459999829,362.9208052000031,363.4218459999829,362.9208052000031,363.4218459999829,362.9208052000031,363.4218459999829,362.335768799996,None,363.4218459999829,365.27340549998917,0.6000000000000003,365.2902411999821,None,366.0413928999915,None,,,,,,,[1.84484375],3.4800000000000026,0.734375,11039,002,2024_Mar_14_1003,MFTM_A_new1021,2021.2.3,59.86296170644484,
,,,,,,,,stim/Instruction_adaptive.png,conditions/adaptive.xlsx,test,-0.6,-0.6,-0.6,0.6,0.6,left,L,,,,,0,1,1,1,0,64,64,97,,,,,,,,,,,,,,,,,,,,,,,,,,,,,,,,,,,,,,,,,,,,366.54204010000103,None,right,0,0.9899667999998201,367.04275880000205,368.1454920999822,367.04275880000205,367.6444483999803,367.04275880000205,367.6444483999803,367.04275880000205,367.6444483999803,367.04275880000205,367.6444483999803,367.04275880000205,367.6444483999803,367.61045949999243,368.1119960999931,367.61045949999243,368.1119960999931,367.61045949999243,368.1119960999931,367.61045949999243,368.1119960999931,367.61045949999243,368.1119960999931,367.61045949999243,368.1119960999931,367.61045949999243,368.1119960999931,367.61045949999243,368.1119960999931,367.04275880000205,None,368.1119960999931,369.96381079999264,0.5900000000000003,369.9807277999935,None,370.7323090999853,None,,,,,,,[1.84584615],3.3800000000000026,0.7230769230769231,11039,002,2024_Mar_14_1003,MFTM_A_new1021,2021.2.3,59.86296170644484,
,,,,,,,,stim/Instruction_adaptive.png,conditions/adaptive.xlsx,test,-0.6,-0.6,-0.6,0.6,0.6,left,L,,,,,0,1,1,1,0,65,65,11,,,,,,,,,,,,,,,,,,,,,,,,,,,,,,,,,,,,,,,,,,,,371.23321710000164,None,left,1,0.8899240999890026,371.7339188999904,372.8681789999828,371.7339188999904,372.3674866000074,371.7339188999904,372.3674866000074,371.7339188999904,372.3674866000074,371.7339188999904,372.3674866000074,371.7339188999904,372.3674866000074,372.350655599992,372.8515199999965,372.350655599992,372.8515199999965,372.350655599992,372.8515199999965,372.350655599992,372.8515199999965,372.350655599992,372.8515199999965,372.350655599992,372.8515199999965,372.350655599992,372.8515199999965,372.350655599992,372.8515199999965,371.7339188999904,None,372.8515199999965,374.70544540000265,0.6300000000000003,374.72107759999926,None,375.4720535999804,None,,,,,,,[1.84621212],3.4200000000000026,0.7272727272727273,11039,002,2024_Mar_14_1003,MFTM_A_new1021,2021.2.3,59.86296170644484,
,,,,,,,,stim/Instruction_adaptive.png,conditions/adaptive.xlsx,test,0.6,0.6,0.6,-0.6,-0.6,right,R,,,,,0,1,1,1,0,66,66,20,,,,,,,,,,,,,,,,,,,,,,,,,,,,,,,,,,,,,,,,,,,,375.97301419998985,None,right,1,0.9746873999829404,376.47361109999474,377.5920643999998,376.47361109999474,377.0915275999869,376.47361109999474,377.0915275999869,376.47361109999474,377.0915275999869,376.47361109999474,377.0915275999869,376.47361109999474,377.0915275999869,377.05803119999473,377.559486299986,377.05803119999473,377.559486299986,377.05803119999473,377.559486299986,377.05803119999473,377.559486299986,377.05803119999473,377.559486299986,377.05803119999473,377.559486299986,377.05803119999473,377.559486299986,377.05803119999473,377.559486299986,376.47361109999474,None,377.559486299986,379.4115571999864,0.6100000000000003,379.4451768999861,None,380.1965763999906,None,,,,,,,[1.84686567],3.450000000000003,0.7313432835820896,11039,002,2024_Mar_14_1003,MFTM_A_new1021,2021.2.3,59.86296170644484,
,,,,,,,,stim/Instruction_adaptive.png,conditions/adaptive.xlsx,test,0.6,0.6,0.6,-0.6,-0.6,right,R,,,,,0,1,1,1,0,67,67,18,,,,,,,,,,,,,,,,,,,,,,,,,,,,,,,,,,,,,,,,,,,,380.69670349999797,None,right,1,0.9232525000115857,381.1974272999796,382.2995666000061,381.1974272999796,381.79847899999004,381.1974272999796,381.79847899999004,381.1974272999796,381.79847899999004,381.1974272999796,381.79847899999004,381.1974272999796,381.79847899999004,381.7818214999861,382.28272879999713,381.7818214999861,382.28272879999713,381.7818214999861,382.28272879999713,381.7818214999861,382.28272879999713,381.7818214999861,382.28272879999713,381.7818214999861,382.28272879999713,381.7818214999861,382.28272879999713,381.7818214999861,382.28272879999713,381.1974272999796,None,382.28272879999713,384.13619190000463,0.6000000000000003,384.15188200000557,None,384.90299229999073,None,,,,,,,[1.84764706],3.4800000000000026,0.7352941176470589,11039,002,2024_Mar_14_1003,MFTM_A_new1021,2021.2.3,59.86296170644484,
,,,,,,,,stim/Instruction_adaptive.png,conditions/adaptive.xlsx,test,-0.6,-0.6,-0.6,0.6,0.6,left,L,,,,,0,1,1,1,0,68,68,35,,,,,,,,,,,,,,,,,,,,,,,,,,,,,,,,,,,,,,,,,,,,385.40382300000056,None,left,1,0.7596948999853339,385.90448019999894,387.0060550000053,385.90448019999894,386.5055660000071,385.90448019999894,386.5055660000071,385.90448019999894,386.5055660000071,385.90448019999894,386.5055660000071,385.90448019999894,386.5055660000071,386.4720495000074,386.9729607999907,386.4720495000074,386.9729607999907,386.4720495000074,386.9729607999907,386.4720495000074,386.9729607999907,386.4720495000074,386.9729607999907,386.4720495000074,386.9729607999907,386.4720495000074,386.9729607999907,386.4720495000074,386.9729607999907,385.90448019999894,None,386.9729607999907,388.82591719998163,0.5900000000000003,388.8423569999868,None,389.59365959998104,None,,,,,,,[1.84855072],3.5100000000000025,0.7391304347826086,11039,002,2024_Mar_14_1003,MFTM_A_new1021,2021.2.3,59.86296170644484,
,,,,,,,,stim/Instruction_adaptive.png,conditions/adaptive.xlsx,test,-0.6,-0.6,-0.6,0.6,0.6,left,L,,,,,0,1,1,1,0,69,69,37,,,,,,,,,,,,,,,,,,,,,,,,,,,,,,,,,,,,,,,,,,,,390.09428619997925,None,left,1,0.8453223000105936,390.59506059999694,391.67996189999394,390.59506059999694,391.1792261999799,390.59506059999694,391.1792261999799,390.59506059999694,391.1792261999799,390.59506059999694,391.1792261999799,390.59506059999694,391.1792261999799,391.16253229998983,391.6633388999908,391.16253229998983,391.6633388999908,391.16253229998983,391.6633388999908,391.16253229998983,391.6633388999908,391.16253229998983,391.6633388999908,391.16253229998983,391.6633388999908,391.16253229998983,391.6633388999908,391.16253229998983,391.6633388999908,390.59506059999694,None,391.6633388999908,393.5161475999921,0.5800000000000003,393.5339513999934,None,394.2840447000053,None,,,,,,,[1.84957143],3.530000000000003,0.7428571428571429,11039,002,2024_Mar_14_1003,MFTM_A_new1021,2021.2.3,59.86296170644484,
,,,,,,,,stim/Instruction_adaptive.png,conditions/adaptive.xlsx,test,-0.6,-0.6,-0.6,0.6,0.6,left,L,,,,,0,1,1,1,0,70,70,77,,,,,,,,,,,,,,,,,,,,,,,,,,,,,,,,,,,,,,,,,,,,394.7854015000048,None,left,1,0.9871164000069257,395.28516359999776,396.37016659998335,395.28516359999776,395.87035549999564,395.28516359999776,395.87035549999564,395.28516359999776,395.87035549999564,395.28516359999776,395.87035549999564,395.28516359999776,395.87035549999564,395.8363172999816,396.3370850000065,395.8363172999816,396.3370850000065,395.8363172999816,396.3370850000065,395.8363172999816,396.3370850000065,395.8363172999816,396.3370850000065,395.8363172999816,396.3370850000065,395.8363172999816,396.3370850000065,395.8363172999816,396.3370850000065,395.28516359999776,None,396.3370850000065,398.19033320000744,0.5700000000000003,398.20632739999564,None,398.9575369999802,None,,,,,,,[1.85070423],3.5600000000000027,0.7464788732394366,11039,002,2024_Mar_14_1003,MFTM_A_new1021,2021.2.3,59.86296170644484,
,,,,,,,,stim/Instruction_adaptive.png,conditions/adaptive.xlsx,test,0.6,0.6,0.6,-0.6,-0.6,right,R,,,,,0,1,1,1,0,71,71,34,,,,,,,,,,,,,,,,,,,,,,,,,,,,,,,,,,,,,,,,,,,,399.458275699988,None,right,1,0.9937955999921542,399.95902849998674,401.02737699999125,399.95902849998674,400.5274063999823,399.95902849998674,400.5274063999823,399.95902849998674,400.5274063999823,399.95902849998674,400.5274063999823,399.95902849998674,400.5274063999823,400.4942008999933,400.99410320000607,400.4942008999933,400.99410320000607,400.4942008999933,400.99410320000607,400.4942008999933,400.99410320000607,400.4942008999933,400.99410320000607,400.4942008999933,400.99410320000607,400.4942008999933,400.99410320000607,400.4942008999933,400.99410320000607,399.95902849998674,None,400.99410320000607,402.8473718999885,0.5600000000000003,402.88021909998497,None,403.631647000002,None,,,,,,,[1.85194444],3.5900000000000025,0.75,11039,002,2024_Mar_14_1003,MFTM_A_new1021,2021.2.3,59.86296170644484,
,,,,,,,,stim/Instruction_adaptive.png,conditions/adaptive.xlsx,test,-0.6,-0.6,-0.6,0.6,0.6,left,L,,,,,0,1,1,1,0,72,72,57,,,,,,,,,,,,,,,,,,,,,,,,,,,,,,,,,,,,,,,,,,,,404.13201209998806,None,left,1,0.8316777000145521,404.63273039998603,405.68522489999305,404.63273039998603,405.183463399997,404.63273039998603,405.183463399997,404.63273039998603,405.183463399997,404.63273039998603,405.183463399997,404.63273039998603,405.183463399997,405.1668082999822,405.66774559998885,405.1668082999822,405.66774559998885,405.1668082999822,405.66774559998885,405.1668082999822,405.66774559998885,405.1668082999822,405.66774559998885,405.1668082999822,405.66774559998885,405.1668082999822,405.66774559998885,405.1668082999822,405.66774559998885,404.63273039998603,None,405.66774559998885,407.52052309998544,0.5500000000000003,407.5372612999927,None,408.28992730000755,None,,,,,,,[1.85328767],3.610000000000003,0.7534246575342466,11039,002,2024_Mar_14_1003,MFTM_A_new1021,2021.2.3,59.86296170644484,
,,,,,,,,stim/Instruction_adaptive.png,conditions/adaptive.xlsx,test,-0.6,-0.6,-0.6,0.6,0.6,left,L,,,,,0,1,1,1,0,73,73,17,,,,,,,,,,,,,,,,,,,,,,,,,,,,,,,,,,,,,,,,,,,,408.79015049999,None,right,0,0.8232740000239573,409.2901071999804,410.3414242999861,409.2901071999804,409.8406822999823,409.2901071999804,409.8406822999823,409.2901071999804,409.8406822999823,409.2901071999804,409.8406822999823,409.2901071999804,409.8406822999823,409.8072138999996,410.30795069999294,409.8072138999996,410.30795069999294,409.8072138999996,410.30795069999294,409.8072138999996,410.30795069999294,409.8072138999996,410.30795069999294,409.8072138999996,410.30795069999294,409.8072138999996,410.30795069999294,409.8072138999996,410.30795069999294,409.2901071999804,None,410.30795069999294,412.1779683000059,0.5400000000000003,412.1936083000037,None,412.94577079999726,None,,,,,,,[1.85472973],3.5400000000000027,0.7432432432432432,11039,002,2024_Mar_14_1003,MFTM_A_new1021,2021.2.3,59.86296170644484,
,,,,,,,,stim/Instruction_adaptive.png,conditions/adaptive.xlsx,test,-0.6,-0.6,-0.6,0.6,0.6,left,L,,,,,0,1,1,1,0,74,74,83,,,,,,,,,,,,,,,,,,,,,,,,,,,,,,,,,,,,,,,,,,,,413.445959899982,None,left,1,0.8142206000047736,413.9468197999813,415.0318963000027,413.9468197999813,414.53122059997986,413.9468197999813,414.53122059997986,413.9468197999813,414.53122059997986,413.9468197999813,414.53122059997986,413.9468197999813,414.53122059997986,414.49778619999415,414.9983828999975,414.49778619999415,414.9983828999975,414.49778619999415,414.9983828999975,414.49778619999415,414.9983828999975,414.49778619999415,414.9983828999975,414.49778619999415,414.9983828999975,414.49778619999415,414.9983828999975,414.49778619999415,414.9983828999975,413.9468197999813,None,414.9983828999975,416.86837749998085,0.5700000000000003,416.8843221999996,None,417.6366413999931,None,,,,,,,[1.85573333],3.5600000000000027,0.7466666666666667,11039,002,2024_Mar_14_1003,MFTM_A_new1021,2021.2.3,59.86296170644484,
,,,,,,,,stim/Instruction_adaptive.png,conditions/adaptive.xlsx,test,0.6,0.6,0.6,-0.6,-0.6,right,R,,,,,0,1,1,1,0,75,75,86,,,,,,,,,,,,,,,,,,,,,,,,,,,,,,,,,,,,,,,,,,,,418.13664769998286,None,left,0,0.691883500025142,418.6371259999869,419.705386799993,418.6371259999869,419.2048305000062,418.6371259999869,419.2048305000062,418.6371259999869,419.2048305000062,418.6371259999869,419.2048305000062,418.6371259999869,419.2048305000062,419.18818729999475,419.68891460000305,419.18818729999475,419.68891460000305,419.18818729999475,419.68891460000305,419.18818729999475,419.68891460000305,419.18818729999475,419.68891460000305,419.18818729999475,419.68891460000305,419.18818729999475,419.68891460000305,419.18818729999475,419.68891460000305,418.6371259999869,None,419.6733300999913,421.54144239999005,0.5600000000000003,421.5583815999853,None,422.31007330000284,None,,,,,,,[1.85684211],3.490000000000003,0.7368421052631579,11039,002,2024_Mar_14_1003,MFTM_A_new1021,2021.2.3,59.86296170644484,
,,,,,,,,stim/Instruction_adaptive.png,conditions/adaptive.xlsx,test,0.6,0.6,0.6,-0.6,-0.6,right,R,,,,,0,1,1,1,0,76,76,24,,,,,,,,,,,,,,,,,,,,,,,,,,,,,,,,,,,,,,,,,,,,422.8116446000058,None,right,1,0.7227883000159636,423.31105620000744,424.41263400000753,423.31105620000744,423.91174310000497,423.31105620000744,423.91174310000497,423.31105620000744,423.91174310000497,423.31105620000744,423.91174310000497,423.31105620000744,423.91174310000497,423.87996379999095,424.38008309999714,423.87996379999095,424.38008309999714,423.87996379999095,424.38008309999714,423.87996379999095,424.38008309999714,423.87996379999095,424.38008309999714,423.87996379999095,424.38008309999714,423.87996379999095,424.38008309999714,423.87996379999095,424.38008309999714,423.31105620000744,None,424.38008309999714,426.2489452000009,0.5900000000000003,426.2667949000024,None,427.01846209997893,None,,,,,,,[1.85753247],3.5100000000000025,0.7402597402597403,11039,002,2024_Mar_14_1003,MFTM_A_new1021,2021.2.3,59.86296170644484,
,,,,,,,,stim/Instruction_adaptive.png,conditions/adaptive.xlsx,test,0.6,0.6,0.6,-0.6,-0.6,right,R,,,,,0,1,1,1,0,77,77,40,,,,,,,,,,,,,,,,,,,,,,,,,,,,,,,,,,,,,,,,,,,,427.53491399998893,None,left,0,0.8703499999828637,428.0351482999977,429.1197148000065,428.0351482999977,428.6197522000002,428.0351482999977,428.6197522000002,428.0351482999977,428.6197522000002,428.0351482999977,428.6197522000002,428.0351482999977,428.6197522000002,428.602390199987,429.10300319999806,428.602390199987,429.10300319999806,428.602390199987,429.10300319999806,428.602390199987,429.10300319999806,428.602390199987,429.10300319999806,428.602390199987,429.10300319999806,428.602390199987,429.10300319999806,428.602390199987,429.10300319999806,428.0351482999977,None,429.08650479998323,430.95571129999007,0.5800000000000003,430.9891900999937,None,431.74082129998715,None,,,,,,,[1.85833333],3.4400000000000026,0.7307692307692307,11039,002,2024_Mar_14_1003,MFTM_A_new1021,2021.2.3,59.86296170644484,
,,,,,,,,stim/Instruction_adaptive.png,conditions/adaptive.xlsx,test,0.6,0.6,0.6,-0.6,-0.6,right,R,,,,,0,1,1,1,0,78,78,54,,,,,,,,,,,,,,,,,,,,,,,,,,,,,,,,,,,,,,,,,,,,432.2416983000003,None,left,0,0.8756685999978799,432.7416536999808,433.86003720000735,432.7416536999808,433.35930300000473,432.7416536999808,433.35930300000473,432.7416536999808,433.35930300000473,432.7416536999808,433.35930300000473,432.7416536999808,433.35930300000473,433.3427820999932,433.8433762000059,433.3427820999932,433.8433762000059,433.3427820999932,433.8433762000059,433.3427820999932,433.8433762000059,433.3427820999932,433.8433762000059,433.3427820999932,433.8433762000059,433.3427820999932,433.8433762000059,433.3427820999932,433.8433762000059,432.7416536999808,None,433.8433762000059,None,0.6100000000000003,435.7129420999845,None,436.4640881999803,None,,,,,,,[1.85873418],3.3600000000000025,0.7215189873417721,11039,002,2024_Mar_14_1003,MFTM_A_new1021,2021.2.3,59.86296170644484,
,,,,,,,,stim/Instruction_adaptive.png,conditions/adaptive.xlsx,test,-0.6,-0.6,-0.6,0.6,0.6,left,L,,,,,0,1,1,1,0,79,79,51,,,,,,,,,,,,,,,,,,,,,,,,,,,,,,,,,,,,,,,,,,,,436.9649306999927,None,right,0,0.8160830000124406,437.465787299996,438.61775219999254,437.465787299996,438.1166769999836,437.465787299996,438.1166769999836,437.465787299996,438.1166769999836,437.465787299996,438.1166769999836,437.465787299996,438.1166769999836,438.0831853999989,438.58387219998986,438.0831853999989,438.58387219998986,438.0831853999989,438.58387219998986,438.0831853999989,438.58387219998986,438.0831853999989,438.58387219998986,438.0831853999989,438.58387219998986,438.0831853999989,438.58387219998986,438.0831853999989,438.58387219998986,437.465787299996,None,438.58387219998986,440.4537333000044,0.6400000000000003,440.47010659999796,None,441.2219754999969,None,,,,,,,[1.85875],3.2700000000000022,0.7125,11039,002,2024_Mar_14_1003,MFTM_A_new1021,2021.2.3,59.86296170644484,
,,,,,,,,stim/Instruction_adaptive.png,conditions/adaptive.xlsx,test,-0.6,-0.6,-0.6,0.6,0.6,left,L,,,,,0,1,1,1,0,80,80,81,,,,,,,,,,,,,,,,,,,,,,,,,,,,,,,,,,,,,,,,,,,,441.7227555999998,None,left,1,0.8434213000000454,442.2226751999988,443.40841509998427,442.2226751999988,442.90764049999416,442.2226751999988,442.90764049999416,442.2226751999988,442.90764049999416,442.2226751999988,442.90764049999416,442.2226751999988,442.90764049999416,442.8908904999844,443.39133449998917,442.8908904999844,443.39133449998917,442.8908904999844,443.39133449998917,442.8908904999844,443.39133449998917,442.8908904999844,443.39133449998917,442.8908904999844,443.39133449998917,442.8908904999844,443.39133449998917,442.8908904999844,443.39133449998917,442.2226751999988,None,443.39133449998917,445.21256059998996,0.6800000000000004,445.2271072999865,None,445.97914599999785,None,,,,,,,[[1.82]],3.3000000000000025,0.7160493827160493,11039,002,2024_Mar_14_1003,MFTM_A_new1021,2021.2.3,59.86296170644484,
,,,,,,,,stim/Instruction_adaptive.png,conditions/adaptive.xlsx,test,0.6,0.6,0.6,-0.6,-0.6,right,R,,,,,0,1,1,1,0,81,81,4,,,,,,,,,,,,,,,,,,,,,,,,,,,,,,,,,,,,,,,,,,,,446.4793980999966,None,right,1,1.0050448999973014,446.98076799997943,448.16597149998415,446.98076799997943,447.6642525999923,446.98076799997943,447.6642525999923,446.98076799997943,447.6642525999923,446.98076799997943,447.6642525999923,446.98076799997943,447.6642525999923,447.6309599999804,448.13159949998953,447.6309599999804,448.13159949998953,447.6309599999804,448.13159949998953,447.6309599999804,448.13159949998953,447.6309599999804,448.13159949998953,447.6309599999804,448.13159949998953,447.6309599999804,448.13159949998953,447.6309599999804,448.13159949998953,446.98076799997943,None,448.13159949998953,449.9675767000008,0.6700000000000004,449.98459579999326,None,450.73565299998154,None,,,,,,,[[1.83]],3.3300000000000027,0.7195121951219512,11039,002,2024_Mar_14_1003,MFTM_A_new1021,2021.2.3,59.86296170644484,
,,,,,,,,stim/Instruction_adaptive.png,conditions/adaptive.xlsx,test,0.6,0.6,0.6,-0.6,-0.6,right,R,,,,,0,1,1,1,0,82,82,46,,,,,,,,,,,,,,,,,,,,,,,,,,,,,,,,,,,,,,,,,,,,451.23624679999193,None,right,1,0.9357508000102825,451.7381451999827,452.88949499998125,451.7381451999827,452.388017499994,451.7381451999827,452.388017499994,451.7381451999827,452.388017499994,451.7381451999827,452.388017499994,451.7381451999827,452.388017499994,452.3713426000031,452.87342059999355,452.3713426000031,452.87342059999355,452.3713426000031,452.87342059999355,452.3713426000031,452.87342059999355,452.3713426000031,452.87342059999355,452.3713426000031,452.87342059999355,452.3713426000031,452.87342059999355,452.3713426000031,452.87342059999355,451.7381451999827,None,452.87342059999355,454.7259278999991,0.6500000000000004,454.742301899998,None,455.4931113999919,None,,,,,,,[[1.85]],3.3600000000000025,0.7228915662650602,11039,002,2024_Mar_14_1003,MFTM_A_new1021,2021.2.3,59.86296170644484,
,,,,,,,,stim/Instruction_adaptive.png,conditions/adaptive.xlsx,test,-0.6,-0.6,-0.6,0.6,0.6,left,L,,,,,0,1,1,1,0,83,83,33,,,,,,,,,,,,,,,,,,,,,,,,,,,,,,,,,,,,,,,,,,,,455.99349259998417,None,left,1,0.7877435999980662,456.49452619999647,457.64679080000496,456.49452619999647,457.145901699987,456.49452619999647,457.145901699987,456.49452619999647,457.145901699987,456.49452619999647,457.145901699987,456.49452619999647,457.145901699987,457.112956099998,457.61333729999023,457.112956099998,457.61333729999023,457.112956099998,457.61333729999023,457.112956099998,457.61333729999023,457.112956099998,457.61333729999023,457.112956099998,457.61333729999023,457.112956099998,457.61333729999023,457.112956099998,457.61333729999023,456.49452619999647,None,457.61333729999023,459.48298780000187,0.6400000000000003,459.49984929998755,None,460.25008450000314,None,,,,,,,[1.85785714],3.3800000000000026,0.7261904761904762,11039,002,2024_Mar_14_1003,MFTM_A_new1021,2021.2.3,59.86296170644484,
,,,,,,,,stim/Instruction_adaptive.png,conditions/adaptive.xlsx,test,0.6,0.6,0.6,-0.6,-0.6,right,R,,,,,0,1,1,1,0,84,84,98,,,,,,,,,,,,,,,,,,,,,,,,,,,,,,,,,,,,,,,,,,,,460.7505458999949,None,left,0,0.8150701000122353,461.25149759999476,462.3863119999878,461.25149759999476,461.8858838999877,461.25149759999476,461.8858838999877,461.25149759999476,461.8858838999877,461.25149759999476,461.8858838999877,461.25149759999476,461.8858838999877,461.86893009999767,462.36990140000125,461.86893009999767,462.36990140000125,461.86893009999767,462.36990140000125,461.86893009999767,462.36990140000125,461.86893009999767,462.36990140000125,461.86893009999767,462.36990140000125,461.86893009999767,462.36990140000125,461.86893009999767,462.36990140000125,461.25149759999476,None,462.36990140000125,None,0.6300000000000003,464.23925749998307,None,464.99051469998085,None,,,,,,,[1.858],3.3100000000000023,0.7176470588235294,11039,002,2024_Mar_14_1003,MFTM_A_new1021,2021.2.3,59.86296170644484,
,,,,,,,,stim/Instruction_adaptive.png,conditions/adaptive.xlsx,test,-0.6,-0.6,-0.6,0.6,0.6,left,L,,,,,0,1,1,1,0,85,85,19,,,,,,,,,,,,,,,,,,,,,,,,,,,,,,,,,,,,,,,,,,,,465.4917176000017,None,right,0,0.8908966000017244,465.9918751999794,467.1602483000024,465.9918751999794,466.6596170999983,465.9918751999794,466.6596170999983,465.9918751999794,466.6596170999983,465.9918751999794,466.6596170999983,465.9918751999794,466.6596170999983,466.6427664999792,467.1437956999871,466.6427664999792,467.1437956999871,466.6427664999792,467.1437956999871,466.6427664999792,467.1437956999871,466.6427664999792,467.1437956999871,466.6427664999792,467.1437956999871,466.6427664999792,467.1437956999871,466.6427664999792,467.1437956999871,465.9918751999794,None,467.1437956999871,None,0.6600000000000004,468.996272999997,None,469.74863409998943,None,,,,,,,[[1.84]],3.230000000000002,0.7093023255813954,11039,002,2024_Mar_14_1003,MFTM_A_new1021,2021.2.3,59.86296170644484,
,,,,,,,,stim/Instruction_adaptive.png,conditions/adaptive.xlsx,test,0.6,0.6,0.6,-0.6,-0.6,right,R,,,,,0,1,1,1,0,86,86,80,,,,,,,,,,,,,,,,,,,,,,,,,,,,,,,,,,,,,,,,,,,,470.24850929999957,None,left,0,1.0455159000121057,470.7490744999959,471.9519832000078,470.7490744999959,471.4509739000059,470.7490744999959,471.4509739000059,470.7490744999959,471.4509739000059,470.7490744999959,471.4509739000059,470.7490744999959,471.4509739000059,471.43356829998083,471.9351680999971,471.43356829998083,471.9351680999971,471.43356829998083,471.9351680999971,471.43356829998083,471.9351680999971,471.43356829998083,471.9351680999971,471.43356829998083,471.9351680999971,471.43356829998083,471.9351680999971,471.43356829998083,471.9351680999971,470.7490744999959,None,471.9351680999971,473.7378006000072,0.7000000000000004,473.75458479998633,None,474.50551879999693,None,,,,,,,[[1.8]],3.150000000000002,0.7011494252873564,11039,002,2024_Mar_14_1003,MFTM_A_new1021,2021.2.3,59.86296170644484,
,,,,,,,,stim/Instruction_adaptive.png,conditions/adaptive.xlsx,test,0.6,0.6,0.6,-0.6,-0.6,right,R,,,,,0,1,1,1,0,87,87,60,,,,,,,,,,,,,,,,,,,,,,,,,,,,,,,,,,,,,,,,,,,,475.0056500000064,None,right,1,0.9282011000032071,475.50635369998054,476.75826979998965,475.50635369998054,476.2581694999826,475.50635369998054,476.2581694999826,475.50635369998054,476.2581694999826,475.50635369998054,476.2581694999826,475.50635369998054,476.2581694999826,476.2241006999975,476.72452879999764,476.2241006999975,476.72452879999764,476.2241006999975,476.72452879999764,476.2241006999975,476.72452879999764,476.2241006999975,476.72452879999764,476.2241006999975,476.72452879999764,476.2241006999975,476.72452879999764,476.2241006999975,476.72452879999764,475.50635369998054,None,476.72452879999764,478.4941325999971,0.7400000000000004,478.5109473000048,None,479.26294270000653,None,,,,,,,[[1.76]],3.1700000000000026,0.7045454545454546,11039,002,2024_Mar_14_1003,MFTM_A_new1021,2021.2.3,59.86296170644484,
,,,,,,,,stim/Instruction_adaptive.png,conditions/adaptive.xlsx,test,0.6,0.6,0.6,-0.6,-0.6,right,R,,,,,0,1,1,1,0,88,88,62,,,,,,,,,,,,,,,,,,,,,,,,,,,,,,,,,,,,,,,,,,,,479.76272529998096,None,left,0,0.8111247000051662,480.2634090000065,481.4995338000008,480.2634090000065,480.99809929999174,480.2634090000065,480.99809929999174,480.2634090000065,480.99809929999174,480.2634090000065,480.99809929999174,480.2634090000065,480.99809929999174,480.98142719999305,481.48275989998365,480.98142719999305,481.48275989998365,480.98142719999305,481.48275989998365,480.98142719999305,481.48275989998365,480.98142719999305,481.48275989998365,480.98142719999305,481.48275989998365,480.98142719999305,481.48275989998365,480.98142719999305,481.48275989998365,480.2634090000065,None,481.48275989998365,483.252276299987,0.7300000000000004,483.2679821999918,None,484.0197907999973,None,,,,,,,[[1.77]],3.0900000000000025,0.6966292134831461,11039,002,2024_Mar_14_1003,MFTM_A_new1021,2021.2.3,59.86296170644484,
,,,,,,,,stim/Instruction_adaptive.png,conditions/adaptive.xlsx,test,-0.6,-0.6,-0.6,0.6,0.6,left,L,,,,,0,1,1,1,0,89,89,29,,,,,,,,,,,,,,,,,,,,,,,,,,,,,,,,,,,,,,,,,,,,484.5204696999863,None,right,0,0.8691456000087783,485.02174629998626,486.3071368999954,485.02174629998626,485.80522680000286,485.02174629998626,485.80522680000286,485.02174629998626,485.80522680000286,485.02174629998626,485.80522680000286,485.02174629998626,485.80522680000286,485.77172180000343,486.27238249999937,485.77172180000343,486.27238249999937,485.77172180000343,486.27238249999937,485.77172180000343,486.27238249999937,485.77172180000343,486.27238249999937,485.77172180000343,486.27238249999937,485.77172180000343,486.27238249999937,485.77172180000343,486.27238249999937,485.02174629998626,None,486.27238249999937,488.0084164,0.7700000000000005,488.02513490000274,None,488.77684969999245,None,,,,,,,[[1.73]],3.000000000000002,0.6888888888888889,11039,002,2024_Mar_14_1003,MFTM_A_new1021,2021.2.3,59.86296170644484,
,,,,,,,,stim/Instruction_adaptive.png,conditions/adaptive.xlsx,test,0.6,0.6,0.6,-0.6,-0.6,right,R,,,,,0,1,1,1,0,90,90,32,,,,,,,,,,,,,,,,,,,,,,,,,,,,,,,,,,,,,,,,,,,,489.27710249999654,None,right,1,1.1131680000107735,489.77780729997903,491.11385829999927,489.77780729997903,490.6124681000074,489.77780729997903,490.6124681000074,489.77780729997903,490.6124681000074,489.77780729997903,490.6124681000074,489.77780729997903,490.6124681000074,490.5790801999974,491.07995719998144,490.5790801999974,491.07995719998144,490.5790801999974,491.07995719998144,490.5790801999974,491.07995719998144,490.5790801999974,491.07995719998144,490.5790801999974,491.07995719998144,490.5790801999974,491.07995719998144,490.5790801999974,491.07995719998144,489.77780729997903,None,491.07995719998144,492.7666207999864,0.8200000000000005,492.78237400000216,None,493.5338300000003,None,,,,,,,[[1.68]],3.030000000000002,0.6923076923076923,11039,002,2024_Mar_14_1003,MFTM_A_new1021,2021.2.3,59.86296170644484,
,,,,,,,,stim/Instruction_adaptive.png,conditions/adaptive.xlsx,test,0.6,0.6,0.6,-0.6,-0.6,right,R,,,,,0,1,1,1,0,91,91,28,,,,,,,,,,,,,,,,,,,,,,,,,,,,,,,,,,,,,,,,,,,,494.0350434999855,None,right,1,0.8523101000173483,494.5350969999854,495.85361789999297,494.5350969999854,495.3528685999918,494.5350969999854,495.3528685999918,494.5350969999854,495.3528685999918,494.5350969999854,495.3528685999918,494.5350969999854,495.3528685999918,495.3361534999858,495.83688659998006,495.3361534999858,495.83688659998006,495.3361534999858,495.83688659998006,495.3361534999858,495.83688659998006,495.3361534999858,495.83688659998006,495.3361534999858,495.83688659998006,495.3361534999858,495.83688659998006,495.3361534999858,495.83688659998006,494.5350969999854,None,495.82014259998687,497.5233590999851,0.8100000000000005,497.53981909999857,None,498.29133039998123,None,,,,,,,[[1.69]],3.0600000000000023,0.6956521739130435,11039,002,2024_Mar_14_1003,MFTM_A_new1021,2021.2.3,59.86296170644484,
,,,,,,,,stim/Instruction_adaptive.png,conditions/adaptive.xlsx,test,0.6,0.6,0.6,-0.6,-0.6,right,R,,,,,0,1,1,1,0,92,92,6,,,,,,,,,,,,,,,,,,,,,,,,,,,,,,,,,,,,,,,,,,,,498.79228170000715,None,left,0,1.0233203000098001,499.29210389999207,500.5939551999909,499.29210389999207,500.09424400000717,499.29210389999207,500.09424400000717,499.29210389999207,500.09424400000717,499.29210389999207,500.09424400000717,499.29210389999207,500.09424400000717,500.0601939999906,500.5606001999986,500.0601939999906,500.5606001999986,500.0601939999906,500.5606001999986,500.0601939999906,500.5606001999986,500.0601939999906,500.5606001999986,500.0601939999906,500.5606001999986,500.0601939999906,500.5606001999986,500.0601939999906,500.5606001999986,499.29210389999207,None,500.5606001999986,502.280840499996,0.7900000000000005,502.2967430999852,None,503.0485165999853,None,,,,,,,[[1.71]],2.9700000000000024,0.6881720430107527,11039,002,2024_Mar_14_1003,MFTM_A_new1021,2021.2.3,59.86296170644484,
