arrwidth1,arrwidth2,arrwidth3,arrwidth4,arrwidth5,keyb,type,orientation,instruction_image,block_filename,block_type,arrow11,arrow22,arrow33,arrow44,arrow55,keyb_3,orientation3,trials.thisRepN,trials.thisTrialN,trials.thisN,trials.thisIndex,trials_3.thisRepN,trials_3.thisTrialN,trials_3.thisN,trials_3.thisIndex,trials_2.thisRepN,trials_2.thisTrialN,trials_2.thisN,trials_2.thisIndex,welcome.started,welcome.stopped,key_resp.keys,key_resp.rt,key_resp.started,key_resp.stopped,instruction_example.started,instruction_example.stopped,key_resp_3.keys,key_resp_3.rt,key_resp_3.started,key_resp_3.stopped,instruction_task.started,instruction_task.stopped,key_resp_2.keys,key_resp_2.rt,key_resp_2.started,key_resp_2.stopped,text_2.started,text_2.stopped,A1.started,A1.stopped,A2.started,A2.stopped,A3.started,A3.stopped,A4.started,A4.stopped,A5.started,A5.stopped,key_resp_4.keys,key_resp_4.corr,key_resp_4.rt,key_resp_4.started,key_resp_4.stopped,fb.started,fb.stopped,instruction_block.started,instruction_block.stopped,key_resp_8.keys,key_resp_8.rt,key_resp_8.started,key_resp_8.stopped,text_8.started,text_8.stopped,key_resp_9.keys,key_resp_9.corr,key_resp_9.rt,text_5.started,text_5.stopped,A11_3.started,A11_3.stopped,A22_2.started,A22_2.stopped,A33_2.started,A33_2.stopped,A44_2.started,A44_2.stopped,A55_2.started,A55_2.stopped,M1_3.started,M1_3.stopped,M2_2.started,M2_2.stopped,M3_2.started,M3_2.stopped,M4_2.started,M4_2.stopped,M5_2.started,M5_2.stopped,M6_2.started,M6_2.stopped,M7_2.started,M7_2.stopped,M8_2.started,M8_2.stopped,key_resp_9.started,key_resp_9.stopped,fixation.started,fixation.stopped,ET,fb_3.started,fb_3.stopped,text_9.started,text_9.stopped,fb_4.started,fb_4.stopped,text_7.started,text_7.stopped,endtext.started,endtext.stopped,fixation_ITI,CCC,Acc,participant,session,date,expName,psychopyVersion,frameRate,
,,,,,,,,,,,,,,,,,,,,,,,,,,,,,,20.307974100112915,None,space,2.0875873998738825,20.307974100112915,None,,,,,,,,,,,,,,,,,,,,,,,,,,,,,,,,,,,,,,,,,,,,,,,,,,,,,,,,,,,,,,,,,,,,,,,,,,,,,,,,,,,,,,,,,11032,002,2024_Jan_11_1750,MFTM_A_new1021,2021.2.3,59.42000141839875,
,,,,,,,,,,,,,,,,,,,,,,,,,,,,,,,,,,,,22.412014100002125,None,right,15.735310999909416,22.412014100002125,None,,,,,,,,,,,,,,,,,,,,,,,,,,,,,,,,,,,,,,,,,,,,,,,,,,,,,,,,,,,,,,,,,,,,,,,,,,,,,,,,,,,11032,002,2024_Jan_11_1750,MFTM_A_new1021,2021.2.3,59.42000141839875,
,,,,,,,,,,,,,,,,,,,,,,,,,,,,,,,,,,,,,,,,,,38.16902659996413,None,space,3.626104700146243,38.16902659996413,None,,,,,,,,,,,,,,,,,,,,,,,,,,,,,,,,,,,,,,,,,,,,,,,,,,,,,,,,,,,,,,,,,,,,,,,,,,,,,11032,002,2024_Jan_11_1750,MFTM_A_new1021,2021.2.3,59.42000141839875,
0.6,0.6,0.6,-0.6,-0.6,right,3:2,R,,,,,,,,,,,0,0,0,0,,,,,,,,,,,,,,,,,,,,,,,,,,,41.84142760001123,None,41.84142760001123,None,41.84142760001123,None,41.84142760001123,None,41.84142760001123,None,41.84142760001123,None,right,1,2.5701457001268864,41.84142760001123,None,44.44563920004293,None,,,,,,,,,,,,,,,,,,,,,,,,,,,,,,,,,,,,,,,,,,,,,,,,,,,,,,,,,,11032,002,2024_Jan_11_1750,MFTM_A_new1021,2021.2.3,59.42000141839875,
-0.6,-0.6,-0.6,0.6,0.6,left,3:2,L,,,,,,,,,,,0,1,1,1,,,,,,,,,,,,,,,,,,,,,,,,,,,45.19629850005731,None,45.19629850005731,None,45.19629850005731,None,45.19629850005731,None,45.19629850005731,None,45.19629850005731,None,left,1,2.1266192998737097,45.19629850005731,None,47.34918879996985,None,,,,,,,,,,,,,,,,,,,,,,,,,,,,,,,,,,,,,,,,,,,,,,,,,,,,,,,,,,11032,002,2024_Jan_11_1750,MFTM_A_new1021,2021.2.3,59.42000141839875,
0.6,0.6,0.6,-0.6,-0.6,right,3:2,R,,,,,,,,,,,1,0,2,0,,,,,,,,,,,,,,,,,,,,,,,,,,,48.10079189995304,None,48.10079189995304,None,48.10079189995304,None,48.10079189995304,None,48.10079189995304,None,48.10079189995304,None,right,1,2.2223048999439925,48.10079189995304,None,50.35403469996527,None,,,,,,,,,,,,,,,,,,,,,,,,,,,,,,,,,,,,,,,,,,,,,,,,,,,,,,,,,,11032,002,2024_Jan_11_1750,MFTM_A_new1021,2021.2.3,59.42000141839875,
-0.6,-0.6,-0.6,0.6,0.6,left,3:2,L,,,,,,,,,,,1,1,3,1,,,,,,,,,,,,,,,,,,,,,,,,,,,51.10441539995372,None,51.10441539995372,None,51.10441539995372,None,51.10441539995372,None,51.10441539995372,None,51.10441539995372,None,left,1,2.674990300089121,51.10441539995372,None,53.80840580002405,None,,,,,,,,,,,,,,,,,,,,,,,,,,,,,,,,,,,,,,,,,,,,,,,,,,,,,,,,,,11032,002,2024_Jan_11_1750,MFTM_A_new1021,2021.2.3,59.42000141839875,
,,,,,,,,stim/Instruction_mask.png,conditions/adaptive.xlsx,practice,0.6,0.6,0.6,-0.6,-0.6,right,R,,,,,0,0,0,0,0,0,0,66,,,,,,,,,,,,,,,,,,,,,,,,,,,,,,,,,,,,,,54.793144500115886,None,space,19.34682510001585,54.793144500115886,None,74.23879309999757,None,None,0,0,74.6727847000584,None,74.6727847000584,77.67714000004344,74.6727847000584,77.67714000004344,74.6727847000584,77.67714000004344,74.6727847000584,77.67714000004344,74.6727847000584,77.67714000004344,77.66122400015593,78.16139849997126,77.66122400015593,78.16139849997126,77.66122400015593,78.16139849997126,77.66122400015593,78.16139849997126,77.66122400015593,78.16139849997126,77.66122400015593,78.16139849997126,77.66122400015593,78.16139849997126,77.66122400015593,78.16139849997126,74.6727847000584,None,78.16139849997126,78.16139849997126,3,78.17781030014157,None,78.92969819996506,None,,,,,,,,,,11032,002,2024_Jan_11_1750,MFTM_A_new1021,2021.2.3,59.42000141839875,
,,,,,,,,stim/Instruction_mask.png,conditions/adaptive.xlsx,practice,-0.6,-0.6,-0.6,0.6,0.6,left,L,,,,,0,0,0,0,0,1,1,79,,,,,,,,,,,,,,,,,,,,,,,,,,,,,,,,,,,,,,,,,,,,79.4304381001275,None,left,1,2.0886109999846667,79.93050000001676,81.93424810003489,79.93050000001676,81.43275690008886,79.93050000001676,81.43275690008886,79.93050000001676,81.43275690008886,79.93050000001676,81.43275690008886,79.93050000001676,81.43275690008886,81.4161058999598,81.91749539994635,81.4161058999598,81.91749539994635,81.4161058999598,81.91749539994635,81.4161058999598,81.91749539994635,81.4161058999598,81.91749539994635,81.4161058999598,81.91749539994635,81.4161058999598,81.91749539994635,81.4161058999598,81.91749539994635,79.93050000001676,None,81.91749539994635,83.41949280002154,1.5,83.43622280005366,None,84.18762230011635,None,,,,,,,,,,11032,002,2024_Jan_11_1750,MFTM_A_new1021,2021.2.3,59.42000141839875,
,,,,,,,,stim/Instruction_mask.png,conditions/adaptive.xlsx,practice,-0.6,-0.6,-0.6,0.6,0.6,left,L,,,,,0,0,0,0,0,2,2,29,,,,,,,,,,,,,,,,,,,,,,,,,,,,,,,,,,,,,,,,,,,,84.68800369999371,None,right,0,1.9748841000255197,85.18855680013075,86.49004409997724,85.18855680013075,85.99029490002431,85.18855680013075,85.99029490002431,85.18855680013075,85.99029490002431,85.18855680013075,85.99029490002431,85.18855680013075,85.99029490002431,85.97355360002257,86.47329819994047,85.97355360002257,86.47329819994047,85.97355360002257,86.47329819994047,85.97355360002257,86.47329819994047,85.97355360002257,86.47329819994047,85.97355360002257,86.47329819994047,85.97355360002257,86.47329819994047,85.97355360002257,86.47329819994047,85.18855680013075,None,86.47329819994047,88.67783290008083,0.8,88.6934474001173,None,89.44531910005026,None,,,,,,,,,,11032,002,2024_Jan_11_1750,MFTM_A_new1021,2021.2.3,59.42000141839875,
,,,,,,,,stim/Instruction_mask.png,conditions/adaptive.xlsx,practice,0.6,0.6,0.6,-0.6,-0.6,right,R,,,,,0,0,0,0,0,3,3,16,,,,,,,,,,,,,,,,,,,,,,,,,,,,,,,,,,,,,,,,,,,,89.94620030000806,None,right,1,1.6692178999073803,90.44611260015517,91.1977377999574,90.44611260015517,90.69662209996022,90.44611260015517,90.69662209996022,90.44611260015517,90.69662209996022,90.44611260015517,90.69662209996022,90.44611260015517,90.69662209996022,90.67961530014873,91.18120510014705,90.67961530014873,91.18120510014705,90.67961530014873,91.18120510014705,90.67961530014873,91.18120510014705,90.67961530014873,91.18120510014705,90.67961530014873,91.18120510014705,90.67961530014873,91.18120510014705,90.67961530014873,91.18120510014705,90.44611260015517,None,91.18120510014705,93.93544979998842,3,93.95199950016104,None,94.70356520009227,None,,,,,,,,,,11032,002,2024_Jan_11_1750,MFTM_A_new1021,2021.2.3,59.42000141839875,
,,,,,,,,stim/Instruction_mask.png,conditions/adaptive.xlsx,practice,,,,,,,,,,,,0,0,0,0,,,,,,,,,,,,,,,,,,,,,,,,,,,,,,,,,,,,,,,,,,,,,,,,,,,,,,,,,,,,,,,,,,,,,,,,,,,,,,,,,,,,,,,,,,95.21984659996815,96.2229365000967,96.18900709995069,96.18900709995069,96.18900709995069,None,,,,11032,002,2024_Jan_11_1750,MFTM_A_new1021,2021.2.3,59.42000141839875,
,,,,,,,,stim/Instruction_adaptive.png,conditions/adaptive.xlsx,test,-0.6,-0.6,-0.6,0.6,0.6,left,L,,,,,0,1,1,1,0,0,0,47,,,,,,,,,,,,,,,,,,,,,,,,,,,,,,,,,,,,,,99.34278870001435,None,space,12.084536100039259,99.34278870001435,None,111.45993350003846,None,left,1,2.5449570000637323,111.96219790005125,None,111.96219790005125,114.96604600013234,111.96219790005125,114.96604600013234,111.96219790005125,114.96604600013234,111.96219790005125,114.96604600013234,111.96219790005125,114.96604600013234,114.95004440005869,115.45111969998106,114.95004440005869,115.45111969998106,114.95004440005869,115.45111969998106,114.95004440005869,115.45111969998106,114.95004440005869,115.45111969998106,114.95004440005869,115.45111969998106,114.95004440005869,115.45111969998106,114.95004440005869,115.45111969998106,111.96219790005125,None,115.45111969998106,115.45111969998106,3,115.46759030013345,None,116.21817709994502,None,,,,,,,0,6.000000000000005,1.0,11032,002,2024_Jan_11_1750,MFTM_A_new1021,2021.2.3,59.42000141839875,
,,,,,,,,stim/Instruction_adaptive.png,conditions/adaptive.xlsx,test,0.6,0.6,0.6,-0.6,-0.6,right,R,,,,,0,1,1,1,0,1,1,28,,,,,,,,,,,,,,,,,,,,,,,,,,,,,,,,,,,,,,,,,,,,116.71890670014545,None,right,1,1.6879172001499683,117.21910220012069,117.97021339996718,117.21910220012069,117.47037860006094,117.21910220012069,117.47037860006094,117.21910220012069,117.47037860006094,117.21910220012069,117.47037860006094,117.21910220012069,117.47037860006094,117.45335860014893,117.9537470000796,117.45335860014893,117.9537470000796,117.45335860014893,117.9537470000796,117.45335860014893,117.9537470000796,117.45335860014893,117.9537470000796,117.45335860014893,117.9537470000796,117.45335860014893,117.9537470000796,117.45335860014893,117.9537470000796,117.21910220012069,None,117.9537470000796,118.92142330016941,0.25,118.93883830006234,None,119.68942110007629,None,,,,,,,[0.875],6.000000000000005,1.0,11032,002,2024_Jan_11_1750,MFTM_A_new1021,2021.2.3,59.42000141839875,
,,,,,,,,stim/Instruction_adaptive.png,conditions/adaptive.xlsx,test,0.6,0.6,0.6,-0.6,-0.6,right,R,,,,,0,1,1,1,0,2,2,58,,,,,,,,,,,,,,,,,,,,,,,,,,,,,,,,,,,,,,,,,,,,120.1900375999976,None,right,1,1.5839486001059413,120.6914821001701,121.4420227999799,120.6914821001701,120.94154740008526,120.6914821001701,120.94154740008526,120.6914821001701,120.94154740008526,120.6914821001701,120.94154740008526,120.6914821001701,120.94154740008526,120.92440080014057,121.42542119999416,120.92440080014057,121.42542119999416,120.92440080014057,121.42542119999416,120.92440080014057,121.42542119999416,120.92440080014057,121.42542119999416,120.92440080014057,121.42542119999416,120.92440080014057,121.42542119999416,120.92440080014057,121.42542119999416,120.6914821001701,None,121.42542119999416,122.76124890008941,0.25,122.77766410005279,None,123.5300741000101,None,,,,,,,[1.33333333],6.000000000000005,1.0,11032,002,2024_Jan_11_1750,MFTM_A_new1021,2021.2.3,59.42000141839875,
,,,,,,,,stim/Instruction_adaptive.png,conditions/adaptive.xlsx,test,0.6,0.6,0.6,-0.6,-0.6,right,R,,,,,0,1,1,1,0,3,3,64,,,,,,,,,,,,,,,,,,,,,,,,,,,,,,,,,,,,,,,,,,,,124.0299776000902,None,right,1,1.36117499996908,124.52985920011997,125.28135910001583,124.52985920011997,124.78124919999391,124.52985920011997,124.78124919999391,124.52985920011997,124.78124919999391,124.52985920011997,124.78124919999391,124.52985920011997,124.78124919999391,124.76366710010916,125.26510290009901,124.76366710010916,125.26510290009901,124.76366710010916,125.26510290009901,124.76366710010916,125.26510290009901,124.76366710010916,125.26510290009901,124.76366710010916,125.26510290009901,124.76366710010916,125.26510290009901,124.76366710010916,125.26510290009901,124.52985920011997,None,125.26510290009901,126.8351241000928,0.25,126.84976220014505,None,127.60114719998091,None,,,,,,,[1.5625],6.000000000000005,1.0,11032,002,2024_Jan_11_1750,MFTM_A_new1021,2021.2.3,59.42000141839875,
,,,,,,,,stim/Instruction_adaptive.png,conditions/adaptive.xlsx,test,0.6,0.6,0.6,-0.6,-0.6,right,R,,,,,0,1,1,1,0,4,4,48,,,,,,,,,,,,,,,,,,,,,,,,,,,,,,,,,,,,,,,,,,,,128.10208040010184,None,right,1,1.8404941000044346,128.60273980000056,129.35531280003488,128.60273980000056,128.85418869997375,128.60273980000056,128.85418869997375,128.60273980000056,128.85418869997375,128.60273980000056,128.85418869997375,128.60273980000056,128.85418869997375,128.8375779001508,129.33710839995183,128.8375779001508,129.33710839995183,128.8375779001508,129.33710839995183,128.8375779001508,129.33710839995183,128.8375779001508,129.33710839995183,128.8375779001508,129.33710839995183,128.8375779001508,129.33710839995183,128.8375779001508,129.33710839995183,128.60273980000056,None,129.33710839995183,131.03945789998397,0.25,131.05731040006503,None,131.8086868999526,None,,,,,,,[1.7],6.000000000000005,1.0,11032,002,2024_Jan_11_1750,MFTM_A_new1021,2021.2.3,59.42000141839875,
,,,,,,,,stim/Instruction_adaptive.png,conditions/adaptive.xlsx,test,0.6,0.6,0.6,-0.6,-0.6,right,R,,,,,0,1,1,1,0,5,5,0,,,,,,,,,,,,,,,,,,,,,,,,,,,,,,,,,,,,,,,,,,,,132.30851830006577,None,left,0,1.6505857000593096,132.80891979997978,133.5598771001678,132.80891979997978,133.05940890009515,132.80891979997978,133.05940890009515,132.80891979997978,133.05940890009515,132.80891979997978,133.05940890009515,132.80891979997978,133.05940890009515,133.0429949001409,133.5439486000687,133.0429949001409,133.5439486000687,133.0429949001409,133.5439486000687,133.0429949001409,133.5439486000687,133.0429949001409,133.5439486000687,133.0429949001409,133.5439486000687,133.0429949001409,133.5439486000687,133.0429949001409,133.5439486000687,132.80891979997978,None,133.5439486000687,135.34623350016773,0.25,135.36264019994996,None,136.11406529997475,None,,,,,,,[1.79166667],5.1200000000000045,0.8333333333333334,11032,002,2024_Jan_11_1750,MFTM_A_new1021,2021.2.3,59.42000141839875,
,,,,,,,,stim/Instruction_adaptive.png,conditions/adaptive.xlsx,test,0.6,0.6,0.6,-0.6,-0.6,right,R,,,,,0,1,1,1,0,6,6,74,,,,,,,,,,,,,,,,,,,,,,,,,,,,,,,,,,,,,,,,,,,,136.61517799994908,None,right,1,1.128208399983123,137.11528360005468,137.86766070011072,137.11528360005468,137.36608049995266,137.11528360005468,137.36608049995266,137.11528360005468,137.36608049995266,137.11528360005468,137.36608049995266,137.11528360005468,137.36608049995266,137.34887320012785,137.849613300059,137.34887320012785,137.849613300059,137.34887320012785,137.849613300059,137.34887320012785,137.849613300059,137.34887320012785,137.849613300059,137.34887320012785,137.849613300059,137.34887320012785,137.849613300059,137.34887320012785,137.849613300059,137.11528360005468,None,137.849613300059,139.71964989998378,0.25,139.73578370013274,None,140.48744569998235,None,,,,,,,[1.85714286],5.380000000000004,0.8571428571428571,11032,002,2024_Jan_11_1750,MFTM_A_new1021,2021.2.3,59.42000141839875,
,,,,,,,,stim/Instruction_adaptive.png,conditions/adaptive.xlsx,test,-0.6,-0.6,-0.6,0.6,0.6,left,L,,,,,0,1,1,1,0,7,7,29,,,,,,,,,,,,,,,,,,,,,,,,,,,,,,,,,,,,,,,,,,,,140.98791599995457,None,right,0,1.4902604999952018,141.48912749998271,142.2407508001197,141.48912749998271,141.73947930010036,141.48912749998271,141.73947930010036,141.48912749998271,141.73947930010036,141.48912749998271,141.73947930010036,141.48912749998271,141.73947930010036,141.72202360001393,142.22264500008896,141.72202360001393,142.22264500008896,141.72202360001393,142.22264500008896,141.72202360001393,142.22264500008896,141.72202360001393,142.22264500008896,141.72202360001393,142.22264500008896,141.72202360001393,142.22264500008896,141.72202360001393,142.22264500008896,141.48912749998271,None,142.22264500008896,144.14300590008497,0.25,144.158468300011,None,144.91021670005284,None,,,,,,,[1.90625],4.4200000000000035,0.75,11032,002,2024_Jan_11_1750,MFTM_A_new1021,2021.2.3,59.42000141839875,
,,,,,,,,stim/Instruction_adaptive.png,conditions/adaptive.xlsx,test,0.6,0.6,0.6,-0.6,-0.6,right,R,,,,,0,1,1,1,0,8,8,90,,,,,,,,,,,,,,,,,,,,,,,,,,,,,,,,,,,,,,,,,,,,145.41080119996332,None,left,0,1.8918586000800133,145.9116716000717,146.73009339999408,145.9116716000717,146.22874759999104,145.9116716000717,146.22874759999104,145.9116716000717,146.22874759999104,145.9116716000717,146.22874759999104,145.9116716000717,146.22874759999104,146.21192890009843,146.71287579997443,146.21192890009843,146.71287579997443,146.21192890009843,146.71287579997443,146.21192890009843,146.71287579997443,146.21192890009843,146.71287579997443,146.21192890009843,146.71287579997443,146.21192890009843,146.71287579997443,146.21192890009843,146.71287579997443,145.9116716000717,None,146.71287579997443,None,0.31000000000000005,148.66571620013565,None,149.41655010008253,None,,,,,,,[1.93777778],3.4200000000000026,0.6666666666666666,11032,002,2024_Jan_11_1750,MFTM_A_new1021,2021.2.3,59.42000141839875,
,,,,,,,,stim/Instruction_adaptive.png,conditions/adaptive.xlsx,test,-0.6,-0.6,-0.6,0.6,0.6,left,L,,,,,0,1,1,1,0,9,9,63,,,,,,,,,,,,,,,,,,,,,,,,,,,,,,,,,,,,,,,,,,,,149.91849529999308,None,left,1,2.6410807999782264,150.41838890011422,151.53660960006528,150.41838890011422,151.03586299996823,150.41838890011422,151.03586299996823,150.41838890011422,151.03586299996823,150.41838890011422,151.03586299996823,150.41838890011422,151.03586299996823,151.01899060001597,151.51997280004434,151.01899060001597,151.51997280004434,151.01899060001597,151.51997280004434,151.01899060001597,151.51997280004434,151.01899060001597,151.51997280004434,151.01899060001597,151.51997280004434,151.01899060001597,151.51997280004434,151.01899060001597,151.51997280004434,150.41838890011422,None,151.503288900014,153.40635580010712,0.6100000000000003,153.42266190005466,None,154.1737333999481,None,,,,,,,[[1.89]],3.860000000000003,0.7,11032,002,2024_Jan_11_1750,MFTM_A_new1021,2021.2.3,59.42000141839875,
,,,,,,,,stim/Instruction_adaptive.png,conditions/adaptive.xlsx,test,-0.6,-0.6,-0.6,0.6,0.6,left,L,,,,,0,1,1,1,0,10,10,21,,,,,,,,,,,,,,,,,,,,,,,,,,,,,,,,,,,,,,,,,,,,154.6761974999681,None,right,0,1.8753325000870973,155.17580329999328,156.12739469995722,155.17580329999328,155.62684749998152,155.17580329999328,155.62684749998152,155.17580329999328,155.62684749998152,155.17580329999328,155.62684749998152,155.17580329999328,155.62684749998152,155.61004170007072,156.11100070015527,155.61004170007072,156.11100070015527,155.61004170007072,156.11100070015527,155.61004170007072,156.11100070015527,155.61004170007072,156.11100070015527,155.61004170007072,156.11100070015527,155.61004170007072,156.11100070015527,155.61004170007072,156.11100070015527,155.17580329999328,None,156.11100070015527,158.06292050005868,0.4500000000000002,158.07965359999798,None,158.8307726001367,None,,,,,,,[1.94363636],2.960000000000002,0.6363636363636364,11032,002,2024_Jan_11_1750,MFTM_A_new1021,2021.2.3,59.42000141839875,
,,,,,,,,stim/Instruction_adaptive.png,conditions/adaptive.xlsx,test,0.6,0.6,0.6,-0.6,-0.6,right,R,,,,,0,1,1,1,0,11,11,56,,,,,,,,,,,,,,,,,,,,,,,,,,,,,,,,,,,,,,,,,,,,159.332459700061,None,right,1,2.72309760004282,159.83214560011402,161.1850124001503,159.83214560011402,160.68419910012744,159.83214560011402,160.68419910012744,159.83214560011402,160.68419910012744,159.83214560011402,160.68419910012744,159.83214560011402,160.68419910012744,160.66686110012233,161.16762640001252,160.66686110012233,161.16762640001252,160.66686110012233,161.16762640001252,160.66686110012233,161.16762640001252,160.66686110012233,161.16762640001252,160.66686110012233,161.16762640001252,160.66686110012233,161.16762640001252,160.66686110012233,161.16762640001252,159.83214560011402,None,161.16762640001252,162.82004839996807,0.8500000000000005,162.83660849998705,None,163.58861730014905,None,,,,,,,[[1.65]],3.3500000000000023,0.6666666666666666,11032,002,2024_Jan_11_1750,MFTM_A_new1021,2021.2.3,59.42000141839875,
,,,,,,,,stim/Instruction_adaptive.png,conditions/adaptive.xlsx,test,0.6,0.6,0.6,-0.6,-0.6,right,R,,,,,0,1,1,1,0,12,12,20,,,,,,,,,,,,,,,,,,,,,,,,,,,,,,,,,,,,,,,,,,,,164.08862860011868,None,left,0,2.7581795998848975,164.58914060005918,165.7421262001153,164.58914060005918,165.24106370005757,164.58914060005918,165.24106370005757,164.58914060005918,165.24106370005757,164.58914060005918,165.24106370005757,164.58914060005918,165.24106370005757,165.2245481000282,165.72522839996964,165.2245481000282,165.72522839996964,165.2245481000282,165.72522839996964,165.2245481000282,165.72522839996964,165.2245481000282,165.72522839996964,165.2245481000282,165.72522839996964,165.2245481000282,165.72522839996964,165.2245481000282,165.72522839996964,164.58914060005918,None,165.72522839996964,167.57820100011304,0.6500000000000004,167.59356700000353,None,168.34514140011743,None,,,,,,,[[1.85]],2.5000000000000018,0.6153846153846154,11032,002,2024_Jan_11_1750,MFTM_A_new1021,2021.2.3,59.42000141839875,
,,,,,,,,stim/Instruction_adaptive.png,conditions/adaptive.xlsx,test,-0.6,-0.6,-0.6,0.6,0.6,left,L,,,,,0,1,1,1,0,13,13,65,,,,,,,,,,,,,,,,,,,,,,,,,,,,,,,,,,,,,,,,,,,,168.84591859998181,None,left,1,2.5048575999680907,169.3462623001542,171.01554140006192,169.3462623001542,170.51484920014627,169.3462623001542,170.51484920014627,169.3462623001542,170.51484920014627,169.3462623001542,170.51484920014627,169.3462623001542,170.51484920014627,170.49885900015943,170.99939729995094,170.49885900015943,170.99939729995094,170.49885900015943,170.99939729995094,170.49885900015943,170.99939729995094,170.49885900015943,170.99939729995094,170.49885900015943,170.99939729995094,170.49885900015943,170.99939729995094,170.49885900015943,170.99939729995094,169.3462623001542,None,170.99939729995094,None,1.1600000000000008,172.35108370007947,None,173.1035239000339,None,,,,,,,[[1.34]],2.870000000000002,0.6428571428571429,11032,002,2024_Jan_11_1750,MFTM_A_new1021,2021.2.3,59.42000141839875,
,,,,,,,,stim/Instruction_adaptive.png,conditions/adaptive.xlsx,test,0.6,0.6,0.6,-0.6,-0.6,right,R,,,,,0,1,1,1,0,14,14,44,,,,,,,,,,,,,,,,,,,,,,,,,,,,,,,,,,,,,,,,,,,,173.60345669998787,None,left,0,2.1231237000320107,174.1040585001465,175.5059691001661,174.1040585001465,175.00486250012182,174.1040585001465,175.00486250012182,174.1040585001465,175.00486250012182,174.1040585001465,175.00486250012182,174.1040585001465,175.00486250012182,174.98862350010313,175.48874350008555,174.98862350010313,175.48874350008555,174.98862350010313,175.48874350008555,174.98862350010313,175.48874350008555,174.98862350010313,175.48874350008555,174.98862350010313,175.48874350008555,174.98862350010313,175.48874350008555,174.98862350010313,175.48874350008555,174.1040585001465,None,175.48874350008555,177.09124880004674,0.9000000000000006,177.10787219996564,None,177.85898360004649,None,,,,,,,[[1.6]],2.0500000000000016,0.6,11032,002,2024_Jan_11_1750,MFTM_A_new1021,2021.2.3,59.42000141839875,
,,,,,,,,stim/Instruction_adaptive.png,conditions/adaptive.xlsx,test,0.6,0.6,0.6,-0.6,-0.6,right,R,,,,,0,1,1,1,0,15,15,52,,,,,,,,,,,,,,,,,,,,,,,,,,,,,,,,,,,,,,,,,,,,178.36076830001548,None,right,1,3.1673020999878645,178.86065719998442,180.96483199996874,178.86065719998442,180.46276460005902,178.86065719998442,180.46276460005902,178.86065719998442,180.46276460005902,178.86065719998442,180.46276460005902,178.86065719998442,180.46276460005902,180.42943620006554,180.93037239997648,180.42943620006554,180.93037239997648,180.42943620006554,180.93037239997648,180.42943620006554,180.93037239997648,180.42943620006554,180.93037239997648,180.42943620006554,180.93037239997648,180.42943620006554,180.93037239997648,180.42943620006554,180.93037239997648,178.86065719998442,None,180.93037239997648,182.0483266999945,1.5900000000000012,182.06517720012926,None,182.8175822000485,None,,,,,,,[[0.91]],2.410000000000002,0.625,11032,002,2024_Jan_11_1750,MFTM_A_new1021,2021.2.3,59.42000141839875,
,,,,,,,,stim/Instruction_adaptive.png,conditions/adaptive.xlsx,test,0.6,0.6,0.6,-0.6,-0.6,right,R,,,,,0,1,1,1,0,16,16,12,,,,,,,,,,,,,,,,,,,,,,,,,,,,,,,,,,,,,,,,,,,,183.31789409997873,None,right,1,2.6647859001532197,183.8183752000332,185.57100180000998,183.8183752000332,185.07041270006448,183.8183752000332,185.07041270006448,183.8183752000332,185.07041270006448,183.8183752000332,185.07041270006448,183.8183752000332,185.07041270006448,185.0369684000034,185.53830770007335,185.0369684000034,185.53830770007335,185.0369684000034,185.53830770007335,185.0369684000034,185.53830770007335,185.0369684000034,185.53830770007335,185.0369684000034,185.53830770007335,185.0369684000034,185.53830770007335,185.0369684000034,185.53830770007335,183.8183752000332,None,185.53830770007335,186.8062110999599,1.2400000000000009,186.8221764001064,None,187.57409800007008,None,,,,,,,[[1.26]],2.660000000000002,0.6470588235294118,11032,002,2024_Jan_11_1750,MFTM_A_new1021,2021.2.3,59.42000141839875,
,,,,,,,,stim/Instruction_adaptive.png,conditions/adaptive.xlsx,test,-0.6,-0.6,-0.6,0.6,0.6,left,L,,,,,0,1,1,1,0,17,17,9,,,,,,,,,,,,,,,,,,,,,,,,,,,,,,,,,,,,,,,,,,,,188.0753624001518,None,left,1,2.444728400092572,188.57462510000914,190.12706950004213,188.57462510000914,189.62632180005312,188.57462510000914,189.62632180005312,188.57462510000914,189.62632180005312,188.57462510000914,189.62632180005312,188.57462510000914,189.62632180005312,189.593571000034,190.09461380005814,189.593571000034,190.09461380005814,189.593571000034,190.09461380005814,189.593571000034,190.09461380005814,189.593571000034,190.09461380005814,189.593571000034,190.09461380005814,189.593571000034,190.09461380005814,189.593571000034,190.09461380005814,188.57462510000914,None,190.09461380005814,191.56250190013088,1.0400000000000007,191.5801735999994,None,192.3304282000754,None,,,,,,,[[1.46]],2.8500000000000023,0.6666666666666666,11032,002,2024_Jan_11_1750,MFTM_A_new1021,2021.2.3,59.42000141839875,
,,,,,,,,stim/Instruction_adaptive.png,conditions/adaptive.xlsx,test,0.6,0.6,0.6,-0.6,-0.6,right,R,,,,,0,1,1,1,0,18,18,66,,,,,,,,,,,,,,,,,,,,,,,,,,,,,,,,,,,,,,,,,,,,192.83178899995983,None,left,0,3.056325600016862,193.3319337000139,194.75066200015135,193.3319337000139,194.24993630009703,193.3319337000139,194.24993630009703,193.3319337000139,194.24993630009703,193.3319337000139,194.24993630009703,193.3319337000139,194.24993630009703,194.21735030016862,194.71786299999803,194.21735030016862,194.71786299999803,194.21735030016862,194.71786299999803,194.21735030016862,194.71786299999803,194.21735030016862,194.71786299999803,194.21735030016862,194.71786299999803,194.21735030016862,194.71786299999803,194.21735030016862,194.71786299999803,193.3319337000139,None,194.71786299999803,196.40352710010484,0.9100000000000006,196.41913850000128,None,197.17118189996108,None,,,,,,,[[1.59]],2.3600000000000017,0.631578947368421,11032,002,2024_Jan_11_1750,MFTM_A_new1021,2021.2.3,59.42000141839875,
,,,,,,,,stim/Instruction_adaptive.png,conditions/adaptive.xlsx,test,-0.6,-0.6,-0.6,0.6,0.6,left,L,,,,,0,1,1,1,0,19,19,95,,,,,,,,,,,,,,,,,,,,,,,,,,,,,,,,,,,,,,,,,,,,197.67161700013094,None,left,1,2.4873476999346167,198.17234940011986,199.95912420004606,198.17234940011986,199.45762640004978,198.17234940011986,199.45762640004978,198.17234940011986,199.45762640004978,198.17234940011986,199.45762640004978,198.17234940011986,199.45762640004978,199.44085779995658,199.94180130003951,199.44085779995658,199.94180130003951,199.44085779995658,199.94180130003951,199.44085779995658,199.94180130003951,199.44085779995658,199.94180130003951,199.44085779995658,199.94180130003951,199.44085779995658,199.94180130003951,199.44085779995658,199.94180130003951,198.17234940011986,None,199.94180130003951,201.16044600005262,1.280000000000001,201.17681160010397,None,201.92814310011454,None,,,,,,,[[1.22]],2.560000000000002,0.65,11032,002,2024_Jan_11_1750,MFTM_A_new1021,2021.2.3,59.42000141839875,
,,,,,,,,stim/Instruction_adaptive.png,conditions/adaptive.xlsx,test,0.6,0.6,0.6,-0.6,-0.6,right,R,,,,,0,1,1,1,0,20,20,46,,,,,,,,,,,,,,,,,,,,,,,,,,,,,,,,,,,,,,,,,,,,202.42879469995387,None,right,1,1.4022314997855574,202.9293522001244,204.54939300008118,202.9293522001244,204.0492204001639,202.9293522001244,204.0492204001639,202.9293522001244,204.0492204001639,202.9293522001244,204.0492204001639,202.9293522001244,204.0492204001639,204.03201390011236,204.53252950008027,204.03201390011236,204.53252950008027,204.03201390011236,204.53252950008027,204.03201390011236,204.53252950008027,204.03201390011236,204.53252950008027,204.03201390011236,204.53252950008027,204.03201390011236,204.53252950008027,204.03201390011236,204.53252950008027,202.9293522001244,None,204.53252950008027,205.91788980015554,1.1200000000000008,205.93397560017183,None,206.68529079994187,None,,,,,,,[[1.38]],2.720000000000002,0.6666666666666666,11032,002,2024_Jan_11_1750,MFTM_A_new1021,2021.2.3,59.42000141839875,
,,,,,,,,stim/Instruction_adaptive.png,conditions/adaptive.xlsx,test,0.6,0.6,0.6,-0.6,-0.6,right,R,,,,,0,1,1,1,0,21,21,40,,,,,,,,,,,,,,,,,,,,,,,,,,,,,,,,,,,,,,,,,,,,207.1867629000917,None,right,1,1.5248079998418689,207.68638200010173,209.18964880006388,207.68638200010173,208.68791500013322,207.68638200010173,208.68791500013322,207.68638200010173,208.68791500013322,207.68638200010173,208.68791500013322,207.68638200010173,208.68791500013322,208.67170049995184,209.17268389998935,208.67170049995184,209.17268389998935,208.67170049995184,209.17268389998935,208.67170049995184,209.17268389998935,208.67170049995184,209.17268389998935,208.67170049995184,209.17268389998935,208.67170049995184,209.17268389998935,208.67170049995184,209.17268389998935,207.68638200010173,None,209.17268389998935,210.67534080008045,1.0000000000000007,210.69124209997244,None,211.4422013000585,None,,,,,,,[[1.5]],2.8500000000000023,0.6818181818181818,11032,002,2024_Jan_11_1750,MFTM_A_new1021,2021.2.3,59.42000141839875,
,,,,,,,,stim/Instruction_adaptive.png,conditions/adaptive.xlsx,test,-0.6,-0.6,-0.6,0.6,0.6,left,L,,,,,0,1,1,1,0,22,22,99,,,,,,,,,,,,,,,,,,,,,,,,,,,,,,,,,,,,,,,,,,,,211.94378610001877,None,left,1,1.7102717000525445,212.4449102000799,213.86310830013826,212.4449102000799,213.36222150013782,212.4449102000799,213.36222150013782,212.4449102000799,213.36222150013782,212.4449102000799,213.36222150013782,212.4449102000799,213.36222150013782,213.34562200005166,213.8464043000713,213.34562200005166,213.8464043000713,213.34562200005166,213.8464043000713,213.34562200005166,213.8464043000713,213.34562200005166,213.8464043000713,213.34562200005166,213.8464043000713,213.34562200005166,213.8464043000713,213.34562200005166,213.8464043000713,212.4449102000799,None,213.82962890015915,215.43244230002165,0.9100000000000006,215.44867109996267,None,216.19959370000288,None,,,,,,,[[1.59]],2.9700000000000024,0.6956521739130435,11032,002,2024_Jan_11_1750,MFTM_A_new1021,2021.2.3,59.42000141839875,
,,,,,,,,stim/Instruction_adaptive.png,conditions/adaptive.xlsx,test,0.6,0.6,0.6,-0.6,-0.6,right,R,,,,,0,1,1,1,0,23,23,72,,,,,,,,,,,,,,,,,,,,,,,,,,,,,,,,,,,,,,,,,,,,216.70077130012214,None,right,1,1.0503652999177575,217.20136609999463,218.5540068000555,217.20136609999463,218.05258890008554,217.20136609999463,218.05258890008554,217.20136609999463,218.05258890008554,217.20136609999463,218.05258890008554,217.20136609999463,218.05258890008554,218.01959419995546,218.51990920002572,218.01959419995546,218.51990920002572,218.01959419995546,218.51990920002572,218.01959419995546,218.51990920002572,218.01959419995546,218.51990920002572,218.01959419995546,218.51990920002572,218.01959419995546,218.51990920002572,218.01959419995546,218.51990920002572,217.20136609999463,None,218.51990920002572,220.18921620002948,0.8400000000000005,220.20501030003652,None,220.95743790012784,None,,,,,,,[[1.66]],3.070000000000002,0.7083333333333334,11032,002,2024_Jan_11_1750,MFTM_A_new1021,2021.2.3,59.42000141839875,
,,,,,,,,stim/Instruction_adaptive.png,conditions/adaptive.xlsx,test,-0.6,-0.6,-0.6,0.6,0.6,left,L,,,,,0,1,1,1,0,24,24,33,,,,,,,,,,,,,,,,,,,,,,,,,,,,,,,,,,,,,,,,,,,,221.45829179999419,None,left,1,1.1505853000562638,221.95762470015325,223.24365530000068,221.95762470015325,222.74208909994923,221.95762470015325,222.74208909994923,221.95762470015325,222.74208909994923,221.95762470015325,222.74208909994923,221.95762470015325,222.74208909994923,222.72555080009624,223.22677400009707,222.72555080009624,223.22677400009707,222.72555080009624,223.22677400009707,222.72555080009624,223.22677400009707,222.72555080009624,223.22677400009707,222.72555080009624,223.22677400009707,222.72555080009624,223.22677400009707,222.72555080009624,223.22677400009707,221.95762470015325,None,223.22677400009707,224.912206399953,0.7800000000000005,224.9294332000427,None,225.68057740014046,None,,,,,,,[1.6844],3.1700000000000026,0.72,11032,002,2024_Jan_11_1750,MFTM_A_new1021,2021.2.3,59.42000141839875,
,,,,,,,,stim/Instruction_adaptive.png,conditions/adaptive.xlsx,test,-0.6,-0.6,-0.6,0.6,0.6,left,L,,,,,0,1,1,1,0,25,25,69,,,,,,,,,,,,,,,,,,,,,,,,,,,,,,,,,,,,,,,,,,,,226.18178310012445,None,left,1,2.250357100041583,226.68133509997278,227.91781749995425,226.68133509997278,227.41572579997592,226.68133509997278,227.41572579997592,226.68133509997278,227.41572579997592,226.68133509997278,227.41572579997592,226.68133509997278,227.41572579997592,227.39902000012808,227.90082950005308,227.39902000012808,227.90082950005308,227.39902000012808,227.90082950005308,227.39902000012808,227.90082950005308,227.39902000012808,227.90082950005308,227.39902000012808,227.90082950005308,227.39902000012808,227.90082950005308,227.39902000012808,227.90082950005308,226.68133509997278,None,227.90082950005308,None,0.7300000000000004,229.6025330000557,None,230.35348220006563,None,,,,,,,[1.68769231],3.2500000000000027,0.7307692307692307,11032,002,2024_Jan_11_1750,MFTM_A_new1021,2021.2.3,59.42000141839875,
,,,,,,,,stim/Instruction_adaptive.png,conditions/adaptive.xlsx,test,-0.6,-0.6,-0.6,0.6,0.6,left,L,,,,,0,1,1,1,0,26,26,75,,,,,,,,,,,,,,,,,,,,,,,,,,,,,,,,,,,,,,,,,,,,230.85542150004767,None,left,1,2.1358279997948557,231.35561379999854,232.55765840015374,231.35561379999854,232.05678850016557,231.35561379999854,232.05678850016557,231.35561379999854,232.05678850016557,231.35561379999854,232.05678850016557,231.35561379999854,232.05678850016557,232.02302430011332,232.52412459999323,232.02302430011332,232.52412459999323,232.02302430011332,232.52412459999323,232.02302430011332,232.52412459999323,232.02302430011332,232.52412459999323,232.02302430011332,232.52412459999323,232.02302430011332,232.52412459999323,232.02302430011332,232.52412459999323,231.35561379999854,None,232.52412459999323,234.22595130000263,0.6900000000000004,234.2434297001455,None,234.9951996000018,None,,,,,,,[1.69222222],3.3300000000000027,0.7407407407407407,11032,002,2024_Jan_11_1750,MFTM_A_new1021,2021.2.3,59.42000141839875,
,,,,,,,,stim/Instruction_adaptive.png,conditions/adaptive.xlsx,test,0.6,0.6,0.6,-0.6,-0.6,right,R,,,,,0,1,1,1,0,27,27,78,,,,,,,,,,,,,,,,,,,,,,,,,,,,,,,,,,,,,,,,,,,,235.49501010007225,None,left,0,1.9442692999728024,235.99528050003573,237.14763050014153,235.99528050003573,236.64608920016326,235.99528050003573,236.64608920016326,235.99528050003573,236.64608920016326,235.99528050003573,236.64608920016326,235.99528050003573,236.64608920016326,236.62944889999926,237.1307546000462,236.62944889999926,237.1307546000462,236.62944889999926,237.1307546000462,236.62944889999926,237.1307546000462,236.62944889999926,237.1307546000462,236.62944889999926,237.1307546000462,236.62944889999926,237.1307546000462,236.62944889999926,237.1307546000462,235.99528050003573,None,237.1307546000462,238.83355710003525,0.6500000000000004,238.84992310008965,None,239.60075030010194,None,,,,,,,[1.69785714],3.110000000000002,0.7142857142857143,11032,002,2024_Jan_11_1750,MFTM_A_new1021,2021.2.3,59.42000141839875,
,,,,,,,,stim/Instruction_adaptive.png,conditions/adaptive.xlsx,test,-0.6,-0.6,-0.6,0.6,0.6,left,L,,,,,0,1,1,1,0,28,28,31,,,,,,,,,,,,,,,,,,,,,,,,,,,,,,,,,,,,,,,,,,,,240.10119760013185,None,right,0,2.3373968000523746,240.60219540004618,241.8705146999564,240.60219540004618,241.37047890014946,240.60219540004618,241.37047890014946,240.60219540004618,241.37047890014946,240.60219540004618,241.37047890014946,240.60219540004618,241.37047890014946,241.337032899959,241.83795830002055,241.337032899959,241.83795830002055,241.337032899959,241.83795830002055,241.337032899959,241.83795830002055,241.337032899959,241.83795830002055,241.337032899959,241.83795830002055,241.337032899959,241.83795830002055,241.337032899959,241.83795830002055,240.60219540004618,None,241.83795830002055,243.5397932000924,0.7600000000000005,243.57307610008866,None,244.32471670000814,None,,,,,,,[1.69931034],2.870000000000002,0.6896551724137931,11032,002,2024_Jan_11_1750,MFTM_A_new1021,2021.2.3,59.42000141839875,
,,,,,,,,stim/Instruction_adaptive.png,conditions/adaptive.xlsx,test,0.6,0.6,0.6,-0.6,-0.6,right,R,,,,,0,1,1,1,0,29,29,92,,,,,,,,,,,,,,,,,,,,,,,,,,,,,,,,,,,,,,,,,,,,244.82547989999875,None,left,0,2.700876799877733,245.326536500128,246.72854000004008,245.326536500128,246.22808260004967,245.326536500128,246.22808260004967,245.326536500128,246.22808260004967,245.326536500128,246.22808260004967,245.326536500128,246.22808260004967,246.21103110001422,246.71154569997452,246.21103110001422,246.71154569997452,246.21103110001422,246.71154569997452,246.21103110001422,246.71154569997452,246.21103110001422,246.71154569997452,246.21103110001422,246.71154569997452,246.21103110001422,246.71154569997452,246.21103110001422,246.71154569997452,245.326536500128,None,246.71154569997452,248.31399079994299,0.9000000000000006,248.33072840003297,None,249.08197759999894,None,,,,,,,[[1.6]],2.610000000000002,0.6666666666666666,11032,002,2024_Jan_11_1750,MFTM_A_new1021,2021.2.3,59.42000141839875,
,,,,,,,,stim/Instruction_adaptive.png,conditions/adaptive.xlsx,test,0.6,0.6,0.6,-0.6,-0.6,right,R,,,,,0,1,1,1,0,30,30,22,,,,,,,,,,,,,,,,,,,,,,,,,,,,,,,,,,,,,,,,,,,,249.58248979994096,None,right,1,2.2802225998602808,250.0833773999475,251.66917859995738,250.0833773999475,251.16869570012204,250.0833773999475,251.16869570012204,250.0833773999475,251.16869570012204,250.0833773999475,251.16869570012204,250.0833773999475,251.16869570012204,251.1513283001259,251.6516748999711,251.1513283001259,251.6516748999711,251.1513283001259,251.6516748999711,251.1513283001259,251.6516748999711,251.1513283001259,251.6516748999711,251.1513283001259,251.6516748999711,251.1513283001259,251.6516748999711,251.1513283001259,251.6516748999711,250.0833773999475,None,251.6516748999711,253.07099439995363,1.0800000000000007,253.08649260015227,None,253.83877480006777,None,,,,,,,[[1.42]],2.700000000000002,0.6774193548387096,11032,002,2024_Jan_11_1750,MFTM_A_new1021,2021.2.3,59.42000141839875,
,,,,,,,,stim/Instruction_adaptive.png,conditions/adaptive.xlsx,test,-0.6,-0.6,-0.6,0.6,0.6,left,L,,,,,0,1,1,1,0,31,31,71,,,,,,,,,,,,,,,,,,,,,,,,,,,,,,,,,,,,,,,,,,,,254.34050970012322,None,left,1,1.2517789001576602,254.83967850008048,256.3591702999547,254.83967850008048,255.85849440004677,254.83967850008048,255.85849440004677,254.83967850008048,255.85849440004677,254.83967850008048,255.85849440004677,254.83967850008048,255.85849440004677,255.84118250012398,256.34216960007325,255.84118250012398,256.34216960007325,255.84118250012398,256.34216960007325,255.84118250012398,256.34216960007325,255.84118250012398,256.34216960007325,255.84118250012398,256.34216960007325,255.84118250012398,256.34216960007325,255.84118250012398,256.34216960007325,254.83967850008048,None,256.3256781999953,257.8289522000123,1.0100000000000007,257.844013400143,None,258.5960546999704,None,,,,,,,[[1.49]],2.790000000000002,0.6875,11032,002,2024_Jan_11_1750,MFTM_A_new1021,2021.2.3,59.42000141839875,
,,,,,,,,stim/Instruction_adaptive.png,conditions/adaptive.xlsx,test,0.6,0.6,0.6,-0.6,-0.6,right,R,,,,,0,1,1,1,0,32,32,26,,,,,,,,,,,,,,,,,,,,,,,,,,,,,,,,,,,,,,,,,,,,259.0964989999775,None,right,1,2.422822599997744,259.5965538001619,261.0491454999428,259.5965538001619,260.5486636001151,259.5965538001619,260.5486636001151,259.5965538001619,260.5486636001151,259.5965538001619,260.5486636001151,259.5965538001619,260.5486636001151,260.53225450008176,261.033391200006,260.53225450008176,261.033391200006,260.53225450008176,261.033391200006,260.53225450008176,261.033391200006,260.53225450008176,261.033391200006,260.53225450008176,261.033391200006,260.53225450008176,261.033391200006,260.53225450008176,261.033391200006,259.5965538001619,None,261.033391200006,262.58539790008217,0.9500000000000006,262.601750300033,None,263.3529992001131,None,,,,,,,[[1.55]],2.870000000000002,0.696969696969697,11032,002,2024_Jan_11_1750,MFTM_A_new1021,2021.2.3,59.42000141839875,
,,,,,,,,stim/Instruction_adaptive.png,conditions/adaptive.xlsx,test,0.6,0.6,0.6,-0.6,-0.6,right,R,,,,,0,1,1,1,0,33,33,24,,,,,,,,,,,,,,,,,,,,,,,,,,,,,,,,,,,,,,,,,,,,263.8542145001702,None,right,1,1.9207834000699222,264.3551283001434,265.7566884001717,264.3551283001434,265.2551824999973,264.3551283001434,265.2551824999973,264.3551283001434,265.2551824999973,264.3551283001434,265.2551824999973,264.3551283001434,265.2551824999973,265.23875130014494,265.7392941999715,265.23875130014494,265.7392941999715,265.23875130014494,265.7392941999715,265.23875130014494,265.7392941999715,265.23875130014494,265.7392941999715,265.23875130014494,265.7392941999715,265.23875130014494,265.7392941999715,265.23875130014494,265.7392941999715,264.3551283001434,None,265.7392941999715,267.34223710000515,0.9000000000000006,267.35934210009873,None,268.10967290005647,None,,,,,,,[[1.6]],2.950000000000002,0.7058823529411765,11032,002,2024_Jan_11_1750,MFTM_A_new1021,2021.2.3,59.42000141839875,
,,,,,,,,stim/Instruction_adaptive.png,conditions/adaptive.xlsx,test,-0.6,-0.6,-0.6,0.6,0.6,left,L,,,,,0,1,1,1,0,34,34,23,,,,,,,,,,,,,,,,,,,,,,,,,,,,,,,,,,,,,,,,,,,,268.6105019999668,None,left,1,2.2442634999752045,269.1111838000361,270.4640182000585,269.1111838000361,269.96209849999286,269.1111838000361,269.96209849999286,269.1111838000361,269.96209849999286,269.1111838000361,269.96209849999286,269.1111838000361,269.96209849999286,269.94531660014763,270.4471112000756,269.94531660014763,270.4471112000756,269.94531660014763,270.4471112000756,269.94531660014763,270.4471112000756,269.94531660014763,270.4471112000756,269.94531660014763,270.4471112000756,269.94531660014763,270.4471112000756,269.94531660014763,270.4471112000756,269.1111838000361,None,270.4471112000756,272.0986612001434,0.8500000000000005,272.11529040010646,None,272.8663157999981,None,,,,,,,[[1.65]],3.0200000000000022,0.7142857142857143,11032,002,2024_Jan_11_1750,MFTM_A_new1021,2021.2.3,59.42000141839875,
,,,,,,,,stim/Instruction_adaptive.png,conditions/adaptive.xlsx,test,0.6,0.6,0.6,-0.6,-0.6,right,R,,,,,0,1,1,1,0,35,35,76,,,,,,,,,,,,,,,,,,,,,,,,,,,,,,,,,,,,,,,,,,,,273.3678779001348,None,right,1,2.4724437999539077,273.86795840016566,275.18642070004717,273.86795840016566,274.68711489997804,273.86795840016566,274.68711489997804,273.86795840016566,274.68711489997804,273.86795840016566,274.68711489997804,273.86795840016566,274.68711489997804,274.6531084999442,275.1532286000438,274.6531084999442,275.1532286000438,274.6531084999442,275.1532286000438,274.6531084999442,275.1532286000438,274.6531084999442,275.1532286000438,274.6531084999442,275.1532286000438,274.6531084999442,275.1532286000438,274.6531084999442,275.1532286000438,273.86795840016566,None,275.1532286000438,276.8396567001473,0.8100000000000005,276.85576930013485,None,277.60768420016393,None,,,,,,,[1.67444444],3.0800000000000023,0.7222222222222222,11032,002,2024_Jan_11_1750,MFTM_A_new1021,2021.2.3,59.42000141839875,
,,,,,,,,stim/Instruction_adaptive.png,conditions/adaptive.xlsx,test,-0.6,-0.6,-0.6,0.6,0.6,left,L,,,,,0,1,1,1,0,36,36,13,,,,,,,,,,,,,,,,,,,,,,,,,,,,,,,,,,,,,,,,,,,,278.1081201999914,None,left,1,1.6673021998722106,278.6083119001705,279.8943611001596,278.6083119001705,279.3934311999474,278.6083119001705,279.3934311999474,278.6083119001705,279.3934311999474,278.6083119001705,279.3934311999474,278.6083119001705,279.3934311999474,279.3761694000568,279.87756819999777,279.3761694000568,279.87756819999777,279.3761694000568,279.87756819999777,279.3761694000568,279.87756819999777,279.3761694000568,279.87756819999777,279.3761694000568,279.87756819999777,279.3761694000568,279.87756819999777,279.3761694000568,279.87756819999777,278.6083119001705,None,279.87756819999777,None,0.7800000000000005,281.5626000999473,None,282.3144211000763,None,,,,,,,[1.67567568],3.1400000000000023,0.7297297297297297,11032,002,2024_Jan_11_1750,MFTM_A_new1021,2021.2.3,59.42000141839875,
,,,,,,,,stim/Instruction_adaptive.png,conditions/adaptive.xlsx,test,0.6,0.6,0.6,-0.6,-0.6,right,R,,,,,0,1,1,1,0,37,37,8,,,,,,,,,,,,,,,,,,,,,,,,,,,,,,,,,,,,,,,,,,,,282.8146981999744,None,right,1,2.359007000224665,283.31656630011275,284.5672997001093,283.31656630011275,284.0664159001317,283.31656630011275,284.0664159001317,283.31656630011275,284.0664159001317,283.31656630011275,284.0664159001317,283.31656630011275,284.0664159001317,284.0496390000917,284.5504976999946,284.0496390000917,284.5504976999946,284.0496390000917,284.5504976999946,284.0496390000917,284.5504976999946,284.0496390000917,284.5504976999946,284.0496390000917,284.5504976999946,284.0496390000917,284.5504976999946,284.0496390000917,284.5504976999946,283.31656630011275,None,284.5504976999946,286.23630350013264,0.7500000000000004,286.2530021001585,None,287.00485770008527,None,,,,,,,[1.67763158],3.190000000000002,0.7368421052631579,11032,002,2024_Jan_11_1750,MFTM_A_new1021,2021.2.3,59.42000141839875,
,,,,,,,,stim/Instruction_adaptive.png,conditions/adaptive.xlsx,test,0.6,0.6,0.6,-0.6,-0.6,right,R,,,,,0,1,1,1,0,38,38,18,,,,,,,,,,,,,,,,,,,,,,,,,,,,,,,,,,,,,,,,,,,,287.5050967000425,None,right,1,2.317835699999705,288.0055645001121,289.2407134999521,288.0055645001121,288.7399720000103,288.0055645001121,288.7399720000103,288.0055645001121,288.7399720000103,288.0055645001121,288.7399720000103,288.0055645001121,288.7399720000103,288.7065638001077,289.2076568000484,288.7065638001077,289.2076568000484,288.7065638001077,289.2076568000484,288.7065638001077,289.2076568000484,288.7065638001077,289.2076568000484,288.7065638001077,289.2076568000484,288.7065638001077,289.2076568000484,288.7065638001077,289.2076568000484,288.0055645001121,None,289.2076568000484,290.89344160002656,0.7200000000000004,290.91024070000276,None,291.6617690999992,None,,,,,,,[1.68025641],3.2500000000000027,0.7435897435897436,11032,002,2024_Jan_11_1750,MFTM_A_new1021,2021.2.3,59.42000141839875,
,,,,,,,,stim/Instruction_adaptive.png,conditions/adaptive.xlsx,test,0.6,0.6,0.6,-0.6,-0.6,right,R,,,,,0,1,1,1,0,39,39,84,,,,,,,,,,,,,,,,,,,,,,,,,,,,,,,,,,,,,,,,,,,,292.1619601000566,None,left,0,1.9973625000566244,292.6625769000966,293.8643241999671,292.6625769000966,293.36378769995645,292.6625769000966,293.36378769995645,292.6625769000966,293.36378769995645,292.6625769000966,293.36378769995645,292.6625769000966,293.36378769995645,293.3301121001132,293.8308564000763,293.3301121001132,293.8308564000763,293.3301121001132,293.8308564000763,293.3301121001132,293.8308564000763,293.3301121001132,293.8308564000763,293.3301121001132,293.8308564000763,293.3301121001132,293.8308564000763,293.3301121001132,293.8308564000763,292.6625769000966,None,293.8308564000763,295.51738940016367,0.6900000000000004,295.54951160005294,None,296.3013023000676,None,,,,,,,[1.6835],3.1000000000000023,0.725,11032,002,2024_Jan_11_1750,MFTM_A_new1021,2021.2.3,59.42000141839875,
,,,,,,,,stim/Instruction_adaptive.png,conditions/adaptive.xlsx,test,-0.6,-0.6,-0.6,0.6,0.6,left,L,,,,,0,1,1,1,0,40,40,41,,,,,,,,,,,,,,,,,,,,,,,,,,,,,,,,,,,,,,,,,,,,296.80230810004286,None,left,1,2.0214020998682827,297.30286410008557,298.5879367000889,297.30286410008557,298.08740100008436,297.30286410008557,298.08740100008436,297.30286410008557,298.08740100008436,297.30286410008557,298.08740100008436,297.30286410008557,298.08740100008436,298.0543438999448,298.5547509000171,298.0543438999448,298.5547509000171,298.0543438999448,298.5547509000171,298.0543438999448,298.5547509000171,298.0543438999448,298.5547509000171,298.0543438999448,298.5547509000171,298.0543438999448,298.5547509000171,298.0543438999448,298.5547509000171,297.30286410008557,None,298.5547509000171,300.24108500010334,0.7700000000000005,300.25707189994864,None,301.00918860011734,None,,,,,,,[1.68463415],3.150000000000002,0.7317073170731707,11032,002,2024_Jan_11_1750,MFTM_A_new1021,2021.2.3,59.42000141839875,
,,,,,,,,stim/Instruction_adaptive.png,conditions/adaptive.xlsx,test,-0.6,-0.6,-0.6,0.6,0.6,left,L,,,,,0,1,1,1,0,41,41,17,,,,,,,,,,,,,,,,,,,,,,,,,,,,,,,,,,,,,,,,,,,,301.5094371000305,None,right,0,1.2577816999983042,302.0094739999622,303.26207150006667,302.0094739999622,302.7607599000912,302.0094739999622,302.7607599000912,302.0094739999622,302.7607599000912,302.0094739999622,302.7607599000912,302.0094739999622,302.7607599000912,302.7272771000862,303.22820320003666,302.7272771000862,303.22820320003666,302.7272771000862,303.22820320003666,302.7272771000862,303.22820320003666,302.7272771000862,303.22820320003666,302.7272771000862,303.22820320003666,302.7272771000862,303.22820320003666,302.7272771000862,303.22820320003666,302.0094739999622,None,303.22820320003666,304.9149156000931,0.7400000000000004,304.94712579995394,None,305.69970250013284,None,,,,,,,[1.68642857],3.000000000000002,0.7142857142857143,11032,002,2024_Jan_11_1750,MFTM_A_new1021,2021.2.3,59.42000141839875,
,,,,,,,,stim/Instruction_adaptive.png,conditions/adaptive.xlsx,test,-0.6,-0.6,-0.6,0.6,0.6,left,L,,,,,0,1,1,1,0,42,42,49,,,,,,,,,,,,,,,,,,,,,,,,,,,,,,,,,,,,,,,,,,,,306.2000355999917,None,left,1,1.9276141999289393,306.7002783000935,308.019121899968,306.7002783000935,307.5360867001582,306.7002783000935,307.5360867001582,306.7002783000935,307.5360867001582,306.7002783000935,307.5360867001582,306.7002783000935,307.5360867001582,307.5017208000645,308.0024717999622,307.5017208000645,308.0024717999622,307.5017208000645,308.0024717999622,307.5017208000645,308.0024717999622,307.5017208000645,308.0024717999622,307.5017208000645,308.0024717999622,307.5017208000645,308.0024717999622,307.5017208000645,308.0024717999622,306.7002783000935,None,308.0024717999622,309.68854769994505,0.8200000000000005,309.7041430999525,None,310.45667230011895,None,,,,,,,[[1.68]],3.0500000000000025,0.7209302325581395,11032,002,2024_Jan_11_1750,MFTM_A_new1021,2021.2.3,59.42000141839875,
,,,,,,,,stim/Instruction_adaptive.png,conditions/adaptive.xlsx,test,-0.6,-0.6,-0.6,0.6,0.6,left,L,,,,,0,1,1,1,0,43,43,57,,,,,,,,,,,,,,,,,,,,,,,,,,,,,,,,,,,,,,,,,,,,310.95688700000755,None,right,0,1.5698323999531567,311.45767979999073,312.7595421001315,311.45767979999073,312.25890649994835,311.45767979999073,312.25890649994835,311.45767979999073,312.25890649994835,311.45767979999073,312.25890649994835,311.45767979999073,312.25890649994835,312.2254187001381,312.7260664999485,312.2254187001381,312.7260664999485,312.2254187001381,312.7260664999485,312.2254187001381,312.7260664999485,312.2254187001381,312.7260664999485,312.2254187001381,312.7260664999485,312.2254187001381,312.7260664999485,312.2254187001381,312.7260664999485,311.45767979999073,None,312.7260664999485,314.42862790008076,0.7900000000000005,314.4444171001669,None,315.196768600028,None,,,,,,,[1.68681818],2.900000000000002,0.7045454545454546,11032,002,2024_Jan_11_1750,MFTM_A_new1021,2021.2.3,59.42000141839875,
,,,,,,,,stim/Instruction_adaptive.png,conditions/adaptive.xlsx,test,-0.6,-0.6,-0.6,0.6,0.6,left,L,,,,,0,1,1,1,0,44,44,91,,,,,,,,,,,,,,,,,,,,,,,,,,,,,,,,,,,,,,,,,,,,315.69769240007736,None,left,1,2.4445984999183565,316.19877430005,317.5824822001159,316.19877430005,317.08202049997635,316.19877430005,317.08202049997635,316.19877430005,317.08202049997635,316.19877430005,317.08202049997635,316.19877430005,317.08202049997635,317.0652950000949,317.56638980004936,317.0652950000949,317.56638980004936,317.0652950000949,317.56638980004936,317.0652950000949,317.56638980004936,317.0652950000949,317.56638980004936,317.0652950000949,317.56638980004936,317.0652950000949,317.56638980004936,317.0652950000949,317.56638980004936,316.19877430005,None,317.56638980004936,319.18647870002314,0.8800000000000006,319.2012330000289,None,319.9538763000164,None,,,,,,,[[1.62]],2.950000000000002,0.7111111111111111,11032,002,2024_Jan_11_1750,MFTM_A_new1021,2021.2.3,59.42000141839875,
,,,,,,,,stim/Instruction_adaptive.png,conditions/adaptive.xlsx,test,-0.6,-0.6,-0.6,0.6,0.6,left,L,,,,,0,1,1,1,0,45,45,79,,,,,,,,,,,,,,,,,,,,,,,,,,,,,,,,,,,,,,,,,,,,320.4537076000124,None,left,1,2.8489433000795543,320.9542166001629,322.3062851000577,320.9542166001629,321.8057126000058,320.9542166001629,321.8057126000058,320.9542166001629,321.8057126000058,320.9542166001629,321.8057126000058,320.9542166001629,321.8057126000058,321.7887021000497,322.28976870002225,321.7887021000497,322.28976870002225,321.7887021000497,322.28976870002225,321.7887021000497,322.28976870002225,321.7887021000497,322.28976870002225,321.7887021000497,322.28976870002225,321.7887021000497,322.28976870002225,321.7887021000497,322.28976870002225,320.9542166001629,None,322.28976870002225,323.9422190000769,0.8500000000000005,323.9591549001634,None,324.7107830999885,None,,,,,,,[[1.65]],3.0100000000000025,0.717391304347826,11032,002,2024_Jan_11_1750,MFTM_A_new1021,2021.2.3,59.42000141839875,
,,,,,,,,stim/Instruction_adaptive.png,conditions/adaptive.xlsx,test,-0.6,-0.6,-0.6,0.6,0.6,left,L,,,,,0,1,1,1,0,46,46,5,,,,,,,,,,,,,,,,,,,,,,,,,,,,,,,,,,,,,,,,,,,,325.211404300062,None,right,0,1.427972599864006,325.71137130004354,327.03013120009564,325.71137130004354,326.54592740000226,325.71137130004354,326.54592740000226,325.71137130004354,326.54592740000226,325.71137130004354,326.54592740000226,325.71137130004354,326.54592740000226,326.5126513999421,327.0140027999878,326.5126513999421,327.0140027999878,326.5126513999421,327.0140027999878,326.5126513999421,327.0140027999878,326.5126513999421,327.0140027999878,326.5126513999421,327.0140027999878,326.5126513999421,327.0140027999878,326.5126513999421,327.0140027999878,325.71137130004354,None,327.0140027999878,328.70003670011647,0.8200000000000005,328.71589170000516,None,329.46730879996903,None,,,,,,,[[1.68]],2.860000000000002,0.7021276595744681,11032,002,2024_Jan_11_1750,MFTM_A_new1021,2021.2.3,59.42000141839875,
,,,,,,,,stim/Instruction_adaptive.png,conditions/adaptive.xlsx,test,-0.6,-0.6,-0.6,0.6,0.6,left,L,,,,,0,1,1,1,0,47,47,7,,,,,,,,,,,,,,,,,,,,,,,,,,,,,,,,,,,,,,,,,,,,329.968687399989,None,left,1,1.9587603998370469,330.4691763999872,331.88802450010553,330.4691763999872,331.3864252001513,330.4691763999872,331.3864252001513,330.4691763999872,331.3864252001513,330.4691763999872,331.3864252001513,330.4691763999872,331.3864252001513,331.3536656999495,331.85470290016383,331.3536656999495,331.85470290016383,331.3536656999495,331.85470290016383,331.3536656999495,331.85470290016383,331.3536656999495,331.85470290016383,331.3536656999495,331.85470290016383,331.3536656999495,331.85470290016383,331.3536656999495,331.85470290016383,330.4691763999872,None,331.85470290016383,333.45678919996135,0.9100000000000006,333.4736723001115,None,334.2243043000344,None,,,,,,,[[1.59]],2.910000000000002,0.7083333333333334,11032,002,2024_Jan_11_1750,MFTM_A_new1021,2021.2.3,59.42000141839875,
,,,,,,,,stim/Instruction_adaptive.png,conditions/adaptive.xlsx,test,0.6,0.6,0.6,-0.6,-0.6,right,R,,,,,0,1,1,1,0,48,48,80,,,,,,,,,,,,,,,,,,,,,,,,,,,,,,,,,,,,,,,,,,,,334.72482660016976,None,right,1,1.8022340000607073,335.2257848000154,336.61188820004463,335.2257848000154,336.1101949000731,335.2257848000154,336.1101949000731,335.2257848000154,336.1101949000731,335.2257848000154,336.1101949000731,335.2257848000154,336.1101949000731,336.0943651001435,336.59431780013256,336.0943651001435,336.59431780013256,336.0943651001435,336.59431780013256,336.0943651001435,336.59431780013256,336.0943651001435,336.59431780013256,336.0943651001435,336.59431780013256,336.0943651001435,336.59431780013256,336.0943651001435,336.59431780013256,335.2257848000154,None,336.59431780013256,338.2141048000194,0.8800000000000006,338.2306035000365,None,338.98158280015923,None,,,,,,,[[1.62]],2.960000000000002,0.7142857142857143,11032,002,2024_Jan_11_1750,MFTM_A_new1021,2021.2.3,59.42000141839875,
,,,,,,,,stim/Instruction_adaptive.png,conditions/adaptive.xlsx,test,0.6,0.6,0.6,-0.6,-0.6,right,R,,,,,0,1,1,1,0,49,49,98,,,,,,,,,,,,,,,,,,,,,,,,,,,,,,,,,,,,,,,,,,,,339.48178140004165,None,right,1,2.1491734001319855,339.98253479995765,341.3356048001442,339.98253479995765,340.8340571001172,339.98253479995765,340.8340571001172,339.98253479995765,340.8340571001172,339.98253479995765,340.8340571001172,339.98253479995765,340.8340571001172,340.8172502000816,341.3193844000343,340.8172502000816,341.3193844000343,340.8172502000816,341.3193844000343,340.8172502000816,341.3193844000343,340.8172502000816,341.3193844000343,340.8172502000816,341.3193844000343,340.8172502000816,341.3193844000343,340.8172502000816,341.3193844000343,339.98253479995765,None,341.3193844000343,342.97070399997756,0.8500000000000005,342.9876129999757,None,343.73929410008714,None,,,,,,,[[1.65]],3.0100000000000025,0.72,11032,002,2024_Jan_11_1750,MFTM_A_new1021,2021.2.3,59.42000141839875,
,,,,,,,,stim/Instruction_adaptive.png,conditions/adaptive.xlsx,test,0.6,0.6,0.6,-0.6,-0.6,right,R,,,,,0,1,1,1,0,50,50,10,,,,,,,,,,,,,,,,,,,,,,,,,,,,,,,,,,,,,,,,,,,,344.23942210013047,None,right,1,2.5511711998842657,344.7405173999723,346.0749999000691,344.7405173999723,345.5743492001202,344.7405173999723,345.5743492001202,344.7405173999723,345.5743492001202,344.7405173999723,345.5743492001202,344.7405173999723,345.5743492001202,345.54132260009646,346.0419974999968,345.54132260009646,346.0419974999968,345.54132260009646,346.0419974999968,345.54132260009646,346.0419974999968,345.54132260009646,346.0419974999968,345.54132260009646,346.0419974999968,345.54132260009646,346.0419974999968,345.54132260009646,346.0419974999968,344.7405173999723,None,346.0419974999968,347.72803120012395,0.8200000000000005,347.74468390014954,None,348.49519170005806,None,,,,,,,[[1.68]],3.0500000000000025,0.7254901960784313,11032,002,2024_Jan_11_1750,MFTM_A_new1021,2021.2.3,59.42000141839875,
,,,,,,,,stim/Instruction_adaptive.png,conditions/adaptive.xlsx,test,-0.6,-0.6,-0.6,0.6,0.6,left,L,,,,,0,1,1,1,0,51,51,73,,,,,,,,,,,,,,,,,,,,,,,,,,,,,,,,,,,,,,,,,,,,348.99656460015103,None,right,0,2.1937557000201195,349.4975869001355,350.7985388999805,349.4975869001355,350.2978913001716,349.4975869001355,350.2978913001716,349.4975869001355,350.2978913001716,349.4975869001355,350.2978913001716,349.4975869001355,350.2978913001716,350.26557909999974,350.7656672000885,350.26557909999974,350.7656672000885,350.26557909999974,350.7656672000885,350.26557909999974,350.7656672000885,350.26557909999974,350.7656672000885,350.26557909999974,350.7656672000885,350.26557909999974,350.7656672000885,350.26557909999974,350.7656672000885,349.4975869001355,None,350.7656672000885,352.4509297001641,0.7900000000000005,352.4677169001661,None,353.2192542999983,None,,,,,,,[1.68115385],2.920000000000002,0.7115384615384616,11032,002,2024_Jan_11_1750,MFTM_A_new1021,2021.2.3,59.42000141839875,
,,,,,,,,stim/Instruction_adaptive.png,conditions/adaptive.xlsx,test,0.6,0.6,0.6,-0.6,-0.6,right,R,,,,,0,1,1,1,0,52,52,34,,,,,,,,,,,,,,,,,,,,,,,,,,,,,,,,,,,,,,,,,,,,353.7194077000022,None,right,1,2.1905926999170333,354.22096180007793,355.5895947001409,354.22096180007793,355.10554240015335,354.22096180007793,355.10554240015335,354.22096180007793,355.10554240015335,354.22096180007793,355.10554240015335,354.22096180007793,355.10554240015335,355.07167540001683,355.5732462001033,355.07167540001683,355.5732462001033,355.07167540001683,355.5732462001033,355.07167540001683,355.5732462001033,355.07167540001683,355.5732462001033,355.07167540001683,355.5732462001033,355.07167540001683,355.5732462001033,355.07167540001683,355.5732462001033,354.22096180007793,None,355.5732462001033,357.2090340999421,0.8700000000000006,357.224140400067,None,357.97618160001,None,,,,,,,[[1.63]],2.9700000000000024,0.7169811320754716,11032,002,2024_Jan_11_1750,MFTM_A_new1021,2021.2.3,59.42000141839875,
,,,,,,,,stim/Instruction_adaptive.png,conditions/adaptive.xlsx,test,0.6,0.6,0.6,-0.6,-0.6,right,R,,,,,0,1,1,1,0,53,53,16,,,,,,,,,,,,,,,,,,,,,,,,,,,,,,,,,,,,,,,,,,,,358.4766800000798,None,left,0,2.186582500115037,358.97746070008725,360.33020419999957,358.97746070008725,359.82931930013,358.97746070008725,359.82931930013,358.97746070008725,359.82931930013,358.97746070008725,359.82931930013,358.97746070008725,359.82931930013,359.7953246999532,360.29587960010394,359.7953246999532,360.29587960010394,359.7953246999532,360.29587960010394,359.7953246999532,360.29587960010394,359.7953246999532,360.29587960010394,359.7953246999532,360.29587960010394,359.7953246999532,360.29587960010394,359.7953246999532,360.29587960010394,358.97746070008725,None,360.29587960010394,361.9661816000007,0.8400000000000005,361.98274650005624,None,362.73363670008257,None,,,,,,,[[1.66]],2.840000000000002,0.7037037037037037,11032,002,2024_Jan_11_1750,MFTM_A_new1021,2021.2.3,59.42000141839875,
,,,,,,,,stim/Instruction_adaptive.png,conditions/adaptive.xlsx,test,0.6,0.6,0.6,-0.6,-0.6,right,R,,,,,0,1,1,1,0,54,54,36,,,,,,,,,,,,,,,,,,,,,,,,,,,,,,,,,,,,,,,,,,,,363.2335709000472,None,right,1,2.3964386999141425,363.7350697000511,365.1539958000649,363.7350697000511,364.6697798001114,363.7350697000511,364.6697798001114,363.7350697000511,364.6697798001114,363.7350697000511,364.6697798001114,363.7350697000511,364.6697798001114,364.63672529999167,365.13725959998555,364.63672529999167,365.13725959998555,364.63672529999167,365.13725959998555,364.63672529999167,365.13725959998555,364.63672529999167,365.13725959998555,364.63672529999167,365.13725959998555,364.63672529999167,365.13725959998555,364.63672529999167,365.13725959998555,363.7350697000511,None,365.13725959998555,366.72296770010144,0.9200000000000006,366.73871090007015,None,367.490277600009,None,,,,,,,[[1.58]],2.880000000000002,0.7090909090909091,11032,002,2024_Jan_11_1750,MFTM_A_new1021,2021.2.3,59.42000141839875,
,,,,,,,,stim/Instruction_adaptive.png,conditions/adaptive.xlsx,test,0.6,0.6,0.6,-0.6,-0.6,right,R,,,,,0,1,1,1,0,55,55,70,,,,,,,,,,,,,,,,,,,,,,,,,,,,,,,,,,,,,,,,,,,,367.99063970008865,None,right,1,2.8079398998524994,368.49160320009105,369.89366660011,368.49160320009105,369.3935748001095,368.49160320009105,369.3935748001095,368.49160320009105,369.3935748001095,368.49160320009105,369.3935748001095,368.49160320009105,369.3935748001095,369.3593615000136,369.8605023000855,369.3593615000136,369.8605023000855,369.3593615000136,369.8605023000855,369.3593615000136,369.8605023000855,369.3593615000136,369.8605023000855,369.3593615000136,369.8605023000855,369.3593615000136,369.8605023000855,369.3593615000136,369.8605023000855,368.49160320009105,None,369.8605023000855,371.480818600161,0.8900000000000006,371.4953380001243,None,372.247755800141,None,,,,,,,[[1.61]],2.9300000000000024,0.7142857142857143,11032,002,2024_Jan_11_1750,MFTM_A_new1021,2021.2.3,59.42000141839875,
,,,,,,,,stim/Instruction_adaptive.png,conditions/adaptive.xlsx,test,0.6,0.6,0.6,-0.6,-0.6,right,R,,,,,0,1,1,1,0,56,56,82,,,,,,,,,,,,,,,,,,,,,,,,,,,,,,,,,,,,,,,,,,,,372.74861060013063,None,right,1,2.4184904999565333,373.2491004001349,374.61705280002207,373.2491004001349,374.11668190010823,373.2491004001349,374.11668190010823,373.2491004001349,374.11668190010823,373.2491004001349,374.11668190010823,373.2491004001349,374.11668190010823,374.1002096000593,374.60031020012684,374.1002096000593,374.60031020012684,374.1002096000593,374.60031020012684,374.1002096000593,374.60031020012684,374.1002096000593,374.60031020012684,374.1002096000593,374.60031020012684,374.1002096000593,374.60031020012684,374.1002096000593,374.60031020012684,373.2491004001349,None,374.60031020012684,None,0.8600000000000005,376.2536176000722,None,377.00396719994023,None,,,,,,,[[1.64]],2.9700000000000024,0.7192982456140351,11032,002,2024_Jan_11_1750,MFTM_A_new1021,2021.2.3,59.42000141839875,
,,,,,,,,stim/Instruction_adaptive.png,conditions/adaptive.xlsx,test,0.6,0.6,0.6,-0.6,-0.6,right,R,,,,,0,1,1,1,0,57,57,30,,,,,,,,,,,,,,,,,,,,,,,,,,,,,,,,,,,,,,,,,,,,377.50589140015654,None,left,0,2.7574686999432743,378.0061848999467,379.35840520006604,378.0061848999467,378.85780799994245,378.0061848999467,378.85780799994245,378.0061848999467,378.85780799994245,378.0061848999467,378.85780799994245,378.0061848999467,378.85780799994245,378.8238661000505,379.32484579994343,378.8238661000505,379.32484579994343,378.8238661000505,379.32484579994343,378.8238661000505,379.32484579994343,378.8238661000505,379.32484579994343,378.8238661000505,379.32484579994343,378.8238661000505,379.32484579994343,378.8238661000505,379.32484579994343,378.0061848999467,None,379.32484579994343,380.9942887001671,0.8400000000000005,381.0098987000529,None,381.76196469995193,None,,,,,,,[[1.66]],2.8500000000000023,0.7068965517241379,11032,002,2024_Jan_11_1750,MFTM_A_new1021,2021.2.3,59.42000141839875,
,,,,,,,,stim/Instruction_adaptive.png,conditions/adaptive.xlsx,test,0.6,0.6,0.6,-0.6,-0.6,right,R,,,,,0,1,1,1,0,58,58,62,,,,,,,,,,,,,,,,,,,,,,,,,,,,,,,,,,,,,,,,,,,,382.2627588000614,None,left,0,1.6807539998553693,382.7626792001538,384.1824239999987,382.7626792001538,383.6806350001134,382.7626792001538,383.6806350001134,382.7626792001538,383.6806350001134,382.7626792001538,383.6806350001134,382.7626792001538,383.6806350001134,383.66459820000455,384.1647314000875,383.66459820000455,384.1647314000875,383.66459820000455,384.1647314000875,383.66459820000455,384.1647314000875,383.66459820000455,384.1647314000875,383.66459820000455,384.1647314000875,383.66459820000455,384.1647314000875,383.66459820000455,384.1647314000875,382.7626792001538,None,384.1478075000923,385.75130310002714,0.9100000000000006,385.7676711999811,None,386.51907439995557,None,,,,,,,[[1.59]],2.720000000000002,0.6949152542372882,11032,002,2024_Jan_11_1750,MFTM_A_new1021,2021.2.3,59.42000141839875,
,,,,,,,,stim/Instruction_adaptive.png,conditions/adaptive.xlsx,test,0.6,0.6,0.6,-0.6,-0.6,right,R,,,,,0,1,1,1,0,59,59,6,,,,,,,,,,,,,,,,,,,,,,,,,,,,,,,,,,,,,,,,,,,,387.0190906999633,None,right,1,2.4672408998012543,387.52025549998507,389.02182990009896,387.52025549998507,388.5220334001351,387.52025549998507,388.5220334001351,387.52025549998507,388.5220334001351,387.52025549998507,388.5220334001351,387.52025549998507,388.5220334001351,388.5046687000431,389.0053433000576,388.5046687000431,389.0053433000576,388.5046687000431,389.0053433000576,388.5046687000431,389.0053433000576,388.5046687000431,389.0053433000576,388.5046687000431,389.0053433000576,388.5046687000431,389.0053433000576,388.5046687000431,389.0053433000576,387.52025549998507,None,389.0053433000576,390.50827890005894,1.0000000000000007,390.5241597001441,None,391.2751478999853,None,,,,,,,[[1.5]],2.7700000000000022,0.7,11032,002,2024_Jan_11_1750,MFTM_A_new1021,2021.2.3,59.42000141839875,
,,,,,,,,stim/Instruction_adaptive.png,conditions/adaptive.xlsx,test,0.6,0.6,0.6,-0.6,-0.6,right,R,,,,,0,1,1,1,0,60,60,60,,,,,,,,,,,,,,,,,,,,,,,,,,,,,,,,,,,,,,,,,,,,391.77695109997876,None,right,1,3.087864700006321,392.2768788000103,393.7456141000148,392.2768788000103,393.24515140010044,392.2768788000103,393.24515140010044,392.2768788000103,393.24515140010044,392.2768788000103,393.24515140010044,392.2768788000103,393.24515140010044,393.2286613001488,393.7296033001039,393.2286613001488,393.7296033001039,393.2286613001488,393.7296033001039,393.2286613001488,393.7296033001039,393.2286613001488,393.7296033001039,393.2286613001488,393.7296033001039,393.2286613001488,393.7296033001039,393.2286613001488,393.7296033001039,392.2768788000103,None,393.7131259001326,395.38133230013773,0.9600000000000006,395.39798050001264,None,396.150079900166,None,,,,,,,[[1.54]],2.8100000000000023,0.7049180327868853,11032,002,2024_Jan_11_1750,MFTM_A_new1021,2021.2.3,59.42000141839875,
,,,,,,,,stim/Instruction_adaptive.png,conditions/adaptive.xlsx,test,-0.6,-0.6,-0.6,0.6,0.6,left,L,,,,,0,1,1,1,0,61,61,39,,,,,,,,,,,,,,,,,,,,,,,,,,,,,,,,,,,,,,,,,,,,396.65090720006265,None,left,1,2.5650059999898076,397.15049970010296,398.60352150001563,397.15049970010296,398.1028563999571,397.15049970010296,398.1028563999571,397.15049970010296,398.1028563999571,397.15049970010296,398.1028563999571,397.15049970010296,398.1028563999571,398.06964050000533,398.57010799995624,398.06964050000533,398.57010799995624,398.06964050000533,398.57010799995624,398.06964050000533,398.57010799995624,398.06964050000533,398.57010799995624,398.06964050000533,398.57010799995624,398.06964050000533,398.57010799995624,398.06964050000533,398.57010799995624,397.15049970010296,None,398.57010799995624,400.1390331001021,0.9400000000000006,400.1563020001631,None,400.9066524000373,None,,,,,,,[[1.56]],2.8500000000000023,0.7096774193548387,11032,002,2024_Jan_11_1750,MFTM_A_new1021,2021.2.3,59.42000141839875,
,,,,,,,,stim/Instruction_adaptive.png,conditions/adaptive.xlsx,test,-0.6,-0.6,-0.6,0.6,0.6,left,L,,,,,0,1,1,1,0,62,62,67,,,,,,,,,,,,,,,,,,,,,,,,,,,,,,,,,,,,,,,,,,,,401.40773890004493,None,left,1,2.327702200040221,401.90771399997175,403.32690810016356,401.90771399997175,402.8258179000113,401.90771399997175,402.8258179000113,401.90771399997175,402.8258179000113,401.90771399997175,402.8258179000113,401.90771399997175,402.8258179000113,402.80959130008705,403.3097074001562,402.80959130008705,403.3097074001562,402.80959130008705,403.3097074001562,402.80959130008705,403.3097074001562,402.80959130008705,403.3097074001562,402.80959130008705,403.3097074001562,402.80959130008705,403.3097074001562,402.80959130008705,403.3097074001562,401.90771399997175,None,403.29303069994785,404.8953983001411,0.9100000000000006,404.91216960013844,None,405.6637435001321,None,,,,,,,[[1.59]],2.8900000000000023,0.7142857142857143,11032,002,2024_Jan_11_1750,MFTM_A_new1021,2021.2.3,59.42000141839875,
,,,,,,,,stim/Instruction_adaptive.png,conditions/adaptive.xlsx,test,-0.6,-0.6,-0.6,0.6,0.6,left,L,,,,,0,1,1,1,0,63,63,81,,,,,,,,,,,,,,,,,,,,,,,,,,,,,,,,,,,,,,,,,,,,406.16441059997305,None,left,1,2.43475339980796,406.66528440010734,408.06711659999564,406.66528440010734,407.5659876000136,406.66528440010734,407.5659876000136,406.66528440010734,407.5659876000136,406.66528440010734,407.5659876000136,406.66528440010734,407.5659876000136,407.5326191999484,408.0336164999753,407.5326191999484,408.0336164999753,407.5326191999484,408.0336164999753,407.5326191999484,408.0336164999753,407.5326191999484,408.0336164999753,407.5326191999484,408.0336164999753,407.5326191999484,408.0336164999753,407.5326191999484,408.0336164999753,406.66528440010734,None,408.0336164999753,409.6534927999601,0.8900000000000006,409.66900380002335,None,410.4201387001667,None,,,,,,,[[1.61]],2.9300000000000024,0.71875,11032,002,2024_Jan_11_1750,MFTM_A_new1021,2021.2.3,59.42000141839875,
,,,,,,,,stim/Instruction_adaptive.png,conditions/adaptive.xlsx,test,-0.6,-0.6,-0.6,0.6,0.6,left,L,,,,,0,1,1,1,0,64,64,87,,,,,,,,,,,,,,,,,,,,,,,,,,,,,,,,,,,,,,,,,,,,410.92157060001045,None,right,0,1.8056960999965668,411.4218530000653,412.7905447999947,411.4218530000653,412.290262500057,411.4218530000653,412.290262500057,411.4218530000653,412.290262500057,411.4218530000653,412.290262500057,411.4218530000653,412.290262500057,412.25646389997564,412.7577317999676,412.25646389997564,412.7577317999676,412.25646389997564,412.7577317999676,412.25646389997564,412.7577317999676,412.25646389997564,412.7577317999676,412.25646389997564,412.7577317999676,412.25646389997564,412.7577317999676,412.25646389997564,412.7577317999676,411.4218530000653,None,412.7577317999676,414.41022680001333,0.8600000000000005,414.426118100062,None,415.17736109998077,None,,,,,,,[[1.64]],2.820000000000002,0.7076923076923077,11032,002,2024_Jan_11_1750,MFTM_A_new1021,2021.2.3,59.42000141839875,
,,,,,,,,stim/Instruction_adaptive.png,conditions/adaptive.xlsx,test,-0.6,-0.6,-0.6,0.6,0.6,left,L,,,,,0,1,1,1,0,65,65,77,,,,,,,,,,,,,,,,,,,,,,,,,,,,,,,,,,,,,,,,,,,,415.6781735001132,None,right,0,2.43233049986884,416.1794156001415,417.6150313001126,416.1794156001415,417.11427849996835,416.1794156001415,417.11427849996835,416.1794156001415,417.11427849996835,416.1794156001415,417.11427849996835,416.1794156001415,417.11427849996835,417.09683619998395,417.5982395999599,417.09683619998395,417.5982395999599,417.09683619998395,417.5982395999599,417.09683619998395,417.5982395999599,417.09683619998395,417.5982395999599,417.09683619998395,417.5982395999599,417.09683619998395,417.5982395999599,417.09683619998395,417.5982395999599,416.1794156001415,None,417.5982395999599,None,0.9300000000000006,419.18329460010864,None,419.93453099997714,None,,,,,,,[[1.57]],2.7100000000000017,0.696969696969697,11032,002,2024_Jan_11_1750,MFTM_A_new1021,2021.2.3,59.42000141839875,
,,,,,,,,stim/Instruction_adaptive.png,conditions/adaptive.xlsx,test,-0.6,-0.6,-0.6,0.6,0.6,left,L,,,,,0,1,1,1,0,66,66,15,,,,,,,,,,,,,,,,,,,,,,,,,,,,,,,,,,,,,,,,,,,,420.43574910005555,None,left,1,2.075597499962896,420.93597390013747,422.45479600015096,420.93597390013747,421.9540305000264,420.93597390013747,421.9540305000264,420.93597390013747,421.9540305000264,420.93597390013747,421.9540305000264,420.93597390013747,421.9540305000264,421.92045140010305,422.4214437000919,421.92045140010305,422.4214437000919,421.92045140010305,422.4214437000919,421.92045140010305,422.4214437000919,421.92045140010305,422.4214437000919,421.92045140010305,422.4214437000919,421.92045140010305,422.4214437000919,421.92045140010305,422.4214437000919,420.93597390013747,None,422.4214437000919,423.92366470000707,1.0100000000000007,423.94009619997814,None,424.6913859001361,None,,,,,,,[[1.49]],2.7500000000000018,0.7014925373134329,11032,002,2024_Jan_11_1750,MFTM_A_new1021,2021.2.3,59.42000141839875,
,,,,,,,,stim/Instruction_adaptive.png,conditions/adaptive.xlsx,test,0.6,0.6,0.6,-0.6,-0.6,right,R,,,,,0,1,1,1,0,67,67,94,,,,,,,,,,,,,,,,,,,,,,,,,,,,,,,,,,,,,,,,,,,,425.1922502000816,None,left,0,2.414013999979943,425.69349460001104,427.1784257001709,425.69349460001104,426.6775999001693,425.69349460001104,426.6775999001693,425.69349460001104,426.6775999001693,425.69349460001104,426.6775999001693,425.69349460001104,426.6775999001693,426.66189970006235,427.1618542999495,426.66189970006235,427.1618542999495,426.66189970006235,427.1618542999495,426.66189970006235,427.1618542999495,426.66189970006235,427.1618542999495,426.66189970006235,427.1618542999495,426.66189970006235,427.1618542999495,426.66189970006235,427.1618542999495,425.69349460001104,None,427.1618542999495,428.681578299962,0.9800000000000006,428.6970250001177,None,429.4490523999557,None,,,,,,,[[1.52]],2.6300000000000017,0.6911764705882353,11032,002,2024_Jan_11_1750,MFTM_A_new1021,2021.2.3,59.42000141839875,
,,,,,,,,stim/Instruction_adaptive.png,conditions/adaptive.xlsx,test,0.6,0.6,0.6,-0.6,-0.6,right,R,,,,,0,1,1,1,0,68,68,38,,,,,,,,,,,,,,,,,,,,,,,,,,,,,,,,,,,,,,,,,,,,429.9492842000909,None,right,1,1.3455668999813497,430.44983880012296,432.01965739997104,430.44983880012296,431.5183652001433,430.44983880012296,431.5183652001433,430.44983880012296,431.5183652001433,430.44983880012296,431.5183652001433,430.44983880012296,431.5183652001433,431.5014582001604,432.00292140012607,431.5014582001604,432.00292140012607,431.5014582001604,432.00292140012607,431.5014582001604,432.00292140012607,431.5014582001604,432.00292140012607,431.5014582001604,432.00292140012607,431.5014582001604,432.00292140012607,431.5014582001604,432.00292140012607,430.44983880012296,None,431.985893700039,433.43767919996753,1.0600000000000007,433.4544561000075,None,434.205951299984,None,,,,,,,[[1.44]],2.6700000000000017,0.6956521739130435,11032,002,2024_Jan_11_1750,MFTM_A_new1021,2021.2.3,59.42000141839875,
,,,,,,,,stim/Instruction_adaptive.png,conditions/adaptive.xlsx,test,-0.6,-0.6,-0.6,0.6,0.6,left,L,,,,,0,1,1,1,0,69,69,3,,,,,,,,,,,,,,,,,,,,,,,,,,,,,,,,,,,,,,,,,,,,434.7062003000174,None,right,0,1.94093449995853,435.2069343000185,436.7426277999766,435.2069343000185,436.2417009000201,435.2069343000185,436.2417009000201,435.2069343000185,436.2417009000201,435.2069343000185,436.2417009000201,435.2069343000185,436.2417009000201,436.2250014001038,436.7260366000701,436.2250014001038,436.7260366000701,436.2250014001038,436.7260366000701,436.2250014001038,436.7260366000701,436.2250014001038,436.7260366000701,436.2250014001038,436.7260366000701,436.2250014001038,436.7260366000701,436.2250014001038,436.7260366000701,435.2069343000185,None,436.7260366000701,None,1.0300000000000007,438.2113757999614,None,438.96288889995776,None,,,,,,,[[1.47]],2.560000000000002,0.6857142857142857,11032,002,2024_Jan_11_1750,MFTM_A_new1021,2021.2.3,59.42000141839875,
,,,,,,,,stim/Instruction_adaptive.png,conditions/adaptive.xlsx,test,0.6,0.6,0.6,-0.6,-0.6,right,R,,,,,0,1,1,1,0,70,70,14,,,,,,,,,,,,,,,,,,,,,,,,,,,,,,,,,,,,,,,,,,,,439.4637506001163,None,right,1,2.423627700190991,439.96406280016527,441.583037200151,439.96406280016527,441.0992705000099,439.96406280016527,441.0992705000099,439.96406280016527,441.0992705000099,439.96406280016527,441.0992705000099,439.96406280016527,441.0992705000099,441.0658724999521,441.5662575000897,441.0658724999521,441.5662575000897,441.0658724999521,441.5662575000897,441.0658724999521,441.5662575000897,441.0658724999521,441.5662575000897,441.0658724999521,441.5662575000897,441.0658724999521,441.5662575000897,441.0658724999521,441.5662575000897,439.96406280016527,None,441.5662575000897,442.95212120004,1.1200000000000008,442.96871619997546,None,443.7206664001569,None,,,,,,,[[1.38]],2.600000000000002,0.6901408450704225,11032,002,2024_Jan_11_1750,MFTM_A_new1021,2021.2.3,59.42000141839875,
,,,,,,,,stim/Instruction_adaptive.png,conditions/adaptive.xlsx,test,-0.6,-0.6,-0.6,0.6,0.6,left,L,,,,,0,1,1,1,0,71,71,97,,,,,,,,,,,,,,,,,,,,,,,,,,,,,,,,,,,,,,,,,,,,444.22102589998394,None,left,1,1.2825561999343336,444.72135340003297,446.3231758000329,444.72135340003297,445.8225952000357,444.72135340003297,445.8225952000357,444.72135340003297,445.8225952000357,444.72135340003297,445.8225952000357,444.72135340003297,445.8225952000357,445.78929780004546,446.29012090014294,445.78929780004546,446.29012090014294,445.78929780004546,446.29012090014294,445.78929780004546,446.29012090014294,445.78929780004546,446.29012090014294,445.78929780004546,446.29012090014294,445.78929780004546,446.29012090014294,445.78929780004546,446.29012090014294,444.72135340003297,None,446.29012090014294,447.71090529998764,1.0900000000000007,447.7255951000843,None,448.4775680999737,None,,,,,,,[[1.41]],2.640000000000002,0.6944444444444444,11032,002,2024_Jan_11_1750,MFTM_A_new1021,2021.2.3,59.42000141839875,
,,,,,,,,stim/Instruction_adaptive.png,conditions/adaptive.xlsx,test,-0.6,-0.6,-0.6,0.6,0.6,left,L,,,,,0,1,1,1,0,72,72,89,,,,,,,,,,,,,,,,,,,,,,,,,,,,,,,,,,,,,,,,,,,,448.97808400006033,None,right,0,2.3574464998673648,449.4781716000289,451.0479198000394,449.4781716000289,450.54737860010937,449.4781716000289,450.54737860010937,449.4781716000289,450.54737860010937,449.4781716000289,450.54737860010937,449.4781716000289,450.54737860010937,450.51409250008874,451.0143862001132,450.51409250008874,451.0143862001132,450.51409250008874,451.0143862001132,450.51409250008874,451.0143862001132,450.51409250008874,451.0143862001132,450.51409250008874,451.0143862001132,450.51409250008874,451.0143862001132,450.51409250008874,451.0143862001132,449.4781716000289,None,451.0143862001132,452.4665465001017,1.0600000000000007,452.4825878001284,None,453.233846800169,None,,,,,,,[[1.44]],2.520000000000002,0.684931506849315,11032,002,2024_Jan_11_1750,MFTM_A_new1021,2021.2.3,59.42000141839875,
,,,,,,,,stim/Instruction_adaptive.png,conditions/adaptive.xlsx,test,-0.6,-0.6,-0.6,0.6,0.6,left,L,,,,,0,1,1,1,0,73,73,51,,,,,,,,,,,,,,,,,,,,,,,,,,,,,,,,,,,,,,,,,,,,453.7351188000757,None,left,1,2.2564340999815613,454.235324600013,455.8885055000428,454.235324600013,455.3870602999814,454.235324600013,455.3870602999814,454.235324600013,455.3870602999814,454.235324600013,455.3870602999814,454.235324600013,455.3870602999814,455.3703129000496,455.8709484001156,455.3703129000496,455.8709484001156,455.3703129000496,455.8709484001156,455.3703129000496,455.8709484001156,455.3703129000496,455.8709484001156,455.3703129000496,455.8709484001156,455.3703129000496,455.8709484001156,455.3703129000496,455.8709484001156,454.235324600013,None,455.8709484001156,457.2236512999516,1.1500000000000008,457.2402995999437,None,457.9912002000492,None,,,,,,,[[1.35]],2.560000000000002,0.6891891891891891,11032,002,2024_Jan_11_1750,MFTM_A_new1021,2021.2.3,59.42000141839875,
,,,,,,,,stim/Instruction_adaptive.png,conditions/adaptive.xlsx,test,0.6,0.6,0.6,-0.6,-0.6,right,R,,,,,0,1,1,1,0,74,74,54,,,,,,,,,,,,,,,,,,,,,,,,,,,,,,,,,,,,,,,,,,,,458.492168399971,None,right,1,2.0273734000511467,458.9922410999425,460.61206559999846,458.9922410999425,460.1285771999974,458.9922410999425,460.1285771999974,458.9922410999425,460.1285771999974,458.9922410999425,460.1285771999974,458.9922410999425,460.1285771999974,460.0936066999566,460.5951326000504,460.0936066999566,460.5951326000504,460.0936066999566,460.5951326000504,460.0936066999566,460.5951326000504,460.0936066999566,460.5951326000504,460.0936066999566,460.5951326000504,460.0936066999566,460.5951326000504,460.0936066999566,460.5951326000504,458.9922410999425,None,460.5951326000504,461.9813705000561,1.1200000000000008,461.99814429995604,None,462.7482270000037,None,,,,,,,[[1.38]],2.600000000000002,0.6933333333333334,11032,002,2024_Jan_11_1750,MFTM_A_new1021,2021.2.3,59.42000141839875,
,,,,,,,,stim/Instruction_adaptive.png,conditions/adaptive.xlsx,test,-0.6,-0.6,-0.6,0.6,0.6,left,L,,,,,0,1,1,1,0,75,75,83,,,,,,,,,,,,,,,,,,,,,,,,,,,,,,,,,,,,,,,,,,,,463.24975099996664,None,left,1,1.398908199975267,463.74915040005,465.3517366000451,463.74915040005,464.8517072000541,463.74915040005,464.8517072000541,463.74915040005,464.8517072000541,463.74915040005,464.8517072000541,463.74915040005,464.8517072000541,464.81825010012835,465.318975900067,464.81825010012835,465.318975900067,464.81825010012835,465.318975900067,464.81825010012835,465.318975900067,464.81825010012835,465.318975900067,464.81825010012835,465.318975900067,464.81825010012835,465.318975900067,464.81825010012835,465.318975900067,463.74915040005,None,465.318975900067,466.7376953000203,1.0900000000000007,466.75366870011203,None,467.50473930011503,None,,,,,,,[[1.41]],2.640000000000002,0.6973684210526315,11032,002,2024_Jan_11_1750,MFTM_A_new1021,2021.2.3,59.42000141839875,
,,,,,,,,stim/Instruction_adaptive.png,conditions/adaptive.xlsx,test,-0.6,-0.6,-0.6,0.6,0.6,left,L,,,,,0,1,1,1,0,76,76,53,,,,,,,,,,,,,,,,,,,,,,,,,,,,,,,,,,,,,,,,,,,,468.00575920008123,None,right,0,1.2250143000856042,468.50643750000745,470.0756006001029,468.50643750000745,469.57466339995153,468.50643750000745,469.57466339995153,468.50643750000745,469.57466339995153,468.50643750000745,469.57466339995153,468.50643750000745,469.57466339995153,469.5584672000259,470.0591700000223,469.5584672000259,470.0591700000223,469.5584672000259,470.0591700000223,469.5584672000259,470.0591700000223,469.5584672000259,470.0591700000223,469.5584672000259,470.0591700000223,469.5584672000259,470.0591700000223,469.5584672000259,470.0591700000223,468.50643750000745,None,470.0432490000967,471.49651150009595,1.0600000000000007,471.51019649999216,None,472.26211250014603,None,,,,,,,[[1.44]],2.530000000000002,0.6883116883116883,11032,002,2024_Jan_11_1750,MFTM_A_new1021,2021.2.3,59.42000141839875,
,,,,,,,,stim/Instruction_adaptive.png,conditions/adaptive.xlsx,test,-0.6,-0.6,-0.6,0.6,0.6,left,L,,,,,0,1,1,1,0,77,77,11,,,,,,,,,,,,,,,,,,,,,,,,,,,,,,,,,,,,,,,,,,,,472.7627630000934,None,None,0,0,473.2643542001024,474.91596270003356,473.2643542001024,474.4151504000183,473.2643542001024,474.4151504000183,473.2643542001024,474.4151504000183,473.2643542001024,474.4151504000183,473.2643542001024,474.4151504000183,474.3818099000491,474.88278490002267,474.3818099000491,474.88278490002267,474.3818099000491,474.88278490002267,474.3818099000491,474.88278490002267,474.3818099000491,474.88278490002267,474.3818099000491,474.88278490002267,474.3818099000491,474.88278490002267,474.3818099000491,474.88278490002267,473.2643542001024,None,474.88278490002267,476.7517946001608,1.1400000000000008,476.76833950006403,None,477.5200084000826,None,,,,,,,[[1.86]],2.4200000000000017,0.6794871794871795,11032,002,2024_Jan_11_1750,MFTM_A_new1021,2021.2.3,59.42000141839875,
,,,,,,,,stim/Instruction_adaptive.png,conditions/adaptive.xlsx,test,0.6,0.6,0.6,-0.6,-0.6,right,R,,,,,0,1,1,1,0,78,78,50,,,,,,,,,,,,,,,,,,,,,,,,,,,,,,,,,,,,,,,,,,,,478.0212350001093,None,right,1,1.5856578999664634,478.5219252000097,480.25787390000187,478.5219252000097,479.7565081999637,478.5219252000097,479.7565081999637,478.5219252000097,479.7565081999637,478.5219252000097,479.7565081999637,478.5219252000097,479.7565081999637,479.7395804000553,480.2411381001584,479.7395804000553,480.2411381001584,479.7395804000553,480.2411381001584,479.7395804000553,480.2411381001584,479.7395804000553,480.2411381001584,479.7395804000553,480.2411381001584,479.7395804000553,480.2411381001584,479.7395804000553,480.2411381001584,478.5219252000097,None,480.2411381001584,None,1.2300000000000009,481.52564950007945,None,482.2771958000958,None,,,,,,,[[1.27]],2.4600000000000017,0.6835443037974683,11032,002,2024_Jan_11_1750,MFTM_A_new1021,2021.2.3,59.42000141839875,
,,,,,,,,stim/Instruction_adaptive.png,conditions/adaptive.xlsx,test,-0.6,-0.6,-0.6,0.6,0.6,left,L,,,,,0,1,1,1,0,79,79,59,,,,,,,,,,,,,,,,,,,,,,,,,,,,,,,,,,,,,,,,,,,,482.7784066000022,None,left,1,0.8844437000807375,483.27901840000413,484.980862100143,483.27901840000413,484.479941500118,483.27901840000413,484.479941500118,483.27901840000413,484.479941500118,483.27901840000413,484.479941500118,483.27901840000413,484.479941500118,484.46399120008573,484.9641811000183,484.46399120008573,484.9641811000183,484.46399120008573,484.9641811000183,484.46399120008573,484.9641811000183,484.46399120008573,484.9641811000183,484.46399120008573,484.9641811000183,484.46399120008573,484.9641811000183,484.46399120008573,484.9641811000183,483.27901840000413,None,484.9641811000183,486.2666537000332,1.2000000000000008,486.2827765000984,None,487.03462489997037,None,,,,,,,[[1.3]],2.490000000000002,0.6875,11032,002,2024_Jan_11_1750,MFTM_A_new1021,2021.2.3,59.42000141839875,
,,,,,,,,stim/Instruction_adaptive.png,conditions/adaptive.xlsx,test,-0.6,-0.6,-0.6,0.6,0.6,left,L,,,,,0,1,1,1,0,80,80,43,,,,,,,,,,,,,,,,,,,,,,,,,,,,,,,,,,,,,,,,,,,,487.5359239000827,None,left,1,1.7841850998811424,488.03533210000023,489.70503529999405,488.03533210000023,489.22069860016927,488.03533210000023,489.22069860016927,488.03533210000023,489.22069860016927,488.03533210000023,489.22069860016927,488.03533210000023,489.22069860016927,489.18699850002304,489.6877600001171,489.18699850002304,489.6877600001171,489.18699850002304,489.6877600001171,489.18699850002304,489.6877600001171,489.18699850002304,489.6877600001171,489.18699850002304,489.6877600001171,489.18699850002304,489.6877600001171,489.18699850002304,489.6877600001171,488.03533210000023,None,489.6877600001171,491.0231967000291,1.1700000000000008,491.0400459000375,None,491.7912570000626,None,,,,,,,[[1.33]],2.530000000000002,0.691358024691358,11032,002,2024_Jan_11_1750,MFTM_A_new1021,2021.2.3,59.42000141839875,
,,,,,,,,stim/Instruction_adaptive.png,conditions/adaptive.xlsx,test,0.6,0.6,0.6,-0.6,-0.6,right,R,,,,,0,1,1,1,0,81,81,88,,,,,,,,,,,,,,,,,,,,,,,,,,,,,,,,,,,,,,,,,,,,492.2920854999684,None,right,1,2.0194963000249118,492.79269110015593,494.44535850011744,492.79269110015593,493.94450830016285,492.79269110015593,493.94450830016285,492.79269110015593,493.94450830016285,492.79269110015593,493.94450830016285,492.79269110015593,493.94450830016285,493.91076470003463,494.4115552001167,493.91076470003463,494.4115552001167,493.91076470003463,494.4115552001167,493.91076470003463,494.4115552001167,493.91076470003463,494.4115552001167,493.91076470003463,494.4115552001167,493.91076470003463,494.4115552001167,493.91076470003463,494.4115552001167,492.79269110015593,None,494.4115552001167,495.7810857000295,1.1400000000000008,495.79789900011383,None,496.54860029998235,None,,,,,,,[[1.36]],2.560000000000002,0.6951219512195121,11032,002,2024_Jan_11_1750,MFTM_A_new1021,2021.2.3,59.42000141839875,
,,,,,,,,stim/Instruction_adaptive.png,conditions/adaptive.xlsx,test,-0.6,-0.6,-0.6,0.6,0.6,left,L,,,,,0,1,1,1,0,82,82,27,,,,,,,,,,,,,,,,,,,,,,,,,,,,,,,,,,,,,,,,,,,,497.04890540009364,None,left,1,0.9669933000113815,497.54927790001966,499.16923510003835,497.54927790001966,498.68496750015765,497.54927790001966,498.68496750015765,497.54927790001966,498.68496750015765,497.54927790001966,498.68496750015765,497.54927790001966,498.68496750015765,498.6509241000749,499.1518817001488,498.6509241000749,499.1518817001488,498.6509241000749,499.1518817001488,498.6509241000749,499.1518817001488,498.6509241000749,499.1518817001488,498.6509241000749,499.1518817001488,498.6509241000749,499.1518817001488,498.6509241000749,499.1518817001488,497.54927790001966,None,499.1518817001488,500.5380325000733,1.1200000000000008,500.55391200003214,None,501.3055092000868,None,,,,,,,[[1.38]],2.600000000000002,0.6987951807228916,11032,002,2024_Jan_11_1750,MFTM_A_new1021,2021.2.3,59.42000141839875,
,,,,,,,,stim/Instruction_adaptive.png,conditions/adaptive.xlsx,test,0.6,0.6,0.6,-0.6,-0.6,right,R,,,,,0,1,1,1,0,83,83,32,,,,,,,,,,,,,,,,,,,,,,,,,,,,,,,,,,,,,,,,,,,,501.8063666999806,None,right,1,2.697130500106141,502.30648809997365,503.9095550000202,502.30648809997365,503.40819060010836,502.30648809997365,503.40819060010836,502.30648809997365,503.40819060010836,502.30648809997365,503.40819060010836,502.30648809997365,503.40819060010836,503.3745586001314,503.8761561999563,503.3745586001314,503.8761561999563,503.3745586001314,503.8761561999563,503.3745586001314,503.8761561999563,503.3745586001314,503.8761561999563,503.3745586001314,503.8761561999563,503.3745586001314,503.8761561999563,503.3745586001314,503.8761561999563,502.30648809997365,None,503.8761561999563,505.29500410007313,1.0900000000000007,505.3116185001563,None,506.06279200012796,None,,,,,,,[[1.41]],2.6300000000000017,0.7023809523809523,11032,002,2024_Jan_11_1750,MFTM_A_new1021,2021.2.3,59.42000141839875,
,,,,,,,,stim/Instruction_adaptive.png,conditions/adaptive.xlsx,test,-0.6,-0.6,-0.6,0.6,0.6,left,L,,,,,0,1,1,1,0,84,84,37,,,,,,,,,,,,,,,,,,,,,,,,,,,,,,,,,,,,,,,,,,,,506.5632806001231,None,left,1,2.444463900057599,507.0633203999605,508.6333788000047,507.0633203999605,508.1325189000927,507.0633203999605,508.1325189000927,507.0633203999605,508.1325189000927,507.0633203999605,508.1325189000927,507.0633203999605,508.1325189000927,508.0994979001116,508.59974770015106,508.0994979001116,508.59974770015106,508.0994979001116,508.59974770015106,508.0994979001116,508.59974770015106,508.0994979001116,508.59974770015106,508.0994979001116,508.59974770015106,508.0994979001116,508.59974770015106,508.0994979001116,508.59974770015106,507.0633203999605,None,508.59974770015106,510.05133100016974,1.0600000000000007,510.0686768000014,None,510.81963580008596,None,,,,,,,[[1.44]],2.660000000000002,0.7058823529411765,11032,002,2024_Jan_11_1750,MFTM_A_new1021,2021.2.3,59.42000141839875,
,,,,,,,,stim/Instruction_adaptive.png,conditions/adaptive.xlsx,test,-0.6,-0.6,-0.6,0.6,0.6,left,L,,,,,0,1,1,1,0,85,85,61,,,,,,,,,,,,,,,,,,,,,,,,,,,,,,,,,,,,,,,,,,,,511.3200416001491,None,left,1,1.320078199962154,511.82061540009454,513.3735577000771,511.82061540009454,512.8734693001024,511.82061540009454,512.8734693001024,511.82061540009454,512.8734693001024,511.82061540009454,512.8734693001024,511.82061540009454,512.8734693001024,512.8386568999849,513.3394700000063,512.8386568999849,513.3394700000063,512.8386568999849,513.3394700000063,512.8386568999849,513.3394700000063,512.8386568999849,513.3394700000063,512.8386568999849,513.3394700000063,512.8386568999849,513.3394700000063,512.8386568999849,513.3394700000063,511.82061540009454,None,513.3394700000063,514.8089081000071,1.0400000000000007,514.8252614999656,None,515.5761633000802,None,,,,,,,[[1.46]],2.690000000000002,0.7093023255813954,11032,002,2024_Jan_11_1750,MFTM_A_new1021,2021.2.3,59.42000141839875,
,,,,,,,,stim/Instruction_adaptive.png,conditions/adaptive.xlsx,test,0.6,0.6,0.6,-0.6,-0.6,right,R,,,,,0,1,1,1,0,86,86,86,,,,,,,,,,,,,,,,,,,,,,,,,,,,,,,,,,,,,,,,,,,,516.0779659000691,None,left,0,2.3461368998978287,516.5775771001354,518.097656799946,516.5775771001354,517.5964154000394,516.5775771001354,517.5964154000394,516.5775771001354,517.5964154000394,516.5775771001354,517.5964154000394,516.5775771001354,517.5964154000394,517.5798266001511,518.0807622000575,517.5798266001511,518.0807622000575,517.5798266001511,518.0807622000575,517.5798266001511,518.0807622000575,517.5798266001511,518.0807622000575,517.5798266001511,518.0807622000575,517.5798266001511,518.0807622000575,517.5798266001511,518.0807622000575,516.5775771001354,None,518.0807622000575,519.5659869001247,1.0200000000000007,519.5818535001017,None,520.3333262000233,None,,,,,,,[[1.48]],2.600000000000002,0.7011494252873564,11032,002,2024_Jan_11_1750,MFTM_A_new1021,2021.2.3,59.42000141839875,
,,,,,,,,stim/Instruction_adaptive.png,conditions/adaptive.xlsx,test,0.6,0.6,0.6,-0.6,-0.6,right,R,,,,,0,1,1,1,0,87,87,2,,,,,,,,,,,,,,,,,,,,,,,,,,,,,,,,,,,,,,,,,,,,520.8338643000461,None,right,1,1.805109600070864,521.3349619000219,522.9379464001395,521.3349619000219,522.4370715001132,521.3349619000219,522.4370715001132,521.3349619000219,522.4370715001132,521.3349619000219,522.4370715001132,521.3349619000219,522.4370715001132,522.403461100068,522.9038677001372,522.403461100068,522.9038677001372,522.403461100068,522.9038677001372,522.403461100068,522.9038677001372,522.403461100068,522.9038677001372,522.403461100068,522.9038677001372,522.403461100068,522.9038677001372,522.403461100068,522.9038677001372,521.3349619000219,None,522.9038677001372,524.3222791999578,1.0900000000000007,524.339145099977,None,525.0909289000556,None,,,,,,,[[1.41]],2.6300000000000017,0.7045454545454546,11032,002,2024_Jan_11_1750,MFTM_A_new1021,2021.2.3,59.42000141839875,
,,,,,,,,stim/Instruction_adaptive.png,conditions/adaptive.xlsx,test,0.6,0.6,0.6,-0.6,-0.6,right,R,,,,,0,1,1,1,0,88,88,96,,,,,,,,,,,,,,,,,,,,,,,,,,,,,,,,,,,,,,,,,,,,525.5915870999452,None,right,1,1.103376799961552,526.0921493000351,527.6606215999927,526.0921493000351,527.1608991001267,526.0921493000351,527.1608991001267,526.0921493000351,527.1608991001267,526.0921493000351,527.1608991001267,526.0921493000351,527.1608991001267,527.1272867000662,527.6279941000976,527.1272867000662,527.6279941000976,527.1272867000662,527.6279941000976,527.1272867000662,527.6279941000976,527.1272867000662,527.6279941000976,527.1272867000662,527.6279941000976,527.1272867000662,527.6279941000976,527.1272867000662,527.6279941000976,526.0921493000351,None,527.6279941000976,529.0805755001493,1.0600000000000007,529.0961858001538,None,529.8478508000262,None,,,,,,,[[1.44]],2.660000000000002,0.7078651685393258,11032,002,2024_Jan_11_1750,MFTM_A_new1021,2021.2.3,59.42000141839875,
,,,,,,,,stim/Instruction_adaptive.png,conditions/adaptive.xlsx,test,-0.6,-0.6,-0.6,0.6,0.6,left,L,,,,,0,1,1,1,0,89,89,85,,,,,,,,,,,,,,,,,,,,,,,,,,,,,,,,,,,,,,,,,,,,530.3478331000078,None,left,1,1.7393516001757234,530.8487309999764,532.401518000057,530.8487309999764,531.9009793000296,530.8487309999764,531.9009793000296,530.8487309999764,531.9009793000296,530.8487309999764,531.9009793000296,530.8487309999764,531.9009793000296,531.8672414999455,532.3679102000315,531.8672414999455,532.3679102000315,531.8672414999455,532.3679102000315,531.8672414999455,532.3679102000315,531.8672414999455,532.3679102000315,531.8672414999455,532.3679102000315,531.8672414999455,532.3679102000315,531.8672414999455,532.3679102000315,530.8487309999764,None,532.3679102000315,533.8364689000882,1.0400000000000007,533.8534427999984,None,534.6044572000392,None,,,,,,,[[1.46]],2.690000000000002,0.7111111111111111,11032,002,2024_Jan_11_1750,MFTM_A_new1021,2021.2.3,59.42000141839875,
,,,,,,,,stim/Instruction_adaptive.png,conditions/adaptive.xlsx,test,-0.6,-0.6,-0.6,0.6,0.6,left,L,,,,,0,1,1,1,0,90,90,25,,,,,,,,,,,,,,,,,,,,,,,,,,,,,,,,,,,,,,,,,,,,535.1058559000958,None,left,1,2.053793099941686,535.6064526999835,537.1256546999793,535.6064526999835,536.6406439000275,535.6064526999835,536.6406439000275,535.6064526999835,536.6406439000275,535.6064526999835,536.6406439000275,535.6064526999835,536.6406439000275,536.6070564000402,537.108867400093,536.6070564000402,537.108867400093,536.6070564000402,537.108867400093,536.6070564000402,537.108867400093,536.6070564000402,537.108867400093,536.6070564000402,537.108867400093,536.6070564000402,537.108867400093,536.6070564000402,537.108867400093,535.6064526999835,None,537.108867400093,538.5942391999997,1.0200000000000007,538.6110972000752,None,539.3616728000343,None,,,,,,,[[1.48]],2.720000000000002,0.7142857142857143,11032,002,2024_Jan_11_1750,MFTM_A_new1021,2021.2.3,59.42000141839875,
,,,,,,,,stim/Instruction_adaptive.png,conditions/adaptive.xlsx,test,-0.6,-0.6,-0.6,0.6,0.6,left,L,,,,,0,1,1,1,0,91,91,19,,,,,,,,,,,,,,,,,,,,,,,,,,,,,,,,,,,,,,,,,,,,539.8621933001559,None,left,1,1.3764976998791099,540.3633193001151,541.8658092999831,540.3633193001151,541.364307000069,540.3633193001151,541.364307000069,540.3633193001151,541.364307000069,540.3633193001151,541.364307000069,540.3633193001151,541.364307000069,541.3483321000822,541.8484680000693,541.3483321000822,541.8484680000693,541.3483321000822,541.8484680000693,541.3483321000822,541.8484680000693,541.3483321000822,541.8484680000693,541.3483321000822,541.8484680000693,541.3483321000822,541.8484680000693,541.3483321000822,541.8484680000693,540.3633193001151,None,541.8484680000693,543.3505647000857,1.0000000000000007,543.3671912001446,None,544.1183511000127,None,,,,,,,[[1.5]],2.740000000000002,0.717391304347826,11032,002,2024_Jan_11_1750,MFTM_A_new1021,2021.2.3,59.42000141839875,
,,,,,,,,stim/Instruction_adaptive.png,conditions/adaptive.xlsx,test,0.6,0.6,0.6,-0.6,-0.6,right,R,,,,,0,1,1,1,0,92,92,4,,,,,,,,,,,,,,,,,,,,,,,,,,,,,,,,,,,,,,,,,,,,544.6199175000656,None,right,1,1.8682687999680638,545.1201764999423,546.6065303999931,545.1201764999423,546.1045485001523,545.1201764999423,546.1045485001523,545.1201764999423,546.1045485001523,545.1201764999423,546.1045485001523,545.1201764999423,546.1045485001523,546.0885626999661,546.5892906000372,546.0885626999661,546.5892906000372,546.0885626999661,546.5892906000372,546.0885626999661,546.5892906000372,546.0885626999661,546.5892906000372,546.0885626999661,546.5892906000372,546.0885626999661,546.5892906000372,546.0885626999661,546.5892906000372,545.1201764999423,None,546.5892906000372,None,0.9800000000000006,548.1251835001167,None,548.8753301000688,None,,,,,,,[[1.52]],2.7700000000000022,0.7204301075268817,11032,002,2024_Jan_11_1750,MFTM_A_new1021,2021.2.3,59.42000141839875,
,,,,,,,,stim/Instruction_adaptive.png,conditions/adaptive.xlsx,test,0.6,0.6,0.6,-0.6,-0.6,right,R,,,,,0,1,1,1,0,93,93,42,,,,,,,,,,,,,,,,,,,,,,,,,,,,,,,,,,,,,,,,,,,,549.3771965999622,None,left,0,2.2308890998829156,549.8771653000731,551.3458054000512,549.8771653000731,550.8462523999624,549.8771653000731,550.8462523999624,549.8771653000731,550.8462523999624,549.8771653000731,550.8462523999624,549.8771653000731,550.8462523999624,550.8283830999862,551.329089100007,550.8283830999862,551.329089100007,550.8283830999862,551.329089100007,550.8283830999862,551.329089100007,550.8283830999862,551.329089100007,550.8283830999862,551.329089100007,550.8283830999862,551.329089100007,550.8283830999862,551.329089100007,549.8771653000731,None,551.329089100007,None,0.9600000000000006,552.8807415000629,None,553.6333050001413,None,,,,,,,[[1.54]],2.690000000000002,0.7127659574468085,11032,002,2024_Jan_11_1750,MFTM_A_new1021,2021.2.3,59.42000141839875,
