arrwidth1,arrwidth2,arrwidth3,arrwidth4,arrwidth5,keyb,type,orientation,instruction_image,block_filename,block_type,arrow11,arrow22,arrow33,arrow44,arrow55,keyb_3,orientation3,trials.thisRepN,trials.thisTrialN,trials.thisN,trials.thisIndex,trials_3.thisRepN,trials_3.thisTrialN,trials_3.thisN,trials_3.thisIndex,trials_2.thisRepN,trials_2.thisTrialN,trials_2.thisN,trials_2.thisIndex,welcome.started,welcome.stopped,key_resp.keys,key_resp.rt,key_resp.started,key_resp.stopped,instruction_example.started,instruction_example.stopped,key_resp_3.keys,key_resp_3.rt,key_resp_3.started,key_resp_3.stopped,instruction_task.started,instruction_task.stopped,key_resp_2.keys,key_resp_2.rt,key_resp_2.started,key_resp_2.stopped,text_2.started,text_2.stopped,A1.started,A1.stopped,A2.started,A2.stopped,A3.started,A3.stopped,A4.started,A4.stopped,A5.started,A5.stopped,key_resp_4.keys,key_resp_4.corr,key_resp_4.rt,key_resp_4.started,key_resp_4.stopped,fb.started,fb.stopped,instruction_block.started,instruction_block.stopped,key_resp_8.keys,key_resp_8.rt,key_resp_8.started,key_resp_8.stopped,text_8.started,text_8.stopped,key_resp_9.keys,key_resp_9.corr,key_resp_9.rt,text_5.started,text_5.stopped,A11_3.started,A11_3.stopped,A22_2.started,A22_2.stopped,A33_2.started,A33_2.stopped,A44_2.started,A44_2.stopped,A55_2.started,A55_2.stopped,M1_3.started,M1_3.stopped,M2_2.started,M2_2.stopped,M3_2.started,M3_2.stopped,M4_2.started,M4_2.stopped,M5_2.started,M5_2.stopped,M6_2.started,M6_2.stopped,M7_2.started,M7_2.stopped,M8_2.started,M8_2.stopped,key_resp_9.started,key_resp_9.stopped,fixation.started,fixation.stopped,ET,fb_3.started,fb_3.stopped,text_9.started,text_9.stopped,fb_4.started,fb_4.stopped,text_7.started,text_7.stopped,endtext.started,endtext.stopped,fixation_ITI,CCC,Acc,participant,session,date,expName,psychopyVersion,frameRate
,,,,,,,,,,,,,,,,,,,,,,,,,,,,,,11.0834755,None,right,38.6223625,11.0834755,None,,,,,,,,,,,,,,,,,,,,,,,,,,,,,,,,,,,,,,,,,,,,,,,,,,,,,,,,,,,,,,,,,,,,,,,,,,,,,,,,,,,,,,,,,11035,2,2024_Mar_11_1426,MFTM_A_new1021,2021.2.3,60.04455309
,,,,,,,,,,,,,,,,,,,,,,,,,,,,,,,,,,,,49.725063,None,right,3.2208323,49.725063,None,,,,,,,,,,,,,,,,,,,,,,,,,,,,,,,,,,,,,,,,,,,,,,,,,,,,,,,,,,,,,,,,,,,,,,,,,,,,,,,,,,,11035,2,2024_Mar_11_1426,MFTM_A_new1021,2021.2.3,60.04455309
,,,,,,,,,,,,,,,,,,,,,,,,,,,,,,,,,,,,,,,,,,52.9634356,None,right,3.3501903,52.9634356,None,,,,,,,,,,,,,,,,,,,,,,,,,,,,,,,,,,,,,,,,,,,,,,,,,,,,,,,,,,,,,,,,,,,,,,,,,,,,,11035,2,2024_Mar_11_1426,MFTM_A_new1021,2021.2.3,60.04455309
0.6,0.6,0.6,-0.6,-0.6,right,3:02,R,,,,,,,,,,,0,0,0,0,,,,,,,,,,,,,,,,,,,,,,,,,,,56.3531828,None,56.3531828,None,56.3531828,None,56.3531828,None,56.3531828,None,56.3531828,None,right,1,4.4327077,56.3531828,None,60.8269133,None,,,,,,,,,,,,,,,,,,,,,,,,,,,,,,,,,,,,,,,,,,,,,,,,,,,,,,,,,,11035,2,2024_Mar_11_1426,MFTM_A_new1021,2021.2.3,60.04455309
-0.6,-0.6,-0.6,0.6,0.6,left,3:02,L,,,,,,,,,,,0,1,1,1,,,,,,,,,,,,,,,,,,,,,,,,,,,61.5595487,None,61.5595487,None,61.5595487,None,61.5595487,None,61.5595487,None,61.5595487,None,left,1,1.5708345,61.5595487,None,63.1454045,None,,,,,,,,,,,,,,,,,,,,,,,,,,,,,,,,,,,,,,,,,,,,,,,,,,,,,,,,,,11035,2,2024_Mar_11_1426,MFTM_A_new1021,2021.2.3,60.04455309
0.6,0.6,0.6,-0.6,-0.6,right,3:02,R,,,,,,,,,,,1,0,2,0,,,,,,,,,,,,,,,,,,,,,,,,,,,63.8979649,None,63.8979649,None,63.8979649,None,63.8979649,None,63.8979649,None,63.8979649,None,left,0,1.6639165,63.8979649,None,65.5822741,None,,,,,,,,,,,,,,,,,,,,,,,,,,,,,,,,,,,,,,,,,,,,,,,,,,,,,,,,,,11035,2,2024_Mar_11_1426,MFTM_A_new1021,2021.2.3,60.04455309
-0.6,-0.6,-0.6,0.6,0.6,left,3:02,L,,,,,,,,,,,1,1,3,1,,,,,,,,,,,,,,,,,,,,,,,,,,,66.333621,None,66.333621,None,66.333621,None,66.333621,None,66.333621,None,66.333621,None,left,1,1.3885695,66.333621,None,67.752301,None,,,,,,,,,,,,,,,,,,,,,,,,,,,,,,,,,,,,,,,,,,,,,,,,,,,,,,,,,,11035,2,2024_Mar_11_1426,MFTM_A_new1021,2021.2.3,60.04455309
,,,,,,,,stim/Instruction_mask.png,conditions/adaptive.xlsx,practice,-0.6,-0.6,-0.6,0.6,0.6,left,L,,,,,0,0,0,0,0,0,0,3,,,,,,,,,,,,,,,,,,,,,,,,,,,,,,,,,,,,,,68.7706287,None,right,3.3517288,68.7706287,None,72.226428,None,left,1,2.774294,72.659802,None,72.659802,75.6641083,72.659802,75.6641083,72.659802,75.6641083,72.659802,75.6641083,72.659802,75.6641083,75.6474613,76.1484586,75.6474613,76.1484586,75.6474613,76.1484586,75.6474613,76.1484586,75.6474613,76.1484586,75.6474613,76.1484586,75.6474613,76.1484586,75.6474613,76.1484586,72.659802,None,76.1484586,76.1484586,3,76.1649204,None,76.9174031,None,,,,,,,,,,11035,2,2024_Mar_11_1426,MFTM_A_new1021,2021.2.3,60.04455309
,,,,,,,,stim/Instruction_mask.png,conditions/adaptive.xlsx,practice,-0.6,-0.6,-0.6,0.6,0.6,left,L,,,,,0,0,0,0,0,1,1,47,,,,,,,,,,,,,,,,,,,,,,,,,,,,,,,,,,,,,,,,,,,,77.4178238,None,left,1,1.9970875,77.9176015,79.920743,77.9176015,79.4210698,77.9176015,79.4210698,77.9176015,79.4210698,77.9176015,79.4210698,77.9176015,79.4210698,79.4044375,79.9041065,79.4044375,79.9041065,79.4044375,79.9041065,79.4044375,79.9041065,79.4044375,79.9041065,79.4044375,79.9041065,79.4044375,79.9041065,79.4044375,79.9041065,77.9176015,None,79.9041065,81.4065345,1.5,81.4230959,None,82.1752156,None,,,,,,,,,,11035,2,2024_Mar_11_1426,MFTM_A_new1021,2021.2.3,60.04455309
,,,,,,,,stim/Instruction_mask.png,conditions/adaptive.xlsx,practice,-0.6,-0.6,-0.6,0.6,0.6,left,L,,,,,0,0,0,0,0,2,2,87,,,,,,,,,,,,,,,,,,,,,,,,,,,,,,,,,,,,,,,,,,,,82.6753979,None,left,1,1.9707022,83.175666,84.4780766,83.175666,83.9771103,83.175666,83.9771103,83.175666,83.9771103,83.175666,83.9771103,83.175666,83.9771103,83.9603969,84.4610004,83.9603969,84.4610004,83.9603969,84.4610004,83.9603969,84.4610004,83.9603969,84.4610004,83.9603969,84.4610004,83.9603969,84.4610004,83.9603969,84.4610004,83.175666,None,84.4610004,86.6641803,0.8,86.6809447,None,87.4327672,None,,,,,,,,,,11035,2,2024_Mar_11_1426,MFTM_A_new1021,2021.2.3,60.04455309
,,,,,,,,stim/Instruction_mask.png,conditions/adaptive.xlsx,practice,-0.6,-0.6,-0.6,0.6,0.6,left,L,,,,,0,0,0,0,0,3,3,53,,,,,,,,,,,,,,,,,,,,,,,,,,,,,,,,,,,,,,,,,,,,87.9338342,None,right,0,1.2246673,88.4340214,89.185799,88.4340214,88.6851368,88.4340214,88.6851368,88.4340214,88.6851368,88.4340214,88.6851368,88.4340214,88.6851368,88.6675183,89.1687858,88.6675183,89.1687858,88.6675183,89.1687858,88.6675183,89.1687858,88.6675183,89.1687858,88.6675183,89.1687858,88.6675183,89.1687858,88.6675183,89.1687858,88.4340214,None,89.1687858,91.9224493,3,91.9387604,None,92.6900547,None,,,,,,,,,,11035,2,2024_Mar_11_1426,MFTM_A_new1021,2021.2.3,60.04455309
,,,,,,,,stim/Instruction_mask.png,conditions/adaptive.xlsx,practice,,,,,,,,,,,,0,0,0,0,,,,,,,,,,,,,,,,,,,,,,,,,,,,,,,,,,,,,,,,,,,,,,,,,,,,,,,,,,,,,,,,,,,,,,,,,,,,,,,,,,,,,,,,,,93.2089623,94.2109062,94.1765741,94.1765741,94.1765741,None,,,,11035,2,2024_Mar_11_1426,MFTM_A_new1021,2021.2.3,60.04455309
,,,,,,,,stim/Instruction_adaptive.png,conditions/adaptive.xlsx,test,-0.6,-0.6,-0.6,0.6,0.6,left,L,,,,,0,1,1,1,0,0,0,15,,,,,,,,,,,,,,,,,,,,,,,,,,,,,,,,,,,,,,97.3637252,None,right,1.6392096,97.3637252,None,99.04933,None,None,0,0,99.550544,None,99.550544,102.5555941,99.550544,102.5555941,99.550544,102.5555941,99.550544,102.5555941,99.550544,102.5555941,102.538327,103.0389954,102.538327,103.0389954,102.538327,103.0389954,102.538327,103.0389954,102.538327,103.0389954,102.538327,103.0389954,102.538327,103.0389954,102.538327,103.0389954,99.550544,None,103.0222509,103.0222509,3,103.055447,None,103.8071681,None,,,,,,,0,0.5,0,11035,2,2024_Mar_11_1426,MFTM_A_new1021,2021.2.3,60.04455309
,,,,,,,,stim/Instruction_adaptive.png,conditions/adaptive.xlsx,test,0.6,0.6,0.6,-0.6,-0.6,right,R,,,,,0,1,1,1,0,1,1,66,,,,,,,,,,,,,,,,,,,,,,,,,,,,,,,,,,,,,,,,,,,,104.3076427,None,right,1,2.226629,104.8084023,None,104.8084023,107.8129018,104.8084023,107.8129018,104.8084023,107.8129018,104.8084023,107.8129018,104.8084023,107.8129018,107.7961802,108.2970416,107.7961802,108.2970416,107.7961802,108.2970416,107.7961802,108.2970416,107.7961802,108.2970416,107.7961802,108.2970416,107.7961802,108.2970416,107.7961802,108.2970416,104.8084023,None,108.2970416,108.2970416,3,108.3138159,None,109.0656973,None,,,,,,,0,0.5,0.5,11035,2,2024_Mar_11_1426,MFTM_A_new1021,2021.2.3,60.04455309
,,,,,,,,stim/Instruction_adaptive.png,conditions/adaptive.xlsx,test,-0.6,-0.6,-0.6,0.6,0.6,left,L,,,,,0,1,1,1,0,2,2,93,,,,,,,,,,,,,,,,,,,,,,,,,,,,,,,,,,,,,,,,,,,,109.5664203,None,left,1,2.2170465,110.066259,None,110.066259,113.0707966,110.066259,113.0707966,110.066259,113.0707966,110.066259,113.0707966,110.066259,113.0707966,113.054279,113.5549043,113.054279,113.5549043,113.054279,113.5549043,113.054279,113.5549043,113.054279,113.5549043,113.054279,113.5549043,113.054279,113.5549043,113.054279,113.5549043,110.066259,None,113.5549043,113.5549043,3,113.5712642,None,114.3232916,None,,,,,,,0,0.5,0.666666667,11035,2,2024_Mar_11_1426,MFTM_A_new1021,2021.2.3,60.04455309
,,,,,,,,stim/Instruction_adaptive.png,conditions/adaptive.xlsx,test,0.6,0.6,0.6,-0.6,-0.6,right,R,,,,,0,1,1,1,0,3,3,92,,,,,,,,,,,,,,,,,,,,,,,,,,,,,,,,,,,,,,,,,,,,114.8239699,None,right,1,2.7590626,115.3241312,None,115.3241312,118.3287186,115.3241312,118.3287186,115.3241312,118.3287186,115.3241312,118.3287186,115.3241312,118.3287186,118.3120537,118.812676,118.3120537,118.812676,118.3120537,118.812676,118.3120537,118.812676,118.3120537,118.812676,118.3120537,118.812676,118.3120537,118.812676,118.3120537,118.812676,115.3241312,None,118.812676,118.812676,3,118.8292827,None,119.5804981,None,,,,,,,0,1.13,0.75,11035,2,2024_Mar_11_1426,MFTM_A_new1021,2021.2.3,60.04455309
,,,,,,,,stim/Instruction_adaptive.png,conditions/adaptive.xlsx,test,0.6,0.6,0.6,-0.6,-0.6,right,R,,,,,0,1,1,1,0,4,4,50,,,,,,,,,,,,,,,,,,,,,,,,,,,,,,,,,,,,,,,,,,,,120.0817382,None,right,1,1.7416196,120.5819934,None,120.5819934,123.5868316,120.5819934,123.5868316,120.5819934,123.5868316,120.5819934,123.5868316,120.5819934,123.5868316,123.5698764,124.0715669,123.5698764,124.0715669,123.5698764,124.0715669,123.5698764,124.0715669,123.5698764,124.0715669,123.5698764,124.0715669,123.5698764,124.0715669,123.5698764,124.0715669,120.5819934,None,124.0715669,124.0715669,3,124.0880634,None,124.8391161,None,,,,,,,0,1.54,0.8,11035,2,2024_Mar_11_1426,MFTM_A_new1021,2021.2.3,60.04455309
,,,,,,,,stim/Instruction_adaptive.png,conditions/adaptive.xlsx,test,-0.6,-0.6,-0.6,0.6,0.6,left,L,,,,,0,1,1,1,0,5,5,49,,,,,,,,,,,,,,,,,,,,,,,,,,,,,,,,,,,,,,,,,,,,125.3391676,None,left,1,2.3636261,125.8401123,None,125.8401123,128.110879,125.8401123,128.110879,125.8401123,128.110879,125.8401123,128.110879,125.8401123,128.110879,128.0771522,128.5781785,128.0771522,128.5781785,128.0771522,128.5781785,128.0771522,128.5781785,128.0771522,128.5781785,128.0771522,128.5781785,128.0771522,128.5781785,128.0771522,128.5781785,125.8401123,None,128.5781785,128.5781785,2.26,128.6111417,None,129.3628276,None,,,,,,,0,1.81,0.833333333,11035,2,2024_Mar_11_1426,MFTM_A_new1021,2021.2.3,60.04455309
,,,,,,,,stim/Instruction_adaptive.png,conditions/adaptive.xlsx,test,-0.6,-0.6,-0.6,0.6,0.6,left,L,,,,,0,1,1,1,0,6,6,43,,,,,,,,,,,,,,,,,,,,,,,,,,,,,,,,,,,,,,,,,,,,129.8633743,None,left,1,1.9687253,130.3636426,None,130.3636426,132.2501844,130.3636426,132.2501844,130.3636426,132.2501844,130.3636426,132.2501844,130.3636426,132.2501844,132.234067,132.7338522,132.234067,132.7338522,132.234067,132.7338522,132.234067,132.7338522,132.234067,132.7338522,132.234067,132.7338522,132.234067,132.7338522,132.234067,132.7338522,130.3636426,None,132.7338522,132.7338522,1.88,132.7504345,None,133.5022246,None,,,,,,,0,2.02,0.857142857,11035,2,2024_Mar_11_1426,MFTM_A_new1021,2021.2.3,60.04455309
,,,,,,,,stim/Instruction_adaptive.png,conditions/adaptive.xlsx,test,0.6,0.6,0.6,-0.6,-0.6,right,R,,,,,0,1,1,1,0,7,7,74,,,,,,,,,,,,,,,,,,,,,,,,,,,,,,,,,,,,,,,,,,,,134.0031256,None,right,1,1.5558882,134.5039603,None,134.5039603,136.1389966,134.5039603,136.1389966,134.5039603,136.1389966,134.5039603,136.1389966,134.5039603,136.1389966,136.1055573,136.6070768,136.1055573,136.6070768,136.1055573,136.6070768,136.1055573,136.6070768,136.1055573,136.6070768,136.1055573,136.6070768,136.1055573,136.6070768,136.1055573,136.6070768,134.5039603,None,136.6070768,136.6070768,1.62,136.6235369,None,137.374247,None,,,,,,,0,2.2,0.875,11035,2,2024_Mar_11_1426,MFTM_A_new1021,2021.2.3,60.04455309
,,,,,,,,stim/Instruction_adaptive.png,conditions/adaptive.xlsx,test,-0.6,-0.6,-0.6,0.6,0.6,left,L,,,,,0,1,1,1,0,8,8,25,,,,,,,,,,,,,,,,,,,,,,,,,,,,,,,,,,,,,,,,,,,,137.8747864,None,left,1,1.4276363,138.3764393,140.3118606,138.3764393,139.8117169,138.3764393,139.8117169,138.3764393,139.8117169,138.3764393,139.8117169,138.3764393,139.8117169,139.7946591,140.2958055,139.7946591,140.2958055,139.7946591,140.2958055,139.7946591,140.2958055,139.7946591,140.2958055,139.7946591,140.2958055,139.7946591,140.2958055,139.7946591,140.2958055,138.3764393,None,140.2958055,None,1.43,140.3456354,None,141.0962468,None,,,,,,,[0.03444444],2.35,0.888888889,11035,2,2024_Mar_11_1426,MFTM_A_new1021,2021.2.3,60.04455309
,,,,,,,,stim/Instruction_adaptive.png,conditions/adaptive.xlsx,test,0.6,0.6,0.6,-0.6,-0.6,right,R,,,,,0,1,1,1,0,9,9,52,,,,,,,,,,,,,,,,,,,,,,,,,,,,,,,,,,,,,,,,,,,,141.597949,None,right,1,1.4342989,142.0984442,143.9012805,142.0984442,143.4006207,142.0984442,143.4006207,142.0984442,143.4006207,142.0984442,143.4006207,142.0984442,143.4006207,143.3667121,143.8675072,143.3667121,143.8675072,143.3667121,143.8675072,143.3667121,143.8675072,143.3667121,143.8675072,143.3667121,143.8675072,143.3667121,143.8675072,143.3667121,143.8675072,142.0984442,None,143.8675072,144.0341149,1.29,144.0507158,None,144.8046373,None,,,,,,,[0.152],2.49,0.9,11035,2,2024_Mar_11_1426,MFTM_A_new1021,2021.2.3,60.04455309
,,,,,,,,stim/Instruction_adaptive.png,conditions/adaptive.xlsx,test,0.6,0.6,0.6,-0.6,-0.6,right,R,,,,,0,1,1,1,0,10,10,12,,,,,,,,,,,,,,,,,,,,,,,,,,,,,,,,,,,,,,,,,,,,145.319381,None,right,1,0.9599533,145.8202209,147.4894867,145.8202209,147.0061647,145.8202209,147.0061647,145.8202209,147.0061647,145.8202209,147.0061647,145.8202209,147.0061647,146.971718,147.4736084,146.971718,147.4736084,146.971718,147.4736084,146.971718,147.4736084,146.971718,147.4736084,146.971718,147.4736084,146.971718,147.4736084,146.971718,147.4736084,145.8202209,None,147.4736084,147.7403679,1.17,147.7563291,None,148.5074992,None,,,,,,,[0.25909091],2.61,0.909090909,11035,2,2024_Mar_11_1426,MFTM_A_new1021,2021.2.3,60.04455309
,,,,,,,,stim/Instruction_adaptive.png,conditions/adaptive.xlsx,test,0.6,0.6,0.6,-0.6,-0.6,right,R,,,,,0,1,1,1,0,11,11,58,,,,,,,,,,,,,,,,,,,,,,,,,,,,,,,,,,,,,,,,,,,,149.0090236,None,right,1,1.0465903,149.509651,151.0949806,149.509651,150.5940957,149.509651,150.5940957,149.509651,150.5940957,149.509651,150.5940957,149.509651,150.5940957,150.5772448,151.0787232,150.5772448,151.0787232,150.5772448,151.0787232,150.5772448,151.0787232,150.5772448,151.0787232,150.5772448,151.0787232,150.5772448,151.0787232,150.5772448,151.0787232,149.509651,None,151.0787232,None,1.08,151.4455563,None,152.1972093,None,,,,,,,[0.35583333],2.72,0.916666667,11035,2,2024_Mar_11_1426,MFTM_A_new1021,2021.2.3,60.04455309
,,,,,,,,stim/Instruction_adaptive.png,conditions/adaptive.xlsx,test,-0.6,-0.6,-0.6,0.6,0.6,left,L,,,,,0,1,1,1,0,12,12,73,,,,,,,,,,,,,,,,,,,,,,,,,,,,,,,,,,,,,,,,,,,,152.6983512,None,right,0,0.8626364,153.1977225,154.7009995,153.1977225,154.1993476,153.1977225,154.1993476,153.1977225,154.1993476,153.1977225,154.1993476,153.1977225,154.1993476,154.1824582,154.6847857,154.1824582,154.6847857,154.1824582,154.6847857,154.1824582,154.6847857,154.1824582,154.6847857,154.1824582,154.6847857,154.1824582,154.6847857,154.1824582,154.6847857,153.1977225,None,154.6847857,155.1348748,1,155.1505728,None,155.9021798,None,,,,,,,[0.44384615],2.43,0.846153846,11035,2,2024_Mar_11_1426,MFTM_A_new1021,2021.2.3,60.04455309
,,,,,,,,stim/Instruction_adaptive.png,conditions/adaptive.xlsx,test,-0.6,-0.6,-0.6,0.6,0.6,left,L,,,,,0,1,1,1,0,13,13,51,,,,,,,,,,,,,,,,,,,,,,,,,,,,,,,,,,,,,,,,,,,,156.4032451,None,left,1,1.4129325,156.9037344,158.6234894,156.9037344,158.1220705,156.9037344,158.1220705,156.9037344,158.1220705,156.9037344,158.1220705,156.9037344,158.1220705,158.1063519,158.6066582,158.1063519,158.6066582,158.1063519,158.6066582,158.1063519,158.6066582,158.1063519,158.6066582,158.1063519,158.6066582,158.1063519,158.6066582,158.1063519,158.6066582,156.9037344,None,158.6066582,159.1234237,1.22,159.1400718,None,159.8915915,None,,,,,,,[0.50357143],2.53,0.857142857,11035,2,2024_Mar_11_1426,MFTM_A_new1021,2021.2.3,60.04455309
,,,,,,,,stim/Instruction_adaptive.png,conditions/adaptive.xlsx,test,-0.6,-0.6,-0.6,0.6,0.6,left,L,,,,,0,1,1,1,0,14,14,19,,,,,,,,,,,,,,,,,,,,,,,,,,,,,,,,,,,,,,,,,,,,160.3930312,None,right,0,0.9999374,160.8928151,162.5459819,160.8928151,162.0455133,160.8928151,162.0455133,160.8928151,162.0455133,160.8928151,162.0455133,160.8928151,162.0455133,162.0111516,162.5129782,162.0111516,162.5129782,162.0111516,162.5129782,162.0111516,162.5129782,162.0111516,162.5129782,162.0111516,162.5129782,162.0111516,162.5129782,162.0111516,162.5129782,160.8928151,None,162.5129782,163.07958,1.14,163.0962989,None,163.8472971,None,,,,,,,[0.56066667],2.25,0.8,11035,2,2024_Mar_11_1426,MFTM_A_new1021,2021.2.3,60.04455309
,,,,,,,,stim/Instruction_adaptive.png,conditions/adaptive.xlsx,test,-0.6,-0.6,-0.6,0.6,0.6,left,L,,,,,0,1,1,1,0,15,15,13,,,,,,,,,,,,,,,,,,,,,,,,,,,,,,,,,,,,,,,,,,,,164.3481684,None,right,0,1.1077217,164.8490196,166.7350198,164.8490196,166.2342776,164.8490196,166.2342776,164.8490196,166.2342776,164.8490196,166.2342776,164.8490196,166.2342776,166.2175702,166.7184248,166.2175702,166.7184248,166.2175702,166.7184248,166.2175702,166.7184248,166.2175702,166.7184248,166.2175702,166.7184248,166.2175702,166.7184248,166.2175702,166.7184248,164.8490196,None,166.7184248,167.3194607,1.38,167.3360173,None,168.086872,None,,,,,,,[0.595625],1.93,0.75,11035,2,2024_Mar_11_1426,MFTM_A_new1021,2021.2.3,60.04455309
,,,,,,,,stim/Instruction_adaptive.png,conditions/adaptive.xlsx,test,0.6,0.6,0.6,-0.6,-0.6,right,R,,,,,0,1,1,1,0,16,16,22,,,,,,,,,,,,,,,,,,,,,,,,,,,,,,,,,,,,,,,,,,,,168.5886454,None,left,0,1.8922848,169.0889634,171.3256821,169.0889634,170.8244994,169.0889634,170.8244994,169.0889634,170.8244994,169.0889634,170.8244994,169.0889634,170.8244994,170.8077504,171.3085919,170.8077504,171.3085919,170.8077504,171.3085919,170.8077504,171.3085919,170.8077504,171.3085919,170.8077504,171.3085919,170.8077504,171.3085919,170.8077504,171.3085919,169.0889634,None,171.3085919,None,1.73,171.9265135,None,172.6776905,None,,,,,,,[0.60588235],1.57,0.705882353,11035,2,2024_Mar_11_1426,MFTM_A_new1021,2021.2.3,60.04455309
,,,,,,,,stim/Instruction_adaptive.png,conditions/adaptive.xlsx,test,-0.6,-0.6,-0.6,0.6,0.6,left,L,,,,,0,1,1,1,0,17,17,87,,,,,,,,,,,,,,,,,,,,,,,,,,,,,,,,,,,,,,,,,,,,173.1787929,None,left,1,1.7821761,173.6788342,176.3996867,173.6788342,175.8989338,173.6788342,175.8989338,173.6788342,175.8989338,173.6788342,175.8989338,173.6788342,175.8989338,175.8822544,176.383902,175.8822544,176.383902,175.8822544,176.383902,175.8822544,176.383902,175.8822544,176.383902,175.8822544,176.383902,175.8822544,176.383902,175.8822544,176.383902,173.6788342,None,176.383902,176.6673414,2.22,176.6827904,None,177.4353081,None,,,,,,,[[0.28]],1.71,0.722222222,11035,2,2024_Mar_11_1426,MFTM_A_new1021,2021.2.3,60.04455309
,,,,,,,,stim/Instruction_adaptive.png,conditions/adaptive.xlsx,test,0.6,0.6,0.6,-0.6,-0.6,right,R,,,,,0,1,1,1,0,18,18,62,,,,,,,,,,,,,,,,,,,,,,,,,,,,,,,,,,,,,,,,,,,,177.9358239,None,right,1,1.4408127,178.4366668,180.9569476,178.4366668,180.4557845,178.4366668,180.4557845,178.4366668,180.4557845,178.4366668,180.4557845,178.4366668,180.4557845,180.4391153,180.9397334,180.4391153,180.9397334,180.4391153,180.9397334,180.4391153,180.9397334,180.4391153,180.9397334,180.4391153,180.9397334,180.4391153,180.9397334,180.4391153,180.9397334,178.4366668,None,180.9397334,None,2.01,181.4412592,None,182.1915955,None,,,,,,,[[0.49]],1.83,0.736842105,11035,2,2024_Mar_11_1426,MFTM_A_new1021,2021.2.3,60.04455309
,,,,,,,,stim/Instruction_adaptive.png,conditions/adaptive.xlsx,test,0.6,0.6,0.6,-0.6,-0.6,right,R,,,,,0,1,1,1,0,19,19,56,,,,,,,,,,,,,,,,,,,,,,,,,,,,,,,,,,,,,,,,,,,,182.693509,None,right,1,1.2998369,183.1932799,185.5466901,183.1932799,185.0466267,183.1932799,185.0466267,183.1932799,185.0466267,183.1932799,185.0466267,183.1932799,185.0466267,185.0292904,185.5301104,185.0292904,185.5301104,185.0292904,185.5301104,185.0292904,185.5301104,185.0292904,185.5301104,185.0292904,185.5301104,185.0292904,185.5301104,185.0292904,185.5301104,183.1932799,None,185.5301104,186.114867,1.85,186.1309865,None,186.8820795,None,,,,,,,[0.586],1.93,0.75,11035,2,2024_Mar_11_1426,MFTM_A_new1021,2021.2.3,60.04455309
,,,,,,,,stim/Instruction_adaptive.png,conditions/adaptive.xlsx,test,-0.6,-0.6,-0.6,0.6,0.6,left,L,,,,,0,1,1,1,0,20,20,45,,,,,,,,,,,,,,,,,,,,,,,,,,,,,,,,,,,,,,,,,,,,187.3841325,None,left,1,1.1860704,187.8834618,190.1212841,187.8834618,189.6198469,187.8834618,189.6198469,187.8834618,189.6198469,187.8834618,189.6198469,187.8834618,189.6198469,189.6028145,190.1044286,189.6028145,190.1044286,189.6028145,190.1044286,189.6028145,190.1044286,189.6028145,190.1044286,189.6028145,190.1044286,189.6028145,190.1044286,189.6028145,190.1044286,187.8834618,None,190.1044286,190.7044483,1.73,190.7213098,None,191.4726638,None,,,,,,,[0.5947619],2.03,0.761904762,11035,2,2024_Mar_11_1426,MFTM_A_new1021,2021.2.3,60.04455309
,,,,,,,,stim/Instruction_adaptive.png,conditions/adaptive.xlsx,test,0.6,0.6,0.6,-0.6,-0.6,right,R,,,,,0,1,1,1,0,21,21,18,,,,,,,,,,,,,,,,,,,,,,,,,,,,,,,,,,,,,,,,,,,,191.973223,None,right,1,1.2113276,192.4741707,194.5940993,192.4741707,194.0944202,192.4741707,194.0944202,192.4741707,194.0944202,192.4741707,194.0944202,192.4741707,194.0944202,194.0595845,194.5609994,194.0595845,194.5609994,194.0595845,194.5609994,194.0595845,194.5609994,194.0595845,194.5609994,194.0595845,194.5609994,194.0595845,194.5609994,194.0595845,194.5609994,192.4741707,None,194.5609994,195.177871,1.61,195.1946094,None,195.9457082,None,,,,,,,[0.60818182],2.11,0.772727273,11035,2,2024_Mar_11_1426,MFTM_A_new1021,2021.2.3,60.04455309
,,,,,,,,stim/Instruction_adaptive.png,conditions/adaptive.xlsx,test,-0.6,-0.6,-0.6,0.6,0.6,left,L,,,,,0,1,1,1,0,22,22,5,,,,,,,,,,,,,,,,,,,,,,,,,,,,,,,,,,,,,,,,,,,,196.4472249,None,left,1,1.6903464,196.947101,198.9670912,196.947101,198.4669359,196.947101,198.4669359,196.947101,198.4669359,196.947101,198.4669359,196.947101,198.4669359,198.4505205,198.9511054,198.4505205,198.9511054,198.4505205,198.9511054,198.4505205,198.9511054,198.4505205,198.9511054,198.4505205,198.9511054,198.4505205,198.9511054,198.4505205,198.9511054,196.947101,None,198.9511054,199.5846237,1.52,199.6011038,None,200.3524601,None,,,,,,,[0.62434783],2.19,0.782608696,11035,2,2024_Mar_11_1426,MFTM_A_new1021,2021.2.3,60.04455309
,,,,,,,,stim/Instruction_adaptive.png,conditions/adaptive.xlsx,test,-0.6,-0.6,-0.6,0.6,0.6,left,L,,,,,0,1,1,1,0,23,23,67,,,,,,,,,,,,,,,,,,,,,,,,,,,,,,,,,,,,,,,,,,,,200.8531667,None,left,1,1.1874673,201.3539115,203.3074112,201.3539115,202.8060074,201.3539115,202.8060074,201.3539115,202.8060074,201.3539115,202.8060074,201.3539115,202.8060074,202.7725267,203.2736573,202.7725267,203.2736573,202.7725267,203.2736573,202.7725267,203.2736573,202.7725267,203.2736573,202.7725267,203.2736573,202.7725267,203.2736573,202.7725267,203.2736573,201.3539115,None,203.2736573,203.924422,1.44,203.9415402,None,204.692605,None,,,,,,,[0.6425],2.26,0.791666667,11035,2,2024_Mar_11_1426,MFTM_A_new1021,2021.2.3,60.04455309
,,,,,,,,stim/Instruction_adaptive.png,conditions/adaptive.xlsx,test,-0.6,-0.6,-0.6,0.6,0.6,left,L,,,,,0,1,1,1,0,24,24,69,,,,,,,,,,,,,,,,,,,,,,,,,,,,,,,,,,,,,,,,,,,,205.1935872,None,right,0,1.040119,205.6936118,207.5636894,205.6936118,207.0793329,205.6936118,207.0793329,205.6936118,207.0793329,205.6936118,207.0793329,205.6936118,207.0793329,207.0457571,207.5465936,207.0457571,207.5465936,207.0457571,207.5465936,207.0457571,207.5465936,207.0457571,207.5465936,207.0457571,207.5465936,207.0457571,207.5465936,207.0457571,207.5465936,205.6936118,None,207.5465936,208.2150701,1.37,208.232764,None,208.982893,None,,,,,,,[0.662],2.06,0.76,11035,2,2024_Mar_11_1426,MFTM_A_new1021,2021.2.3,60.04455309
,,,,,,,,stim/Instruction_adaptive.png,conditions/adaptive.xlsx,test,0.6,0.6,0.6,-0.6,-0.6,right,R,,,,,0,1,1,1,0,25,25,82,,,,,,,,,,,,,,,,,,,,,,,,,,,,,,,,,,,,,,,,,,,,209.4828883,None,left,0,1.2063408,209.9838938,212.0707151,209.9838938,211.5704875,209.9838938,211.5704875,209.9838938,211.5704875,209.9838938,211.5704875,209.9838938,211.5704875,211.5525927,212.053834,211.5525927,212.053834,211.5525927,212.053834,211.5525927,212.053834,211.5525927,212.053834,211.5525927,212.053834,211.5525927,212.053834,211.5525927,212.053834,209.9838938,None,212.0375561,212.7210479,1.58,212.7377134,None,213.4896933,None,,,,,,,[0.67192308],1.84,0.730769231,11035,2,2024_Mar_11_1426,MFTM_A_new1021,2021.2.3,60.04455309
,,,,,,,,stim/Instruction_adaptive.png,conditions/adaptive.xlsx,test,0.6,0.6,0.6,-0.6,-0.6,right,R,,,,,0,1,1,1,0,26,26,60,,,,,,,,,,,,,,,,,,,,,,,,,,,,,,,,,,,,,,,,,,,,213.9905829,None,right,1,1.050968,214.4912483,216.8446033,214.4912483,216.3436371,214.4912483,216.3436371,214.4912483,216.3436371,214.4912483,216.3436371,214.4912483,216.3436371,216.3096569,216.8106427,216.3096569,216.8106427,216.3096569,216.8106427,216.3096569,216.8106427,216.3096569,216.8106427,216.3096569,216.8106427,216.3096569,216.8106427,216.3096569,216.8106427,214.4912483,None,216.8106427,217.4787416,1.84,217.4946758,None,218.2461078,None,,,,,,,[[0.66]],1.92,0.740740741,11035,2,2024_Mar_11_1426,MFTM_A_new1021,2021.2.3,60.04455309
,,,,,,,,stim/Instruction_adaptive.png,conditions/adaptive.xlsx,test,-0.6,-0.6,-0.6,0.6,0.6,left,L,,,,,0,1,1,1,0,27,27,91,,,,,,,,,,,,,,,,,,,,,,,,,,,,,,,,,,,,,,,,,,,,218.7469587,None,right,0,1.6470437,219.2475212,221.5009782,219.2475212,221.0001828,219.2475212,221.0001828,219.2475212,221.0001828,219.2475212,221.0001828,219.2475212,221.0001828,220.9669425,221.4674136,220.9669425,221.4674136,220.9669425,221.4674136,220.9669425,221.4674136,220.9669425,221.4674136,220.9669425,221.4674136,220.9669425,221.4674136,220.9669425,221.4674136,219.2475212,None,221.4674136,222.1529579,1.74,222.1864792,None,222.9376562,None,,,,,,,[0.67464286],1.69,0.714285714,11035,2,2024_Mar_11_1426,MFTM_A_new1021,2021.2.3,60.04455309
,,,,,,,,stim/Instruction_adaptive.png,conditions/adaptive.xlsx,test,0.6,0.6,0.6,-0.6,-0.6,right,R,,,,,0,1,1,1,0,28,28,38,,,,,,,,,,,,,,,,,,,,,,,,,,,,,,,,,,,,,,,,,,,,223.437831,None,right,1,1.4438792,223.9386132,226.4916832,223.9386132,225.9922712,223.9386132,225.9922712,223.9386132,225.9922712,223.9386132,225.9922712,223.9386132,225.9922712,225.9577658,226.4589943,225.9577658,226.4589943,225.9577658,226.4589943,225.9577658,226.4589943,225.9577658,226.4589943,225.9577658,226.4589943,225.9577658,226.4589943,225.9577658,226.4589943,223.9386132,None,226.4589943,226.9258474,2.04,226.9424157,None,227.6935451,None,,,,,,,[[0.46]],1.78,0.724137931,11035,2,2024_Mar_11_1426,MFTM_A_new1021,2021.2.3,60.04455309
,,,,,,,,stim/Instruction_adaptive.png,conditions/adaptive.xlsx,test,0.6,0.6,0.6,-0.6,-0.6,right,R,,,,,0,1,1,1,0,29,29,98,,,,,,,,,,,,,,,,,,,,,,,,,,,,,,,,,,,,,,,,,,,,228.1952382,None,right,1,1.1512886,228.69515,231.1172488,228.69515,230.6156017,228.69515,230.6156017,228.69515,230.6156017,228.69515,230.6156017,228.69515,230.6156017,230.5990277,231.0998314,230.5990277,231.0998314,230.5990277,231.0998314,230.5990277,231.0998314,230.5990277,231.0998314,230.5990277,231.0998314,230.5990277,231.0998314,230.5990277,231.0998314,228.69515,None,231.0998314,231.6837014,1.92,231.6999636,None,232.4518128,None,,,,,,,[[0.58]],1.85,0.733333333,11035,2,2024_Mar_11_1426,MFTM_A_new1021,2021.2.3,60.04455309
,,,,,,,,stim/Instruction_adaptive.png,conditions/adaptive.xlsx,test,0.6,0.6,0.6,-0.6,-0.6,right,R,,,,,0,1,1,1,0,30,30,72,,,,,,,,,,,,,,,,,,,,,,,,,,,,,,,,,,,,,,,,,,,,232.9525792,None,right,1,1.6243236,233.4546753,235.7890651,233.4546753,235.2882171,233.4546753,235.2882171,233.4546753,235.2882171,233.4546753,235.2882171,233.4546753,235.2882171,235.2549023,235.7568269,235.2549023,235.7568269,235.2549023,235.7568269,235.2549023,235.7568269,235.2549023,235.7568269,235.2549023,235.7568269,235.2549023,235.7568269,235.2549023,235.7568269,233.4546753,None,235.7568269,236.423707,1.82,236.4401814,None,237.1925061,None,,,,,,,[0.66483871],1.92,0.741935484,11035,2,2024_Mar_11_1426,MFTM_A_new1021,2021.2.3,60.04455309
,,,,,,,,stim/Instruction_adaptive.png,conditions/adaptive.xlsx,test,-0.6,-0.6,-0.6,0.6,0.6,left,L,,,,,0,1,1,1,0,31,31,97,,,,,,,,,,,,,,,,,,,,,,,,,,,,,,,,,,,,,,,,,,,,237.6921638,None,left,1,1.710707,238.1926896,240.4462456,238.1926896,239.9454791,238.1926896,239.9454791,238.1926896,239.9454791,238.1926896,239.9454791,238.1926896,239.9454791,239.9119876,240.4128659,239.9119876,240.4128659,239.9119876,240.4128659,239.9119876,240.4128659,239.9119876,240.4128659,239.9119876,240.4128659,239.9119876,240.4128659,239.9119876,240.4128659,238.1926896,None,240.4128659,241.0805859,1.74,241.1149174,None,241.8649235,None,,,,,,,[0.6678125],1.98,0.75,11035,2,2024_Mar_11_1426,MFTM_A_new1021,2021.2.3,60.04455309
,,,,,,,,stim/Instruction_adaptive.png,conditions/adaptive.xlsx,test,-0.6,-0.6,-0.6,0.6,0.6,left,L,,,,,0,1,1,1,0,32,32,79,,,,,,,,,,,,,,,,,,,,,,,,,,,,,,,,,,,,,,,,,,,,242.3657208,None,left,1,1.2273618,242.8672599,245.0365635,242.8672599,244.5525751,242.8672599,244.5525751,242.8672599,244.5525751,242.8672599,244.5525751,242.8672599,244.5525751,244.5191674,245.0198295,244.5191674,245.0198295,244.5191674,245.0198295,244.5191674,245.0198295,244.5191674,245.0198295,244.5191674,245.0198295,244.5191674,245.0198295,244.5191674,245.0198295,242.8672599,None,245.0198295,245.7047254,1.67,245.7207893,None,246.4719735,None,,,,,,,[0.67272727],2.04,0.757575758,11035,2,2024_Mar_11_1426,MFTM_A_new1021,2021.2.3,60.04455309
,,,,,,,,stim/Instruction_adaptive.png,conditions/adaptive.xlsx,test,-0.6,-0.6,-0.6,0.6,0.6,left,L,,,,,0,1,1,1,0,33,33,7,,,,,,,,,,,,,,,,,,,,,,,,,,,,,,,,,,,,,,,,,,,,246.9730183,None,right,0,1.3492344,247.473616,249.5766633,247.473616,249.0763462,247.473616,249.0763462,247.473616,249.0763462,247.473616,249.0763462,247.473616,249.0763462,249.0603713,249.5618221,249.0603713,249.5618221,249.0603713,249.5618221,249.0603713,249.5618221,249.0603713,249.5618221,249.0603713,249.5618221,249.0603713,249.5618221,249.0603713,249.5618221,247.473616,None,249.5618221,250.245731,1.6,250.2608838,None,251.0130697,None,,,,,,,[0.67941176],1.87,0.735294118,11035,2,2024_Mar_11_1426,MFTM_A_new1021,2021.2.3,60.04455309
,,,,,,,,stim/Instruction_adaptive.png,conditions/adaptive.xlsx,test,0.6,0.6,0.6,-0.6,-0.6,right,R,,,,,0,1,1,1,0,34,34,28,,,,,,,,,,,,,,,,,,,,,,,,,,,,,,,,,,,,,,,,,,,,251.5143233,None,right,1,1.2415137,252.0136236,254.3183379,252.0136236,253.8170604,252.0136236,253.8170604,252.0136236,253.8170604,252.0136236,253.8170604,252.0136236,253.8170604,253.7997207,254.3003763,253.7997207,254.3003763,253.7997207,254.3003763,253.7997207,254.3003763,253.7997207,254.3003763,253.7997207,254.3003763,253.7997207,254.3003763,253.7997207,254.3003763,252.0136236,None,254.3003763,254.9848036,1.8,255.0014843,None,255.753432,None,,,,,,,[0.68],1.93,0.742857143,11035,2,2024_Mar_11_1426,MFTM_A_new1021,2021.2.3,60.04455309
,,,,,,,,stim/Instruction_adaptive.png,conditions/adaptive.xlsx,test,0.6,0.6,0.6,-0.6,-0.6,right,R,,,,,0,1,1,1,0,35,35,54,,,,,,,,,,,,,,,,,,,,,,,,,,,,,,,,,,,,,,,,,,,,256.2542966,None,right,1,1.7254913,256.7540915,258.9908675,256.7540915,258.4913099,256.7540915,258.4913099,256.7540915,258.4913099,256.7540915,258.4913099,256.7540915,258.4913099,258.4734562,258.9740552,258.4734562,258.9740552,258.4734562,258.9740552,258.4734562,258.9740552,258.4734562,258.9740552,258.4734562,258.9740552,258.4734562,258.9740552,258.4734562,258.9740552,256.7540915,None,258.9573477,259.643313,1.73,259.6750876,None,260.4268946,None,,,,,,,[0.6825],1.99,0.75,11035,2,2024_Mar_11_1426,MFTM_A_new1021,2021.2.3,60.04455309
,,,,,,,,stim/Instruction_adaptive.png,conditions/adaptive.xlsx,test,-0.6,-0.6,-0.6,0.6,0.6,left,L,,,,,0,1,1,1,0,36,36,27,,,,,,,,,,,,,,,,,,,,,,,,,,,,,,,,,,,,,,,,,,,,260.9269942,None,right,0,1.291629,261.4285626,263.5977753,261.4285626,263.0969766,261.4285626,263.0969766,261.4285626,263.0969766,261.4285626,263.0969766,261.4285626,263.0969766,263.0636876,263.5652661,263.0636876,263.5652661,263.0636876,263.5652661,263.0636876,263.5652661,263.0636876,263.5652661,263.0636876,263.5652661,263.0636876,263.5652661,263.0636876,263.5652661,261.4285626,None,263.5652661,264.2655953,1.66,264.2820198,None,265.0342593,None,,,,,,,[0.68675676],1.83,0.72972973,11035,2,2024_Mar_11_1426,MFTM_A_new1021,2021.2.3,60.04455309
,,,,,,,,stim/Instruction_adaptive.png,conditions/adaptive.xlsx,test,0.6,0.6,0.6,-0.6,-0.6,right,R,,,,,0,1,1,1,0,37,37,40,,,,,,,,,,,,,,,,,,,,,,,,,,,,,,,,,,,,,,,,,,,,265.5339564,None,right,1,1.3407354,266.0347684,268.3882737,266.0347684,267.8874027,266.0347684,267.8874027,266.0347684,267.8874027,266.0347684,267.8874027,266.0347684,267.8874027,267.8708735,268.3715779,267.8708735,268.3715779,267.8708735,268.3715779,267.8708735,268.3715779,267.8708735,268.3715779,267.8708735,268.3715779,267.8708735,268.3715779,267.8708735,268.3715779,266.0347684,None,268.3715779,269.0231016,1.85,269.0386621,None,269.7904208,None,,,,,,,[[0.65]],1.89,0.736842105,11035,2,2024_Mar_11_1426,MFTM_A_new1021,2021.2.3,60.04455309
,,,,,,,,stim/Instruction_adaptive.png,conditions/adaptive.xlsx,test,0.6,0.6,0.6,-0.6,-0.6,right,R,,,,,0,1,1,1,0,38,38,36,,,,,,,,,,,,,,,,,,,,,,,,,,,,,,,,,,,,,,,,,,,,270.2915484,None,left,0,1.3522149,270.7917439,273.0802549,270.7917439,272.5781137,270.7917439,272.5781137,270.7917439,272.5781137,270.7917439,272.5781137,270.7917439,272.5781137,272.5618092,273.0628535,272.5618092,273.0628535,272.5618092,273.0628535,272.5618092,273.0628535,272.5618092,273.0628535,272.5618092,273.0628535,272.5618092,273.0628535,272.5618092,273.0628535,270.7917439,None,273.0628535,None,1.78,273.7630244,None,274.5142486,None,,,,,,,[0.68666667],1.72,0.717948718,11035,2,2024_Mar_11_1426,MFTM_A_new1021,2021.2.3,60.04455309
,,,,,,,,stim/Instruction_adaptive.png,conditions/adaptive.xlsx,test,0.6,0.6,0.6,-0.6,-0.6,right,R,,,,,0,1,1,1,0,39,39,6,,,,,,,,,,,,,,,,,,,,,,,,,,,,,,,,,,,,,,,,,,,,275.0159213,None,right,1,1.6917766,275.5158185,278.0204331,275.5158185,277.5188263,275.5158185,277.5188263,275.5158185,277.5188263,275.5158185,277.5188263,275.5158185,277.5188263,277.5021071,278.0029335,277.5021071,278.0029335,277.5021071,278.0029335,277.5021071,278.0029335,277.5021071,278.0029335,277.5021071,278.0029335,277.5021071,278.0029335,277.5021071,278.0029335,275.5158185,None,278.0029335,278.504472,2,278.5203463,None,279.2718216,None,,,,,,,[[0.5]],1.78,0.725,11035,2,2024_Mar_11_1426,MFTM_A_new1021,2021.2.3,60.04455309
,,,,,,,,stim/Instruction_adaptive.png,conditions/adaptive.xlsx,test,-0.6,-0.6,-0.6,0.6,0.6,left,L,,,,,0,1,1,1,0,40,40,11,,,,,,,,,,,,,,,,,,,,,,,,,,,,,,,,,,,,,,,,,,,,279.7719601,None,right,0,1.1992295,280.2729143,282.6943362,280.2729143,282.192371,280.2729143,282.192371,280.2729143,282.192371,280.2729143,282.192371,280.2729143,282.192371,282.1757672,282.6765783,282.1757672,282.6765783,282.1757672,282.6765783,282.1757672,282.6765783,282.1757672,282.6765783,282.1757672,282.6765783,282.1757672,282.6765783,282.1757672,282.6765783,280.2729143,None,282.6765783,283.2616003,1.92,283.2771676,None,284.0284862,None,,,,,,,[[0.58]],1.61,0.707317073,11035,2,2024_Mar_11_1426,MFTM_A_new1021,2021.2.3,60.04455309
,,,,,,,,stim/Instruction_adaptive.png,conditions/adaptive.xlsx,test,-0.6,-0.6,-0.6,0.6,0.6,left,L,,,,,0,1,1,1,0,41,41,75,,,,,,,,,,,,,,,,,,,,,,,,,,,,,,,,,,,,,,,,,,,,284.5294559,None,left,1,1.4894939,285.0305225,287.7008297,285.0305225,287.1999791,285.0305225,287.1999791,285.0305225,287.1999791,285.0305225,287.1999791,285.0305225,287.1999791,287.1664762,287.6674324,287.1664762,287.6674324,287.1664762,287.6674324,287.1664762,287.6674324,287.1664762,287.6674324,287.1664762,287.6674324,287.1664762,287.6674324,287.1664762,287.6674324,285.0305225,None,287.6674324,288.0178424,2.16,288.0344505,None,288.7857407,None,,,,,,,[[0.34]],1.67,0.714285714,11035,2,2024_Mar_11_1426,MFTM_A_new1021,2021.2.3,60.04455309
,,,,,,,,stim/Instruction_adaptive.png,conditions/adaptive.xlsx,test,0.6,0.6,0.6,-0.6,-0.6,right,R,,,,,0,1,1,1,0,42,42,2,,,,,,,,,,,,,,,,,,,,,,,,,,,,,,,,,,,,,,,,,,,,289.2864844,None,right,1,0.9809938,289.787474,292.3584568,289.787474,291.8576349,289.787474,291.8576349,289.787474,291.8576349,289.787474,291.8576349,289.787474,291.8576349,291.8404882,292.3410932,291.8404882,292.3410932,291.8404882,292.3410932,291.8404882,292.3410932,291.8404882,292.3410932,291.8404882,292.3410932,291.8404882,292.3410932,291.8404882,292.3410932,289.787474,None,292.3410932,292.7752737,2.07,292.79182,None,293.5437381,None,,,,,,,[[0.43]],1.73,0.720930233,11035,2,2024_Mar_11_1426,MFTM_A_new1021,2021.2.3,60.04455309
,,,,,,,,stim/Instruction_adaptive.png,conditions/adaptive.xlsx,test,-0.6,-0.6,-0.6,0.6,0.6,left,L,,,,,0,1,1,1,0,43,43,89,,,,,,,,,,,,,,,,,,,,,,,,,,,,,,,,,,,,,,,,,,,,294.0443636,None,left,1,1.3111904,294.5451522,297.0312543,294.5451522,296.5319367,294.5451522,296.5319367,294.5451522,296.5319367,294.5451522,296.5319367,294.5451522,296.5319367,296.4985727,296.9980795,296.4985727,296.9980795,296.4985727,296.9980795,296.4985727,296.9980795,296.4985727,296.9980795,296.4985727,296.9980795,296.4985727,296.9980795,296.4985727,296.9980795,294.5451522,None,296.9980795,297.5330384,1.98,297.5489815,None,298.3012813,None,,,,,,,[[0.52]],1.78,0.727272727,11035,2,2024_Mar_11_1426,MFTM_A_new1021,2021.2.3,60.04455309
,,,,,,,,stim/Instruction_adaptive.png,conditions/adaptive.xlsx,test,-0.6,-0.6,-0.6,0.6,0.6,left,L,,,,,0,1,1,1,0,44,44,17,,,,,,,,,,,,,,,,,,,,,,,,,,,,,,,,,,,,,,,,,,,,298.8009095,None,right,0,1.3149156,299.3015788,301.7219035,299.3015788,301.2215381,299.3015788,301.2215381,299.3015788,301.2215381,299.3015788,301.2215381,299.3015788,301.2215381,301.2050075,301.7053717,301.2050075,301.7053717,301.2050075,301.7053717,301.2050075,301.7053717,301.2050075,301.7053717,301.2050075,301.7053717,301.2050075,301.7053717,301.2050075,301.7053717,299.3015788,None,301.7053717,302.2915045,1.92,302.3059252,None,303.0572966,None,,,,,,,[[0.58]],1.63,0.711111111,11035,2,2024_Mar_11_1426,MFTM_A_new1021,2021.2.3,60.04455309
,,,,,,,,stim/Instruction_adaptive.png,conditions/adaptive.xlsx,test,0.6,0.6,0.6,-0.6,-0.6,right,R,,,,,0,1,1,1,0,45,45,26,,,,,,,,,,,,,,,,,,,,,,,,,,,,,,,,,,,,,,,,,,,,303.5588985,None,right,1,1.1803917,304.0603946,306.6968989,304.0603946,306.1953148,304.0603946,306.1953148,304.0603946,306.1953148,304.0603946,306.1953148,304.0603946,306.1953148,306.1795862,306.6801052,306.1795862,306.6801052,306.1795862,306.6801052,306.1795862,306.6801052,306.1795862,306.6801052,306.1795862,306.6801052,306.1795862,306.6801052,306.1795862,306.6801052,304.0603946,None,306.6801052,None,2.13,307.0633696,None,307.8144323,None,,,,,,,[[0.37]],1.68,0.717391304,11035,2,2024_Mar_11_1426,MFTM_A_new1021,2021.2.3,60.04455309
,,,,,,,,stim/Instruction_adaptive.png,conditions/adaptive.xlsx,test,-0.6,-0.6,-0.6,0.6,0.6,left,L,,,,,0,1,1,1,0,46,46,59,,,,,,,,,,,,,,,,,,,,,,,,,,,,,,,,,,,,,,,,,,,,308.3152189,None,left,1,0.9596722,308.8171408,311.369867,308.8171408,310.868984,308.8171408,310.868984,308.8171408,310.868984,308.8171408,310.868984,308.8171408,310.868984,310.852272,311.3540033,310.852272,311.3540033,310.852272,311.3540033,310.852272,311.3540033,310.852272,311.3540033,310.852272,311.3540033,310.852272,311.3540033,310.852272,311.3540033,308.8171408,None,311.3540033,311.8038405,2.05,311.8205209,None,312.5725034,None,,,,,,,[[0.45]],1.73,0.723404255,11035,2,2024_Mar_11_1426,MFTM_A_new1021,2021.2.3,60.04455309
,,,,,,,,stim/Instruction_adaptive.png,conditions/adaptive.xlsx,test,-0.6,-0.6,-0.6,0.6,0.6,left,L,,,,,0,1,1,1,0,47,47,55,,,,,,,,,,,,,,,,,,,,,,,,,,,,,,,,,,,,,,,,,,,,313.0737674,None,left,1,1.4276784,313.5732704,316.0609078,313.5732704,315.5594727,313.5732704,315.5594727,313.5732704,315.5594727,313.5732704,315.5594727,313.5732704,315.5594727,315.5434926,316.0443442,315.5434926,316.0443442,315.5434926,316.0443442,315.5434926,316.0443442,315.5434926,316.0443442,315.5434926,316.0443442,315.5434926,316.0443442,315.5434926,316.0443442,313.5732704,None,316.0443442,None,1.98,316.5784466,None,317.3288455,None,,,,,,,[[0.52]],1.78,0.729166667,11035,2,2024_Mar_11_1426,MFTM_A_new1021,2021.2.3,60.04455309
,,,,,,,,stim/Instruction_adaptive.png,conditions/adaptive.xlsx,test,-0.6,-0.6,-0.6,0.6,0.6,left,L,,,,,0,1,1,1,0,48,48,95,,,,,,,,,,,,,,,,,,,,,,,,,,,,,,,,,,,,,,,,,,,,317.8301192,None,right,0,1.2623478,318.3303018,320.7516152,318.3303018,320.2501698,318.3303018,320.2501698,318.3303018,320.2501698,318.3303018,320.2501698,318.3303018,320.2501698,320.2332395,320.734313,320.2332395,320.734313,320.2332395,320.734313,320.2332395,320.734313,320.2332395,320.734313,320.2332395,320.734313,320.2332395,320.734313,320.2332395,320.734313,318.3303018,None,320.734313,321.3181564,1.92,321.3349149,None,322.0862011,None,,,,,,,[[0.58]],1.64,0.714285714,11035,2,2024_Mar_11_1426,MFTM_A_new1021,2021.2.3,60.04455309
,,,,,,,,stim/Instruction_adaptive.png,conditions/adaptive.xlsx,test,-0.6,-0.6,-0.6,0.6,0.6,left,L,,,,,0,1,1,1,0,49,49,9,,,,,,,,,,,,,,,,,,,,,,,,,,,,,,,,,,,,,,,,,,,,322.586973,None,left,1,1.2890796,323.0878623,325.7087878,323.0878623,325.209049,323.0878623,325.209049,323.0878623,325.209049,323.0878623,325.209049,323.0878623,325.209049,325.174226,325.6749078,325.174226,325.6749078,325.174226,325.6749078,325.174226,325.6749078,325.174226,325.6749078,325.174226,325.6749078,325.174226,325.6749078,325.174226,325.6749078,323.0878623,None,325.6749078,326.0754086,2.11,326.0919694,None,326.8438698,None,,,,,,,[[0.39]],1.69,0.72,11035,2,2024_Mar_11_1426,MFTM_A_new1021,2021.2.3,60.04455309
,,,,,,,,stim/Instruction_adaptive.png,conditions/adaptive.xlsx,test,0.6,0.6,0.6,-0.6,-0.6,right,R,,,,,0,1,1,1,0,50,50,64,,,,,,,,,,,,,,,,,,,,,,,,,,,,,,,,,,,,,,,,,,,,327.3445787,None,left,0,1.2039092,327.8454204,330.399181,327.8454204,329.8978867,327.8454204,329.8978867,327.8454204,329.8978867,327.8454204,329.8978867,327.8454204,329.8978867,329.864269,330.3660562,329.864269,330.3660562,329.864269,330.3660562,329.864269,330.3660562,329.864269,330.3660562,329.864269,330.3660562,329.864269,330.3660562,329.864269,330.3660562,327.8454204,None,330.3660562,330.8337881,2.04,330.8486501,None,331.6004005,None,,,,,,,[[0.46]],1.55,0.705882353,11035,2,2024_Mar_11_1426,MFTM_A_new1021,2021.2.3,60.04455309
,,,,,,,,stim/Instruction_adaptive.png,conditions/adaptive.xlsx,test,0.6,0.6,0.6,-0.6,-0.6,right,R,,,,,0,1,1,1,0,51,51,46,,,,,,,,,,,,,,,,,,,,,,,,,,,,,,,,,,,,,,,,,,,,332.1019542,None,right,1,1.2478068,332.6017875,335.356406,332.6017875,334.8567276,332.6017875,334.8567276,332.6017875,334.8567276,332.6017875,334.8567276,332.6017875,334.8567276,334.8385295,335.3399445,334.8385295,335.3399445,334.8385295,335.3399445,334.8385295,335.3399445,334.8385295,335.3399445,334.8385295,335.3399445,334.8385295,335.3399445,334.8385295,335.3399445,332.6017875,None,335.3399445,335.5908265,2.25,335.6057908,None,336.3583887,None,,,,,,,[[0.25]],1.6,0.711538462,11035,2,2024_Mar_11_1426,MFTM_A_new1021,2021.2.3,60.04455309
,,,,,,,,stim/Instruction_adaptive.png,conditions/adaptive.xlsx,test,-0.6,-0.6,-0.6,0.6,0.6,left,L,,,,,0,1,1,1,0,52,52,71,,,,,,,,,,,,,,,,,,,,,,,,,,,,,,,,,,,,,,,,,,,,336.8582718,None,right,0,1.4817656,337.3596293,340.0306295,337.3596293,339.5290583,337.3596293,339.5290583,337.3596293,339.5290583,337.3596293,339.5290583,337.3596293,339.5290583,339.5122947,340.0136545,339.5122947,340.0136545,339.5122947,340.0136545,339.5122947,340.0136545,339.5122947,340.0136545,339.5122947,340.0136545,339.5122947,340.0136545,339.5122947,340.0136545,337.3596293,None,340.0136545,340.3478781,2.17,340.363298,None,341.1147835,None,,,,,,,[[0.33]],1.46,0.698113208,11035,2,2024_Mar_11_1426,MFTM_A_new1021,2021.2.3,60.04455309
,,,,,,,,stim/Instruction_adaptive.png,conditions/adaptive.xlsx,test,0.6,0.6,0.6,-0.6,-0.6,right,R,,,,,0,1,1,1,0,53,53,94,,,,,,,,,,,,,,,,,,,,,,,,,,,,,,,,,,,,,,,,,,,,341.6159204,None,right,1,1.0774077,342.1162417,345.0206535,342.1162417,344.5211658,342.1162417,344.5211658,342.1162417,344.5211658,342.1162417,344.5211658,342.1162417,344.5211658,344.4873578,344.987957,344.4873578,344.987957,344.4873578,344.987957,344.4873578,344.987957,344.4873578,344.987957,344.4873578,344.987957,344.4873578,344.987957,344.4873578,344.987957,342.1162417,None,344.987957,345.104924,2.39,345.1206302,None,345.8718282,None,,,,,,,[[0.11]],1.51,0.703703704,11035,2,2024_Mar_11_1426,MFTM_A_new1021,2021.2.3,60.04455309
,,,,,,,,stim/Instruction_adaptive.png,conditions/adaptive.xlsx,test,0.6,0.6,0.6,-0.6,-0.6,right,R,,,,,0,1,1,1,0,54,54,70,,,,,,,,,,,,,,,,,,,,,,,,,,,,,,,,,,,,,,,,,,,,346.3733911,None,right,1,2.8398027,346.8740352,349.6951453,346.8740352,349.1942282,346.8740352,349.1942282,346.8740352,349.1942282,346.8740352,349.1942282,346.8740352,349.1942282,349.1607146,349.6618482,349.1607146,349.6618482,349.1607146,349.6618482,349.1607146,349.6618482,349.1607146,349.6618482,349.1607146,349.6618482,349.1607146,349.6618482,349.1607146,349.6618482,346.8740352,None,349.6618482,349.8619749,2.31,349.8780519,None,350.6296536,None,,,,,,,[[0.19]],1.56,0.709090909,11035,2,2024_Mar_11_1426,MFTM_A_new1021,2021.2.3,60.04455309
,,,,,,,,stim/Instruction_adaptive.png,conditions/adaptive.xlsx,test,-0.6,-0.6,-0.6,0.6,0.6,left,L,,,,,0,1,1,1,0,55,55,63,,,,,,,,,,,,,,,,,,,,,,,,,,,,,,,,,,,,,,,,,,,,351.1297119,None,right,0,0.9632824,351.630677,354.3679593,351.630677,353.8672782,351.630677,353.8672782,351.630677,353.8672782,351.630677,353.8672782,351.630677,353.8672782,353.8505912,354.35131,353.8505912,354.35131,353.8505912,354.35131,353.8505912,354.35131,353.8505912,354.35131,353.8505912,354.35131,353.8505912,354.35131,353.8505912,354.35131,351.630677,None,354.35131,None,2.23,354.6360184,None,355.3874638,None,,,,,,,[[0.27]],1.42,0.696428571,11035,2,2024_Mar_11_1426,MFTM_A_new1021,2021.2.3,60.04455309
,,,,,,,,stim/Instruction_adaptive.png,conditions/adaptive.xlsx,test,0.6,0.6,0.6,-0.6,-0.6,right,R,,,,,0,1,1,1,0,56,56,16,,,,,,,,,,,,,,,,,,,,,,,,,,,,,,,,,,,,,,,,,,,,355.8877465,None,right,1,1.141821,356.3880708,359.3590351,356.3880708,358.8579944,356.3880708,358.8579944,356.3880708,358.8579944,356.3880708,358.8579944,356.3880708,358.8579944,358.8246298,359.3262492,358.8246298,359.3262492,358.8246298,359.3262492,358.8246298,359.3262492,358.8246298,359.3262492,358.8246298,359.3262492,358.8246298,359.3262492,358.8246298,359.3262492,356.3880708,None,359.3262492,359.3753593,2.46,359.3920331,None,360.1434015,None,,,,,,,[[0.04]],1.47,0.701754386,11035,2,2024_Mar_11_1426,MFTM_A_new1021,2021.2.3,60.04455309
,,,,,,,,stim/Instruction_adaptive.png,conditions/adaptive.xlsx,test,-0.6,-0.6,-0.6,0.6,0.6,left,L,,,,,0,1,1,1,0,57,57,37,,,,,,,,,,,,,,,,,,,,,,,,,,,,,,,,,,,,,,,,,,,,360.6447466,None,left,1,1.5205907,361.1459083,364.015834,361.1459083,363.5155438,361.1459083,363.5155438,361.1459083,363.5155438,361.1459083,363.5155438,361.1459083,363.5155438,363.4985558,363.9991246,363.4985558,363.9991246,363.4985558,363.9991246,363.4985558,363.9991246,363.4985558,363.9991246,363.4985558,363.9991246,363.4985558,363.9991246,363.4985558,363.9991246,361.1459083,None,363.9991246,364.1327066,2.37,364.150151,None,364.9015683,None,,,,,,,[[0.13]],1.51,0.706896552,11035,2,2024_Mar_11_1426,MFTM_A_new1021,2021.2.3,60.04455309
,,,,,,,,stim/Instruction_adaptive.png,conditions/adaptive.xlsx,test,-0.6,-0.6,-0.6,0.6,0.6,left,L,,,,,0,1,1,1,0,58,58,99,,,,,,,,,,,,,,,,,,,,,,,,,,,,,,,,,,,,,,,,,,,,365.4013656,None,left,1,1.156466,365.9025233,368.7243238,365.9025233,368.2232951,365.9025233,368.2232951,365.9025233,368.2232951,365.9025233,368.2232951,365.9025233,368.2232951,368.188763,368.6896847,368.188763,368.6896847,368.188763,368.6896847,368.188763,368.6896847,368.188763,368.6896847,368.188763,368.6896847,368.188763,368.6896847,368.188763,368.6896847,365.9025233,None,368.6896847,368.8901214,2.31,368.9065157,None,369.6581787,None,,,,,,,[[0.19]],1.56,0.711864407,11035,2,2024_Mar_11_1426,MFTM_A_new1021,2021.2.3,60.04455309
,,,,,,,,stim/Instruction_adaptive.png,conditions/adaptive.xlsx,test,-0.6,-0.6,-0.6,0.6,0.6,left,L,,,,,0,1,1,1,0,59,59,57,,,,,,,,,,,,,,,,,,,,,,,,,,,,,,,,,,,,,,,,,,,,370.1586021,None,right,0,0.7099294,370.6604994,373.3972072,370.6604994,372.8958721,370.6604994,372.8958721,370.6604994,372.8958721,370.6604994,372.8958721,370.6604994,372.8958721,372.8625581,373.3643476,372.8625581,373.3643476,372.8625581,373.3643476,372.8625581,373.3643476,372.8625581,373.3643476,372.8625581,373.3643476,372.8625581,373.3643476,372.8625581,373.3643476,370.6604994,None,373.3643476,373.6478597,2.23,373.6637782,None,374.4149181,None,,,,,,,[[0.27]],1.43,0.7,11035,2,2024_Mar_11_1426,MFTM_A_new1021,2021.2.3,60.04455309
,,,,,,,,stim/Instruction_adaptive.png,conditions/adaptive.xlsx,test,0.6,0.6,0.6,-0.6,-0.6,right,R,,,,,0,1,1,1,0,60,60,90,,,,,,,,,,,,,,,,,,,,,,,,,,,,,,,,,,,,,,,,,,,,374.916427,None,left,0,1.0096741,375.4169634,378.3709185,375.4169634,377.8701899,375.4169634,377.8701899,375.4169634,377.8701899,375.4169634,377.8701899,375.4169634,377.8701899,377.837237,378.3376575,377.837237,378.3376575,377.837237,378.3376575,377.837237,378.3376575,377.837237,378.3376575,377.837237,378.3376575,377.837237,378.3376575,377.837237,378.3376575,375.4169634,None,378.3376575,378.4051492,2.44,378.4212164,None,379.1723695,None,,,,,,,[[0.06]],1.3,0.68852459,11035,2,2024_Mar_11_1426,MFTM_A_new1021,2021.2.3,60.04455309
,,,,,,,,stim/Instruction_adaptive.png,conditions/adaptive.xlsx,test,0.6,0.6,0.6,-0.6,-0.6,right,R,,,,,0,1,1,1,0,61,61,34,,,,,,,,,,,,,,,,,,,,,,,,,,,,,,,,,,,,,,,,,,,,379.6733658,None,right,1,1.0292287,380.173642,None,380.173642,382.844558,380.173642,382.844558,380.173642,382.844558,380.173642,382.844558,380.173642,382.844558,382.8275261,383.3285539,382.8275261,383.3285539,382.8275261,383.3285539,382.8275261,383.3285539,382.8275261,383.3285539,382.8275261,383.3285539,382.8275261,383.3285539,382.8275261,383.3285539,380.173642,None,383.3285539,383.3285539,2.67,383.3453754,None,384.0969304,None,,,,,,,0,1.34,0.693548387,11035,2,2024_Mar_11_1426,MFTM_A_new1021,2021.2.3,60.04455309
,,,,,,,,stim/Instruction_adaptive.png,conditions/adaptive.xlsx,test,-0.6,-0.6,-0.6,0.6,0.6,left,L,,,,,0,1,1,1,0,62,62,31,,,,,,,,,,,,,,,,,,,,,,,,,,,,,,,,,,,,,,,,,,,,384.5970331,None,right,0,1.3282024,385.0982848,None,385.0982848,387.7024898,385.0982848,387.7024898,385.0982848,387.7024898,385.0982848,387.7024898,385.0982848,387.7024898,387.6849745,388.1856899,387.6849745,388.1856899,387.6849745,388.1856899,387.6849745,388.1856899,387.6849745,388.1856899,387.6849745,388.1856899,387.6849745,388.1856899,387.6849745,388.1856899,385.0982848,None,388.1856899,388.1856899,2.6,388.2021734,None,388.9536166,None,,,,,,,0,1.2,0.682539683,11035,2,2024_Mar_11_1426,MFTM_A_new1021,2021.2.3,60.04455309
,,,,,,,,stim/Instruction_adaptive.png,conditions/adaptive.xlsx,test,0.6,0.6,0.6,-0.6,-0.6,right,R,,,,,0,1,1,1,0,63,63,14,,,,,,,,,,,,,,,,,,,,,,,,,,,,,,,,,,,,,,,,,,,,389.4552451,None,left,0,1.5520059,389.9551008,None,389.9551008,392.8260504,389.9551008,392.8260504,389.9551008,392.8260504,389.9551008,392.8260504,389.9551008,392.8260504,392.7933109,393.29403,392.7933109,393.29403,392.7933109,393.29403,392.7933109,393.29403,392.7933109,393.29403,392.7933109,393.29403,392.7933109,393.29403,392.7933109,393.29403,389.9551008,None,393.29403,393.29403,2.86,393.3266495,None,394.0791073,None,,,,,,,0,1.05,0.671875,11035,2,2024_Mar_11_1426,MFTM_A_new1021,2021.2.3,60.04455309
,,,,,,,,stim/Instruction_adaptive.png,conditions/adaptive.xlsx,test,0.6,0.6,0.6,-0.6,-0.6,right,R,,,,,0,1,1,1,0,64,64,0,,,,,,,,,,,,,,,,,,,,,,,,,,,,,,,,,,,,,,,,,,,,394.5794195,None,right,1,3.4678244,395.0794117,None,395.0794117,398.0839747,395.0794117,398.0839747,395.0794117,398.0839747,395.0794117,398.0839747,395.0794117,398.0839747,398.0677088,398.5683223,398.0677088,398.5683223,398.0677088,398.5683223,398.0677088,398.5683223,398.0677088,398.5683223,398.0677088,398.5683223,398.0677088,398.5683223,398.0677088,398.5683223,395.0794117,None,398.5683223,398.5683223,3,398.5847167,None,399.3370507,None,,,,,,,0,1.1,0.676923077,11035,2,2024_Mar_11_1426,MFTM_A_new1021,2021.2.3,60.04455309
,,,,,,,,stim/Instruction_adaptive.png,conditions/adaptive.xlsx,test,-0.6,-0.6,-0.6,0.6,0.6,left,L,,,,,0,1,1,1,0,65,65,23,,,,,,,,,,,,,,,,,,,,,,,,,,,,,,,,,,,,,,,,,,,,399.8368057,None,left,1,1.6023059,400.3373181,None,400.3373181,403.3421922,400.3373181,403.3421922,400.3373181,403.3421922,400.3373181,403.3421922,400.3373181,403.3421922,403.3252452,403.8259778,403.3252452,403.8259778,403.3252452,403.8259778,403.3252452,403.8259778,403.3252452,403.8259778,403.3252452,403.8259778,403.3252452,403.8259778,403.3252452,403.8259778,400.3373181,None,403.8259778,403.8259778,3,403.842832,None,404.5938706,None,,,,,,,0,1.15,0.681818182,11035,2,2024_Mar_11_1426,MFTM_A_new1021,2021.2.3,60.04455309
,,,,,,,,stim/Instruction_adaptive.png,conditions/adaptive.xlsx,test,-0.6,-0.6,-0.6,0.6,0.6,left,L,,,,,0,1,1,1,0,66,66,81,,,,,,,,,,,,,,,,,,,,,,,,,,,,,,,,,,,,,,,,,,,,405.0944204,None,left,1,1.0392775,405.596206,None,405.596206,408.5662186,405.596206,408.5662186,405.596206,408.5662186,405.596206,408.5662186,405.596206,408.5662186,408.5330694,409.0345419,408.5330694,409.0345419,408.5330694,409.0345419,408.5330694,409.0345419,408.5330694,409.0345419,408.5330694,409.0345419,408.5330694,409.0345419,408.5330694,409.0345419,405.596206,None,409.0345419,409.0345419,2.96,409.0671894,None,409.8183034,None,,,,,,,0,1.2,0.686567164,11035,2,2024_Mar_11_1426,MFTM_A_new1021,2021.2.3,60.04455309
,,,,,,,,stim/Instruction_adaptive.png,conditions/adaptive.xlsx,test,0.6,0.6,0.6,-0.6,-0.6,right,R,,,,,0,1,1,1,0,67,67,48,,,,,,,,,,,,,,,,,,,,,,,,,,,,,,,,,,,,,,,,,,,,410.3198987,None,right,1,1.6716611,410.8197063,None,410.8197063,413.6907063,410.8197063,413.6907063,410.8197063,413.6907063,410.8197063,413.6907063,410.8197063,413.6907063,413.6574695,414.1588986,413.6574695,414.1588986,413.6574695,414.1588986,413.6574695,414.1588986,413.6574695,414.1588986,413.6574695,414.1588986,413.6574695,414.1588986,413.6574695,414.1588986,410.8197063,None,414.1588986,414.1588986,2.86,414.1924232,None,414.9430051,None,,,,,,,0,1.25,0.691176471,11035,2,2024_Mar_11_1426,MFTM_A_new1021,2021.2.3,60.04455309
,,,,,,,,stim/Instruction_adaptive.png,conditions/adaptive.xlsx,test,-0.6,-0.6,-0.6,0.6,0.6,left,L,,,,,0,1,1,1,0,68,68,83,,,,,,,,,,,,,,,,,,,,,,,,,,,,,,,,,,,,,,,,,,,,415.4435774,None,left,1,1.171264,415.9442831,None,415.9442831,418.7150662,415.9442831,418.7150662,415.9442831,418.7150662,415.9442831,418.7150662,415.9442831,418.7150662,418.6982331,419.1990585,418.6982331,419.1990585,418.6982331,419.1990585,418.6982331,419.1990585,418.6982331,419.1990585,418.6982331,419.1990585,418.6982331,419.1990585,418.6982331,419.1990585,415.9442831,None,419.1990585,419.1990585,2.77,419.2167886,None,419.9670907,None,,,,,,,0,1.29,0.695652174,11035,2,2024_Mar_11_1426,MFTM_A_new1021,2021.2.3,60.04455309
,,,,,,,,stim/Instruction_adaptive.png,conditions/adaptive.xlsx,test,-0.6,-0.6,-0.6,0.6,0.6,left,L,,,,,0,1,1,1,0,69,69,65,,,,,,,,,,,,,,,,,,,,,,,,,,,,,,,,,,,,,,,,,,,,420.4681034,None,left,1,1.8034181,420.9688779,None,420.9688779,423.6732004,420.9688779,423.6732004,420.9688779,423.6732004,420.9688779,423.6732004,420.9688779,423.6732004,423.6397653,424.1408775,423.6397653,424.1408775,423.6397653,424.1408775,423.6397653,424.1408775,423.6397653,424.1408775,423.6397653,424.1408775,423.6397653,424.1408775,423.6397653,424.1408775,420.9688779,None,424.1408775,424.1408775,2.69,424.1744799,None,424.9247494,None,,,,,,,0,1.33,0.7,11035,2,2024_Mar_11_1426,MFTM_A_new1021,2021.2.3,60.04455309
,,,,,,,,stim/Instruction_adaptive.png,conditions/adaptive.xlsx,test,-0.6,-0.6,-0.6,0.6,0.6,left,L,,,,,0,1,1,1,0,70,70,29,,,,,,,,,,,,,,,,,,,,,,,,,,,,,,,,,,,,,,,,,,,,425.4249676,None,left,1,2.7102001,425.9260711,None,425.9260711,428.5477146,425.9260711,428.5477146,425.9260711,428.5477146,425.9260711,428.5477146,425.9260711,428.5477146,428.5308334,429.0313222,428.5308334,429.0313222,428.5308334,429.0313222,428.5308334,429.0313222,428.5308334,429.0313222,428.5308334,429.0313222,428.5308334,429.0313222,428.5308334,429.0313222,425.9260711,None,429.0313222,429.0313222,2.62,429.0473475,None,429.7990911,None,,,,,,,0,1.37,0.704225352,11035,2,2024_Mar_11_1426,MFTM_A_new1021,2021.2.3,60.04455309
,,,,,,,,stim/Instruction_adaptive.png,conditions/adaptive.xlsx,test,-0.6,-0.6,-0.6,0.6,0.6,left,L,,,,,0,1,1,1,0,71,71,77,,,,,,,,,,,,,,,,,,,,,,,,,,,,,,,,,,,,,,,,,,,,430.3001528,None,left,1,1.924512,430.8003327,None,430.8003327,433.353837,430.8003327,433.353837,430.8003327,433.353837,430.8003327,433.353837,430.8003327,433.353837,433.3369951,433.8383322,433.3369951,433.8383322,433.3369951,433.8383322,433.3369951,433.8383322,433.3369951,433.8383322,433.3369951,433.8383322,433.3369951,433.8383322,433.3369951,433.8383322,430.8003327,None,433.8383322,433.8383322,2.55,433.8553022,None,434.6064281,None,,,,,,,0,1.41,0.708333333,11035,2,2024_Mar_11_1426,MFTM_A_new1021,2021.2.3,60.04455309
,,,,,,,,stim/Instruction_adaptive.png,conditions/adaptive.xlsx,test,-0.6,-0.6,-0.6,0.6,0.6,left,L,,,,,0,1,1,1,0,72,72,21,,,,,,,,,,,,,,,,,,,,,,,,,,,,,,,,,,,,,,,,,,,,435.1073283,None,left,1,2.8293997,435.6071326,438.5956406,435.6071326,438.0943608,435.6071326,438.0943608,435.6071326,438.0943608,435.6071326,438.0943608,435.6071326,438.0943608,438.077502,438.5787427,438.077502,438.5787427,438.077502,438.5787427,438.077502,438.5787427,438.077502,438.5787427,438.077502,438.5787427,438.077502,438.5787427,438.077502,438.5787427,435.6071326,None,438.5787427,None,2.48,438.6117068,None,439.3629464,None,,,,,,,[[0.02]],1.44,0.712328767,11035,2,2024_Mar_11_1426,MFTM_A_new1021,2021.2.3,60.04455309
,,,,,,,,stim/Instruction_adaptive.png,conditions/adaptive.xlsx,test,0.6,0.6,0.6,-0.6,-0.6,right,R,,,,,0,1,1,1,0,73,73,68,,,,,,,,,,,,,,,,,,,,,,,,,,,,,,,,,,,,,,,,,,,,439.8636376,None,right,1,1.1751309,440.3648914,443.2854381,440.3648914,442.7847576,440.3648914,442.7847576,440.3648914,442.7847576,440.3648914,442.7847576,440.3648914,442.7847576,442.7680025,443.2690901,442.7680025,443.2690901,442.7680025,443.2690901,442.7680025,443.2690901,442.7680025,443.2690901,442.7680025,443.2690901,442.7680025,443.2690901,442.7680025,443.2690901,440.3648914,None,443.2690901,443.3522335,2.42,443.3692114,None,444.1199704,None,,,,,,,[[0.08]],1.48,0.716216216,11035,2,2024_Mar_11_1426,MFTM_A_new1021,2021.2.3,60.04455309
,,,,,,,,stim/Instruction_adaptive.png,conditions/adaptive.xlsx,test,0.6,0.6,0.6,-0.6,-0.6,right,R,,,,,0,1,1,1,0,74,74,84,,,,,,,,,,,,,,,,,,,,,,,,,,,,,,,,,,,,,,,,,,,,444.6216064,None,right,1,1.1944729,445.1222207,447.9935737,445.1222207,447.4919517,445.1222207,447.4919517,445.1222207,447.4919517,445.1222207,447.4919517,445.1222207,447.4919517,447.4582172,447.9605734,447.4582172,447.9605734,447.4582172,447.9605734,447.4582172,447.9605734,447.4582172,447.9605734,447.4582172,447.9605734,447.4582172,447.9605734,447.4582172,447.9605734,445.1222207,None,447.9605734,448.1101577,2.36,448.1261328,None,448.8772528,None,,,,,,,[[0.14]],1.51,0.72,11035,2,2024_Mar_11_1426,MFTM_A_new1021,2021.2.3,60.04455309
,,,,,,,,stim/Instruction_adaptive.png,conditions/adaptive.xlsx,test,-0.6,-0.6,-0.6,0.6,0.6,left,L,,,,,0,1,1,1,0,75,75,3,,,,,,,,,,,,,,,,,,,,,,,,,,,,,,,,,,,,,,,,,,,,449.3780639,None,left,1,1.1500308,449.8788076,452.6997283,449.8788076,452.1990579,449.8788076,452.1990579,449.8788076,452.1990579,449.8788076,452.1990579,449.8788076,452.1990579,452.1655666,452.6672958,452.1655666,452.6672958,452.1655666,452.6672958,452.1655666,452.6672958,452.1655666,452.6672958,452.1655666,452.6672958,452.1655666,452.6672958,452.1655666,452.6672958,449.8788076,None,452.6672958,452.8669595,2.31,452.8833385,None,453.6349752,None,,,,,,,[[0.19]],1.54,0.723684211,11035,2,2024_Mar_11_1426,MFTM_A_new1021,2021.2.3,60.04455309
,,,,,,,,stim/Instruction_adaptive.png,conditions/adaptive.xlsx,test,0.6,0.6,0.6,-0.6,-0.6,right,R,,,,,0,1,1,1,0,76,76,88,,,,,,,,,,,,,,,,,,,,,,,,,,,,,,,,,,,,,,,,,,,,454.1351399,None,right,1,2.5446268,454.6362093,457.4066765,454.6362093,456.9059405,454.6362093,456.9059405,454.6362093,456.9059405,454.6362093,456.9059405,454.6362093,456.9059405,456.8728794,457.3731848,456.8728794,457.3731848,456.8728794,457.3731848,456.8728794,457.3731848,456.8728794,457.3731848,456.8728794,457.3731848,456.8728794,457.3731848,456.8728794,457.3731848,454.6362093,None,457.3731848,457.6250547,2.26,457.6403325,None,458.3920542,None,,,,,,,[[0.24]],1.57,0.727272727,11035,2,2024_Mar_11_1426,MFTM_A_new1021,2021.2.3,60.04455309
,,,,,,,,stim/Instruction_adaptive.png,conditions/adaptive.xlsx,test,0.6,0.6,0.6,-0.6,-0.6,right,R,,,,,0,1,1,1,0,77,77,86,,,,,,,,,,,,,,,,,,,,,,,,,,,,,,,,,,,,,,,,,,,,458.8931598,None,left,0,1.7470473,459.3938637,462.1137596,459.3938637,461.6131903,459.3938637,461.6131903,459.3938637,461.6131903,459.3938637,461.6131903,459.3938637,461.6131903,461.5963769,462.0980043,461.5963769,462.0980043,461.5963769,462.0980043,461.5963769,462.0980043,461.5963769,462.0980043,461.5963769,462.0980043,461.5963769,462.0980043,461.5963769,462.0980043,459.3938637,None,462.0980043,462.3809544,2.22,462.3975163,None,463.148839,None,,,,,,,[[0.28]],1.48,0.717948718,11035,2,2024_Mar_11_1426,MFTM_A_new1021,2021.2.3,60.04455309
,,,,,,,,stim/Instruction_adaptive.png,conditions/adaptive.xlsx,test,0.6,0.6,0.6,-0.6,-0.6,right,R,,,,,0,1,1,1,0,78,78,96,,,,,,,,,,,,,,,,,,,,,,,,,,,,,,,,,,,,,,,,,,,,463.6501924,None,right,1,1.4474278,464.1500778,467.0212458,464.1500778,466.5205569,464.1500778,466.5205569,464.1500778,466.5205569,464.1500778,466.5205569,464.1500778,466.5205569,466.4873527,466.987873,466.4873527,466.987873,466.4873527,466.987873,466.4873527,466.987873,466.4873527,466.987873,466.4873527,466.987873,466.4873527,466.987873,466.4873527,466.987873,464.1500778,None,466.987873,467.1379534,2.36,467.1547704,None,467.9066979,None,,,,,,,[[0.14]],1.51,0.721518987,11035,2,2024_Mar_11_1426,MFTM_A_new1021,2021.2.3,60.04455309
,,,,,,,,stim/Instruction_adaptive.png,conditions/adaptive.xlsx,test,-0.6,-0.6,-0.6,0.6,0.6,left,L,,,,,0,1,1,1,0,79,79,47,,,,,,,,,,,,,,,,,,,,,,,,,,,,,,,,,,,,,,,,,,,,468.406673,None,left,1,1.3778248,468.9073648,471.7286575,468.9073648,471.2277287,468.9073648,471.2277287,468.9073648,471.2277287,468.9073648,471.2277287,468.9073648,471.2277287,471.1945741,471.6950746,471.1945741,471.6950746,471.1945741,471.6950746,471.1945741,471.6950746,471.1945741,471.6950746,471.1945741,471.6950746,471.1945741,471.6950746,471.1945741,471.6950746,468.9073648,None,471.6950746,471.8956122,2.31,471.9124598,None,472.6640125,None,,,,,,,[[0.19]],1.54,0.725,11035,2,2024_Mar_11_1426,MFTM_A_new1021,2021.2.3,60.04455309
,,,,,,,,stim/Instruction_adaptive.png,conditions/adaptive.xlsx,test,0.6,0.6,0.6,-0.6,-0.6,right,R,,,,,0,1,1,1,0,80,80,24,,,,,,,,,,,,,,,,,,,,,,,,,,,,,,,,,,,,,,,,,,,,473.1647099,None,right,1,1.4037269,473.6653465,476.435244,473.6653465,475.9351339,473.6653465,475.9351339,473.6653465,475.9351339,473.6653465,475.9351339,473.6653465,475.9351339,475.9016322,476.4027667,475.9016322,476.4027667,475.9016322,476.4027667,475.9016322,476.4027667,475.9016322,476.4027667,475.9016322,476.4027667,475.9016322,476.4027667,475.9016322,476.4027667,473.6653465,None,476.4027667,476.6537161,2.26,476.6691015,None,477.4202259,None,,,,,,,[[0.24]],1.57,0.728395062,11035,2,2024_Mar_11_1426,MFTM_A_new1021,2021.2.3,60.04455309
,,,,,,,,stim/Instruction_adaptive.png,conditions/adaptive.xlsx,test,0.6,0.6,0.6,-0.6,-0.6,right,R,,,,,0,1,1,1,0,81,81,10,,,,,,,,,,,,,,,,,,,,,,,,,,,,,,,,,,,,,,,,,,,,477.9211954,None,right,1,1.4317819,478.4217698,481.1425078,478.4217698,480.6416532,478.4217698,480.6416532,478.4217698,480.6416532,478.4217698,480.6416532,478.4217698,480.6416532,480.6250444,481.1259167,480.6250444,481.1259167,480.6250444,481.1259167,480.6250444,481.1259167,480.6250444,481.1259167,480.6250444,481.1259167,480.6250444,481.1259167,480.6250444,481.1259167,478.4217698,None,481.1259167,481.4104405,2.22,481.4264326,None,482.1775785,None,,,,,,,[[0.28]],1.6,0.731707317,11035,2,2024_Mar_11_1426,MFTM_A_new1021,2021.2.3,60.04455309
,,,,,,,,stim/Instruction_adaptive.png,conditions/adaptive.xlsx,test,0.6,0.6,0.6,-0.6,-0.6,right,R,,,,,0,1,1,1,0,82,82,80,,,,,,,,,,,,,,,,,,,,,,,,,,,,,,,,,,,,,,,,,,,,482.6791838,None,left,0,2.3626228,483.1790213,485.8498384,483.1790213,485.3500621,483.1790213,485.3500621,483.1790213,485.3500621,483.1790213,485.3500621,483.1790213,485.3500621,485.3322136,485.834182,485.3322136,485.834182,485.3322136,485.834182,485.3322136,485.834182,485.3322136,485.834182,485.3322136,485.834182,485.3322136,485.834182,485.3322136,485.834182,483.1790213,None,485.834182,486.1676499,2.17,486.183276,None,486.934583,None,,,,,,,[[0.33]],1.52,0.722891566,11035,2,2024_Mar_11_1426,MFTM_A_new1021,2021.2.3,60.04455309
,,,,,,,,stim/Instruction_adaptive.png,conditions/adaptive.xlsx,test,0.6,0.6,0.6,-0.6,-0.6,right,R,,,,,0,1,1,1,0,83,83,30,,,,,,,,,,,,,,,,,,,,,,,,,,,,,,,,,,,,,,,,,,,,487.4351638,None,right,1,1.6201262,487.9375357,490.7407223,487.9375357,490.2396782,487.9375357,490.2396782,487.9375357,490.2396782,487.9375357,490.2396782,487.9375357,490.2396782,490.2062409,490.7076438,490.2062409,490.7076438,490.2062409,490.7076438,490.2062409,490.7076438,490.2062409,490.7076438,490.2062409,490.7076438,490.2062409,490.7076438,490.2062409,490.7076438,487.9375357,None,490.7076438,490.923884,2.29,490.9406916,None,491.6926669,None,,,,,,,[[0.21]],1.54,0.726190476,11035,2,2024_Mar_11_1426,MFTM_A_new1021,2021.2.3,60.04455309
,,,,,,,,stim/Instruction_adaptive.png,conditions/adaptive.xlsx,test,0.6,0.6,0.6,-0.6,-0.6,right,R,,,,,0,1,1,1,0,84,84,20,,,,,,,,,,,,,,,,,,,,,,,,,,,,,,,,,,,,,,,,,,,,492.1925246,None,right,1,2.6006995,492.6933047,495.4655131,492.6933047,494.9639665,492.6933047,494.9639665,492.6933047,494.9639665,492.6933047,494.9639665,492.6933047,494.9639665,494.9299589,495.4312329,494.9299589,495.4312329,494.9299589,495.4312329,494.9299589,495.4312329,494.9299589,495.4312329,494.9299589,495.4312329,494.9299589,495.4312329,494.9299589,495.4312329,492.6933047,None,495.4312329,495.6822664,2.26,495.6985191,None,496.4499518,None,,,,,,,[[0.24]],1.57,0.729411765,11035,2,2024_Mar_11_1426,MFTM_A_new1021,2021.2.3,60.04455309
,,,,,,,,stim/Instruction_adaptive.png,conditions/adaptive.xlsx,test,0.6,0.6,0.6,-0.6,-0.6,right,R,,,,,0,1,1,1,0,85,85,44,,,,,,,,,,,,,,,,,,,,,,,,,,,,,,,,,,,,,,,,,,,,496.9495623,None,right,1,2.4519584,497.4504,500.1712678,497.4504,499.6705614,497.4504,499.6705614,497.4504,499.6705614,497.4504,499.6705614,497.4504,499.6705614,499.6539527,500.1558843,499.6539527,500.1558843,499.6539527,500.1558843,499.6539527,500.1558843,499.6539527,500.1558843,499.6539527,500.1558843,499.6539527,500.1558843,499.6539527,500.1558843,497.4504,None,500.1558843,500.4382214,2.22,500.456152,None,501.206082,None,,,,,,,[[0.28]],1.6,0.73255814,11035,2,2024_Mar_11_1426,MFTM_A_new1021,2021.2.3,60.04455309
,,,,,,,,stim/Instruction_adaptive.png,conditions/adaptive.xlsx,test,-0.6,-0.6,-0.6,0.6,0.6,left,L,,,,,0,1,1,1,0,86,86,33,,,,,,,,,,,,,,,,,,,,,,,,,,,,,,,,,,,,,,,,,,,,501.707993,None,left,1,1.2379684,502.207876,504.8791442,502.207876,504.3777546,502.207876,504.3777546,502.207876,504.3777546,502.207876,504.3777546,502.207876,504.3777546,504.3609495,504.8616841,504.3609495,504.8616841,504.3609495,504.8616841,504.3609495,504.8616841,504.3609495,504.8616841,504.3609495,504.8616841,504.3609495,504.8616841,504.3609495,504.8616841,502.207876,None,504.8616841,505.196371,2.17,505.2119378,None,505.9631359,None,,,,,,,[[0.33]],1.62,0.735632184,11035,2,2024_Mar_11_1426,MFTM_A_new1021,2021.2.3,60.04455309
,,,,,,,,stim/Instruction_adaptive.png,conditions/adaptive.xlsx,test,0.6,0.6,0.6,-0.6,-0.6,right,R,,,,,0,1,1,1,0,87,87,4,,,,,,,,,,,,,,,,,,,,,,,,,,,,,,,,,,,,,,,,,,,,506.464615,None,right,1,1.2730791,506.9655968,509.6191244,506.9655968,509.1187871,506.9655968,509.1187871,506.9655968,509.1187871,506.9655968,509.1187871,506.9655968,509.1187871,509.0854304,509.5859635,509.0854304,509.5859635,509.0854304,509.5859635,509.0854304,509.5859635,509.0854304,509.5859635,509.0854304,509.5859635,509.0854304,509.5859635,509.0854304,509.5859635,506.9655968,None,509.5859635,509.9533178,2.14,509.9690594,None,510.7203859,None,,,,,,,[[0.36]],1.65,0.738636364,11035,2,2024_Mar_11_1426,MFTM_A_new1021,2021.2.3,60.04455309
,,,,,,,,stim/Instruction_adaptive.png,conditions/adaptive.xlsx,test,-0.6,-0.6,-0.6,0.6,0.6,left,L,,,,,0,1,1,1,0,88,88,39,,,,,,,,,,,,,,,,,,,,,,,,,,,,,,,,,,,,,,,,,,,,511.2220055,None,right,0,1.4689937,511.7223816,514.3262755,511.7223816,513.8251423,511.7223816,513.8251423,511.7223816,513.8251423,511.7223816,513.8251423,511.7223816,513.8251423,513.8088174,514.3102008,513.8088174,514.3102008,513.8088174,514.3102008,513.8088174,514.3102008,513.8088174,514.3102008,513.8088174,514.3102008,513.8088174,514.3102008,513.8088174,514.3102008,511.7223816,None,514.3102008,514.7099182,2.1,514.7265154,None,515.4774702,None,,,,,,,[0.39561798],1.58,0.730337079,11035,2,2024_Mar_11_1426,MFTM_A_new1021,2021.2.3,60.04455309
,,,,,,,,stim/Instruction_adaptive.png,conditions/adaptive.xlsx,test,-0.6,-0.6,-0.6,0.6,0.6,left,L,,,,,0,1,1,1,0,89,89,61,,,,,,,,,,,,,,,,,,,,,,,,,,,,,,,,,,,,,,,,,,,,515.9790261,None,left,1,2.9347709,516.4797419,519.1834061,516.4797419,518.6824809,516.4797419,518.6824809,516.4797419,518.6824809,516.4797419,518.6824809,516.4797419,518.6824809,518.6661155,519.1664376,518.6661155,519.1664376,518.6661155,519.1664376,518.6661155,519.1664376,518.6661155,519.1664376,518.6661155,519.1664376,518.6661155,519.1664376,518.6661155,519.1664376,516.4797419,None,519.1664376,519.4670976,2.2,519.4838031,None,520.2348757,None,,,,,,,[[0.3]],1.6,0.733333333,11035,2,2024_Mar_11_1426,MFTM_A_new1021,2021.2.3,60.04455309
,,,,,,,,stim/Instruction_adaptive.png,conditions/adaptive.xlsx,test,0.6,0.6,0.6,-0.6,-0.6,right,R,,,,,0,1,1,1,0,90,90,8,,,,,,,,,,,,,,,,,,,,,,,,,,,,,,,,,,,,,,,,,,,,520.7356094,None,right,1,1.7699011,521.2370181,523.9078512,521.2370181,523.4064043,521.2370181,523.4064043,521.2370181,523.4064043,521.2370181,523.4064043,521.2370181,523.4064043,523.3903824,523.8917616,523.3903824,523.8917616,523.3903824,523.8917616,523.3903824,523.8917616,523.3903824,523.8917616,523.3903824,523.8917616,523.3903824,523.8917616,523.3903824,523.8917616,521.2370181,None,523.8917616,524.2240777,2.17,524.2408991,None,524.99218,None,,,,,,,[[0.33]],1.62,0.736263736,11035,2,2024_Mar_11_1426,MFTM_A_new1021,2021.2.3,60.04455309
,,,,,,,,stim/Instruction_adaptive.png,conditions/adaptive.xlsx,test,-0.6,-0.6,-0.6,0.6,0.6,left,L,,,,,0,1,1,1,0,91,91,35,,,,,,,,,,,,,,,,,,,,,,,,,,,,,,,,,,,,,,,,,,,,525.4937331,None,left,1,2.6854994,525.9936095,528.6475217,525.9936095,528.1467226,525.9936095,528.1467226,525.9936095,528.1467226,525.9936095,528.1467226,525.9936095,528.1467226,528.1132636,528.6148771,528.1132636,528.6148771,528.1132636,528.6148771,528.1132636,528.6148771,528.1132636,528.6148771,528.1132636,528.6148771,528.1132636,528.6148771,528.1132636,528.6148771,525.9936095,None,528.6148771,528.981465,2.14,528.9981024,None,529.7501174,None,,,,,,,[[0.36]],1.65,0.739130435,11035,2,2024_Mar_11_1426,MFTM_A_new1021,2021.2.3,60.04455309
,,,,,,,,stim/Instruction_adaptive.png,conditions/adaptive.xlsx,test,0.6,0.6,0.6,-0.6,-0.6,right,R,,,,,0,1,1,1,0,92,92,42,,,,,,,,,,,,,,,,,,,,,,,,,,,,,,,,,,,,,,,,,,,,530.2507766,None,left,0,2.0080052,530.7508034,533.3547935,530.7508034,532.8548223,530.7508034,532.8548223,530.7508034,532.8548223,530.7508034,532.8548223,530.7508034,532.8548223,532.8378383,533.3380593,532.8378383,533.3380593,532.8378383,533.3380593,532.8378383,533.3380593,532.8378383,533.3380593,532.8378383,533.3380593,532.8378383,533.3380593,532.8378383,533.3380593,530.7508034,None,533.3380593,533.7385095,2.1,533.7548842,None,534.5063551,None,,,,,,,[0.39354839],1.58,0.731182796,11035,2,2024_Mar_11_1426,MFTM_A_new1021,2021.2.3,60.04455309
,,,,,,,,stim/Instruction_adaptive.png,conditions/adaptive.xlsx,test,-0.6,-0.6,-0.6,0.6,0.6,left,L,,,,,0,1,1,1,0,93,93,41,,,,,,,,,,,,,,,,,,,,,,,,,,,,,,,,,,,,,,,,,,,,535.0077856,None,left,1,2.9622995,535.5088092,538.2134204,535.5088092,537.7112741,535.5088092,537.7112741,535.5088092,537.7112741,535.5088092,537.7112741,535.5088092,537.7112741,537.6943166,538.1958852,537.6943166,538.1958852,537.6943166,538.1958852,537.6943166,538.1958852,537.6943166,538.1958852,537.6943166,538.1958852,537.6943166,538.1958852,537.6943166,538.1958852,535.5088092,None,538.1958852,538.4970609,2.2,538.5125717,None,539.2635384,None,,,,,,,[[0.3]],1.6,0.734042553,11035,2,2024_Mar_11_1426,MFTM_A_new1021,2021.2.3,60.04455309
,,,,,,,,stim/Instruction_adaptive.png,conditions/adaptive.xlsx,test,0.6,0.6,0.6,-0.6,-0.6,right,R,,,,,0,1,1,1,0,94,94,32,,,,,,,,,,,,,,,,,,,,,,,,,,,,,,,,,,,,,,,,,,,,539.7642501,None,right,1,2.1102126,540.2657771,542.9358129,540.2657771,542.4349363,540.2657771,542.4349363,540.2657771,542.4349363,540.2657771,542.4349363,540.2657771,542.4349363,542.4183278,542.9197082,542.4183278,542.9197082,542.4183278,542.9197082,542.4183278,542.9197082,542.4183278,542.9197082,542.4183278,542.9197082,542.4183278,542.9197082,542.4183278,542.9197082,540.2657771,None,542.9197082,543.252978,2.17,543.2695404,None,544.0213523,None,,,,,,,[[0.33]],1.62,0.736842105,11035,2,2024_Mar_11_1426,MFTM_A_new1021,2021.2.3,60.04455309
,,,,,,,,stim/Instruction_adaptive.png,conditions/adaptive.xlsx,test,-0.6,-0.6,-0.6,0.6,0.6,left,L,,,,,0,1,1,1,0,95,95,85,,,,,,,,,,,,,,,,,,,,,,,,,,,,,,,,,,,,,,,,,,,,544.5225148,None,left,1,2.0967702,545.0228157,547.6762138,545.0228157,547.1755172,545.0228157,547.1755172,545.0228157,547.1755172,545.0228157,547.1755172,545.0228157,547.1755172,547.1421332,547.6426969,547.1421332,547.6426969,547.1421332,547.6426969,547.1421332,547.6426969,547.1421332,547.6426969,547.1421332,547.6426969,547.1421332,547.6426969,547.1421332,547.6426969,545.0228157,None,547.6426969,548.0099418,2.14,548.0268991,None,548.7778703,None,,,,,,,[[0.36]],1.65,0.739583333,11035,2,2024_Mar_11_1426,MFTM_A_new1021,2021.2.3,60.04455309
,,,,,,,,stim/Instruction_adaptive.png,conditions/adaptive.xlsx,test,0.6,0.6,0.6,-0.6,-0.6,right,R,,,,,0,1,1,1,0,96,96,78,,,,,,,,,,,,,,,,,,,,,,,,,,,,,,,,,,,,,,,,,,,,549.2785389,None,right,1,1.4686409,549.7793928,552.3852089,549.7793928,551.8826651,549.7793928,551.8826651,549.7793928,551.8826651,549.7793928,551.8826651,549.7793928,551.8826651,551.8660165,552.3665448,551.8660165,552.3665448,551.8660165,552.3665448,551.8660165,552.3665448,551.8660165,552.3665448,551.8660165,552.3665448,551.8660165,552.3665448,551.8660165,552.3665448,549.7793928,None,552.3665448,552.7684853,2.1,552.7839282,None,553.5359338,None,,,,,,,[0.39164948],1.67,0.742268041,11035,2,2024_Mar_11_1426,MFTM_A_new1021,2021.2.3,60.04455309
,,,,,,,,stim/Instruction_adaptive.png,conditions/adaptive.xlsx,test,0.6,0.6,0.6,-0.6,-0.6,right,R,,,,,0,1,1,1,0,97,97,76,,,,,,,,,,,,,,,,,,,,,,,,,,,,,,,,,,,,,,,,,,,,554.0359277,None,left,0,1.5591762,554.5365342,557.1081186,554.5365342,556.6072959,554.5365342,556.6072959,554.5365342,556.6072959,554.5365342,556.6072959,554.5365342,556.6072959,556.5907144,557.0910194,556.5907144,557.0910194,556.5907144,557.0910194,556.5907144,557.0910194,556.5907144,557.0910194,556.5907144,557.0910194,556.5907144,557.0910194,556.5907144,557.0910194,554.5365342,None,557.0910194,557.4909563,2.07,557.5074365,None,558.2589319,None,,,,,,,[0.39204082],1.6,0.734693878,11035,2,2024_Mar_11_1426,MFTM_A_new1021,2021.2.3,60.04455309
,,,,,,,,stim/Instruction_adaptive.png,conditions/adaptive.xlsx,test,-0.6,-0.6,-0.6,0.6,0.6,left,L,,,,,0,1,1,1,0,98,98,53,,,,,,,,,,,,,,,,,,,,,,,,,,,,,,,,,,,,,,,,,,,,558.7604826,None,left,1,1.6272543,559.260353,561.931143,559.260353,561.4303375,559.260353,561.4303375,559.260353,561.4303375,559.260353,561.4303375,559.260353,561.4303375,561.4140029,561.9141323,561.4140029,561.9141323,561.4140029,561.9141323,561.4140029,561.9141323,561.4140029,561.9141323,561.4140029,561.9141323,561.4140029,561.9141323,561.4140029,561.9141323,559.260353,None,561.9141323,562.2489327,2.17,562.2648058,None,563.0170026,None,,,,,,,[[0.33]],1.63,0.737373737,11035,2,2024_Mar_11_1426,MFTM_A_new1021,2021.2.3,60.04455309
,,,,,,,,stim/Instruction_adaptive.png,conditions/adaptive.xlsx,test,-0.6,-0.6,-0.6,0.6,0.6,left,L,,,,,0,1,1,1,0,99,99,1,,,,,,,,,,,,,,,,,,,,,,,,,,,,,,,,,,,,,,,,,,,,563.5175281,None,left,1,1.4308845,564.0175331,566.6556258,564.0175331,566.154233,564.0175331,566.154233,564.0175331,566.154233,564.0175331,566.154233,564.0175331,566.154233,566.1374471,566.6386999,566.1374471,566.6386999,566.1374471,566.6386999,566.1374471,566.6386999,566.1374471,566.6386999,566.1374471,566.6386999,566.1374471,566.6386999,566.1374471,566.6386999,564.0175331,None,566.6386999,None,2.13,567.0226356,None,567.7736826,None,,,,,,,[[0.37]],1.65,0.74,11035,2,2024_Mar_11_1426,MFTM_A_new1021,2021.2.3,60.04455309
,,,,,,,,stim/Instruction_adaptive.png,conditions/adaptive.xlsx,test,-0.6,-0.6,-0.6,0.6,0.6,left,L,,,,,0,1,1,1,1,0,100,23,,,,,,,,,,,,,,,,,,,,,,,,,,,,,,,,,,,,,,,,,,,,568.2748194,None,left,1,1.833081,568.7747467,571.3787315,568.7747467,570.8786453,568.7747467,570.8786453,568.7747467,570.8786453,568.7747467,570.8786453,568.7747467,570.8786453,570.8620902,571.361955,570.8620902,571.361955,570.8620902,571.361955,570.8620902,571.361955,570.8620902,571.361955,570.8620902,571.361955,570.8620902,571.361955,570.8620902,571.361955,568.7747467,None,571.361955,571.7624839,2.1,571.7792983,None,572.5313327,None,,,,,,,[0.39128713],1.67,0.742574257,11035,2,2024_Mar_11_1426,MFTM_A_new1021,2021.2.3,60.04455309
,,,,,,,,stim/Instruction_adaptive.png,conditions/adaptive.xlsx,test,-0.6,-0.6,-0.6,0.6,0.6,left,L,,,,,0,1,1,1,1,1,101,73,,,,,,,,,,,,,,,,,,,,,,,,,,,,,,,,,,,,,,,,,,,,573.0323901,None,right,0,2.2847677,573.5320309,576.1024576,573.5320309,575.6026605,573.5320309,575.6026605,573.5320309,575.6026605,573.5320309,575.6026605,573.5320309,575.6026605,575.5856736,576.0859905,575.5856736,576.0859905,575.5856736,576.0859905,575.5856736,576.0859905,575.5856736,576.0859905,575.5856736,576.0859905,575.5856736,576.0859905,575.5856736,576.0859905,573.5320309,None,576.0859905,576.4863462,2.07,576.5030748,None,577.2547337,None,,,,,,,[0.39166667],1.61,0.735294118,11035,2,2024_Mar_11_1426,MFTM_A_new1021,2021.2.3,60.04455309
,,,,,,,,stim/Instruction_adaptive.png,conditions/adaptive.xlsx,test,-0.6,-0.6,-0.6,0.6,0.6,left,L,,,,,0,1,1,1,1,2,102,79,,,,,,,,,,,,,,,,,,,,,,,,,,,,,,,,,,,,,,,,,,,,577.7549311,None,left,1,1.271336,578.2566402,580.9264191,578.2566402,580.4264896,578.2566402,580.4264896,578.2566402,580.4264896,578.2566402,580.4264896,578.2566402,580.4264896,580.3922982,580.8938339,580.3922982,580.8938339,580.3922982,580.8938339,580.3922982,580.8938339,580.3922982,580.8938339,580.3922982,580.8938339,580.3922982,580.8938339,580.3922982,580.8938339,578.2566402,None,580.8938339,581.2434805,2.16,581.2602779,None,582.0113085,None,,,,,,,[[0.34]],1.63,0.737864078,11035,2,2024_Mar_11_1426,MFTM_A_new1021,2021.2.3,60.04455309
,,,,,,,,stim/Instruction_adaptive.png,conditions/adaptive.xlsx,test,0.6,0.6,0.6,-0.6,-0.6,right,R,,,,,0,1,1,1,1,3,103,94,,,,,,,,,,,,,,,,,,,,,,,,,,,,,,,,,,,,,,,,,,,,582.5127948,None,right,1,2.2434996,583.0127224,585.65015,583.0127224,585.1499378,583.0127224,585.1499378,583.0127224,585.1499378,583.0127224,585.1499378,583.0127224,585.1499378,585.1160318,585.6168421,585.1160318,585.6168421,585.1160318,585.6168421,585.1160318,585.6168421,585.1160318,585.6168421,585.1160318,585.6168421,585.1160318,585.6168421,585.1160318,585.6168421,583.0127224,None,585.6168421,586.0013304,2.13,586.0173082,None,586.7691424,None,,,,,,,[[0.37]],1.65,0.740384615,11035,2,2024_Mar_11_1426,MFTM_A_new1021,2021.2.3,60.04455309
,,,,,,,,stim/Instruction_adaptive.png,conditions/adaptive.xlsx,test,0.6,0.6,0.6,-0.6,-0.6,right,R,,,,,0,1,1,1,1,4,104,20,,,,,,,,,,,,,,,,,,,,,,,,,,,,,,,,,,,,,,,,,,,,587.2700406,None,right,1,1.4542867,587.7699398,590.3740227,587.7699398,589.8732046,587.7699398,589.8732046,587.7699398,589.8732046,587.7699398,589.8732046,587.7699398,589.8732046,589.8565249,590.3572682,589.8565249,590.3572682,589.8565249,590.3572682,589.8565249,590.3572682,589.8565249,590.3572682,589.8565249,590.3572682,589.8565249,590.3572682,589.8565249,590.3572682,587.7699398,None,590.3572682,590.7578071,2.1,590.7745568,None,591.5255779,None,,,,,,,[0.39104762],1.67,0.742857143,11035,2,2024_Mar_11_1426,MFTM_A_new1021,2021.2.3,60.04455309
,,,,,,,,stim/Instruction_adaptive.png,conditions/adaptive.xlsx,test,-0.6,-0.6,-0.6,0.6,0.6,left,L,,,,,0,1,1,1,1,5,105,43,,,,,,,,,,,,,,,,,,,,,,,,,,,,,,,,,,,,,,,,,,,,592.0262744,None,left,1,1.5858574,592.5271581,595.0995674,592.5271581,594.5970821,592.5271581,594.5970821,592.5271581,594.5970821,592.5271581,594.5970821,592.5271581,594.5970821,594.5803591,595.0809828,594.5803591,595.0809828,594.5803591,595.0809828,594.5803591,595.0809828,594.5803591,595.0809828,594.5803591,595.0809828,594.5803591,595.0809828,594.5803591,595.0809828,592.5271581,None,595.0809828,595.4827018,2.07,595.4983997,None,596.2498092,None,,,,,,,[0.39141509],1.69,0.745283019,11035,2,2024_Mar_11_1426,MFTM_A_new1021,2021.2.3,60.04455309
,,,,,,,,stim/Instruction_adaptive.png,conditions/adaptive.xlsx,test,0.6,0.6,0.6,-0.6,-0.6,right,R,,,,,0,1,1,1,1,6,106,98,,,,,,,,,,,,,,,,,,,,,,,,,,,,,,,,,,,,,,,,,,,,596.750903,None,right,1,1.2457436,597.2510353,599.8054388,597.2510353,599.3038714,597.2510353,599.3038714,597.2510353,599.3038714,597.2510353,599.3038714,597.2510353,599.3038714,599.2711863,599.7719253,599.2711863,599.7719253,599.2711863,599.7719253,599.2711863,599.7719253,599.2711863,599.7719253,599.2711863,599.7719253,599.2711863,599.7719253,599.2711863,599.7719253,597.2510353,None,599.7719253,600.1721325,2.04,600.18866,None,600.9411825,None,,,,,,,[0.39205607],1.71,0.747663551,11035,2,2024_Mar_11_1426,MFTM_A_new1021,2021.2.3,60.04455309
,,,,,,,,stim/Instruction_adaptive.png,conditions/adaptive.xlsx,test,0.6,0.6,0.6,-0.6,-0.6,right,R,,,,,0,1,1,1,1,7,107,24,,,,,,,,,,,,,,,,,,,,,,,,,,,,,,,,,,,,,,,,,,,,601.4412809,None,left,0,1.7710405,601.9415405,604.4617883,601.9415405,603.962467,601.9415405,603.962467,601.9415405,603.962467,601.9415405,603.962467,601.9415405,603.962467,603.9289273,604.4294882,603.9289273,604.4294882,603.9289273,604.4294882,603.9289273,604.4294882,603.9289273,604.4294882,603.9289273,604.4294882,603.9289273,604.4294882,603.9289273,604.4294882,601.9415405,None,604.4294882,604.8288172,2.01,604.8457872,None,605.5973555,None,,,,,,,[0.39296296],1.65,0.740740741,11035,2,2024_Mar_11_1426,MFTM_A_new1021,2021.2.3,60.04455309
,,,,,,,,stim/Instruction_adaptive.png,conditions/adaptive.xlsx,test,-0.6,-0.6,-0.6,0.6,0.6,left,L,,,,,0,1,1,1,1,8,108,31,,,,,,,,,,,,,,,,,,,,,,,,,,,,,,,,,,,,,,,,,,,,606.0988442,None,left,1,1.6507418,606.5984734,609.2030095,606.5984734,608.7016495,606.5984734,608.7016495,606.5984734,608.7016495,606.5984734,608.7016495,606.5984734,608.7016495,608.6851918,609.1858076,608.6851918,609.1858076,608.6851918,609.1858076,608.6851918,609.1858076,608.6851918,609.1858076,608.6851918,609.1858076,608.6851918,609.1858076,608.6851918,609.1858076,606.5984734,None,609.1858076,609.5862053,2.1,609.6028281,None,610.3547647,None,,,,,,,[0.39302752],1.67,0.743119266,11035,2,2024_Mar_11_1426,MFTM_A_new1021,2021.2.3,60.04455309
,,,,,,,,stim/Instruction_adaptive.png,conditions/adaptive.xlsx,test,-0.6,-0.6,-0.6,0.6,0.6,left,L,,,,,0,1,1,1,1,9,109,5,,,,,,,,,,,,,,,,,,,,,,,,,,,,,,,,,,,,,,,,,,,,610.8553991,None,left,1,1.4296469,611.3557507,613.9269958,611.3557507,613.4253301,611.3557507,613.4253301,611.3557507,613.4253301,611.3557507,613.4253301,611.3557507,613.4253301,613.4097305,613.90994,613.4097305,613.90994,613.4097305,613.90994,613.4097305,613.90994,613.4097305,613.90994,613.4097305,613.90994,613.4097305,613.90994,613.4097305,613.90994,611.3557507,None,613.90994,614.3100939,2.07,614.3268109,None,615.07778,None,,,,,,,[0.39336364],1.69,0.745454545,11035,2,2024_Mar_11_1426,MFTM_A_new1021,2021.2.3,60.04455309
,,,,,,,,stim/Instruction_adaptive.png,conditions/adaptive.xlsx,test,-0.6,-0.6,-0.6,0.6,0.6,left,L,,,,,0,1,1,1,1,10,110,67,,,,,,,,,,,,,,,,,,,,,,,,,,,,,,,,,,,,,,,,,,,,615.5786158,None,right,0,1.3209815,616.0800787,618.6332978,616.0800787,618.1324765,616.0800787,618.1324765,616.0800787,618.1324765,616.0800787,618.1324765,616.0800787,618.1324765,618.0990126,618.5997915,618.0990126,618.5997915,618.0990126,618.5997915,618.0990126,618.5997915,618.0990126,618.5997915,618.0990126,618.5997915,618.0990126,618.5997915,618.0990126,618.5997915,616.0800787,None,618.5997915,619.0009349,2.04,619.0166026,None,619.7689041,None,,,,,,,[0.39396396],1.63,0.738738739,11035,2,2024_Mar_11_1426,MFTM_A_new1021,2021.2.3,60.04455309
,,,,,,,,stim/Instruction_adaptive.png,conditions/adaptive.xlsx,test,-0.6,-0.6,-0.6,0.6,0.6,left,L,,,,,0,1,1,1,1,11,111,41,,,,,,,,,,,,,,,,,,,,,,,,,,,,,,,,,,,,,,,,,,,,620.2691125,None,left,1,1.8157765,620.7696683,623.4076609,620.7696683,622.9063061,620.7696683,622.9063061,620.7696683,622.9063061,620.7696683,622.9063061,620.7696683,622.9063061,622.8898596,623.3912912,622.8898596,623.3912912,622.8898596,623.3912912,622.8898596,623.3912912,622.8898596,623.3912912,622.8898596,623.3912912,622.8898596,623.3912912,622.8898596,623.3912912,620.7696683,None,623.3912912,None,2.13,623.7742456,None,624.5255995,None,,,,,,,[[0.37]],1.65,0.741071429,11035,2,2024_Mar_11_1426,MFTM_A_new1021,2021.2.3,60.04455309
,,,,,,,,stim/Instruction_adaptive.png,conditions/adaptive.xlsx,test,0.6,0.6,0.6,-0.6,-0.6,right,R,,,,,0,1,1,1,1,12,112,62,,,,,,,,,,,,,,,,,,,,,,,,,,,,,,,,,,,,,,,,,,,,625.0273533,None,right,1,1.1934386,625.5280219,628.1318647,625.5280219,627.6301543,625.5280219,627.6301543,625.5280219,627.6301543,625.5280219,627.6301543,625.5280219,627.6301543,627.6135916,628.1151165,627.6135916,628.1151165,627.6135916,628.1151165,627.6135916,628.1151165,627.6135916,628.1151165,627.6135916,628.1151165,627.6135916,628.1151165,627.6135916,628.1151165,625.5280219,None,628.1151165,628.5172087,2.1,628.5313368,None,629.2831202,None,,,,,,,[0.39380531],1.67,0.743362832,11035,2,2024_Mar_11_1426,MFTM_A_new1021,2021.2.3,60.04455309
,,,,,,,,stim/Instruction_adaptive.png,conditions/adaptive.xlsx,test,-0.6,-0.6,-0.6,0.6,0.6,left,L,,,,,0,1,1,1,1,13,113,89,,,,,,,,,,,,,,,,,,,,,,,,,,,,,,,,,,,,,,,,,,,,629.7844418,None,left,1,1.5984469,630.2839469,632.8546607,630.2839469,632.3548005,630.2839469,632.3548005,630.2839469,632.3548005,630.2839469,632.3548005,630.2839469,632.3548005,632.3377653,632.838154,632.3377653,632.838154,632.3377653,632.838154,632.3377653,632.838154,632.3377653,632.838154,632.3377653,632.838154,632.3377653,632.838154,632.3377653,632.838154,630.2839469,None,632.838154,633.2393354,2.07,633.2552544,None,634.00646,None,,,,,,,[0.39412281],1.69,0.745614035,11035,2,2024_Mar_11_1426,MFTM_A_new1021,2021.2.3,60.04455309
,,,,,,,,stim/Instruction_adaptive.png,conditions/adaptive.xlsx,test,0.6,0.6,0.6,-0.6,-0.6,right,R,,,,,0,1,1,1,1,14,114,32,,,,,,,,,,,,,,,,,,,,,,,,,,,,,,,,,,,,,,,,,,,,634.5078395,None,right,1,1.4024147,635.0078393,637.5622895,635.0078393,637.062149,635.0078393,637.062149,635.0078393,637.062149,635.0078393,637.062149,635.0078393,637.062149,637.0283129,637.5284636,637.0283129,637.5284636,637.0283129,637.5284636,637.0283129,637.5284636,637.0283129,637.5284636,637.0283129,637.5284636,637.0283129,637.5284636,637.0283129,637.5284636,635.0078393,None,637.5284636,637.9290466,2.04,637.9457267,None,638.6968652,None,,,,,,,[0.39469565],1.71,0.747826087,11035,2,2024_Mar_11_1426,MFTM_A_new1021,2021.2.3,60.04455309
,,,,,,,,stim/Instruction_adaptive.png,conditions/adaptive.xlsx,test,-0.6,-0.6,-0.6,0.6,0.6,left,L,,,,,0,1,1,1,1,15,115,47,,,,,,,,,,,,,,,,,,,,,,,,,,,,,,,,,,,,,,,,,,,,639.197955,None,left,1,1.4636791,639.6982667,642.2192369,639.6982667,641.7181224,639.6982667,641.7181224,639.6982667,641.7181224,639.6982667,641.7181224,639.6982667,641.7181224,641.6853739,642.1854367,641.6853739,642.1854367,641.6853739,642.1854367,641.6853739,642.1854367,641.6853739,642.1854367,641.6853739,642.1854367,641.6853739,642.1854367,641.6853739,642.1854367,639.6982667,None,642.1854367,642.5861599,2.01,642.6025381,None,643.3545781,None,,,,,,,[0.39551724],1.72,0.75,11035,2,2024_Mar_11_1426,MFTM_A_new1021,2021.2.3,60.04455309
,,,,,,,,stim/Instruction_adaptive.png,conditions/adaptive.xlsx,test,-0.6,-0.6,-0.6,0.6,0.6,left,L,,,,,0,1,1,1,1,16,116,69,,,,,,,,,,,,,,,,,,,,,,,,,,,,,,,,,,,,,,,,,,,,643.8553552,None,left,1,1.7508282,644.3553113,646.8601641,644.3553113,646.3591128,644.3553113,646.3591128,644.3553113,646.3591128,644.3553113,646.3591128,644.3553113,646.3591128,646.3419242,646.8428258,646.3419242,646.8428258,646.3419242,646.8428258,646.3419242,646.8428258,646.3419242,646.8428258,646.3419242,646.8428258,646.3419242,646.8428258,646.3419242,646.8428258,644.3553113,None,646.8428258,647.2445592,2,647.2602242,None,648.0108691,None,,,,,,,[0.39641026],1.74,0.752136752,11035,2,2024_Mar_11_1426,MFTM_A_new1021,2021.2.3,60.04455309
,,,,,,,,stim/Instruction_adaptive.png,conditions/adaptive.xlsx,test,0.6,0.6,0.6,-0.6,-0.6,right,R,,,,,0,1,1,1,1,17,117,34,,,,,,,,,,,,,,,,,,,,,,,,,,,,,,,,,,,,,,,,,,,,648.5116999,None,right,1,1.7662288,649.0124297,651.4833073,649.0124297,650.9823562,649.0124297,650.9823562,649.0124297,650.9823562,649.0124297,650.9823562,649.0124297,650.9823562,650.9656193,651.4668158,650.9656193,651.4668158,650.9656193,651.4668158,650.9656193,651.4668158,650.9656193,651.4668158,650.9656193,651.4668158,650.9656193,651.4668158,650.9656193,651.4668158,649.0124297,None,651.4668158,651.8675577,1.97,651.8834025,None,652.635284,None,,,,,,,[0.39754237],1.76,0.754237288,11035,2,2024_Mar_11_1426,MFTM_A_new1021,2021.2.3,60.04455309
,,,,,,,,stim/Instruction_adaptive.png,conditions/adaptive.xlsx,test,0.6,0.6,0.6,-0.6,-0.6,right,R,,,,,0,1,1,1,1,18,118,54,,,,,,,,,,,,,,,,,,,,,,,,,,,,,,,,,,,,,,,,,,,,653.1359366,None,right,1,1.6304502,653.6359354,656.0897857,653.6359354,655.5890583,653.6359354,655.5890583,653.6359354,655.5890583,653.6359354,655.5890583,653.6359354,655.5890583,655.556062,656.0568412,655.556062,656.0568412,655.556062,656.0568412,655.556062,656.0568412,655.556062,656.0568412,655.556062,656.0568412,655.556062,656.0568412,655.556062,656.0568412,653.6359354,None,656.0568412,656.4587648,1.94,656.4743206,None,657.2247691,None,,,,,,,[0.39890756],1.77,0.756302521,11035,2,2024_Mar_11_1426,MFTM_A_new1021,2021.2.3,60.04455309
,,,,,,,,stim/Instruction_adaptive.png,conditions/adaptive.xlsx,test,0.6,0.6,0.6,-0.6,-0.6,right,R,,,,,0,1,1,1,1,19,119,88,,,,,,,,,,,,,,,,,,,,,,,,,,,,,,,,,,,,,,,,,,,,657.7265112,None,right,1,1.3755853,658.2272394,660.6634841,658.2272394,660.1626942,658.2272394,660.1626942,658.2272394,660.1626942,658.2272394,660.1626942,658.2272394,660.1626942,660.1459087,660.6468389,660.1459087,660.6468389,660.1459087,660.6468389,660.1459087,660.6468389,660.1459087,660.6468389,660.1459087,660.6468389,660.1459087,660.6468389,660.1459087,660.6468389,658.2272394,None,660.6468389,661.0472737,1.93,661.0638603,None,661.8157813,None,,,,,,,[0.40033333],1.79,0.758333333,11035,2,2024_Mar_11_1426,MFTM_A_new1021,2021.2.3,60.04455309
,,,,,,,,stim/Instruction_adaptive.png,conditions/adaptive.xlsx,test,0.6,0.6,0.6,-0.6,-0.6,right,R,,,,,0,1,1,1,1,20,120,44,,,,,,,,,,,,,,,,,,,,,,,,,,,,,,,,,,,,,,,,,,,,662.3164567,None,right,1,2.345915,662.8165776,665.221429,662.8165776,664.7193843,662.8165776,664.7193843,662.8165776,664.7193843,662.8165776,664.7193843,662.8165776,664.7193843,664.7036363,665.2059931,664.7036363,665.2059931,664.7036363,665.2059931,664.7036363,665.2059931,664.7036363,665.2059931,664.7036363,665.2059931,664.7036363,665.2059931,664.7036363,665.2059931,662.8165776,None,665.2059931,None,1.9,665.6216229,None,666.3728083,None,,,,,,,[0.40198347],1.81,0.760330579,11035,2,2024_Mar_11_1426,MFTM_A_new1021,2021.2.3,60.04455309
,,,,,,,,stim/Instruction_adaptive.png,conditions/adaptive.xlsx,test,0.6,0.6,0.6,-0.6,-0.6,right,R,,,,,0,1,1,1,1,21,121,72,,,,,,,,,,,,,,,,,,,,,,,,,,,,,,,,,,,,,,,,,,,,666.872638,None,left,0,2.180215,667.3746567,669.7605205,667.3746567,669.2597129,667.3746567,669.2597129,667.3746567,669.2597129,667.3746567,669.2597129,667.3746567,669.2597129,669.2428245,669.7435494,669.2428245,669.7435494,669.2428245,669.7435494,669.2428245,669.7435494,669.2428245,669.7435494,669.2428245,669.7435494,669.2428245,669.7435494,669.2428245,669.7435494,667.3746567,None,669.7435494,None,1.88,670.1606001,None,670.9121073,None,,,,,,,[0.40377049],1.76,0.754098361,11035,2,2024_Mar_11_1426,MFTM_A_new1021,2021.2.3,60.04455309
,,,,,,,,stim/Instruction_adaptive.png,conditions/adaptive.xlsx,test,-0.6,-0.6,-0.6,0.6,0.6,left,L,,,,,0,1,1,1,1,22,122,91,,,,,,,,,,,,,,,,,,,,,,,,,,,,,,,,,,,,,,,,,,,,671.412702,None,left,1,2.3538653,671.9141734,674.367537,671.9141734,673.8667437,671.9141734,673.8667437,671.9141734,673.8667437,671.9141734,673.8667437,671.9141734,673.8667437,673.8329924,674.3346448,673.8329924,674.3346448,673.8329924,674.3346448,673.8329924,674.3346448,673.8329924,674.3346448,673.8329924,674.3346448,673.8329924,674.3346448,673.8329924,674.3346448,671.9141734,None,674.3346448,674.7509875,1.94,674.7678155,None,675.5189318,None,,,,,,,[0.40504065],1.78,0.756097561,11035,2,2024_Mar_11_1426,MFTM_A_new1021,2021.2.3,60.04455309
,,,,,,,,stim/Instruction_adaptive.png,conditions/adaptive.xlsx,test,-0.6,-0.6,-0.6,0.6,0.6,left,L,,,,,0,1,1,1,1,23,123,21,,,,,,,,,,,,,,,,,,,,,,,,,,,,,,,,,,,,,,,,,,,,676.0198847,None,right,0,2.1377462,676.521171,678.940735,676.521171,678.4569077,676.521171,678.4569077,676.521171,678.4569077,676.521171,678.4569077,676.521171,678.4569077,678.4234492,678.9240071,678.4234492,678.9240071,678.4234492,678.9240071,678.4234492,678.9240071,678.4234492,678.9240071,678.4234492,678.9240071,678.4234492,678.9240071,678.4234492,678.9240071,676.521171,None,678.9240071,679.3425812,1.92,679.3576529,None,680.1095464,None,,,,,,,[0.40645161],1.73,0.75,11035,2,2024_Mar_11_1426,MFTM_A_new1021,2021.2.3,60.04455309
,,,,,,,,stim/Instruction_adaptive.png,conditions/adaptive.xlsx,test,-0.6,-0.6,-0.6,0.6,0.6,left,L,,,,,0,1,1,1,1,24,124,93,,,,,,,,,,,,,,,,,,,,,,,,,,,,,,,,,,,,,,,,,,,,680.611273,None,left,1,1.4435914,681.111465,683.5980604,681.111465,683.0978926,681.111465,683.0978926,681.111465,683.0978926,681.111465,683.0978926,681.111465,683.0978926,683.081155,683.5817325,683.081155,683.5817325,683.081155,683.5817325,683.081155,683.5817325,683.081155,683.5817325,683.081155,683.5817325,683.081155,683.5817325,683.081155,683.5817325,681.111465,None,683.5817325,None,1.98,683.9984893,None,684.7505001,None,,,,,,,[0.40736],1.74,0.752,11035,2,2024_Mar_11_1426,MFTM_A_new1021,2021.2.3,60.04455309
,,,,,,,,stim/Instruction_adaptive.png,conditions/adaptive.xlsx,test,0.6,0.6,0.6,-0.6,-0.6,right,R,,,,,0,1,1,1,1,25,125,22,,,,,,,,,,,,,,,,,,,,,,,,,,,,,,,,,,,,,,,,,,,,685.2504109,None,right,1,1.1078367,685.7513975,688.2221689,685.7513975,687.7205942,685.7513975,687.7205942,685.7513975,687.7205942,685.7513975,687.7205942,685.7513975,687.7205942,687.704064,688.2056652,687.704064,688.2056652,687.704064,688.2056652,687.704064,688.2056652,687.704064,688.2056652,687.704064,688.2056652,687.704064,688.2056652,687.704064,688.2056652,685.7513975,None,688.2056652,688.6219948,1.97,688.638685,None,689.3897106,None,,,,,,,[0.40833333],1.76,0.753968254,11035,2,2024_Mar_11_1426,MFTM_A_new1021,2021.2.3,60.04455309
,,,,,,,,stim/Instruction_adaptive.png,conditions/adaptive.xlsx,test,0.6,0.6,0.6,-0.6,-0.6,right,R,,,,,0,1,1,1,1,26,126,6,,,,,,,,,,,,,,,,,,,,,,,,,,,,,,,,,,,,,,,,,,,,689.8907902,None,right,1,1.7640063,690.3914816,692.8469763,690.3914816,692.3446486,690.3914816,692.3446486,690.3914816,692.3446486,690.3914816,692.3446486,690.3914816,692.3446486,692.3118742,692.8128615,692.3118742,692.8128615,692.3118742,692.8128615,692.3118742,692.8128615,692.3118742,692.8128615,692.3118742,692.8128615,692.3118742,692.8128615,692.3118742,692.8128615,690.3914816,None,692.8128615,693.2290434,1.94,693.2459182,None,693.9972025,None,,,,,,,[0.40952756],1.78,0.755905512,11035,2,2024_Mar_11_1426,MFTM_A_new1021,2021.2.3,60.04455309
,,,,,,,,stim/Instruction_adaptive.png,conditions/adaptive.xlsx,test,-0.6,-0.6,-0.6,0.6,0.6,left,L,,,,,0,1,1,1,1,27,127,7,,,,,,,,,,,,,,,,,,,,,,,,,,,,,,,,,,,,,,,,,,,,694.4984622,None,left,1,1.3643511,694.9990258,697.419282,694.9990258,696.9355345,694.9990258,696.9355345,694.9990258,696.9355345,694.9990258,696.9355345,694.9990258,696.9355345,696.9012818,697.4028391,696.9012818,697.4028391,696.9012818,697.4028391,696.9012818,697.4028391,696.9012818,697.4028391,696.9012818,697.4028391,696.9012818,697.4028391,696.9012818,697.4028391,694.9990258,None,697.4028391,697.8195229,1.92,697.835838,None,698.5879658,None,,,,,,,[0.41085937],1.79,0.7578125,11035,2,2024_Mar_11_1426,MFTM_A_new1021,2021.2.3,60.04455309
,,,,,,,,stim/Instruction_adaptive.png,conditions/adaptive.xlsx,test,-0.6,-0.6,-0.6,0.6,0.6,left,L,,,,,0,1,1,1,1,28,128,37,,,,,,,,,,,,,,,,,,,,,,,,,,,,,,,,,,,,,,,,,,,,699.0888175,None,left,1,1.87939,699.5886715,701.9932786,699.5886715,701.4914573,699.5886715,701.4914573,699.5886715,701.4914573,699.5886715,701.4914573,699.5886715,701.4914573,701.4747892,701.9756329,701.4747892,701.9756329,701.4747892,701.9756329,701.4747892,701.9756329,701.4747892,701.9756329,701.4747892,701.9756329,701.4747892,701.9756329,701.4747892,701.9756329,699.5886715,None,701.9756329,702.3927253,1.9,702.4095334,None,703.1616503,None,,,,,,,[0.41232558],1.81,0.759689922,11035,2,2024_Mar_11_1426,MFTM_A_new1021,2021.2.3,60.04455309
,,,,,,,,stim/Instruction_adaptive.png,conditions/adaptive.xlsx,test,0.6,0.6,0.6,-0.6,-0.6,right,R,,,,,0,1,1,1,1,29,129,4,,,,,,,,,,,,,,,,,,,,,,,,,,,,,,,,,,,,,,,,,,,,703.661746,None,right,1,2.0422125,704.1621251,706.5492846,704.1621251,706.0491534,704.1621251,706.0491534,704.1621251,706.0491534,704.1621251,706.0491534,704.1621251,706.0491534,706.0326026,706.5323289,706.0326026,706.5323289,706.0326026,706.5323289,706.0326026,706.5323289,706.0326026,706.5323289,706.0326026,706.5323289,706.0326026,706.5323289,706.0326026,706.5323289,704.1621251,None,706.5323289,706.9503063,1.88,706.96638,None,707.7175287,None,,,,,,,[0.41392308],1.82,0.761538462,11035,2,2024_Mar_11_1426,MFTM_A_new1021,2021.2.3,60.04455309
,,,,,,,,stim/Instruction_adaptive.png,conditions/adaptive.xlsx,test,0.6,0.6,0.6,-0.6,-0.6,right,R,,,,,0,1,1,1,1,30,130,30,,,,,,,,,,,,,,,,,,,,,,,,,,,,,,,,,,,,,,,,,,,,708.2190125,None,right,1,1.6601147,708.7198225,711.0893052,708.7198225,710.5892794,708.7198225,710.5892794,708.7198225,710.5892794,708.7198225,710.5892794,708.7198225,710.5892794,710.5555984,711.0560847,710.5555984,711.0560847,710.5555984,711.0560847,710.5555984,711.0560847,710.5555984,711.0560847,710.5555984,711.0560847,710.5555984,711.0560847,710.5555984,711.0560847,708.7198225,None,711.0560847,711.4740891,1.86,711.506755,None,712.258473,None,,,,,,,[0.41564885],1.83,0.763358779,11035,2,2024_Mar_11_1426,MFTM_A_new1021,2021.2.3,60.04455309
,,,,,,,,stim/Instruction_adaptive.png,conditions/adaptive.xlsx,test,-0.6,-0.6,-0.6,0.6,0.6,left,L,,,,,0,1,1,1,1,31,131,25,,,,,,,,,,,,,,,,,,,,,,,,,,,,,,,,,,,,,,,,,,,,712.7585981,None,left,1,1.1852038,713.2593892,715.6130574,713.2593892,715.1122397,713.2593892,715.1122397,713.2593892,715.1122397,713.2593892,715.1122397,713.2593892,715.1122397,715.0953585,715.5970152,715.0953585,715.5970152,715.0953585,715.5970152,715.0953585,715.5970152,715.0953585,715.5970152,715.0953585,715.5970152,715.0953585,715.5970152,715.0953585,715.5970152,713.2593892,None,715.5970152,716.0140346,1.85,716.0307865,None,716.782129,None,,,,,,,[0.41742424],1.85,0.765151515,11035,2,2024_Mar_11_1426,MFTM_A_new1021,2021.2.3,60.04455309
,,,,,,,,stim/Instruction_adaptive.png,conditions/adaptive.xlsx,test,-0.6,-0.6,-0.6,0.6,0.6,left,L,,,,,0,1,1,1,1,32,132,71,,,,,,,,,,,,,,,,,,,,,,,,,,,,,,,,,,,,,,,,,,,,717.2820872,None,left,1,1.1959205,717.7841216,720.1029114,717.7841216,719.6188323,717.7841216,719.6188323,717.7841216,719.6188323,717.7841216,719.6188323,717.7841216,719.6188323,719.5855494,720.0864953,719.5855494,720.0864953,719.5855494,720.0864953,719.5855494,720.0864953,719.5855494,720.0864953,719.5855494,720.0864953,719.5855494,720.0864953,719.5855494,720.0864953,717.7841216,None,720.0864953,720.5203082,1.82,720.5375218,None,721.2889843,None,,,,,,,[0.4193985],1.86,0.766917293,11035,2,2024_Mar_11_1426,MFTM_A_new1021,2021.2.3,60.04455309
