arrwidth1,arrwidth2,arrwidth3,arrwidth4,arrwidth5,keyb,type,orientation,instruction_image,block_filename,block_type,arrow11,arrow22,arrow33,arrow44,arrow55,keyb_3,orientation3,trials.thisRepN,trials.thisTrialN,trials.thisN,trials.thisIndex,trials_3.thisRepN,trials_3.thisTrialN,trials_3.thisN,trials_3.thisIndex,trials_2.thisRepN,trials_2.thisTrialN,trials_2.thisN,trials_2.thisIndex,welcome.started,welcome.stopped,key_resp.keys,key_resp.rt,key_resp.started,key_resp.stopped,instruction_example.started,instruction_example.stopped,key_resp_3.keys,key_resp_3.rt,key_resp_3.started,key_resp_3.stopped,instruction_task.started,instruction_task.stopped,key_resp_2.keys,key_resp_2.rt,key_resp_2.started,key_resp_2.stopped,text_2.started,text_2.stopped,A1.started,A1.stopped,A2.started,A2.stopped,A3.started,A3.stopped,A4.started,A4.stopped,A5.started,A5.stopped,key_resp_4.keys,key_resp_4.corr,key_resp_4.rt,key_resp_4.started,key_resp_4.stopped,fb.started,fb.stopped,instruction_block.started,instruction_block.stopped,key_resp_8.keys,key_resp_8.rt,key_resp_8.started,key_resp_8.stopped,text_8.started,text_8.stopped,key_resp_9.keys,key_resp_9.corr,key_resp_9.rt,text_5.started,text_5.stopped,A11_3.started,A11_3.stopped,A22_2.started,A22_2.stopped,A33_2.started,A33_2.stopped,A44_2.started,A44_2.stopped,A55_2.started,A55_2.stopped,M1_3.started,M1_3.stopped,M2_2.started,M2_2.stopped,M3_2.started,M3_2.stopped,M4_2.started,M4_2.stopped,M5_2.started,M5_2.stopped,M6_2.started,M6_2.stopped,M7_2.started,M7_2.stopped,M8_2.started,M8_2.stopped,key_resp_9.started,key_resp_9.stopped,fixation.started,fixation.stopped,ET,fb_3.started,fb_3.stopped,text_9.started,text_9.stopped,fb_4.started,fb_4.stopped,text_7.started,text_7.stopped,endtext.started,endtext.stopped,fixation_ITI,CCC,Acc,participant,session,date,expName,psychopyVersion,frameRate,
,,,,,,,,,,,,,,,,,,,,,,,,,,,,,,18.155855200020596,None,space,2.487037600018084,18.155855200020596,None,,,,,,,,,,,,,,,,,,,,,,,,,,,,,,,,,,,,,,,,,,,,,,,,,,,,,,,,,,,,,,,,,,,,,,,,,,,,,,,,,,,,,,,,,11032,001,2024_Jan_11_1535,MFTM_A_new1021,2021.2.3,59.60139772073111,
,,,,,,,,,,,,,,,,,,,,,,,,,,,,,,,,,,,,20.659442899981514,None,space,11.88695459999144,20.659442899981514,None,,,,,,,,,,,,,,,,,,,,,,,,,,,,,,,,,,,,,,,,,,,,,,,,,,,,,,,,,,,,,,,,,,,,,,,,,,,,,,,,,,,11032,001,2024_Jan_11_1535,MFTM_A_new1021,2021.2.3,59.60139772073111,
,,,,,,,,,,,,,,,,,,,,,,,,,,,,,,,,,,,,,,,,,,32.57706620008685,None,space,13.641480799997225,32.57706620008685,None,,,,,,,,,,,,,,,,,,,,,,,,,,,,,,,,,,,,,,,,,,,,,,,,,,,,,,,,,,,,,,,,,,,,,,,,,,,,,11032,001,2024_Jan_11_1535,MFTM_A_new1021,2021.2.3,59.60139772073111,
0.6,0.6,0.6,-0.6,-0.6,right,3:2,R,,,,,,,,,,,0,0,0,0,,,,,,,,,,,,,,,,,,,,,,,,,,,46.26442619995214,None,46.26442619995214,None,46.26442619995214,None,46.26442619995214,None,46.26442619995214,None,46.26442619995214,None,right,1,8.314064499922097,46.26442619995214,None,54.610150600085035,None,,,,,,,,,,,,,,,,,,,,,,,,,,,,,,,,,,,,,,,,,,,,,,,,,,,,,,,,,,11032,001,2024_Jan_11_1535,MFTM_A_new1021,2021.2.3,59.60139772073111,
-0.6,-0.6,-0.6,0.6,0.6,left,3:2,L,,,,,,,,,,,0,1,1,1,,,,,,,,,,,,,,,,,,,,,,,,,,,55.361276800045744,None,55.361276800045744,None,55.361276800045744,None,55.361276800045744,None,55.361276800045744,None,55.361276800045744,None,left,1,6.106379699893296,55.361276800045744,None,61.48689349996857,None,,,,,,,,,,,,,,,,,,,,,,,,,,,,,,,,,,,,,,,,,,,,,,,,,,,,,,,,,,11032,001,2024_Jan_11_1535,MFTM_A_new1021,2021.2.3,59.60139772073111,
-0.6,-0.6,-0.6,0.6,0.6,left,3:2,L,,,,,,,,,,,1,0,2,1,,,,,,,,,,,,,,,,,,,,,,,,,,,62.237962200073525,None,62.237962200073525,None,62.237962200073525,None,62.237962200073525,None,62.237962200073525,None,62.237962200073525,None,left,1,3.6525391000322998,62.237962200073525,None,65.90979769988917,None,,,,,,,,,,,,,,,,,,,,,,,,,,,,,,,,,,,,,,,,,,,,,,,,,,,,,,,,,,11032,001,2024_Jan_11_1535,MFTM_A_new1021,2021.2.3,59.60139772073111,
0.6,0.6,0.6,-0.6,-0.6,right,3:2,R,,,,,,,,,,,1,1,3,0,,,,,,,,,,,,,,,,,,,,,,,,,,,66.66176909999922,None,66.66176909999922,None,66.66176909999922,None,66.66176909999922,None,66.66176909999922,None,66.66176909999922,None,right,1,2.580700300168246,66.66176909999922,None,69.26493790000677,None,,,,,,,,,,,,,,,,,,,,,,,,,,,,,,,,,,,,,,,,,,,,,,,,,,,,,,,,,,11032,001,2024_Jan_11_1535,MFTM_A_new1021,2021.2.3,59.60139772073111,
,,,,,,,,stim/Instruction_mask.png,conditions/adaptive.xlsx,practice,0.6,0.6,0.6,-0.6,-0.6,right,R,,,,,0,0,0,0,0,0,0,44,,,,,,,,,,,,,,,,,,,,,,,,,,,,,,,,,,,,,,70.29955650004558,None,space,30.926971500040963,70.29955650004558,None,101.3296197000891,None,right,1,2.4867401998490095,101.76383369998075,None,101.76383369998075,104.76846030005254,101.76383369998075,104.76846030005254,101.76383369998075,104.76846030005254,101.76383369998075,104.76846030005254,101.76383369998075,104.76846030005254,104.75092729995959,105.25274210004136,104.75092729995959,105.25274210004136,104.75092729995959,105.25274210004136,104.75092729995959,105.25274210004136,104.75092729995959,105.25274210004136,104.75092729995959,105.25274210004136,104.75092729995959,105.25274210004136,104.75092729995959,105.25274210004136,101.76383369998075,None,105.25274210004136,105.25274210004136,3,105.26863129995763,None,106.02034380007535,None,,,,,,,,,,11032,001,2024_Jan_11_1535,MFTM_A_new1021,2021.2.3,59.60139772073111,
,,,,,,,,stim/Instruction_mask.png,conditions/adaptive.xlsx,practice,-0.6,-0.6,-0.6,0.6,0.6,left,L,,,,,0,0,0,0,0,1,1,13,,,,,,,,,,,,,,,,,,,,,,,,,,,,,,,,,,,,,,,,,,,,106.52038330002688,None,right,0,2.4618693001102656,107.02082609990612,109.02422060002573,107.02082609990612,108.52303380006924,107.02082609990612,108.52303380006924,107.02082609990612,108.52303380006924,107.02082609990612,108.52303380006924,107.02082609990612,108.52303380006924,108.50643249996938,109.00732739991508,108.50643249996938,109.00732739991508,108.50643249996938,109.00732739991508,108.50643249996938,109.00732739991508,108.50643249996938,109.00732739991508,108.50643249996938,109.00732739991508,108.50643249996938,109.00732739991508,108.50643249996938,109.00732739991508,107.02082609990612,None,109.00732739991508,110.50929039996117,1.5,110.52641290007159,None,111.27802450000308,None,,,,,,,,,,11032,001,2024_Jan_11_1535,MFTM_A_new1021,2021.2.3,59.60139772073111,
,,,,,,,,stim/Instruction_mask.png,conditions/adaptive.xlsx,practice,-0.6,-0.6,-0.6,0.6,0.6,left,L,,,,,0,0,0,0,0,2,2,29,,,,,,,,,,,,,,,,,,,,,,,,,,,,,,,,,,,,,,,,,,,,111.7782127999235,None,left,1,2.269362499937415,112.27854209998623,113.58179929992184,112.27854209998623,113.08016079990193,112.27854209998623,113.08016079990193,112.27854209998623,113.08016079990193,112.27854209998623,113.08016079990193,112.27854209998623,113.08016079990193,113.06305080000311,113.56517409998924,113.06305080000311,113.56517409998924,113.06305080000311,113.56517409998924,113.06305080000311,113.56517409998924,113.06305080000311,113.56517409998924,113.06305080000311,113.56517409998924,113.06305080000311,113.56517409998924,113.06305080000311,113.56517409998924,112.27854209998623,None,113.56517409998924,115.76724330009893,0.8,115.78453549998812,None,116.53508520009927,None,,,,,,,,,,11032,001,2024_Jan_11_1535,MFTM_A_new1021,2021.2.3,59.60139772073111,
,,,,,,,,stim/Instruction_mask.png,conditions/adaptive.xlsx,practice,0.6,0.6,0.6,-0.6,-0.6,right,R,,,,,0,0,0,0,0,3,3,52,,,,,,,,,,,,,,,,,,,,,,,,,,,,,,,,,,,,,,,,,,,,117.03640069998801,None,right,1,1.5620370001997799,117.53654180001467,118.28769279993139,117.53654180001467,117.78768750000745,117.53654180001467,117.78768750000745,117.53654180001467,117.78768750000745,117.53654180001467,117.78768750000745,117.53654180001467,117.78768750000745,117.77121130004525,118.27106079994701,117.77121130004525,118.27106079994701,117.77121130004525,118.27106079994701,117.77121130004525,118.27106079994701,117.77121130004525,118.27106079994701,117.77121130004525,118.27106079994701,117.77121130004525,118.27106079994701,117.77121130004525,118.27106079994701,117.53654180001467,None,118.27106079994701,121.02586739999242,3,121.04264979995787,None,121.79295559995808,None,,,,,,,,,,11032,001,2024_Jan_11_1535,MFTM_A_new1021,2021.2.3,59.60139772073111,
,,,,,,,,stim/Instruction_mask.png,conditions/adaptive.xlsx,practice,,,,,,,,,,,,0,0,0,0,,,,,,,,,,,,,,,,,,,,,,,,,,,,,,,,,,,,,,,,,,,,,,,,,,,,,,,,,,,,,,,,,,,,,,,,,,,,,,,,,,,,,,,,,,122.31079700007103,123.31283210008405,123.27836519991979,123.27836519991979,123.27836519991979,None,,,,11032,001,2024_Jan_11_1535,MFTM_A_new1021,2021.2.3,59.60139772073111,
,,,,,,,,stim/Instruction_adaptive.png,conditions/adaptive.xlsx,test,-0.6,-0.6,-0.6,0.6,0.6,left,L,,,,,0,1,1,1,0,0,0,57,,,,,,,,,,,,,,,,,,,,,,,,,,,,,,,,,,,,,,126.48290090006776,None,space,8.487696599913761,126.48290090006776,None,135.011882300023,None,left,1,2.625521499896422,135.51320579997264,None,135.51320579997264,138.51756200008094,135.51320579997264,138.51756200008094,135.51320579997264,138.51756200008094,135.51320579997264,138.51756200008094,135.51320579997264,138.51756200008094,138.50195150007494,139.00285460008308,138.50195150007494,139.00285460008308,138.50195150007494,139.00285460008308,138.50195150007494,139.00285460008308,138.50195150007494,139.00285460008308,138.50195150007494,139.00285460008308,138.50195150007494,139.00285460008308,138.50195150007494,139.00285460008308,135.51320579997264,None,139.00285460008308,139.00285460008308,3,139.01831849990413,None,139.769540600013,None,,,,,,,0,6.000000000000005,1.0,11032,001,2024_Jan_11_1535,MFTM_A_new1021,2021.2.3,59.60139772073111,
,,,,,,,,stim/Instruction_adaptive.png,conditions/adaptive.xlsx,test,0.6,0.6,0.6,-0.6,-0.6,right,R,,,,,0,1,1,1,0,1,1,20,,,,,,,,,,,,,,,,,,,,,,,,,,,,,,,,,,,,,,,,,,,,140.2702619000338,None,right,1,2.143645599950105,140.77090910007246,141.52255690004677,140.77090910007246,141.02128720004112,140.77090910007246,141.02128720004112,140.77090910007246,141.02128720004112,140.77090910007246,141.02128720004112,140.77090910007246,141.02128720004112,141.00448430003598,141.5056876000017,141.00448430003598,141.5056876000017,141.00448430003598,141.5056876000017,141.00448430003598,141.5056876000017,141.00448430003598,141.5056876000017,141.00448430003598,141.5056876000017,141.00448430003598,141.5056876000017,141.00448430003598,141.5056876000017,140.77090910007246,None,141.5056876000017,142.9413858000189,0.25,142.95745670003816,None,143.70987639995292,None,,,,,,,[0.875],6.000000000000005,1.0,11032,001,2024_Jan_11_1535,MFTM_A_new1021,2021.2.3,59.60139772073111,
,,,,,,,,stim/Instruction_adaptive.png,conditions/adaptive.xlsx,test,0.6,0.6,0.6,-0.6,-0.6,right,R,,,,,0,1,1,1,0,2,2,60,,,,,,,,,,,,,,,,,,,,,,,,,,,,,,,,,,,,,,,,,,,,144.20931249996647,None,right,1,3.0534276000689715,144.70993299991824,145.46211299998686,144.70993299991824,144.96031600004062,144.70993299991824,144.96031600004062,144.70993299991824,144.96031600004062,144.70993299991824,144.96031600004062,144.70993299991824,144.96031600004062,144.9439268000424,145.4444446999114,144.9439268000424,145.4444446999114,144.9439268000424,145.4444446999114,144.9439268000424,145.4444446999114,144.9439268000424,145.4444446999114,144.9439268000424,145.4444446999114,144.9439268000424,145.4444446999114,144.9439268000424,145.4444446999114,144.70993299991824,None,145.4444446999114,147.78176190005615,0.25,147.79818350006826,None,148.54891670006327,None,,,,,,,[1.33333333],6.000000000000005,1.0,11032,001,2024_Jan_11_1535,MFTM_A_new1021,2021.2.3,59.60139772073111,
,,,,,,,,stim/Instruction_adaptive.png,conditions/adaptive.xlsx,test,-0.6,-0.6,-0.6,0.6,0.6,left,L,,,,,0,1,1,1,0,3,3,75,,,,,,,,,,,,,,,,,,,,,,,,,,,,,,,,,,,,,,,,,,,,149.04989219992422,None,None,0,0,149.55105910007842,150.3016232000664,149.55105910007842,149.80164840002544,149.55105910007842,149.80164840002544,149.55105910007842,149.80164840002544,149.55105910007842,149.80164840002544,149.55105910007842,149.80164840002544,149.78497399995103,150.28520640009083,149.78497399995103,150.28520640009083,149.78497399995103,150.28520640009083,149.78497399995103,150.28520640009083,149.78497399995103,150.28520640009083,149.78497399995103,150.28520640009083,149.78497399995103,150.28520640009083,149.78497399995103,150.28520640009083,149.55105910007842,None,150.28520640009083,153.03922539995983,0.25,153.05548290000297,None,153.8077608998865,None,,,,,,,[[2.75]],4.030000000000003,0.75,11032,001,2024_Jan_11_1535,MFTM_A_new1021,2021.2.3,59.60139772073111,
,,,,,,,,stim/Instruction_adaptive.png,conditions/adaptive.xlsx,test,0.6,0.6,0.6,-0.6,-0.6,right,R,,,,,0,1,1,1,0,4,4,24,,,,,,,,,,,,,,,,,,,,,,,,,,,,,,,,,,,,,,,,,,,,154.30870119994506,None,right,1,1.7064938000403345,154.8082099999301,155.71036790008657,154.8082099999301,155.20895650004968,154.8082099999301,155.20895650004968,154.8082099999301,155.20895650004968,154.8082099999301,155.20895650004968,154.8082099999301,155.20895650004968,155.19223119993694,155.69374140002765,155.19223119993694,155.69374140002765,155.19223119993694,155.69374140002765,155.19223119993694,155.69374140002765,155.19223119993694,155.69374140002765,155.19223119993694,155.69374140002765,155.19223119993694,155.69374140002765,155.19223119993694,155.69374140002765,154.8082099999301,None,155.69374140002765,None,0.40000000000000013,157.37854310008697,None,158.13038109987974,None,,,,,,,[1.67],4.700000000000004,0.8,11032,001,2024_Jan_11_1535,MFTM_A_new1021,2021.2.3,59.60139772073111,
,,,,,,,,stim/Instruction_adaptive.png,conditions/adaptive.xlsx,test,-0.6,-0.6,-0.6,0.6,0.6,left,L,,,,,0,1,1,1,0,5,5,19,,,,,,,,,,,,,,,,,,,,,,,,,,,,,,,,,,,,,,,,,,,,158.63144499994814,None,right,0,1.9347449999768287,159.13196090003476,159.88316780002788,159.13196090003476,159.38155660009943,159.13196090003476,159.38155660009943,159.13196090003476,159.38155660009943,159.13196090003476,159.38155660009943,159.13196090003476,159.38155660009943,159.36582769989036,159.8661909000948,159.36582769989036,159.8661909000948,159.36582769989036,159.8661909000948,159.36582769989036,159.8661909000948,159.36582769989036,159.8661909000948,159.36582769989036,159.8661909000948,159.36582769989036,159.8661909000948,159.36582769989036,159.8661909000948,159.13196090003476,None,159.8661909000948,161.63571699988097,0.25,161.65160389989614,None,162.40294739999808,None,,,,,,,[1.76666667],3.5600000000000027,0.6666666666666666,11032,001,2024_Jan_11_1535,MFTM_A_new1021,2021.2.3,59.60139772073111,
,,,,,,,,stim/Instruction_adaptive.png,conditions/adaptive.xlsx,test,0.6,0.6,0.6,-0.6,-0.6,right,R,,,,,0,1,1,1,0,6,6,48,,,,,,,,,,,,,,,,,,,,,,,,,,,,,,,,,,,,,,,,,,,,162.9035604998935,None,left,0,2.0062543998938054,163.40449290000834,164.47344080009498,163.40449290000834,163.97190920007415,163.40449290000834,163.97190920007415,163.40449290000834,163.97190920007415,163.40449290000834,163.97190920007415,163.40449290000834,163.97190920007415,163.9552609999664,164.4572318000719,163.9552609999664,164.4572318000719,163.9552609999664,164.4572318000719,163.9552609999664,164.4572318000719,163.9552609999664,164.4572318000719,163.9552609999664,164.4572318000719,163.9552609999664,164.4572318000719,163.9552609999664,164.4572318000719,163.40449290000834,None,164.4572318000719,None,0.5600000000000003,166.25917179998942,None,167.01037240005098,None,,,,,,,[1.79142857],2.2300000000000013,0.5714285714285714,11032,001,2024_Jan_11_1535,MFTM_A_new1021,2021.2.3,59.60139772073111,
,,,,,,,,stim/Instruction_adaptive.png,conditions/adaptive.xlsx,test,-0.6,-0.6,-0.6,0.6,0.6,left,L,,,,,0,1,1,1,0,7,7,73,,,,,,,,,,,,,,,,,,,,,,,,,,,,,,,,,,,,,,,,,,,,167.51041690004058,None,left,1,3.288418399868533,168.0109977000393,169.91459350008518,168.0109977000393,169.41381879989058,168.0109977000393,169.41381879989058,168.0109977000393,169.41381879989058,168.0109977000393,169.41381879989058,168.0109977000393,169.41381879989058,169.39703339990228,169.89722619997337,169.39703339990228,169.89722619997337,169.39703339990228,169.89722619997337,169.39703339990228,169.89722619997337,169.39703339990228,169.89722619997337,169.39703339990228,169.89722619997337,169.39703339990228,169.89722619997337,169.39703339990228,169.89722619997337,168.0109977000393,None,169.89722619997337,171.31585350004025,1.400000000000001,171.33263309998438,None,172.08511250000447,None,,,,,,,[[1.1]],2.820000000000002,0.625,11032,001,2024_Jan_11_1535,MFTM_A_new1021,2021.2.3,59.60139772073111,
,,,,,,,,stim/Instruction_adaptive.png,conditions/adaptive.xlsx,test,0.6,0.6,0.6,-0.6,-0.6,right,R,,,,,0,1,1,1,0,8,8,72,,,,,,,,,,,,,,,,,,,,,,,,,,,,,,,,,,,,,,,,,,,,172.58483910001814,None,left,0,2.253835199866444,173.0853728998918,174.52089769998565,173.0853728998918,174.0201596999541,173.0853728998918,174.0201596999541,173.0853728998918,174.0201596999541,173.0853728998918,174.0201596999541,173.0853728998918,174.0201596999541,174.00356379989535,174.50408919993788,174.00356379989535,174.50408919993788,174.00356379989535,174.50408919993788,174.00356379989535,174.50408919993788,174.00356379989535,174.50408919993788,174.00356379989535,174.50408919993788,174.00356379989535,174.50408919993788,174.00356379989535,174.50408919993788,173.0853728998918,None,174.50408919993788,176.07372030010447,0.9300000000000006,176.08962119999342,None,176.8411248999182,None,,,,,,,[[1.57]],1.730000000000001,0.5555555555555556,11032,001,2024_Jan_11_1535,MFTM_A_new1021,2021.2.3,59.60139772073111,
,,,,,,,,stim/Instruction_adaptive.png,conditions/adaptive.xlsx,test,0.6,0.6,0.6,-0.6,-0.6,right,R,,,,,0,1,1,1,0,9,9,96,,,,,,,,,,,,,,,,,,,,,,,,,,,,,,,,,,,,,,,,,,,,177.3417551999446,None,right,1,1.7283288999460638,177.84242559992708,180.32960879988968,177.84242559992708,179.82913500000723,177.84242559992708,179.82913500000723,177.84242559992708,179.82913500000723,177.84242559992708,179.82913500000723,177.84242559992708,179.82913500000723,179.79520760010928,180.29619230004027,179.79520760010928,180.29619230004027,179.79520760010928,180.29619230004027,179.79520760010928,180.29619230004027,179.79520760010928,180.29619230004027,179.79520760010928,180.29619230004027,179.79520760010928,180.29619230004027,179.79520760010928,180.29619230004027,177.84242559992708,None,180.29619230004027,180.83021309995092,1.9800000000000015,180.84705030010082,None,181.59810340008698,None,,,,,,,[[0.52]],2.2300000000000013,0.6,11032,001,2024_Jan_11_1535,MFTM_A_new1021,2021.2.3,59.60139772073111,
,,,,,,,,stim/Instruction_adaptive.png,conditions/adaptive.xlsx,test,0.6,0.6,0.6,-0.6,-0.6,right,R,,,,,0,1,1,1,0,10,10,66,,,,,,,,,,,,,,,,,,,,,,,,,,,,,,,,,,,,,,,,,,,,182.09876039996743,None,left,0,3.346851499984041,182.5997893998865,184.5026577000972,182.5997893998865,184.00260860007256,182.5997893998865,184.00260860007256,182.5997893998865,184.00260860007256,182.5997893998865,184.00260860007256,182.5997893998865,184.00260860007256,183.9851973000914,184.48597920010798,183.9851973000914,184.48597920010798,183.9851973000914,184.48597920010798,183.9851973000914,184.48597920010798,183.9851973000914,184.48597920010798,183.9851973000914,184.48597920010798,183.9851973000914,184.48597920010798,183.9851973000914,184.48597920010798,182.5997893998865,None,184.48597920010798,185.9721939000301,1.400000000000001,185.9878448001109,None,186.73887560004368,None,,,,,,,[[1.1]],1.2000000000000006,0.5454545454545454,11032,001,2024_Jan_11_1535,MFTM_A_new1021,2021.2.3,59.60139772073111,
,,,,,,,,stim/Instruction_adaptive.png,conditions/adaptive.xlsx,test,0.6,0.6,0.6,-0.6,-0.6,right,R,,,,,0,1,1,1,0,11,11,44,,,,,,,,,,,,,,,,,,,,,,,,,,,,,,,,,,,,,,,,,,,,187.2405332000926,None,right,1,2.2614275000523776,187.741195499897,None,187.741195499897,190.61244260007516,187.741195499897,190.61244260007516,187.741195499897,190.61244260007516,187.741195499897,190.61244260007516,187.741195499897,190.61244260007516,190.57846540003084,191.07874249992892,190.57846540003084,191.07874249992892,190.57846540003084,191.07874249992892,190.57846540003084,191.07874249992892,190.57846540003084,191.07874249992892,190.57846540003084,191.07874249992892,190.57846540003084,191.07874249992892,190.57846540003084,191.07874249992892,187.741195499897,None,191.07874249992892,191.07874249992892,2.860000000000002,191.11209519999102,None,191.86478119995445,None,,,,,,,0,1.680000000000001,0.5833333333333334,11032,001,2024_Jan_11_1535,MFTM_A_new1021,2021.2.3,59.60139772073111,
,,,,,,,,stim/Instruction_adaptive.png,conditions/adaptive.xlsx,test,-0.6,-0.6,-0.6,0.6,0.6,left,L,,,,,0,1,1,1,0,12,12,17,,,,,,,,,,,,,,,,,,,,,,,,,,,,,,,,,,,,,,,,,,,,192.365345899947,None,left,1,3.361298100091517,192.86537109990604,195.41867580008693,192.86537109990604,194.91856699995697,192.86537109990604,194.91856699995697,192.86537109990604,194.91856699995697,192.86537109990604,194.91856699995697,192.86537109990604,194.91856699995697,194.9011015999131,195.40294699999504,194.9011015999131,195.40294699999504,194.9011015999131,195.40294699999504,194.9011015999131,195.40294699999504,194.9011015999131,195.40294699999504,194.9011015999131,195.40294699999504,194.9011015999131,195.40294699999504,194.9011015999131,195.40294699999504,192.86537109990604,None,195.40294699999504,196.25297060003504,2.0500000000000016,196.26975279999897,None,197.0219839999918,None,,,,,,,[[0.45]],1.9700000000000013,0.6153846153846154,11032,001,2024_Jan_11_1535,MFTM_A_new1021,2021.2.3,59.60139772073111,
,,,,,,,,stim/Instruction_adaptive.png,conditions/adaptive.xlsx,test,0.6,0.6,0.6,-0.6,-0.6,right,R,,,,,0,1,1,1,0,13,13,34,,,,,,,,,,,,,,,,,,,,,,,,,,,,,,,,,,,,,,,,,,,,197.52172129997052,None,right,1,2.9957731999456882,198.02301950007677,200.20963390008546,198.02301950007677,199.70894489996135,198.02301950007677,199.70894489996135,198.02301950007677,199.70894489996135,198.02301950007677,199.70894489996135,198.02301950007677,199.70894489996135,199.69161359989084,200.19288969994523,199.69161359989084,200.19288969994523,199.69161359989084,200.19288969994523,199.69161359989084,200.19288969994523,199.69161359989084,200.19288969994523,199.69161359989084,200.19288969994523,199.69161359989084,200.19288969994523,199.69161359989084,200.19288969994523,198.02301950007677,None,200.17559039988555,201.04424499999732,1.6800000000000013,201.0612131000962,None,201.81263409997337,None,,,,,,,[[0.82]],2.1900000000000013,0.6428571428571429,11032,001,2024_Jan_11_1535,MFTM_A_new1021,2021.2.3,59.60139772073111,
,,,,,,,,stim/Instruction_adaptive.png,conditions/adaptive.xlsx,test,-0.6,-0.6,-0.6,0.6,0.6,left,L,,,,,0,1,1,1,0,14,14,55,,,,,,,,,,,,,,,,,,,,,,,,,,,,,,,,,,,,,,,,,,,,202.31266100006178,None,left,1,1.846045499900356,202.81280529987998,204.76575169991702,202.81280529987998,204.2655092999339,202.81280529987998,204.2655092999339,202.81280529987998,204.2655092999339,202.81280529987998,204.2655092999339,202.81280529987998,204.2655092999339,204.2315016000066,204.73218289995566,204.2315016000066,204.73218289995566,204.2315016000066,204.73218289995566,204.2315016000066,204.73218289995566,204.2315016000066,204.73218289995566,204.2315016000066,204.73218289995566,204.2315016000066,204.73218289995566,204.2315016000066,204.73218289995566,202.81280529987998,None,204.73218289995566,205.8007553999778,1.440000000000001,205.81704190000892,None,206.56822109990753,None,,,,,,,[[1.06]],2.370000000000002,0.6666666666666666,11032,001,2024_Jan_11_1535,MFTM_A_new1021,2021.2.3,59.60139772073111,
,,,,,,,,stim/Instruction_adaptive.png,conditions/adaptive.xlsx,test,-0.6,-0.6,-0.6,0.6,0.6,left,L,,,,,0,1,1,1,0,15,15,45,,,,,,,,,,,,,,,,,,,,,,,,,,,,,,,,,,,,,,,,,,,,207.07005880004726,None,left,1,1.3281489999499172,207.57054709992371,209.35601709992625,207.57054709992371,208.85569159989245,207.57054709992371,208.85569159989245,207.57054709992371,208.85569159989245,207.57054709992371,208.85569159989245,207.57054709992371,208.85569159989245,208.82201129989699,209.3226057998836,208.82201129989699,209.3226057998836,208.82201129989699,209.3226057998836,208.82201129989699,209.3226057998836,208.82201129989699,209.3226057998836,208.82201129989699,209.3226057998836,208.82201129989699,209.3226057998836,208.82201129989699,209.3226057998836,207.57054709992371,None,209.3226057998836,210.55836479994468,1.270000000000001,210.57447439990938,None,211.32609999994747,None,,,,,,,[[1.23]],2.520000000000002,0.6875,11032,001,2024_Jan_11_1535,MFTM_A_new1021,2021.2.3,59.60139772073111,
,,,,,,,,stim/Instruction_adaptive.png,conditions/adaptive.xlsx,test,0.6,0.6,0.6,-0.6,-0.6,right,R,,,,,0,1,1,1,0,16,16,10,,,,,,,,,,,,,,,,,,,,,,,,,,,,,,,,,,,,,,,,,,,,211.82619159994647,None,left,0,2.436655699973926,212.3272092998959,213.97933769994415,212.3272092998959,213.47943500010297,212.3272092998959,213.47943500010297,212.3272092998959,213.47943500010297,212.3272092998959,213.47943500010297,212.3272092998959,213.47943500010297,213.46199119999073,213.96344389999285,213.46199119999073,213.96344389999285,213.46199119999073,213.96344389999285,213.46199119999073,213.96344389999285,213.46199119999073,213.96344389999285,213.46199119999073,213.96344389999285,213.46199119999073,213.96344389999285,213.46199119999073,213.96344389999285,212.3272092998959,None,213.96344389999285,215.23181729996577,1.1500000000000008,215.2478610998951,None,215.9998405999504,None,,,,,,,[1.25764706],2.1300000000000017,0.6470588235294118,11032,001,2024_Jan_11_1535,MFTM_A_new1021,2021.2.3,59.60139772073111,
,,,,,,,,stim/Instruction_adaptive.png,conditions/adaptive.xlsx,test,0.6,0.6,0.6,-0.6,-0.6,right,R,,,,,0,1,1,1,0,17,17,28,,,,,,,,,,,,,,,,,,,,,,,,,,,,,,,,,,,,,,,,,,,,216.49987590010278,None,right,1,3.37107459991239,217.0005608999636,219.00357450009324,217.0005608999636,218.50282169994898,217.0005608999636,218.50282169994898,217.0005608999636,218.50282169994898,217.0005608999636,218.50282169994898,217.0005608999636,218.50282169994898,218.48587389988825,218.98747749999166,218.48587389988825,218.98747749999166,218.48587389988825,218.98747749999166,218.48587389988825,218.98747749999166,218.48587389988825,218.98747749999166,218.48587389988825,218.98747749999166,218.48587389988825,218.98747749999166,218.48587389988825,218.98747749999166,217.0005608999636,None,218.98747749999166,220.38876509992406,1.500000000000001,220.4052291000262,None,221.15668389992788,None,,,,,,,[[1.]],2.2800000000000016,0.6666666666666666,11032,001,2024_Jan_11_1535,MFTM_A_new1021,2021.2.3,59.60139772073111,
,,,,,,,,stim/Instruction_adaptive.png,conditions/adaptive.xlsx,test,-0.6,-0.6,-0.6,0.6,0.6,left,L,,,,,0,1,1,1,0,18,18,83,,,,,,,,,,,,,,,,,,,,,,,,,,,,,,,,,,,,,,,,,,,,221.65764150000177,None,left,1,1.8926748000085354,222.1582837998867,224.01202180003747,222.1582837998867,223.51092660007998,222.1582837998867,223.51092660007998,222.1582837998867,223.51092660007998,222.1582837998867,223.51092660007998,222.1582837998867,223.51092660007998,223.4938916999381,223.99416989996098,223.4938916999381,223.99416989996098,223.4938916999381,223.99416989996098,223.4938916999381,223.99416989996098,223.4938916999381,223.99416989996098,223.4938916999381,223.99416989996098,223.4938916999381,223.99416989996098,223.4938916999381,223.99416989996098,222.1582837998867,None,223.99416989996098,225.14649479999207,1.350000000000001,225.16315399995074,None,225.9145184000954,None,,,,,,,[[1.15]],2.410000000000002,0.6842105263157895,11032,001,2024_Jan_11_1535,MFTM_A_new1021,2021.2.3,59.60139772073111,
,,,,,,,,stim/Instruction_adaptive.png,conditions/adaptive.xlsx,test,0.6,0.6,0.6,-0.6,-0.6,right,R,,,,,0,1,1,1,0,19,19,52,,,,,,,,,,,,,,,,,,,,,,,,,,,,,,,,,,,,,,,,,,,,226.4150207999628,None,left,0,1.8954964000731707,226.91516220010817,228.66789699997753,226.91516220010817,228.167134599993,226.91516220010817,228.167134599993,226.91516220010817,228.167134599993,226.91516220010817,228.167134599993,226.91516220010817,228.167134599993,228.13451349991374,228.63477470004,228.13451349991374,228.63477470004,228.13451349991374,228.63477470004,228.13451349991374,228.63477470004,228.13451349991374,228.63477470004,228.13451349991374,228.63477470004,228.13451349991374,228.63477470004,228.13451349991374,228.63477470004,226.91516220010817,None,228.63477470004,229.88622849993408,1.2400000000000009,229.90308819990605,None,230.65398780000396,None,,,,,,,[1.2395],2.0600000000000014,0.65,11032,001,2024_Jan_11_1535,MFTM_A_new1021,2021.2.3,59.60139772073111,
,,,,,,,,stim/Instruction_adaptive.png,conditions/adaptive.xlsx,test,0.6,0.6,0.6,-0.6,-0.6,right,R,,,,,0,1,1,1,0,20,20,92,,,,,,,,,,,,,,,,,,,,,,,,,,,,,,,,,,,,,,,,,,,,231.1553183000069,None,right,1,1.9463948998600245,231.65619640005752,233.7424484998919,231.65619640005752,233.24142390000634,231.65619640005752,233.24142390000634,231.65619640005752,233.24142390000634,231.65619640005752,233.24142390000634,231.65619640005752,233.24142390000634,233.22529230010696,233.72693710005842,233.22529230010696,233.72693710005842,233.22529230010696,233.72693710005842,233.22529230010696,233.72693710005842,233.22529230010696,233.72693710005842,233.22529230010696,233.72693710005842,233.22529230010696,233.72693710005842,233.22529230010696,233.72693710005842,231.65619640005752,None,233.72693710005842,None,1.5800000000000012,234.65989320003428,None,235.4117209999822,None,,,,,,,[[0.92]],2.1900000000000013,0.6666666666666666,11032,001,2024_Jan_11_1535,MFTM_A_new1021,2021.2.3,59.60139772073111,
,,,,,,,,stim/Instruction_adaptive.png,conditions/adaptive.xlsx,test,-0.6,-0.6,-0.6,0.6,0.6,left,L,,,,,0,1,1,1,0,21,21,85,,,,,,,,,,,,,,,,,,,,,,,,,,,,,,,,,,,,,,,,,,,,235.9129739999771,None,left,1,2.4714826999697834,236.41269910009578,238.3655085999053,236.41269910009578,237.86525440006517,236.41269910009578,237.86525440006517,236.41269910009578,237.86525440006517,236.41269910009578,237.86525440006517,236.41269910009578,237.86525440006517,237.83189509995282,238.33217040007003,237.83189509995282,238.33217040007003,237.83189509995282,238.33217040007003,237.83189509995282,238.33217040007003,237.83189509995282,238.33217040007003,237.83189509995282,238.33217040007003,237.83189509995282,238.33217040007003,237.83189509995282,238.33217040007003,236.41269910009578,None,238.33217040007003,239.40126290009357,1.440000000000001,239.4172020999249,None,240.16819099988788,None,,,,,,,[[1.06]],2.3100000000000014,0.6818181818181818,11032,001,2024_Jan_11_1535,MFTM_A_new1021,2021.2.3,59.60139772073111,
,,,,,,,,stim/Instruction_adaptive.png,conditions/adaptive.xlsx,test,0.6,0.6,0.6,-0.6,-0.6,right,R,,,,,0,1,1,1,0,22,22,64,,,,,,,,,,,,,,,,,,,,,,,,,,,,,,,,,,,,,,,,,,,,240.6690567000769,None,right,1,1.553228500066325,241.17050469992682,243.005778899882,241.17050469992682,242.50490609998815,241.17050469992682,242.50490609998815,241.17050469992682,242.50490609998815,241.17050469992682,242.50490609998815,241.17050469992682,242.50490609998815,242.4890119000338,242.9889499999117,242.4890119000338,242.9889499999117,242.4890119000338,242.9889499999117,242.4890119000338,242.9889499999117,242.4890119000338,242.9889499999117,242.4890119000338,242.9889499999117,242.4890119000338,242.9889499999117,242.4890119000338,242.9889499999117,241.17050469992682,None,242.9889499999117,None,1.330000000000001,244.17400799994357,None,244.9253126999829,None,,,,,,,[[1.17]],2.410000000000002,0.6956521739130435,11032,001,2024_Jan_11_1535,MFTM_A_new1021,2021.2.3,59.60139772073111,
,,,,,,,,stim/Instruction_adaptive.png,conditions/adaptive.xlsx,test,0.6,0.6,0.6,-0.6,-0.6,right,R,,,,,0,1,1,1,0,23,23,14,,,,,,,,,,,,,,,,,,,,,,,,,,,,,,,,,,,,,,,,,,,,245.42727139987983,None,right,1,1.6441452000290155,245.92669000010937,247.67994679999538,245.92669000010937,247.1794557000976,245.92669000010937,247.1794557000976,245.92669000010937,247.1794557000976,245.92669000010937,247.1794557000976,245.92669000010937,247.1794557000976,247.14532299991697,247.6467474999372,247.14532299991697,247.6467474999372,247.14532299991697,247.6467474999372,247.14532299991697,247.6467474999372,247.14532299991697,247.6467474999372,247.14532299991697,247.6467474999372,247.14532299991697,247.6467474999372,247.14532299991697,247.6467474999372,245.92669000010937,None,247.6467474999372,248.864371499978,1.2400000000000009,248.89773320010863,None,249.64900660002604,None,,,,,,,[1.21666667],2.5000000000000018,0.7083333333333334,11032,001,2024_Jan_11_1535,MFTM_A_new1021,2021.2.3,59.60139772073111,
,,,,,,,,stim/Instruction_adaptive.png,conditions/adaptive.xlsx,test,0.6,0.6,0.6,-0.6,-0.6,right,R,,,,,0,1,1,1,0,24,24,32,,,,,,,,,,,,,,,,,,,,,,,,,,,,,,,,,,,,,,,,,,,,250.15027950005606,None,left,0,2.08060420001857,250.65039100009017,252.32042909995653,250.65039100009017,251.81909559993073,250.65039100009017,251.81909559993073,250.65039100009017,251.81909559993073,250.65039100009017,251.81909559993073,250.65039100009017,251.81909559993073,251.78559540002607,252.28675250010565,251.78559540002607,252.28675250010565,251.78559540002607,252.28675250010565,251.78559540002607,252.28675250010565,251.78559540002607,252.28675250010565,251.78559540002607,252.28675250010565,251.78559540002607,252.28675250010565,251.78559540002607,252.28675250010565,250.65039100009017,None,252.28675250010565,253.52253199997358,1.1600000000000008,253.53784339991398,None,254.28890060004778,None,,,,,,,[1.2216],2.2500000000000018,0.68,11032,001,2024_Jan_11_1535,MFTM_A_new1021,2021.2.3,59.60139772073111,
,,,,,,,,stim/Instruction_adaptive.png,conditions/adaptive.xlsx,test,-0.6,-0.6,-0.6,0.6,0.6,left,L,,,,,0,1,1,1,0,25,25,69,,,,,,,,,,,,,,,,,,,,,,,,,,,,,,,,,,,,,,,,,,,,254.79058260004967,None,left,1,1.9604340000078082,255.29057490010746,257.1769145000726,255.29057490010746,256.67602719995193,255.29057490010746,256.67602719995193,255.29057490010746,256.67602719995193,255.29057490010746,256.67602719995193,255.29057490010746,256.67602719995193,256.65990379988216,257.1603465001099,256.65990379988216,257.1603465001099,256.65990379988216,257.1603465001099,256.65990379988216,257.1603465001099,256.65990379988216,257.1603465001099,256.65990379988216,257.1603465001099,256.65990379988216,257.1603465001099,256.65990379988216,257.1603465001099,255.29057490010746,None,257.1603465001099,258.2784535000101,1.380000000000001,258.29484390001744,None,259.04721220000647,None,,,,,,,[[1.12]],2.3400000000000016,0.6923076923076923,11032,001,2024_Jan_11_1535,MFTM_A_new1021,2021.2.3,59.60139772073111,
,,,,,,,,stim/Instruction_adaptive.png,conditions/adaptive.xlsx,test,-0.6,-0.6,-0.6,0.6,0.6,left,L,,,,,0,1,1,1,0,26,26,91,,,,,,,,,,,,,,,,,,,,,,,,,,,,,,,,,,,,,,,,,,,,259.5474616000429,None,left,1,2.5383036001585424,260.0483480999246,261.8503690001089,260.0483480999246,261.3496085999068,260.0483480999246,261.3496085999068,260.0483480999246,261.3496085999068,260.0483480999246,261.3496085999068,260.0483480999246,261.3496085999068,261.3328434000723,261.8335581999272,261.3328434000723,261.8335581999272,261.3328434000723,261.8335581999272,261.3328434000723,261.8335581999272,261.3328434000723,261.8335581999272,261.3328434000723,261.8335581999272,261.3328434000723,261.8335581999272,261.3328434000723,261.8335581999272,260.0483480999246,None,261.8335581999272,263.0360832998995,1.300000000000001,263.05338010005653,None,263.8033821999561,None,,,,,,,[[1.2]],2.4200000000000017,0.7037037037037037,11032,001,2024_Jan_11_1535,MFTM_A_new1021,2021.2.3,59.60139772073111,
,,,,,,,,stim/Instruction_adaptive.png,conditions/adaptive.xlsx,test,0.6,0.6,0.6,-0.6,-0.6,right,R,,,,,0,1,1,1,0,27,27,94,,,,,,,,,,,,,,,,,,,,,,,,,,,,,,,,,,,,,,,,,,,,264.30454039992765,None,right,1,1.350427099969238,264.8045890000649,266.5404519001022,264.8045890000649,266.04040360008366,264.8045890000649,266.04040360008366,264.8045890000649,266.04040360008366,264.8045890000649,266.04040360008366,264.8045890000649,266.04040360008366,266.0231067999266,266.52447750000283,266.0231067999266,266.52447750000283,266.0231067999266,266.52447750000283,266.0231067999266,266.52447750000283,266.0231067999266,266.52447750000283,266.0231067999266,266.52447750000283,266.0231067999266,266.52447750000283,266.0231067999266,266.52447750000283,264.8045890000649,None,266.52447750000283,None,1.2300000000000009,267.7590075000189,None,268.51068529998884,None,,,,,,,[1.21892857],2.5000000000000018,0.7142857142857143,11032,001,2024_Jan_11_1535,MFTM_A_new1021,2021.2.3,59.60139772073111,
,,,,,,,,stim/Instruction_adaptive.png,conditions/adaptive.xlsx,test,-0.6,-0.6,-0.6,0.6,0.6,left,L,,,,,0,1,1,1,0,28,28,15,,,,,,,,,,,,,,,,,,,,,,,,,,,,,,,,,,,,,,,,,,,,269.01172529999167,None,left,1,1.7631850000470877,269.51173459994607,271.182508100057,269.51173459994607,270.68068189988844,269.51173459994607,270.68068189988844,269.51173459994607,270.68068189988844,269.51173459994607,270.68068189988844,269.51173459994607,270.68068189988844,270.64743510005064,271.1473477000836,270.64743510005064,271.1473477000836,270.64743510005064,271.1473477000836,270.64743510005064,271.1473477000836,270.64743510005064,271.1473477000836,270.64743510005064,271.1473477000836,270.64743510005064,271.1473477000836,270.64743510005064,271.1473477000836,269.51173459994607,None,271.1473477000836,272.38364450004883,1.1600000000000008,272.4001923999749,None,273.1510453999508,None,,,,,,,[1.22310345],2.570000000000002,0.7241379310344828,11032,001,2024_Jan_11_1535,MFTM_A_new1021,2021.2.3,59.60139772073111,
,,,,,,,,stim/Instruction_adaptive.png,conditions/adaptive.xlsx,test,-0.6,-0.6,-0.6,0.6,0.6,left,L,,,,,0,1,1,1,0,29,29,89,,,,,,,,,,,,,,,,,,,,,,,,,,,,,,,,,,,,,,,,,,,,273.65103500010446,None,right,0,2.69030399993062,274.15239709988236,275.7709876000881,274.15239709988236,275.2703692999203,274.15239709988236,275.2703692999203,274.15239709988236,275.2703692999203,274.15239709988236,275.2703692999203,274.15239709988236,275.2703692999203,275.23679580003954,275.7375044999644,275.23679580003954,275.7375044999644,275.23679580003954,275.7375044999644,275.23679580003954,275.7375044999644,275.23679580003954,275.7375044999644,275.23679580003954,275.7375044999644,275.23679580003954,275.7375044999644,275.23679580003954,275.7375044999644,274.15239709988236,None,275.7375044999644,276.9735123999417,1.1100000000000008,276.9892549000215,None,277.74156689993106,None,,,,,,,[1.22866667],2.370000000000002,0.7,11032,001,2024_Jan_11_1535,MFTM_A_new1021,2021.2.3,59.60139772073111,
,,,,,,,,stim/Instruction_adaptive.png,conditions/adaptive.xlsx,test,-0.6,-0.6,-0.6,0.6,0.6,left,L,,,,,0,1,1,1,0,30,30,71,,,,,,,,,,,,,,,,,,,,,,,,,,,,,,,,,,,,,,,,,,,,278.2413115000818,None,right,0,2.4532760998699814,278.7425710000098,280.5124270999804,278.7425710000098,280.0278036999516,278.7425710000098,280.0278036999516,278.7425710000098,280.0278036999516,278.7425710000098,280.0278036999516,278.7425710000098,280.0278036999516,279.9937285000924,280.4950910001062,279.9937285000924,280.4950910001062,279.9937285000924,280.4950910001062,279.9937285000924,280.4950910001062,279.9937285000924,280.4950910001062,279.9937285000924,280.4950910001062,279.9937285000924,280.4950910001062,279.9937285000924,280.4950910001062,278.7425710000098,None,280.4950910001062,281.73042459995486,1.270000000000001,281.7466511998791,None,282.497440099949,None,,,,,,,[1.22870968],2.1600000000000015,0.6774193548387096,11032,001,2024_Jan_11_1535,MFTM_A_new1021,2021.2.3,59.60139772073111,
,,,,,,,,stim/Instruction_adaptive.png,conditions/adaptive.xlsx,test,-0.6,-0.6,-0.6,0.6,0.6,left,L,,,,,0,1,1,1,0,31,31,33,,,,,,,,,,,,,,,,,,,,,,,,,,,,,,,,,,,,,,,,,,,,282.99848200008273,None,left,1,1.631725899875164,283.4994173999876,285.46916229999624,283.4994173999876,284.98513790010475,283.4994173999876,284.98513790010475,283.4994173999876,284.98513790010475,283.4994173999876,284.98513790010475,283.4994173999876,284.98513790010475,284.9511845000088,285.45211709989235,284.9511845000088,285.45211709989235,284.9511845000088,285.45211709989235,284.9511845000088,285.45211709989235,284.9511845000088,285.45211709989235,284.9511845000088,285.45211709989235,284.9511845000088,285.45211709989235,284.9511845000088,285.45211709989235,283.4994173999876,None,285.45211709989235,286.48734059999697,1.470000000000001,286.50358709995635,None,287.2552863000892,None,,,,,,,[[1.03]],2.2300000000000013,0.6875,11032,001,2024_Jan_11_1535,MFTM_A_new1021,2021.2.3,59.60139772073111,
,,,,,,,,stim/Instruction_adaptive.png,conditions/adaptive.xlsx,test,0.6,0.6,0.6,-0.6,-0.6,right,R,,,,,0,1,1,1,0,32,32,90,,,,,,,,,,,,,,,,,,,,,,,,,,,,,,,,,,,,,,,,,,,,287.7563022999093,None,left,0,2.666467199800536,288.25632779998705,290.15931209991686,288.25632779998705,289.65861829998903,288.25632779998705,289.65861829998903,288.25632779998705,289.65861829998903,288.25632779998705,289.65861829998903,288.25632779998705,289.65861829998903,289.64148720004596,290.142914700089,289.64148720004596,290.142914700089,289.64148720004596,290.142914700089,289.64148720004596,290.142914700089,289.64148720004596,290.142914700089,289.64148720004596,290.142914700089,289.64148720004596,290.142914700089,289.64148720004596,290.142914700089,288.25632779998705,None,290.142914700089,291.2438850000035,1.400000000000001,291.2606122000143,None,292.01232119998895,None,,,,,,,[[1.1]],2.0100000000000016,0.6666666666666666,11032,001,2024_Jan_11_1535,MFTM_A_new1021,2021.2.3,59.60139772073111,
,,,,,,,,stim/Instruction_adaptive.png,conditions/adaptive.xlsx,test,0.6,0.6,0.6,-0.6,-0.6,right,R,,,,,0,1,1,1,0,33,33,68,,,,,,,,,,,,,,,,,,,,,,,,,,,,,,,,,,,,,,,,,,,,292.51246859994717,None,right,1,2.0701705999672413,293.0130666999612,295.150847800076,293.0130666999612,294.6490046000108,293.0130666999612,294.6490046000108,293.0130666999612,294.6490046000108,293.0130666999612,294.6490046000108,293.0130666999612,294.6490046000108,294.6321650000755,295.1327660998795,294.6321650000755,295.1327660998795,294.6321650000755,295.1327660998795,294.6321650000755,295.1327660998795,294.6321650000755,295.1327660998795,294.6321650000755,295.1327660998795,294.6321650000755,295.1327660998795,294.6321650000755,295.1327660998795,293.0130666999612,None,295.1327660998795,296.0016761999577,1.6300000000000012,296.01788330008276,None,296.76935159997083,None,,,,,,,[[0.87]],2.0900000000000016,0.6764705882352942,11032,001,2024_Jan_11_1535,MFTM_A_new1021,2021.2.3,59.60139772073111,
,,,,,,,,stim/Instruction_adaptive.png,conditions/adaptive.xlsx,test,-0.6,-0.6,-0.6,0.6,0.6,left,L,,,,,0,1,1,1,0,34,34,23,,,,,,,,,,,,,,,,,,,,,,,,,,,,,,,,,,,,,,,,,,,,297.2694894000888,None,left,1,1.5203885999508202,297.7703966998961,299.82404610002413,297.7703966998961,299.3227800000459,297.7703966998961,299.3227800000459,297.7703966998961,299.3227800000459,297.7703966998961,299.3227800000459,297.7703966998961,299.3227800000459,299.3058348998893,299.8070632999297,299.3058348998893,299.8070632999297,299.3058348998893,299.8070632999297,299.3058348998893,299.8070632999297,299.3058348998893,299.8070632999297,299.3058348998893,299.8070632999297,299.3058348998893,299.8070632999297,299.3058348998893,299.8070632999297,297.7703966998961,None,299.8070632999297,300.75835960009135,1.5500000000000012,300.77460370003246,None,301.52571259997785,None,,,,,,,[[0.95]],2.1700000000000017,0.6857142857142857,11032,001,2024_Jan_11_1535,MFTM_A_new1021,2021.2.3,59.60139772073111,
,,,,,,,,stim/Instruction_adaptive.png,conditions/adaptive.xlsx,test,-0.6,-0.6,-0.6,0.6,0.6,left,L,,,,,0,1,1,1,0,35,35,31,,,,,,,,,,,,,,,,,,,,,,,,,,,,,,,,,,,,,,,,,,,,302.0265528000891,None,left,1,2.5397459000814706,302.52703749993816,304.4966359999962,302.52703749993816,303.99621680006385,302.52703749993816,303.99621680006385,302.52703749993816,303.99621680006385,302.52703749993816,303.99621680006385,302.52703749993816,303.99621680006385,303.96350320009515,304.46341519989073,303.96350320009515,304.46341519989073,303.96350320009515,304.46341519989073,303.96350320009515,304.46341519989073,303.96350320009515,304.46341519989073,303.96350320009515,304.46341519989073,303.96350320009515,304.46341519989073,303.96350320009515,304.46341519989073,302.52703749993816,None,304.46341519989073,305.51555710006505,1.460000000000001,305.5323860999197,None,306.28295899997465,None,,,,,,,[[1.04]],2.2300000000000013,0.6944444444444444,11032,001,2024_Jan_11_1535,MFTM_A_new1021,2021.2.3,59.60139772073111,
,,,,,,,,stim/Instruction_adaptive.png,conditions/adaptive.xlsx,test,0.6,0.6,0.6,-0.6,-0.6,right,R,,,,,0,1,1,1,0,36,36,62,,,,,,,,,,,,,,,,,,,,,,,,,,,,,,,,,,,,,,,,,,,,306.7839615000412,None,right,1,2.2386547999922186,307.28429270000197,309.1877035999205,307.28429270000197,308.68704449990764,307.28429270000197,308.68704449990764,307.28429270000197,308.68704449990764,307.28429270000197,308.68704449990764,307.28429270000197,308.68704449990764,308.67100630002096,309.17106100008823,308.67100630002096,309.17106100008823,308.67100630002096,309.17106100008823,308.67100630002096,309.17106100008823,308.67100630002096,309.17106100008823,308.67100630002096,309.17106100008823,308.67100630002096,309.17106100008823,308.67100630002096,309.17106100008823,307.28429270000197,None,309.17106100008823,310.2742123999633,1.400000000000001,310.28865849995054,None,311.03992599993944,None,,,,,,,[[1.1]],2.3000000000000016,0.7027027027027027,11032,001,2024_Jan_11_1535,MFTM_A_new1021,2021.2.3,59.60139772073111,
,,,,,,,,stim/Instruction_adaptive.png,conditions/adaptive.xlsx,test,0.6,0.6,0.6,-0.6,-0.6,right,R,,,,,0,1,1,1,0,37,37,38,,,,,,,,,,,,,,,,,,,,,,,,,,,,,,,,,,,,,,,,,,,,311.5406382998917,None,right,1,1.8171946997754276,312.041607900057,313.89404190005735,312.041607900057,313.3932725000195,312.041607900057,313.3932725000195,312.041607900057,313.3932725000195,312.041607900057,313.3932725000195,312.041607900057,313.3932725000195,313.3598130000755,313.8605017999653,313.3598130000755,313.8605017999653,313.3598130000755,313.8605017999653,313.3598130000755,313.8605017999653,313.3598130000755,313.8605017999653,313.3598130000755,313.8605017999653,313.3598130000755,313.8605017999653,313.3598130000755,313.8605017999653,312.041607900057,None,313.8605017999653,315.029045100091,1.340000000000001,315.04642569995485,None,315.7978499000892,None,,,,,,,[[1.16]],2.3600000000000017,0.7105263157894737,11032,001,2024_Jan_11_1535,MFTM_A_new1021,2021.2.3,59.60139772073111,
,,,,,,,,stim/Instruction_adaptive.png,conditions/adaptive.xlsx,test,0.6,0.6,0.6,-0.6,-0.6,right,R,,,,,0,1,1,1,0,38,38,50,,,,,,,,,,,,,,,,,,,,,,,,,,,,,,,,,,,,,,,,,,,,316.29825389990583,None,right,1,1.5807289998047054,316.7985964000691,318.584458099911,316.7985964000691,318.08446520008147,316.7985964000691,318.08446520008147,316.7985964000691,318.08446520008147,316.7985964000691,318.08446520008147,316.7985964000691,318.08446520008147,318.0680539000314,318.5675762000028,318.0680539000314,318.5675762000028,318.0680539000314,318.5675762000028,318.0680539000314,318.5675762000028,318.0680539000314,318.5675762000028,318.0680539000314,318.5675762000028,318.0680539000314,318.5675762000028,318.0680539000314,318.5675762000028,316.7985964000691,None,318.5675762000028,319.7706295000389,1.280000000000001,319.7861595998984,None,320.5377688999288,None,,,,,,,[1.19384615],2.410000000000002,0.717948717948718,11032,001,2024_Jan_11_1535,MFTM_A_new1021,2021.2.3,59.60139772073111,
,,,,,,,,stim/Instruction_adaptive.png,conditions/adaptive.xlsx,test,0.6,0.6,0.6,-0.6,-0.6,right,R,,,,,0,1,1,1,0,39,39,76,,,,,,,,,,,,,,,,,,,,,,,,,,,,,,,,,,,,,,,,,,,,321.03802180010825,None,left,0,1.7282843999564648,321.5386854999233,323.2915578999091,321.5386854999233,322.79096679994836,321.5386854999233,322.79096679994836,321.5386854999233,322.79096679994836,321.5386854999233,322.79096679994836,321.5386854999233,322.79096679994836,322.75835049990565,323.25871250010096,322.75835049990565,323.25871250010096,322.75835049990565,323.25871250010096,322.75835049990565,323.25871250010096,322.75835049990565,323.25871250010096,322.75835049990565,323.25871250010096,322.75835049990565,323.25871250010096,322.75835049990565,323.25871250010096,321.5386854999233,None,323.25871250010096,324.4597040999215,1.2400000000000009,324.47621309990063,None,325.2280514999293,None,,,,,,,[1.1955],2.2500000000000018,0.7,11032,001,2024_Jan_11_1535,MFTM_A_new1021,2021.2.3,59.60139772073111,
,,,,,,,,stim/Instruction_adaptive.png,conditions/adaptive.xlsx,test,-0.6,-0.6,-0.6,0.6,0.6,left,L,,,,,0,1,1,1,0,40,40,77,,,,,,,,,,,,,,,,,,,,,,,,,,,,,,,,,,,,,,,,,,,,325.7285372999031,None,left,1,2.2218151001725346,326.22898150002584,328.1152925998904,326.22898150002584,327.61433249991387,326.22898150002584,327.61433249991387,326.22898150002584,327.61433249991387,326.22898150002584,327.61433249991387,326.22898150002584,327.61433249991387,327.5978920001071,328.09915879997425,327.5978920001071,328.09915879997425,327.5978920001071,328.09915879997425,327.5978920001071,328.09915879997425,327.5978920001071,328.09915879997425,327.5978920001071,328.09915879997425,327.5978920001071,328.09915879997425,327.5978920001071,328.09915879997425,326.22898150002584,None,328.09915879997425,None,1.380000000000001,329.23353009996936,None,329.9852726000827,None,,,,,,,[[1.12]],2.3100000000000014,0.7073170731707317,11032,001,2024_Jan_11_1535,MFTM_A_new1021,2021.2.3,59.60139772073111,
,,,,,,,,stim/Instruction_adaptive.png,conditions/adaptive.xlsx,test,0.6,0.6,0.6,-0.6,-0.6,right,R,,,,,0,1,1,1,0,41,41,8,,,,,,,,,,,,,,,,,,,,,,,,,,,,,,,,,,,,,,,,,,,,330.48538769991137,None,right,1,1.464941899990663,330.98597589996643,332.82251750002615,330.98597589996643,332.3220673999749,330.98597589996643,332.3220673999749,330.98597589996643,332.3220673999749,330.98597589996643,332.3220673999749,330.98597589996643,332.3220673999749,332.3053806000389,332.8053413000889,332.3053806000389,332.8053413000889,332.3053806000389,332.8053413000889,332.3053806000389,332.8053413000889,332.3053806000389,332.8053413000889,332.3053806000389,332.8053413000889,332.3053806000389,332.8053413000889,332.3053806000389,332.8053413000889,330.98597589996643,None,332.8053413000889,333.97389340004884,1.330000000000001,333.990398199996,None,334.7429450000636,None,,,,,,,[[1.17]],2.3600000000000017,0.7142857142857143,11032,001,2024_Jan_11_1535,MFTM_A_new1021,2021.2.3,59.60139772073111,
,,,,,,,,stim/Instruction_adaptive.png,conditions/adaptive.xlsx,test,0.6,0.6,0.6,-0.6,-0.6,right,R,,,,,0,1,1,1,0,42,42,6,,,,,,,,,,,,,,,,,,,,,,,,,,,,,,,,,,,,,,,,,,,,335.2426905001048,None,right,1,1.4208056000061333,335.74311830010265,337.53097689989954,335.74311830010265,337.0286133000627,335.74311830010265,337.0286133000627,335.74311830010265,337.0286133000627,335.74311830010265,337.0286133000627,335.74311830010265,337.0286133000627,337.0124303000048,337.51250689988956,337.0124303000048,337.51250689988956,337.0124303000048,337.51250689988956,337.0124303000048,337.51250689988956,337.0124303000048,337.51250689988956,337.0124303000048,337.51250689988956,337.0124303000048,337.51250689988956,337.0124303000048,337.51250689988956,335.74311830010265,None,337.51250689988956,338.71433810004964,1.280000000000001,338.7313161001075,None,339.4820059000049,None,,,,,,,[1.19372093],2.410000000000002,0.7209302325581395,11032,001,2024_Jan_11_1535,MFTM_A_new1021,2021.2.3,59.60139772073111,
,,,,,,,,stim/Instruction_adaptive.png,conditions/adaptive.xlsx,test,-0.6,-0.6,-0.6,0.6,0.6,left,L,,,,,0,1,1,1,0,43,43,81,,,,,,,,,,,,,,,,,,,,,,,,,,,,,,,,,,,,,,,,,,,,339.9827562000137,None,left,1,1.2156487999018282,340.48351619997993,342.23844949994236,340.48351619997993,341.7360612999182,340.48351619997993,341.7360612999182,340.48351619997993,341.7360612999182,340.48351619997993,341.7360612999182,340.48351619997993,341.7360612999182,341.7018981000874,342.20318869990297,341.7018981000874,342.20318869990297,341.7018981000874,342.20318869990297,341.7018981000874,342.20318869990297,341.7018981000874,342.20318869990297,341.7018981000874,342.20318869990297,341.7018981000874,342.20318869990297,341.7018981000874,342.20318869990297,340.48351619997993,None,342.20318869990297,343.405529800104,1.2400000000000009,343.42230019997805,None,344.172400200041,None,,,,,,,[1.19522727],2.4600000000000017,0.7272727272727273,11032,001,2024_Jan_11_1535,MFTM_A_new1021,2021.2.3,59.60139772073111,
,,,,,,,,stim/Instruction_adaptive.png,conditions/adaptive.xlsx,test,0.6,0.6,0.6,-0.6,-0.6,right,R,,,,,0,1,1,1,0,44,44,36,,,,,,,,,,,,,,,,,,,,,,,,,,,,,,,,,,,,,,,,,,,,344.67277040006593,None,right,1,1.316747299861163,345.1746352999471,346.8765213000588,345.1746352999471,346.37541750003584,345.1746352999471,346.37541750003584,345.1746352999471,346.37541750003584,345.1746352999471,346.37541750003584,345.1746352999471,346.37541750003584,346.35908770002425,346.8593419000972,346.35908770002425,346.8593419000972,346.35908770002425,346.8593419000972,346.35908770002425,346.8593419000972,346.35908770002425,346.8593419000972,346.35908770002425,346.8593419000972,346.35908770002425,346.8593419000972,346.35908770002425,346.8593419000972,345.1746352999471,None,346.8593419000972,348.06209630006924,1.2000000000000008,348.0781566000078,None,348.8298519998789,None,,,,,,,[1.19755556],2.5000000000000018,0.7333333333333333,11032,001,2024_Jan_11_1535,MFTM_A_new1021,2021.2.3,59.60139772073111,
,,,,,,,,stim/Instruction_adaptive.png,conditions/adaptive.xlsx,test,-0.6,-0.6,-0.6,0.6,0.6,left,L,,,,,0,1,1,1,0,45,45,43,,,,,,,,,,,,,,,,,,,,,,,,,,,,,,,,,,,,,,,,,,,,349.330059699947,None,left,1,1.5872756999451667,349.8316913000308,351.4999875999056,349.8316913000308,350.99952260009013,349.8316913000308,350.99952260009013,349.8316913000308,350.99952260009013,349.8316913000308,350.99952260009013,349.8316913000308,350.99952260009013,350.9826350999065,351.48313739988953,350.9826350999065,351.48313739988953,350.9826350999065,351.48313739988953,350.9826350999065,351.48313739988953,350.9826350999065,351.48313739988953,350.9826350999065,351.48313739988953,350.9826350999065,351.48313739988953,350.9826350999065,351.48313739988953,349.8316913000308,None,351.48313739988953,352.68480779998936,1.1600000000000008,352.7014989000745,None,353.45265499991365,None,,,,,,,[1.20065217],2.540000000000002,0.7391304347826086,11032,001,2024_Jan_11_1535,MFTM_A_new1021,2021.2.3,59.60139772073111,
,,,,,,,,stim/Instruction_adaptive.png,conditions/adaptive.xlsx,test,0.6,0.6,0.6,-0.6,-0.6,right,R,,,,,0,1,1,1,0,46,46,26,,,,,,,,,,,,,,,,,,,,,,,,,,,,,,,,,,,,,,,,,,,,353.9542423998937,None,right,1,2.0530216000042856,354.45440690009855,356.09055180009454,354.45440690009855,355.5894617000595,354.45440690009855,355.5894617000595,354.45440690009855,355.5894617000595,354.45440690009855,355.5894617000595,354.45440690009855,355.5894617000595,355.57304319995455,356.07319690007716,355.57304319995455,356.07319690007716,355.57304319995455,356.07319690007716,355.57304319995455,356.07319690007716,355.57304319995455,356.07319690007716,355.57304319995455,356.07319690007716,355.57304319995455,356.07319690007716,355.57304319995455,356.07319690007716,354.45440690009855,None,356.07319690007716,None,1.1300000000000008,357.2926948000677,None,358.0431355999317,None,,,,,,,[1.20425532],2.5900000000000016,0.7446808510638298,11032,001,2024_Jan_11_1535,MFTM_A_new1021,2021.2.3,59.60139772073111,
,,,,,,,,stim/Instruction_adaptive.png,conditions/adaptive.xlsx,test,-0.6,-0.6,-0.6,0.6,0.6,left,L,,,,,0,1,1,1,0,47,47,3,,,,,,,,,,,,,,,,,,,,,,,,,,,,,,,,,,,,,,,,,,,,358.5435560999904,None,left,1,1.558746799826622,359.0449667999055,360.6469328000676,359.0449667999055,360.14594580000266,359.0449667999055,360.14594580000266,359.0449667999055,360.14594580000266,359.0449667999055,360.14594580000266,359.0449667999055,360.14594580000266,360.1138148000464,360.6135138999671,360.1138148000464,360.6135138999671,360.1138148000464,360.6135138999671,360.1138148000464,360.6135138999671,360.1138148000464,360.6135138999671,360.1138148000464,360.6135138999671,360.1138148000464,360.6135138999671,360.1138148000464,360.6135138999671,359.0449667999055,None,360.6135138999671,361.83243499998935,1.0900000000000007,361.84848039993085,None,362.60026230011135,None,,,,,,,[1.20854167],2.620000000000002,0.75,11032,001,2024_Jan_11_1535,MFTM_A_new1021,2021.2.3,59.60139772073111,
,,,,,,,,stim/Instruction_adaptive.png,conditions/adaptive.xlsx,test,-0.6,-0.6,-0.6,0.6,0.6,left,L,,,,,0,1,1,1,0,48,48,93,,,,,,,,,,,,,,,,,,,,,,,,,,,,,,,,,,,,,,,,,,,,363.10076400008984,None,left,1,1.1446008998900652,363.60234090010636,365.1876449000556,363.60234090010636,364.6859255998861,363.60234090010636,364.6859255998861,363.60234090010636,364.6859255998861,363.60234090010636,364.6859255998861,363.60234090010636,364.6859255998861,364.6528787999414,365.154377900064,364.6528787999414,365.154377900064,364.6528787999414,365.154377900064,364.6528787999414,365.154377900064,364.6528787999414,365.154377900064,364.6528787999414,365.154377900064,364.6528787999414,365.154377900064,364.6528787999414,365.154377900064,363.60234090010636,None,365.154377900064,366.3718332001008,1.0700000000000007,366.38881139992736,None,367.14002489997074,None,,,,,,,[1.21306122],2.660000000000002,0.7551020408163265,11032,001,2024_Jan_11_1535,MFTM_A_new1021,2021.2.3,59.60139772073111,
,,,,,,,,stim/Instruction_adaptive.png,conditions/adaptive.xlsx,test,-0.6,-0.6,-0.6,0.6,0.6,left,L,,,,,0,1,1,1,0,49,49,51,,,,,,,,,,,,,,,,,,,,,,,,,,,,,,,,,,,,,,,,,,,,367.64171910006553,None,right,0,1.6620447998866439,368.14126339997165,369.69384249998257,368.14126339997165,369.19282289990224,368.14126339997165,369.19282289990224,368.14126339997165,369.19282289990224,368.14126339997165,369.19282289990224,368.14126339997165,369.19282289990224,369.1597046998795,369.66060469998047,369.1597046998795,369.66060469998047,369.1597046998795,369.66060469998047,369.1597046998795,369.66060469998047,369.1597046998795,369.66060469998047,369.1597046998795,369.66060469998047,369.1597046998795,369.66060469998047,369.1597046998795,369.66060469998047,368.14126339997165,None,369.66060469998047,370.8786476000678,1.0400000000000007,370.91128879995085,None,371.66284790006466,None,,,,,,,[1.218],2.5500000000000016,0.74,11032,001,2024_Jan_11_1535,MFTM_A_new1021,2021.2.3,59.60139772073111,
,,,,,,,,stim/Instruction_adaptive.png,conditions/adaptive.xlsx,test,-0.6,-0.6,-0.6,0.6,0.6,left,L,,,,,0,1,1,1,0,50,50,5,,,,,,,,,,,,,,,,,,,,,,,,,,,,,,,,,,,,,,,,,,,,372.1643417000305,None,left,1,1.7145270998589694,372.66500849998556,374.28420710004866,372.66500849998556,373.8006029999815,372.66500849998556,373.8006029999815,372.66500849998556,373.8006029999815,372.66500849998556,373.8006029999815,372.66500849998556,373.8006029999815,373.76620359998196,374.26740069990046,373.76620359998196,374.26740069990046,373.76620359998196,374.26740069990046,373.76620359998196,374.26740069990046,373.76620359998196,374.26740069990046,373.76620359998196,374.26740069990046,373.76620359998196,374.26740069990046,373.76620359998196,374.26740069990046,372.66500849998556,None,374.26740069990046,375.5018841000274,1.1200000000000008,375.5190409999341,None,376.2706913999282,None,,,,,,,[1.22117647],2.5900000000000016,0.7450980392156863,11032,001,2024_Jan_11_1535,MFTM_A_new1021,2021.2.3,59.60139772073111,
,,,,,,,,stim/Instruction_adaptive.png,conditions/adaptive.xlsx,test,0.6,0.6,0.6,-0.6,-0.6,right,R,,,,,0,1,1,1,0,51,51,86,,,,,,,,,,,,,,,,,,,,,,,,,,,,,,,,,,,,,,,,,,,,376.77146540000103,None,right,1,2.171452600043267,377.2714573000558,378.87435039994307,377.2714573000558,378.37345189996995,377.2714573000558,378.37345189996995,377.2714573000558,378.37345189996995,377.2714573000558,378.37345189996995,377.2714573000558,378.37345189996995,378.3402120999526,378.8419437999837,378.3402120999526,378.8419437999837,378.3402120999526,378.8419437999837,378.3402120999526,378.8419437999837,378.3402120999526,378.8419437999837,378.3402120999526,378.8419437999837,378.3402120999526,378.8419437999837,378.3402120999526,378.8419437999837,377.2714573000558,None,378.8419437999837,380.07550060003996,1.0900000000000007,380.0921056000516,None,380.8445643999148,None,,,,,,,[1.22480769],2.6300000000000017,0.75,11032,001,2024_Jan_11_1535,MFTM_A_new1021,2021.2.3,59.60139772073111,
,,,,,,,,stim/Instruction_adaptive.png,conditions/adaptive.xlsx,test,0.6,0.6,0.6,-0.6,-0.6,right,R,,,,,0,1,1,1,0,52,52,80,,,,,,,,,,,,,,,,,,,,,,,,,,,,,,,,,,,,,,,,,,,,381.3446227000095,None,right,1,1.6372899999842048,381.84562409995124,383.41449810005724,381.84562409995124,382.9129071999341,381.84562409995124,382.9129071999341,381.84562409995124,382.9129071999341,381.84562409995124,382.9129071999341,381.84562409995124,382.9129071999341,382.8799729999155,383.3803671998903,382.8799729999155,383.3803671998903,382.8799729999155,383.3803671998903,382.8799729999155,383.3803671998903,382.8799729999155,383.3803671998903,382.8799729999155,383.3803671998903,382.8799729999155,383.3803671998903,382.8799729999155,383.3803671998903,381.84562409995124,None,383.3803671998903,384.61589789995924,1.0600000000000007,384.64900369988754,None,385.4011663000565,None,,,,,,,[1.22886792],2.660000000000002,0.7547169811320755,11032,001,2024_Jan_11_1535,MFTM_A_new1021,2021.2.3,59.60139772073111,
,,,,,,,,stim/Instruction_adaptive.png,conditions/adaptive.xlsx,test,0.6,0.6,0.6,-0.6,-0.6,right,R,,,,,0,1,1,1,0,53,53,58,,,,,,,,,,,,,,,,,,,,,,,,,,,,,,,,,,,,,,,,,,,,385.90185700007714,None,right,1,1.3528140999842435,386.4021336999722,387.9539818998892,386.4021336999722,387.45308839995414,386.4021336999722,387.45308839995414,386.4021336999722,387.45308839995414,386.4021336999722,387.45308839995414,386.4021336999722,387.45308839995414,387.4207218999509,387.9204420999158,387.4207218999509,387.9204420999158,387.4207218999509,387.9204420999158,387.4207218999509,387.9204420999158,387.4207218999509,387.9204420999158,387.4207218999509,387.9204420999158,387.4207218999509,387.9204420999158,387.4207218999509,387.9204420999158,386.4021336999722,None,387.9204420999158,389.15646720002405,1.0400000000000007,389.1889998000115,None,389.9399409000762,None,,,,,,,[1.23314815],2.700000000000002,0.7592592592592593,11032,001,2024_Jan_11_1535,MFTM_A_new1021,2021.2.3,59.60139772073111,
,,,,,,,,stim/Instruction_adaptive.png,conditions/adaptive.xlsx,test,0.6,0.6,0.6,-0.6,-0.6,right,R,,,,,0,1,1,1,0,54,54,46,,,,,,,,,,,,,,,,,,,,,,,,,,,,,,,,,,,,,,,,,,,,390.440724800108,None,left,0,1.365290299989283,390.9415947999805,392.46061989990994,390.9415947999805,391.9598483000882,390.9415947999805,391.9598483000882,390.9415947999805,391.9598483000882,390.9415947999805,391.9598483000882,390.9415947999805,391.9598483000882,391.92640080000274,392.427835999988,391.92640080000274,392.427835999988,391.92640080000274,392.427835999988,391.92640080000274,392.427835999988,391.92640080000274,392.427835999988,391.92640080000274,392.427835999988,391.92640080000274,392.427835999988,391.92640080000274,392.427835999988,390.9415947999805,None,392.427835999988,393.680250500096,1.0100000000000007,393.6950606999453,None,394.4473357000388,None,,,,,,,[1.23781818],2.600000000000002,0.7454545454545455,11032,001,2024_Jan_11_1535,MFTM_A_new1021,2021.2.3,59.60139772073111,
,,,,,,,,stim/Instruction_adaptive.png,conditions/adaptive.xlsx,test,0.6,0.6,0.6,-0.6,-0.6,right,R,,,,,0,1,1,1,0,55,55,30,,,,,,,,,,,,,,,,,,,,,,,,,,,,,,,,,,,,,,,,,,,,394.94742160011083,None,right,1,2.1717895998153836,395.44816510006785,397.05083619989455,395.44816510006785,396.54985950002447,395.44816510006785,396.54985950002447,395.44816510006785,396.54985950002447,395.44816510006785,396.54985950002447,395.44816510006785,396.54985950002447,396.51718090008944,397.01761090010405,396.51718090008944,397.01761090010405,396.51718090008944,397.01761090010405,396.51718090008944,397.01761090010405,396.51718090008944,397.01761090010405,396.51718090008944,397.01761090010405,396.51718090008944,397.01761090010405,396.51718090008944,397.01761090010405,395.44816510006785,None,397.01761090010405,398.26931739994325,1.0900000000000007,398.2857103999704,None,399.0371729999315,None,,,,,,,[1.24089286],2.6300000000000017,0.75,11032,001,2024_Jan_11_1535,MFTM_A_new1021,2021.2.3,59.60139772073111,
,,,,,,,,stim/Instruction_adaptive.png,conditions/adaptive.xlsx,test,-0.6,-0.6,-0.6,0.6,0.6,left,L,,,,,0,1,1,1,0,56,56,21,,,,,,,,,,,,,,,,,,,,,,,,,,,,,,,,,,,,,,,,,,,,399.53873999998905,None,left,1,1.6124019001144916,400.0394997000694,401.6074377000332,400.0394997000694,401.1075375000946,400.0394997000694,401.1075375000946,400.0394997000694,401.1075375000946,400.0394997000694,401.1075375000946,400.0394997000694,401.1075375000946,401.0740022000391,401.57530090003274,401.0740022000391,401.57530090003274,401.0740022000391,401.57530090003274,401.0740022000391,401.57530090003274,401.0740022000391,401.57530090003274,401.0740022000391,401.57530090003274,401.0740022000391,401.57530090003274,401.0740022000391,401.57530090003274,400.0394997000694,None,401.57530090003274,402.82731739990413,1.0600000000000007,402.84250229992904,None,403.5938993000891,None,,,,,,,[1.24438596],2.660000000000002,0.7543859649122807,11032,001,2024_Jan_11_1535,MFTM_A_new1021,2021.2.3,59.60139772073111,
,,,,,,,,stim/Instruction_adaptive.png,conditions/adaptive.xlsx,test,-0.6,-0.6,-0.6,0.6,0.6,left,L,,,,,0,1,1,1,0,57,57,95,,,,,,,,,,,,,,,,,,,,,,,,,,,,,,,,,,,,,,,,,,,,404.0953959999606,None,left,1,2.159929199842736,404.5951509999577,406.14859230001457,404.5951509999577,405.64675489999354,404.5951509999577,405.64675489999354,404.5951509999577,405.64675489999354,404.5951509999577,405.64675489999354,404.5951509999577,405.64675489999354,405.6136984999757,406.11536650010385,405.6136984999757,406.11536650010385,405.6136984999757,406.11536650010385,405.6136984999757,406.11536650010385,405.6136984999757,406.11536650010385,405.6136984999757,406.11536650010385,405.6136984999757,406.11536650010385,405.6136984999757,406.11536650010385,404.5951509999577,None,406.11536650010385,407.36696980008855,1.0400000000000007,407.3825463000685,None,408.1335281999782,None,,,,,,,[1.24810345],2.700000000000002,0.7586206896551724,11032,001,2024_Jan_11_1535,MFTM_A_new1021,2021.2.3,59.60139772073111,
,,,,,,,,stim/Instruction_adaptive.png,conditions/adaptive.xlsx,test,-0.6,-0.6,-0.6,0.6,0.6,left,L,,,,,0,1,1,1,0,58,58,59,,,,,,,,,,,,,,,,,,,,,,,,,,,,,,,,,,,,,,,,,,,,408.63479480007663,None,left,1,1.2273703999817371,409.13557870010845,410.65472049987875,409.13557870010845,410.15428999997675,409.13557870010845,410.15428999997675,409.13557870010845,410.15428999997675,409.13557870010845,410.15428999997675,409.13557870010845,410.15428999997675,410.137950199889,410.63802600000054,410.137950199889,410.63802600000054,410.137950199889,410.63802600000054,410.137950199889,410.63802600000054,410.137950199889,410.63802600000054,410.137950199889,410.63802600000054,410.137950199889,410.63802600000054,410.137950199889,410.63802600000054,409.13557870010845,None,410.62108900002204,411.87321359990165,1.0100000000000007,411.90662209992297,None,412.65783850010484,None,,,,,,,[1.25220339],2.730000000000002,0.7627118644067796,11032,001,2024_Jan_11_1535,MFTM_A_new1021,2021.2.3,59.60139772073111,
,,,,,,,,stim/Instruction_adaptive.png,conditions/adaptive.xlsx,test,0.6,0.6,0.6,-0.6,-0.6,right,R,,,,,0,1,1,1,0,59,59,56,,,,,,,,,,,,,,,,,,,,,,,,,,,,,,,,,,,,,,,,,,,,413.1579966999125,None,right,1,1.4243383000139147,413.6586035999935,415.16125519992784,413.6586035999935,414.66042140009813,413.6586035999935,414.66042140009813,413.6586035999935,414.66042140009813,413.6586035999935,414.66042140009813,413.6586035999935,414.66042140009813,414.62702100002207,415.1285164998844,414.62702100002207,415.1285164998844,414.62702100002207,415.1285164998844,414.62702100002207,415.1285164998844,414.62702100002207,415.1285164998844,414.62702100002207,415.1285164998844,414.62702100002207,415.1285164998844,414.62702100002207,415.1285164998844,413.6586035999935,None,415.1285164998844,416.3970043999143,0.9900000000000007,416.4125695999246,None,417.16519149998203,None,,,,,,,[1.2565],2.760000000000002,0.7666666666666667,11032,001,2024_Jan_11_1535,MFTM_A_new1021,2021.2.3,59.60139772073111,
,,,,,,,,stim/Instruction_adaptive.png,conditions/adaptive.xlsx,test,0.6,0.6,0.6,-0.6,-0.6,right,R,,,,,0,1,1,1,0,60,60,2,,,,,,,,,,,,,,,,,,,,,,,,,,,,,,,,,,,,,,,,,,,,417.66583539987914,None,right,1,1.3650998000521213,418.1659283998888,419.65076069999486,418.1659283998888,419.15007709991187,418.1659283998888,419.15007709991187,418.1659283998888,419.15007709991187,418.1659283998888,419.15007709991187,418.1659283998888,419.15007709991187,419.11658950010315,419.61756119993515,419.11658950010315,419.61756119993515,419.11658950010315,419.61756119993515,419.11658950010315,419.61756119993515,419.11658950010315,419.61756119993515,419.11658950010315,419.61756119993515,419.11658950010315,419.61756119993515,419.11658950010315,419.61756119993515,418.1659283998888,None,419.61756119993515,420.8862336000893,0.9700000000000006,420.9026053000707,None,421.65405449992977,None,,,,,,,[1.26098361],2.780000000000002,0.7704918032786885,11032,001,2024_Jan_11_1535,MFTM_A_new1021,2021.2.3,59.60139772073111,
,,,,,,,,stim/Instruction_adaptive.png,conditions/adaptive.xlsx,test,-0.6,-0.6,-0.6,0.6,0.6,left,L,,,,,0,1,1,1,0,61,61,49,,,,,,,,,,,,,,,,,,,,,,,,,,,,,,,,,,,,,,,,,,,,422.1550568998791,None,left,1,1.8429480001796037,422.6564486999996,424.12530279997736,422.6564486999996,423.62330160010606,422.6564486999996,423.62330160010606,422.6564486999996,423.62330160010606,422.6564486999996,423.62330160010606,422.6564486999996,423.62330160010606,423.5899042999372,424.0917165998835,423.5899042999372,424.0917165998835,423.5899042999372,424.0917165998835,423.5899042999372,424.0917165998835,423.5899042999372,424.0917165998835,423.5899042999372,424.0917165998835,423.5899042999372,424.0917165998835,423.5899042999372,424.0917165998835,422.6564486999996,None,424.0917165998835,425.35910320002586,0.9600000000000006,425.3924954000395,None,426.14359549991786,None,,,,,,,[1.26548387],2.8100000000000023,0.7741935483870968,11032,001,2024_Jan_11_1535,MFTM_A_new1021,2021.2.3,59.60139772073111,
,,,,,,,,stim/Instruction_adaptive.png,conditions/adaptive.xlsx,test,-0.6,-0.6,-0.6,0.6,0.6,left,L,,,,,0,1,1,1,0,62,62,27,,,,,,,,,,,,,,,,,,,,,,,,,,,,,,,,,,,,,,,,,,,,426.64542399998754,None,left,1,1.273084499873221,427.14589620009065,428.59737850003876,427.14589620009065,428.0975087999832,427.14589620009065,428.0975087999832,427.14589620009065,428.0975087999832,427.14589620009065,428.0975087999832,427.14589620009065,428.0975087999832,428.0638009000104,428.56423410004936,428.0638009000104,428.56423410004936,428.0638009000104,428.56423410004936,428.0638009000104,428.56423410004936,428.0638009000104,428.56423410004936,428.0638009000104,428.56423410004936,428.0638009000104,428.56423410004936,428.0638009000104,428.56423410004936,427.14589620009065,None,428.56423410004936,429.8500556999352,0.9400000000000006,429.86653529992327,None,430.61701559997164,None,,,,,,,[1.27015873],2.840000000000002,0.7777777777777778,11032,001,2024_Jan_11_1535,MFTM_A_new1021,2021.2.3,59.60139772073111,
,,,,,,,,stim/Instruction_adaptive.png,conditions/adaptive.xlsx,test,-0.6,-0.6,-0.6,0.6,0.6,left,L,,,,,0,1,1,1,0,63,63,39,,,,,,,,,,,,,,,,,,,,,,,,,,,,,,,,,,,,,,,,,,,,431.1179913999513,None,left,1,1.249068500008434,431.6185781999957,433.0544072999619,431.6185781999957,432.55350350006483,431.6185781999957,432.55350350006483,431.6185781999957,432.55350350006483,431.6185781999957,432.55350350006483,431.6185781999957,432.55350350006483,432.51986279990524,433.0207245000638,432.51986279990524,433.0207245000638,432.51986279990524,433.0207245000638,432.51986279990524,433.0207245000638,432.51986279990524,433.0207245000638,432.51986279990524,433.0207245000638,432.51986279990524,433.0207245000638,432.51986279990524,433.0207245000638,431.6185781999957,None,433.0207245000638,434.30661750002764,0.9200000000000006,434.3224575999193,None,435.0740543999709,None,,,,,,,[1.275],2.870000000000002,0.78125,11032,001,2024_Jan_11_1535,MFTM_A_new1021,2021.2.3,59.60139772073111,
,,,,,,,,stim/Instruction_adaptive.png,conditions/adaptive.xlsx,test,-0.6,-0.6,-0.6,0.6,0.6,left,L,,,,,0,1,1,1,0,64,64,87,,,,,,,,,,,,,,,,,,,,,,,,,,,,,,,,,,,,,,,,,,,,435.5743376999162,None,left,1,1.1761390999890864,436.0749488999136,437.4776912999805,436.0749488999136,436.9776626001112,436.0749488999136,436.9776626001112,436.0749488999136,436.9776626001112,436.0749488999136,436.9776626001112,436.0749488999136,436.9776626001112,436.95976460003294,437.4611541000195,436.95976460003294,437.4611541000195,436.95976460003294,437.4611541000195,436.95976460003294,437.4611541000195,436.95976460003294,437.4611541000195,436.95976460003294,437.4611541000195,436.95976460003294,437.4611541000195,436.95976460003294,437.4611541000195,436.0749488999136,None,437.4611541000195,438.7466839000117,0.9000000000000006,438.76253800000995,None,439.5139973999467,None,,,,,,,[1.28],2.8900000000000023,0.7846153846153846,11032,001,2024_Jan_11_1535,MFTM_A_new1021,2021.2.3,59.60139772073111,
,,,,,,,,stim/Instruction_adaptive.png,conditions/adaptive.xlsx,test,0.6,0.6,0.6,-0.6,-0.6,right,R,,,,,0,1,1,1,0,65,65,40,,,,,,,,,,,,,,,,,,,,,,,,,,,,,,,,,,,,,,,,,,,,440.0147118999157,None,left,0,1.3432997001800686,440.5156854998786,441.9174297999125,440.5156854998786,441.41660539992154,440.5156854998786,441.41660539992154,440.5156854998786,441.41660539992154,440.5156854998786,441.41660539992154,440.5156854998786,441.41660539992154,441.3831269000657,441.88353400002234,441.3831269000657,441.88353400002234,441.3831269000657,441.88353400002234,441.3831269000657,441.88353400002234,441.3831269000657,441.88353400002234,441.3831269000657,441.88353400002234,441.3831269000657,441.88353400002234,441.3831269000657,441.88353400002234,440.5156854998786,None,441.88353400002234,443.16962109995075,0.8900000000000006,443.20227440004237,None,443.95370649988763,None,,,,,,,[1.285],2.820000000000002,0.7727272727272727,11032,001,2024_Jan_11_1535,MFTM_A_new1021,2021.2.3,59.60139772073111,
,,,,,,,,stim/Instruction_adaptive.png,conditions/adaptive.xlsx,test,0.6,0.6,0.6,-0.6,-0.6,right,R,,,,,0,1,1,1,0,66,66,78,,,,,,,,,,,,,,,,,,,,,,,,,,,,,,,,,,,,,,,,,,,,444.45406250003725,None,right,1,1.503488800022751,444.9556011999957,446.39048100006767,444.9556011999957,445.8905011001043,444.9556011999957,445.8905011001043,444.9556011999957,445.8905011001043,444.9556011999957,445.8905011001043,444.9556011999957,445.8905011001043,445.87313909991644,446.3742450000718,445.87313909991644,446.3742450000718,445.87313909991644,446.3742450000718,445.87313909991644,446.3742450000718,445.87313909991644,446.3742450000718,445.87313909991644,446.3742450000718,445.87313909991644,446.3742450000718,445.87313909991644,446.3742450000718,444.9556011999957,None,446.3742450000718,None,0.9300000000000006,447.67552220006473,None,448.4274842001032,None,,,,,,,[1.28925373],2.840000000000002,0.7761194029850746,11032,001,2024_Jan_11_1535,MFTM_A_new1021,2021.2.3,59.60139772073111,
,,,,,,,,stim/Instruction_adaptive.png,conditions/adaptive.xlsx,test,-0.6,-0.6,-0.6,0.6,0.6,left,L,,,,,0,1,1,1,0,67,67,99,,,,,,,,,,,,,,,,,,,,,,,,,,,,,,,,,,,,,,,,,,,,448.9274460999295,None,left,1,1.350815499899909,449.4281091999728,450.8478190000169,449.4281091999728,450.36303039989434,449.4281091999728,450.36303039989434,449.4281091999728,450.36303039989434,449.4281091999728,450.36303039989434,449.4281091999728,450.36303039989434,450.32974680000916,450.831418100046,450.32974680000916,450.831418100046,450.32974680000916,450.831418100046,450.32974680000916,450.831418100046,450.32974680000916,450.831418100046,450.32974680000916,450.831418100046,450.32974680000916,450.831418100046,450.32974680000916,450.831418100046,449.4281091999728,None,450.831418100046,452.1329061000142,0.9200000000000006,452.15027639991604,None,452.9001682000235,None,,,,,,,[1.29352941],2.870000000000002,0.7794117647058824,11032,001,2024_Jan_11_1535,MFTM_A_new1021,2021.2.3,59.60139772073111,
,,,,,,,,stim/Instruction_adaptive.png,conditions/adaptive.xlsx,test,0.6,0.6,0.6,-0.6,-0.6,right,R,,,,,0,1,1,1,0,68,68,22,,,,,,,,,,,,,,,,,,,,,,,,,,,,,,,,,,,,,,,,,,,,453.4015989000909,None,left,0,1.356700100004673,453.90229630004615,455.30428789998405,453.90229630004615,454.8028855000157,453.90229630004615,454.8028855000157,453.90229630004615,454.8028855000157,453.90229630004615,454.8028855000157,453.90229630004615,454.8028855000157,454.78694700007327,455.28727449988946,454.78694700007327,455.28727449988946,454.78694700007327,455.28727449988946,454.78694700007327,455.28727449988946,454.78694700007327,455.28727449988946,454.78694700007327,455.28727449988946,454.78694700007327,455.28727449988946,454.78694700007327,455.28727449988946,453.90229630004615,None,455.28727449988946,456.58965909993276,0.9000000000000006,456.6055515999906,None,457.3566052999813,None,,,,,,,[1.29797101],2.790000000000002,0.7681159420289855,11032,001,2024_Jan_11_1535,MFTM_A_new1021,2021.2.3,59.60139772073111,
,,,,,,,,stim/Instruction_adaptive.png,conditions/adaptive.xlsx,test,-0.6,-0.6,-0.6,0.6,0.6,left,L,,,,,0,1,1,1,0,69,69,65,,,,,,,,,,,,,,,,,,,,,,,,,,,,,,,,,,,,,,,,,,,,457.8576334998943,None,right,0,2.1566149999853224,458.3585332001094,459.81042049988173,458.3585332001094,459.3101258999668,458.3585332001094,459.3101258999668,458.3585332001094,459.3101258999668,458.3585332001094,459.3101258999668,458.3585332001094,459.3101258999668,459.293331899913,459.7941018000711,459.293331899913,459.7941018000711,459.293331899913,459.7941018000711,459.293331899913,459.7941018000711,459.293331899913,459.7941018000711,459.293331899913,459.7941018000711,459.293331899913,459.7941018000711,459.293331899913,459.7941018000711,458.3585332001094,None,459.7941018000711,461.096537000034,0.9500000000000006,461.1129018999636,None,461.863126100041,None,,,,,,,[1.30157143],2.720000000000002,0.7571428571428571,11032,001,2024_Jan_11_1535,MFTM_A_new1021,2021.2.3,59.60139772073111,
,,,,,,,,stim/Instruction_adaptive.png,conditions/adaptive.xlsx,test,0.6,0.6,0.6,-0.6,-0.6,right,R,,,,,0,1,1,1,0,70,70,98,,,,,,,,,,,,,,,,,,,,,,,,,,,,,,,,,,,,,,,,,,,,462.3644081999082,None,right,1,2.402696799952537,462.8648375000339,464.3669871999882,462.8648375000339,463.8673560000025,462.8648375000339,463.8673560000025,462.8648375000339,463.8673560000025,462.8648375000339,463.8673560000025,462.8648375000339,463.8673560000025,463.8502022998873,464.35068219993263,463.8502022998873,464.35068219993263,463.8502022998873,464.35068219993263,463.8502022998873,464.35068219993263,463.8502022998873,464.35068219993263,463.8502022998873,464.35068219993263,463.8502022998873,464.35068219993263,463.8502022998873,464.35068219993263,462.8648375000339,None,464.35068219993263,None,1.0000000000000007,465.6689331999514,None,466.42016489990056,None,,,,,,,[1.3043662],2.740000000000002,0.7605633802816901,11032,001,2024_Jan_11_1535,MFTM_A_new1021,2021.2.3,59.60139772073111,
,,,,,,,,stim/Instruction_adaptive.png,conditions/adaptive.xlsx,test,-0.6,-0.6,-0.6,0.6,0.6,left,L,,,,,0,1,1,1,0,71,71,63,,,,,,,,,,,,,,,,,,,,,,,,,,,,,,,,,,,,,,,,,,,,466.9208154999651,None,left,1,1.5028460000175983,467.4215969000943,468.9073115000501,467.4215969000943,468.4067637999542,467.4215969000943,468.4067637999542,467.4215969000943,468.4067637999542,467.4215969000943,468.4067637999542,467.4215969000943,468.4067637999542,468.38964510010555,468.89059099997394,468.38964510010555,468.89059099997394,468.38964510010555,468.89059099997394,468.38964510010555,468.89059099997394,468.38964510010555,468.89059099997394,468.38964510010555,468.89059099997394,468.38964510010555,468.89059099997394,468.38964510010555,468.89059099997394,467.4215969000943,None,468.89059099997394,None,0.9800000000000006,470.20907970005646,None,470.96082659997046,None,,,,,,,[1.30736111],2.7700000000000022,0.7638888888888888,11032,001,2024_Jan_11_1535,MFTM_A_new1021,2021.2.3,59.60139772073111,
,,,,,,,,stim/Instruction_adaptive.png,conditions/adaptive.xlsx,test,-0.6,-0.6,-0.6,0.6,0.6,left,L,,,,,0,1,1,1,0,72,72,97,,,,,,,,,,,,,,,,,,,,,,,,,,,,,,,,,,,,,,,,,,,,471.4622140999418,None,right,0,1.8417088999412954,471.9614264999982,473.4310975000262,471.9614264999982,472.92991419998,471.9614264999982,472.92991419998,471.9614264999982,472.92991419998,471.9614264999982,472.92991419998,471.9614264999982,472.92991419998,472.89722239994444,473.39855949999765,472.89722239994444,473.39855949999765,472.89722239994444,473.39855949999765,472.89722239994444,473.39855949999765,472.89722239994444,473.39855949999765,472.89722239994444,473.39855949999765,472.89722239994444,473.39855949999765,472.89722239994444,473.39855949999765,471.9614264999982,None,473.39855949999765,474.7170402999036,0.9600000000000006,474.7318655999843,None,475.4834873001091,None,,,,,,,[1.31054795],2.700000000000002,0.7534246575342466,11032,001,2024_Jan_11_1535,MFTM_A_new1021,2021.2.3,59.60139772073111,
,,,,,,,,stim/Instruction_adaptive.png,conditions/adaptive.xlsx,test,-0.6,-0.6,-0.6,0.6,0.6,left,L,,,,,0,1,1,1,0,73,73,9,,,,,,,,,,,,,,,,,,,,,,,,,,,,,,,,,,,,,,,,,,,,475.98428279999644,None,left,1,2.0940101000014693,476.4850425000768,478.00442250003107,476.4850425000768,477.5033760999795,476.4850425000768,477.5033760999795,476.4850425000768,477.5033760999795,476.4850425000768,477.5033760999795,476.4850425000768,477.5033760999795,477.4865280999802,477.98768869997,477.4865280999802,477.98768869997,477.4865280999802,477.98768869997,477.4865280999802,477.98768869997,477.4865280999802,477.98768869997,477.4865280999802,477.98768869997,477.4865280999802,477.98768869997,477.4865280999802,477.98768869997,476.4850425000768,None,477.98768869997,479.3067900000606,1.0100000000000007,479.3220706998836,None,480.07368719996884,None,,,,,,,[1.31297297],2.720000000000002,0.7567567567567568,11032,001,2024_Jan_11_1535,MFTM_A_new1021,2021.2.3,59.60139772073111,
,,,,,,,,stim/Instruction_adaptive.png,conditions/adaptive.xlsx,test,-0.6,-0.6,-0.6,0.6,0.6,left,L,,,,,0,1,1,1,0,74,74,25,,,,,,,,,,,,,,,,,,,,,,,,,,,,,,,,,,,,,,,,,,,,480.57438450003974,None,right,0,2.5759258000180125,481.0759282000363,482.57743069995195,481.0759282000363,482.07686510006897,481.0759282000363,482.07686510006897,481.0759282000363,482.07686510006897,481.0759282000363,482.07686510006897,481.0759282000363,482.07686510006897,482.05984509992413,482.56080539990216,482.05984509992413,482.56080539990216,482.05984509992413,482.56080539990216,482.05984509992413,482.56080539990216,482.05984509992413,482.56080539990216,482.05984509992413,482.56080539990216,482.05984509992413,482.56080539990216,482.05984509992413,482.56080539990216,481.0759282000363,None,482.56080539990216,483.87961430009454,1.0000000000000007,483.8959949000273,None,484.6476726999972,None,,,,,,,[1.31546667],2.650000000000002,0.7466666666666667,11032,001,2024_Jan_11_1535,MFTM_A_new1021,2021.2.3,59.60139772073111,
,,,,,,,,stim/Instruction_adaptive.png,conditions/adaptive.xlsx,test,-0.6,-0.6,-0.6,0.6,0.6,left,L,,,,,0,1,1,1,0,75,75,41,,,,,,,,,,,,,,,,,,,,,,,,,,,,,,,,,,,,,,,,,,,,485.14798830007203,None,left,1,1.3454686999320984,485.64957579993643,487.2007269000169,485.64957579993643,486.7004990999121,485.64957579993643,486.7004990999121,485.64957579993643,486.7004990999121,485.64957579993643,486.7004990999121,485.64957579993643,486.7004990999121,486.6836578999646,487.184061500011,486.6836578999646,487.184061500011,486.6836578999646,487.184061500011,486.6836578999646,487.184061500011,486.6836578999646,487.184061500011,486.6836578999646,487.184061500011,486.6836578999646,487.184061500011,486.6836578999646,487.184061500011,485.64957579993643,None,487.184061500011,488.5038934999611,1.0500000000000007,488.51927889999934,None,489.27144080004655,None,,,,,,,[1.31723684],2.6700000000000017,0.75,11032,001,2024_Jan_11_1535,MFTM_A_new1021,2021.2.3,59.60139772073111,
,,,,,,,,stim/Instruction_adaptive.png,conditions/adaptive.xlsx,test,0.6,0.6,0.6,-0.6,-0.6,right,R,,,,,0,1,1,1,0,76,76,74,,,,,,,,,,,,,,,,,,,,,,,,,,,,,,,,,,,,,,,,,,,,489.77152039995417,None,right,1,1.6586689001414925,490.2724023000337,491.80907789990306,490.2724023000337,491.30696419999003,490.2724023000337,491.30696419999003,490.2724023000337,491.30696419999003,490.2724023000337,491.30696419999003,490.2724023000337,491.30696419999003,491.2906267000362,491.7923677000217,491.2906267000362,491.7923677000217,491.2906267000362,491.7923677000217,491.2906267000362,491.7923677000217,491.2906267000362,491.7923677000217,491.2906267000362,491.7923677000217,491.2906267000362,491.7923677000217,491.2906267000362,491.7923677000217,490.2724023000337,None,491.7923677000217,None,1.0300000000000007,493.1269376000855,None,493.8781089000404,None,,,,,,,[1.31922078],2.700000000000002,0.7532467532467533,11032,001,2024_Jan_11_1535,MFTM_A_new1021,2021.2.3,59.60139772073111,
,,,,,,,,stim/Instruction_adaptive.png,conditions/adaptive.xlsx,test,0.6,0.6,0.6,-0.6,-0.6,right,R,,,,,0,1,1,1,0,77,77,12,,,,,,,,,,,,,,,,,,,,,,,,,,,,,,,,,,,,,,,,,,,,494.37821609992534,None,right,1,1.524085900047794,494.8791205000598,496.39801730006,494.8791205000598,495.8974550999701,494.8791205000598,495.8974550999701,494.8791205000598,495.8974550999701,494.8791205000598,495.8974550999701,494.8791205000598,495.8974550999701,495.86388420010917,496.3643271001056,495.86388420010917,496.3643271001056,495.86388420010917,496.3643271001056,495.86388420010917,496.3643271001056,495.86388420010917,496.3643271001056,495.86388420010917,496.3643271001056,495.86388420010917,496.3643271001056,495.86388420010917,496.3643271001056,494.8791205000598,None,496.3643271001056,497.70036599994637,1.0100000000000007,497.71667700004764,None,498.46786940004677,None,,,,,,,[1.32141026],2.720000000000002,0.7564102564102564,11032,001,2024_Jan_11_1535,MFTM_A_new1021,2021.2.3,59.60139772073111,
,,,,,,,,stim/Instruction_adaptive.png,conditions/adaptive.xlsx,test,0.6,0.6,0.6,-0.6,-0.6,right,R,,,,,0,1,1,1,0,78,78,42,,,,,,,,,,,,,,,,,,,,,,,,,,,,,,,,,,,,,,,,,,,,498.96968229999766,None,right,1,2.2776629999279976,499.469535500044,500.9723692999687,499.469535500044,500.4705153000541,499.469535500044,500.4705153000541,499.469535500044,500.4705153000541,499.469535500044,500.4705153000541,499.469535500044,500.4705153000541,500.45417480007745,500.95513259992003,500.45417480007745,500.95513259992003,500.45417480007745,500.95513259992003,500.45417480007745,500.95513259992003,500.45417480007745,500.95513259992003,500.45417480007745,500.95513259992003,500.45417480007745,500.95513259992003,500.45417480007745,500.95513259992003,499.469535500044,None,500.95513259992003,502.2913806999568,1.0000000000000007,502.30671239993535,None,503.05819649994373,None,,,,,,,[1.32367089],2.740000000000002,0.759493670886076,11032,001,2024_Jan_11_1535,MFTM_A_new1021,2021.2.3,59.60139772073111,
,,,,,,,,stim/Instruction_adaptive.png,conditions/adaptive.xlsx,test,0.6,0.6,0.6,-0.6,-0.6,right,R,,,,,0,1,1,1,0,79,79,70,,,,,,,,,,,,,,,,,,,,,,,,,,,,,,,,,,,,,,,,,,,,503.55855640000664,None,right,1,1.4721401000861079,504.0590977999382,505.54564850009046,504.0590977999382,505.0450152999256,504.0590977999382,505.0450152999256,504.0590977999382,505.0450152999256,504.0590977999382,505.0450152999256,504.0590977999382,505.0450152999256,505.02758420002647,505.5288533999119,505.02758420002647,505.5288533999119,505.02758420002647,505.5288533999119,505.02758420002647,505.5288533999119,505.02758420002647,505.5288533999119,505.02758420002647,505.5288533999119,505.02758420002647,505.5288533999119,505.02758420002647,505.5288533999119,504.0590977999382,None,505.5288533999119,None,0.9800000000000006,506.8636113998946,None,507.6150847999379,None,,,,,,,[1.326125],2.7700000000000022,0.7625,11032,001,2024_Jan_11_1535,MFTM_A_new1021,2021.2.3,59.60139772073111,
,,,,,,,,stim/Instruction_adaptive.png,conditions/adaptive.xlsx,test,-0.6,-0.6,-0.6,0.6,0.6,left,L,,,,,0,1,1,1,0,80,80,79,,,,,,,,,,,,,,,,,,,,,,,,,,,,,,,,,,,,,,,,,,,,508.1153184999712,None,left,1,1.3474303998518735,508.6159141000826,510.0857363999821,508.6159141000826,509.58400849998,508.6159141000826,509.58400849998,508.6159141000826,509.58400849998,508.6159141000826,509.58400849998,508.6159141000826,509.58400849998,509.55066079995595,510.05219580000266,509.55066079995595,510.05219580000266,509.55066079995595,510.05219580000266,509.55066079995595,510.05219580000266,509.55066079995595,510.05219580000266,509.55066079995595,510.05219580000266,509.55066079995595,510.05219580000266,509.55066079995595,510.05219580000266,508.6159141000826,None,510.05219580000266,511.3877352999989,0.9600000000000006,511.4031813000329,None,512.1543544000015,None,,,,,,,[1.32876543],2.790000000000002,0.7654320987654321,11032,001,2024_Jan_11_1535,MFTM_A_new1021,2021.2.3,59.60139772073111,
,,,,,,,,stim/Instruction_adaptive.png,conditions/adaptive.xlsx,test,-0.6,-0.6,-0.6,0.6,0.6,left,L,,,,,0,1,1,1,0,81,81,67,,,,,,,,,,,,,,,,,,,,,,,,,,,,,,,,,,,,,,,,,,,,512.656273300061,None,left,1,1.5346570999827236,513.1566677000374,514.6085101999342,513.1566677000374,514.107460499974,513.1566677000374,514.107460499974,513.1566677000374,514.107460499974,513.1566677000374,514.107460499974,513.1566677000374,514.107460499974,514.0907602000516,514.5917477000039,514.0907602000516,514.5917477000039,514.0907602000516,514.5917477000039,514.0907602000516,514.5917477000039,514.0907602000516,514.5917477000039,514.0907602000516,514.5917477000039,514.0907602000516,514.5917477000039,514.0907602000516,514.5917477000039,513.1566677000374,None,514.5917477000039,515.9276125999168,0.9500000000000006,515.9437806000933,None,516.6952539000195,None,,,,,,,[1.33146341],2.8100000000000023,0.7682926829268293,11032,001,2024_Jan_11_1535,MFTM_A_new1021,2021.2.3,59.60139772073111,
,,,,,,,,stim/Instruction_adaptive.png,conditions/adaptive.xlsx,test,-0.6,-0.6,-0.6,0.6,0.6,left,L,,,,,0,1,1,1,0,82,82,7,,,,,,,,,,,,,,,,,,,,,,,,,,,,,,,,,,,,,,,,,,,,517.1960314998869,None,left,1,1.211539200041443,517.6961534000002,519.1487559000961,517.6961534000002,518.6480115000159,517.6961534000002,518.6480115000159,517.6961534000002,518.6480115000159,517.6961534000002,518.6480115000159,517.6961534000002,518.6480115000159,518.6141681999434,519.1157424000558,518.6141681999434,519.1157424000558,518.6141681999434,519.1157424000558,518.6141681999434,519.1157424000558,518.6141681999434,519.1157424000558,518.6141681999434,519.1157424000558,518.6141681999434,519.1157424000558,518.6141681999434,519.1157424000558,517.6961534000002,None,519.1157424000558,520.4508928998839,0.9400000000000006,520.4842034000903,None,521.2356819000561,None,,,,,,,[1.33421687],2.830000000000002,0.7710843373493976,11032,001,2024_Jan_11_1535,MFTM_A_new1021,2021.2.3,59.60139772073111,
,,,,,,,,stim/Instruction_adaptive.png,conditions/adaptive.xlsx,test,0.6,0.6,0.6,-0.6,-0.6,right,R,,,,,0,1,1,1,0,83,83,0,,,,,,,,,,,,,,,,,,,,,,,,,,,,,,,,,,,,,,,,,,,,521.736853600014,None,right,1,1.230219699908048,522.2375091998838,523.6717912000604,522.2375091998838,523.1708432000596,522.2375091998838,523.1708432000596,522.2375091998838,523.1708432000596,522.2375091998838,523.1708432000596,522.2375091998838,523.1708432000596,523.154041599948,523.6558183000889,523.154041599948,523.6558183000889,523.154041599948,523.6558183000889,523.154041599948,523.6558183000889,523.154041599948,523.6558183000889,523.154041599948,523.6558183000889,523.154041599948,523.6558183000889,523.154041599948,523.6558183000889,522.2375091998838,None,523.6558183000889,None,0.9300000000000006,525.0069089999888,None,525.7595593000297,None,,,,,,,[1.33702381],2.8500000000000023,0.7738095238095238,11032,001,2024_Jan_11_1535,MFTM_A_new1021,2021.2.3,59.60139772073111,
,,,,,,,,stim/Instruction_adaptive.png,conditions/adaptive.xlsx,test,-0.6,-0.6,-0.6,0.6,0.6,left,L,,,,,0,1,1,1,0,84,84,47,,,,,,,,,,,,,,,,,,,,,,,,,,,,,,,,,,,,,,,,,,,,526.2597016000655,None,left,1,1.692142899846658,526.759391099913,528.1782068999019,526.759391099913,527.6785343999509,526.759391099913,527.6785343999509,526.759391099913,527.6785343999509,526.759391099913,527.6785343999509,526.759391099913,527.6785343999509,527.644747500075,528.1449241999071,527.644747500075,528.1449241999071,527.644747500075,528.1449241999071,527.644747500075,528.1449241999071,527.644747500075,528.1449241999071,527.644747500075,528.1449241999071,527.644747500075,528.1449241999071,527.644747500075,528.1449241999071,526.759391099913,None,528.1449241999071,529.4969112998806,0.9100000000000006,529.5146677000448,None,530.2650192000438,None,,,,,,,[1.34],2.870000000000002,0.7764705882352941,11032,001,2024_Jan_11_1535,MFTM_A_new1021,2021.2.3,59.60139772073111,
,,,,,,,,stim/Instruction_adaptive.png,conditions/adaptive.xlsx,test,0.6,0.6,0.6,-0.6,-0.6,right,R,,,,,0,1,1,1,0,85,85,54,,,,,,,,,,,,,,,,,,,,,,,,,,,,,,,,,,,,,,,,,,,,530.7663076000754,None,left,0,2.3450160999782383,531.2661842999514,532.669478100026,531.2661842999514,532.1674909999128,531.2661842999514,532.1674909999128,531.2661842999514,532.1674909999128,531.2661842999514,532.1674909999128,531.2661842999514,532.1674909999128,532.1506340000778,532.6525214000139,532.1506340000778,532.6525214000139,532.1506340000778,532.6525214000139,532.1506340000778,532.6525214000139,532.1506340000778,532.6525214000139,532.1506340000778,532.6525214000139,532.1506340000778,532.6525214000139,532.1506340000778,532.6525214000139,531.2661842999514,None,532.6525214000139,534.0058379999828,0.9000000000000006,534.0196831999347,None,534.7721222999971,None,,,,,,,[1.34302326],2.8100000000000023,0.7674418604651163,11032,001,2024_Jan_11_1535,MFTM_A_new1021,2021.2.3,59.60139772073111,
,,,,,,,,stim/Instruction_adaptive.png,conditions/adaptive.xlsx,test,0.6,0.6,0.6,-0.6,-0.6,right,R,,,,,0,1,1,1,0,86,86,82,,,,,,,,,,,,,,,,,,,,,,,,,,,,,,,,,,,,,,,,,,,,535.2731351000257,None,right,1,1.766986400121823,535.772848600056,537.2250165999867,535.772848600056,536.7242511999793,535.772848600056,536.7242511999793,535.772848600056,536.7242511999793,535.772848600056,536.7242511999793,535.772848600056,536.7242511999793,536.6912565999664,537.1921119999606,536.6912565999664,537.1921119999606,536.6912565999664,537.1921119999606,536.6912565999664,537.1921119999606,536.6912565999664,537.1921119999606,536.6912565999664,537.1921119999606,536.6912565999664,537.1921119999606,536.6912565999664,537.1921119999606,535.772848600056,None,537.1921119999606,538.5442625000142,0.9400000000000006,538.5606398999225,None,539.3112731999718,None,,,,,,,[1.34551724],2.830000000000002,0.7701149425287356,11032,001,2024_Jan_11_1535,MFTM_A_new1021,2021.2.3,59.60139772073111,
,,,,,,,,stim/Instruction_adaptive.png,conditions/adaptive.xlsx,test,0.6,0.6,0.6,-0.6,-0.6,right,R,,,,,0,1,1,1,0,87,87,18,,,,,,,,,,,,,,,,,,,,,,,,,,,,,,,,,,,,,,,,,,,,539.8120526999701,None,right,1,1.1615513002034277,540.3134578000754,541.7487973000389,540.3134578000754,541.2482936999295,540.3134578000754,541.2482936999295,540.3134578000754,541.2482936999295,540.3134578000754,541.2482936999295,540.3134578000754,541.2482936999295,541.2318060998805,541.7323616999201,541.2318060998805,541.7323616999201,541.2318060998805,541.7323616999201,541.2318060998805,541.7323616999201,541.2318060998805,541.7323616999201,541.2318060998805,541.7323616999201,541.2318060998805,541.7323616999201,541.2318060998805,541.7323616999201,540.3134578000754,None,541.7323616999201,543.0840129000135,0.9300000000000006,543.1014248998836,None,543.8525835999753,None,,,,,,,[1.34806818],2.8500000000000023,0.7727272727272727,11032,001,2024_Jan_11_1535,MFTM_A_new1021,2021.2.3,59.60139772073111,
,,,,,,,,stim/Instruction_adaptive.png,conditions/adaptive.xlsx,test,0.6,0.6,0.6,-0.6,-0.6,right,R,,,,,0,1,1,1,0,88,88,4,,,,,,,,,,,,,,,,,,,,,,,,,,,,,,,,,,,,,,,,,,,,544.3527693001088,None,right,1,1.2144310001749545,544.8530876999721,546.2720059999265,544.8530876999721,545.7715686999727,544.8530876999721,545.7715686999727,544.8530876999721,545.7715686999727,544.8530876999721,545.7715686999727,544.8530876999721,545.7715686999727,545.75427210005,546.2558261998929,545.75427210005,546.2558261998929,545.75427210005,546.2558261998929,545.75427210005,546.2558261998929,545.75427210005,546.2558261998929,545.75427210005,546.2558261998929,545.75427210005,546.2558261998929,545.75427210005,546.2558261998929,544.8530876999721,None,546.2390888999216,547.5909818001091,0.9100000000000006,547.6242666000035,None,548.3752925000153,None,,,,,,,[1.35078652],2.870000000000002,0.7752808988764045,11032,001,2024_Jan_11_1535,MFTM_A_new1021,2021.2.3,59.60139772073111,
,,,,,,,,stim/Instruction_adaptive.png,conditions/adaptive.xlsx,test,-0.6,-0.6,-0.6,0.6,0.6,left,L,,,,,0,1,1,1,0,89,89,53,,,,,,,,,,,,,,,,,,,,,,,,,,,,,,,,,,,,,,,,,,,,548.8754811000545,None,right,0,2.1474693999625742,549.3761764001101,550.7797636000905,549.3761764001101,550.2782010999508,549.3761764001101,550.2782010999508,549.3761764001101,550.2782010999508,549.3761764001101,550.2782010999508,549.3761764001101,550.2782010999508,550.2620538999327,550.7625055999961,550.2620538999327,550.7625055999961,550.2620538999327,550.7625055999961,550.2620538999327,550.7625055999961,550.2620538999327,550.7625055999961,550.2620538999327,550.7625055999961,550.2620538999327,550.7625055999961,550.2620538999327,550.7625055999961,549.3761764001101,None,550.7625055999961,None,0.9000000000000006,552.1301243000198,None,552.8824968999252,None,,,,,,,[1.35355556],2.820000000000002,0.7666666666666667,11032,001,2024_Jan_11_1535,MFTM_A_new1021,2021.2.3,59.60139772073111,
,,,,,,,,stim/Instruction_adaptive.png,conditions/adaptive.xlsx,test,-0.6,-0.6,-0.6,0.6,0.6,left,L,,,,,0,1,1,1,0,90,90,13,,,,,,,,,,,,,,,,,,,,,,,,,,,,,,,,,,,,,,,,,,,,553.38284259988,None,right,0,2.3435911999549717,553.8834792000707,555.3193850000389,553.8834792000707,554.8178191999905,553.8834792000707,554.8178191999905,553.8834792000707,554.8178191999905,553.8834792000707,554.8178191999905,553.8834792000707,554.8178191999905,554.8010527000297,555.3025475000031,554.8010527000297,555.3025475000031,554.8010527000297,555.3025475000031,554.8010527000297,555.3025475000031,554.8010527000297,555.3025475000031,554.8010527000297,555.3025475000031,554.8010527000297,555.3025475000031,554.8010527000297,555.3025475000031,553.8834792000707,None,555.3025475000031,None,0.9300000000000006,556.6707325000316,None,557.4217258999124,None,,,,,,,[1.35593407],2.760000000000002,0.7582417582417582,11032,001,2024_Jan_11_1535,MFTM_A_new1021,2021.2.3,59.60139772073111,
,,,,,,,,stim/Instruction_adaptive.png,conditions/adaptive.xlsx,test,0.6,0.6,0.6,-0.6,-0.6,right,R,,,,,0,1,1,1,0,91,91,84,,,,,,,,,,,,,,,,,,,,,,,,,,,,,,,,,,,,,,,,,,,,557.9230925000738,None,left,0,1.6440410998184234,558.423176500015,559.8922687000595,558.423176500015,559.4080270999111,558.423176500015,559.4080270999111,558.423176500015,559.4080270999111,558.423176500015,559.4080270999111,558.423176500015,559.4080270999111,559.3744775999803,559.8767150000203,559.3744775999803,559.8767150000203,559.3744775999803,559.8767150000203,559.3744775999803,559.8767150000203,559.3744775999803,559.8767150000203,559.3744775999803,559.8767150000203,559.3744775999803,559.8767150000203,559.3744775999803,559.8767150000203,558.423176500015,None,559.8767150000203,561.2444005000871,0.9700000000000006,561.2608984000981,None,562.012788800057,None,,,,,,,[1.35782609],2.700000000000002,0.75,11032,001,2024_Jan_11_1535,MFTM_A_new1021,2021.2.3,59.60139772073111,
,,,,,,,,stim/Instruction_adaptive.png,conditions/adaptive.xlsx,test,-0.6,-0.6,-0.6,0.6,0.6,left,L,,,,,0,1,1,1,0,92,92,11,,,,,,,,,,,,,,,,,,,,,,,,,,,,,,,,,,,,,,,,,,,,562.5126994999591,None,right,0,2.1901951001491398,563.0134858998936,564.5325925999787,563.0134858998936,564.031541199889,563.0134858998936,564.031541199889,563.0134858998936,564.031541199889,563.0134858998936,564.031541199889,563.0134858998936,564.031541199889,564.014695599908,564.5170730999671,564.014695599908,564.5170730999671,564.014695599908,564.5170730999671,564.014695599908,564.5170730999671,564.014695599908,564.5170730999671,564.014695599908,564.5170730999671,564.014695599908,564.5170730999671,564.014695599908,564.5170730999671,563.0134858998936,None,564.5170730999671,None,1.0100000000000007,565.8840558000375,None,566.6353515998926,None,,,,,,,[1.35924731],2.6300000000000017,0.7419354838709677,11032,001,2024_Jan_11_1535,MFTM_A_new1021,2021.2.3,59.60139772073111,
,,,,,,,,stim/Instruction_adaptive.png,conditions/adaptive.xlsx,test,0.6,0.6,0.6,-0.6,-0.6,right,R,,,,,0,1,1,1,0,93,93,88,,,,,,,,,,,,,,,,,,,,,,,,,,,,,,,,,,,,,,,,,,,,567.135904799914,None,right,1,2.6142980000004172,567.6373548998963,569.2068101000041,567.6373548998963,568.7054832999129,567.6373548998963,568.7054832999129,567.6373548998963,568.7054832999129,567.6373548998963,568.7054832999129,567.6373548998963,568.7054832999129,568.6727209999226,569.1730774000753,568.6727209999226,569.1730774000753,568.6727209999226,569.1730774000753,568.6727209999226,569.1730774000753,568.6727209999226,569.1730774000753,568.6727209999226,569.1730774000753,568.6727209999226,569.1730774000753,568.6727209999226,569.1730774000753,567.6373548998963,None,569.1730774000753,570.5413871998899,1.0600000000000007,570.5577191000339,None,571.3090655999258,None,,,,,,,[1.36010638],2.660000000000002,0.7446808510638298,11032,001,2024_Jan_11_1535,MFTM_A_new1021,2021.2.3,59.60139772073111,
