arrwidth1,arrwidth2,arrwidth3,arrwidth4,arrwidth5,keyb,type,orientation,instruction_image,block_filename,block_type,arrow11,arrow22,arrow33,arrow44,arrow55,keyb_3,orientation3,trials.thisRepN,trials.thisTrialN,trials.thisN,trials.thisIndex,trials_3.thisRepN,trials_3.thisTrialN,trials_3.thisN,trials_3.thisIndex,trials_2.thisRepN,trials_2.thisTrialN,trials_2.thisN,trials_2.thisIndex,welcome.started,welcome.stopped,key_resp.keys,key_resp.rt,key_resp.started,key_resp.stopped,instruction_example.started,instruction_example.stopped,key_resp_3.keys,key_resp_3.rt,key_resp_3.started,key_resp_3.stopped,instruction_task.started,instruction_task.stopped,key_resp_2.keys,key_resp_2.rt,key_resp_2.started,key_resp_2.stopped,text_2.started,text_2.stopped,A1.started,A1.stopped,A2.started,A2.stopped,A3.started,A3.stopped,A4.started,A4.stopped,A5.started,A5.stopped,key_resp_4.keys,key_resp_4.corr,key_resp_4.rt,key_resp_4.started,key_resp_4.stopped,fb.started,fb.stopped,instruction_block.started,instruction_block.stopped,key_resp_8.keys,key_resp_8.rt,key_resp_8.started,key_resp_8.stopped,text_8.started,text_8.stopped,key_resp_9.keys,key_resp_9.corr,key_resp_9.rt,text_5.started,text_5.stopped,A11_3.started,A11_3.stopped,A22_2.started,A22_2.stopped,A33_2.started,A33_2.stopped,A44_2.started,A44_2.stopped,A55_2.started,A55_2.stopped,M1_3.started,M1_3.stopped,M2_2.started,M2_2.stopped,M3_2.started,M3_2.stopped,M4_2.started,M4_2.stopped,M5_2.started,M5_2.stopped,M6_2.started,M6_2.stopped,M7_2.started,M7_2.stopped,M8_2.started,M8_2.stopped,key_resp_9.started,key_resp_9.stopped,fixation.started,fixation.stopped,ET,fb_3.started,fb_3.stopped,text_9.started,text_9.stopped,fb_4.started,fb_4.stopped,text_7.started,text_7.stopped,endtext.started,endtext.stopped,fixation_ITI,CCC,Acc,participant,session,date,expName,psychopyVersion,frameRate,
,,,,,,,,,,,,,,,,,,,,,,,,,,,,,,704.591816399945,None,space,50.03375840000808,704.591816399945,None,,,,,,,,,,,,,,,,,,,,,,,,,,,,,,,,,,,,,,,,,,,,,,,,,,,,,,,,,,,,,,,,,,,,,,,,,,,,,,,,,,,,,,,,,11031,002,2024_Jan_11_1446,MFTM_A_new1021,2021.2.3,60.088173455538495,
,,,,,,,,,,,,,,,,,,,,,,,,,,,,,,,,,,,,754.6491548998747,None,space,7.568607799941674,754.6491548998747,None,,,,,,,,,,,,,,,,,,,,,,,,,,,,,,,,,,,,,,,,,,,,,,,,,,,,,,,,,,,,,,,,,,,,,,,,,,,,,,,,,,,11031,002,2024_Jan_11_1446,MFTM_A_new1021,2021.2.3,60.088173455538495,
,,,,,,,,,,,,,,,,,,,,,,,,,,,,,,,,,,,,,,,,,,762.244049699977,None,space,2.037916700122878,762.244049699977,None,,,,,,,,,,,,,,,,,,,,,,,,,,,,,,,,,,,,,,,,,,,,,,,,,,,,,,,,,,,,,,,,,,,,,,,,,,,,,11031,002,2024_Jan_11_1446,MFTM_A_new1021,2021.2.3,60.088173455538495,
0.6,0.6,0.6,-0.6,-0.6,right,3:2,R,,,,,,,,,,,0,0,0,0,,,,,,,,,,,,,,,,,,,,,,,,,,,764.3140668999404,None,764.3140668999404,None,764.3140668999404,None,764.3140668999404,None,764.3140668999404,None,764.3140668999404,None,right,1,2.4956797000486404,764.3140668999404,None,766.8517036000267,None,,,,,,,,,,,,,,,,,,,,,,,,,,,,,,,,,,,,,,,,,,,,,,,,,,,,,,,,,,11031,002,2024_Jan_11_1446,MFTM_A_new1021,2021.2.3,60.088173455538495,
-0.6,-0.6,-0.6,0.6,0.6,left,3:2,L,,,,,,,,,,,0,1,1,1,,,,,,,,,,,,,,,,,,,,,,,,,,,767.6019663000479,None,767.6019663000479,None,767.6019663000479,None,767.6019663000479,None,767.6019663000479,None,767.6019663000479,None,left,1,1.0480357001069933,767.6019663000479,None,768.6700373999774,None,,,,,,,,,,,,,,,,,,,,,,,,,,,,,,,,,,,,,,,,,,,,,,,,,,,,,,,,,,11031,002,2024_Jan_11_1446,MFTM_A_new1021,2021.2.3,60.088173455538495,
0.6,0.6,0.6,-0.6,-0.6,right,3:2,R,,,,,,,,,,,1,0,2,0,,,,,,,,,,,,,,,,,,,,,,,,,,,769.4213111998979,None,769.4213111998979,None,769.4213111998979,None,769.4213111998979,None,769.4213111998979,None,769.4213111998979,None,left,0,7.476547199999914,769.4213111998979,None,776.9155820000451,None,,,,,,,,,,,,,,,,,,,,,,,,,,,,,,,,,,,,,,,,,,,,,,,,,,,,,,,,,,11031,002,2024_Jan_11_1446,MFTM_A_new1021,2021.2.3,60.088173455538495,
-0.6,-0.6,-0.6,0.6,0.6,left,3:2,L,,,,,,,,,,,1,1,3,1,,,,,,,,,,,,,,,,,,,,,,,,,,,777.6667958998587,None,777.6667958998587,None,777.6667958998587,None,777.6667958998587,None,777.6667958998587,None,777.6667958998587,None,right,0,4.143010600004345,777.6667958998587,None,781.8398474999703,None,,,,,,,,,,,,,,,,,,,,,,,,,,,,,,,,,,,,,,,,,,,,,,,,,,,,,,,,,,11031,002,2024_Jan_11_1446,MFTM_A_new1021,2021.2.3,60.088173455538495,
,,,,,,,,stim/Instruction_mask.png,conditions/adaptive.xlsx,practice,-0.6,-0.6,-0.6,0.6,0.6,left,L,,,,,0,0,0,0,0,0,0,93,,,,,,,,,,,,,,,,,,,,,,,,,,,,,,,,,,,,,,782.8256624999922,None,space,11.600363499950618,782.8256624999922,None,794.5258462000638,None,left,1,3.226392300100997,794.9593616998754,None,794.9593616998754,797.9647248999681,794.9593616998754,797.9647248999681,794.9593616998754,797.9647248999681,794.9593616998754,797.9647248999681,794.9593616998754,797.9647248999681,797.946692999918,798.4481909999158,797.946692999918,798.4481909999158,797.946692999918,798.4481909999158,797.946692999918,798.4481909999158,797.946692999918,798.4481909999158,797.946692999918,798.4481909999158,797.946692999918,798.4481909999158,797.946692999918,798.4481909999158,794.9593616998754,None,798.4481909999158,798.4481909999158,3,798.4642819000874,None,799.2154302999843,None,,,,,,,,,,11031,002,2024_Jan_11_1446,MFTM_A_new1021,2021.2.3,60.088173455538495,
,,,,,,,,stim/Instruction_mask.png,conditions/adaptive.xlsx,practice,0.6,0.6,0.6,-0.6,-0.6,right,R,,,,,0,0,0,0,0,1,1,76,,,,,,,,,,,,,,,,,,,,,,,,,,,,,,,,,,,,,,,,,,,,799.7162100998685,None,right,1,1.553457599831745,800.2167263999581,802.2197994999588,800.2167263999581,801.7190489000641,800.2167263999581,801.7190489000641,800.2167263999581,801.7190489000641,800.2167263999581,801.7190489000641,800.2167263999581,801.7190489000641,801.7023958000354,802.2038523000665,801.7023958000354,802.2038523000665,801.7023958000354,802.2038523000665,801.7023958000354,802.2038523000665,801.7023958000354,802.2038523000665,801.7023958000354,802.2038523000665,801.7023958000354,802.2038523000665,801.7023958000354,802.2038523000665,800.2167263999581,None,802.2038523000665,803.706253600074,1.5,803.7220139000565,None,804.4730831999332,None,,,,,,,,,,11031,002,2024_Jan_11_1446,MFTM_A_new1021,2021.2.3,60.088173455538495,
,,,,,,,,stim/Instruction_mask.png,conditions/adaptive.xlsx,practice,0.6,0.6,0.6,-0.6,-0.6,right,R,,,,,0,0,0,0,0,2,2,92,,,,,,,,,,,,,,,,,,,,,,,,,,,,,,,,,,,,,,,,,,,,804.9740198999643,None,right,1,1.478217599913478,805.4754900999833,806.7763401998673,805.4754900999833,806.2761262999848,805.4754900999833,806.2761262999848,805.4754900999833,806.2761262999848,805.4754900999833,806.2761262999848,805.4754900999833,806.2761262999848,806.2595752999187,806.7599899999332,806.2595752999187,806.7599899999332,806.2595752999187,806.7599899999332,806.2595752999187,806.7599899999332,806.2595752999187,806.7599899999332,806.2595752999187,806.7599899999332,806.2595752999187,806.7599899999332,806.2595752999187,806.7599899999332,805.4754900999833,None,806.7599899999332,808.9646892000455,0.8,808.9804549000692,None,809.7307855999097,None,,,,,,,,,,11031,002,2024_Jan_11_1446,MFTM_A_new1021,2021.2.3,60.088173455538495,
,,,,,,,,stim/Instruction_mask.png,conditions/adaptive.xlsx,practice,0.6,0.6,0.6,-0.6,-0.6,right,R,,,,,0,0,0,0,0,3,3,16,,,,,,,,,,,,,,,,,,,,,,,,,,,,,,,,,,,,,,,,,,,,810.2320487999823,None,left,0,1.01376420003362,810.7324550000485,811.4841177999042,810.7324550000485,810.9837080999278,810.7324550000485,810.9837080999278,810.7324550000485,810.9837080999278,810.7324550000485,810.9837080999278,810.7324550000485,810.9837080999278,810.9660855000839,811.4673987999558,810.9660855000839,811.4673987999558,810.9660855000839,811.4673987999558,810.9660855000839,811.4673987999558,810.9660855000839,811.4673987999558,810.9660855000839,811.4673987999558,810.9660855000839,811.4673987999558,810.9660855000839,811.4673987999558,810.7324550000485,None,811.4673987999558,814.2215452999808,3,814.2383705999237,None,814.9898059999105,None,,,,,,,,,,11031,002,2024_Jan_11_1446,MFTM_A_new1021,2021.2.3,60.088173455538495,
,,,,,,,,stim/Instruction_mask.png,conditions/adaptive.xlsx,practice,,,,,,,,,,,,0,0,0,0,,,,,,,,,,,,,,,,,,,,,,,,,,,,,,,,,,,,,,,,,,,,,,,,,,,,,,,,,,,,,,,,,,,,,,,,,,,,,,,,,,,,,,,,,,815.506279299967,816.5099891000427,816.4908145000227,816.4908145000227,816.4908145000227,None,,,,11031,002,2024_Jan_11_1446,MFTM_A_new1021,2021.2.3,60.088173455538495,
,,,,,,,,stim/Instruction_adaptive.png,conditions/adaptive.xlsx,test,0.6,0.6,0.6,-0.6,-0.6,right,R,,,,,0,1,1,1,0,0,0,92,,,,,,,,,,,,,,,,,,,,,,,,,,,,,,,,,,,,,,819.6447330999654,None,space,19.189162299968302,819.6447330999654,None,838.8735120999627,None,right,1,1.4899011000525206,839.3759595998563,None,839.3759595998563,842.3794706999324,839.3759595998563,842.3794706999324,839.3759595998563,842.3794706999324,839.3759595998563,842.3794706999324,839.3759595998563,842.3794706999324,842.362955099903,842.864631799981,842.362955099903,842.864631799981,842.362955099903,842.864631799981,842.362955099903,842.864631799981,842.362955099903,842.864631799981,842.362955099903,842.864631799981,842.362955099903,842.864631799981,842.362955099903,842.864631799981,839.3759595998563,None,842.8471772999037,842.8471772999037,3,842.8810089000035,None,843.6322500000242,None,,,,,,,0,6.000000000000005,1.0,11031,002,2024_Jan_11_1446,MFTM_A_new1021,2021.2.3,60.088173455538495,
,,,,,,,,stim/Instruction_adaptive.png,conditions/adaptive.xlsx,test,-0.6,-0.6,-0.6,0.6,0.6,left,L,,,,,0,1,1,1,0,1,1,5,,,,,,,,,,,,,,,,,,,,,,,,,,,,,,,,,,,,,,,,,,,,844.1326133999974,None,left,1,0.9294379001948982,844.6325222998857,845.3838190999813,844.6325222998857,844.883231600048,844.6325222998857,844.883231600048,844.6325222998857,844.883231600048,844.6325222998857,844.883231600048,844.6325222998857,844.883231600048,844.8673054999672,845.3669890998863,844.8673054999672,845.3669890998863,844.8673054999672,845.3669890998863,844.8673054999672,845.3669890998863,844.8673054999672,845.3669890998863,844.8673054999672,845.3669890998863,844.8673054999672,845.3669890998863,844.8673054999672,845.3669890998863,844.6325222998857,None,845.3669890998863,846.2517941000406,0.25,846.2684339000843,None,847.0199036998674,None,,,,,,,[0.875],6.000000000000005,1.0,11031,002,2024_Jan_11_1446,MFTM_A_new1021,2021.2.3,60.088173455538495,
,,,,,,,,stim/Instruction_adaptive.png,conditions/adaptive.xlsx,test,-0.6,-0.6,-0.6,0.6,0.6,left,L,,,,,0,1,1,1,0,2,2,7,,,,,,,,,,,,,,,,,,,,,,,,,,,,,,,,,,,,,,,,,,,,847.5203966000117,None,right,0,1.0207996000535786,848.0209269998595,848.7718803999014,848.0209269998595,848.2715483000502,848.0209269998595,848.2715483000502,848.0209269998595,848.2715483000502,848.0209269998595,848.2715483000502,848.0209269998595,848.2715483000502,848.2546590000857,848.7556296000257,848.2546590000857,848.7556296000257,848.2546590000857,848.7556296000257,848.2546590000857,848.7556296000257,848.2546590000857,848.7556296000257,848.2546590000857,848.7556296000257,848.2546590000857,848.7556296000257,848.2546590000857,848.7556296000257,848.0209269998595,None,848.7556296000257,850.0926560000516,0.25,850.1068032998592,None,850.8599368999712,None,,,,,,,[1.33333333],3.1800000000000024,0.6666666666666666,11031,002,2024_Jan_11_1446,MFTM_A_new1021,2021.2.3,60.088173455538495,
,,,,,,,,stim/Instruction_adaptive.png,conditions/adaptive.xlsx,test,-0.6,-0.6,-0.6,0.6,0.6,left,L,,,,,0,1,1,1,0,3,3,25,,,,,,,,,,,,,,,,,,,,,,,,,,,,,,,,,,,,,,,,,,,,851.359467000002,None,left,1,0.6937945999670774,851.8600095999427,853.0958340000361,851.8600095999427,852.5945367000531,851.8600095999427,852.5945367000531,851.8600095999427,852.5945367000531,851.8600095999427,852.5945367000531,851.8600095999427,852.5945367000531,852.5780593999662,853.0791970000137,852.5780593999662,853.0791970000137,852.5780593999662,853.0791970000137,852.5780593999662,853.0791970000137,852.5780593999662,853.0791970000137,852.5780593999662,853.0791970000137,852.5780593999662,853.0791970000137,852.5780593999662,853.0791970000137,851.8600095999427,None,853.0791970000137,854.5306736999191,0.7300000000000004,854.5472299000248,None,855.2985024999361,None,,,,,,,[1.4425],4.030000000000003,0.75,11031,002,2024_Jan_11_1446,MFTM_A_new1021,2021.2.3,60.088173455538495,
,,,,,,,,stim/Instruction_adaptive.png,conditions/adaptive.xlsx,test,-0.6,-0.6,-0.6,0.6,0.6,left,L,,,,,0,1,1,1,0,4,4,75,,,,,,,,,,,,,,,,,,,,,,,,,,,,,,,,,,,,,,,,,,,,855.8004888999276,None,right,0,0.6451736001763493,856.3008105000481,857.2016976999585,856.3008105000481,856.7011545000132,856.3008105000481,856.7011545000132,856.3008105000481,856.7011545000132,856.3008105000481,856.7011545000132,856.3008105000481,856.7011545000132,856.684105399996,857.1848372998647,856.684105399996,857.1848372998647,856.684105399996,857.1848372998647,856.684105399996,857.1848372998647,856.684105399996,857.1848372998647,856.684105399996,857.1848372998647,856.684105399996,857.1848372998647,856.684105399996,857.1848372998647,856.3008105000481,None,857.1848372998647,858.7708036999684,0.40000000000000013,858.7866662999149,None,859.539083099924,None,,,,,,,[1.574],2.8100000000000023,0.6,11031,002,2024_Jan_11_1446,MFTM_A_new1021,2021.2.3,60.088173455538495,
,,,,,,,,stim/Instruction_adaptive.png,conditions/adaptive.xlsx,test,0.6,0.6,0.6,-0.6,-0.6,right,R,,,,,0,1,1,1,0,5,5,30,,,,,,,,,,,,,,,,,,,,,,,,,,,,,,,,,,,,,,,,,,,,860.0387558999937,None,right,1,0.7421361999586225,860.5395899999421,861.9927819999866,860.5395899999421,861.4917530000675,860.5395899999421,861.4917530000675,860.5395899999421,861.4917530000675,860.5395899999421,861.4917530000675,860.5395899999421,861.4917530000675,861.4576159999706,861.9590646000579,861.4576159999706,861.9590646000579,861.4576159999706,861.9590646000579,861.4576159999706,861.9590646000579,861.4576159999706,861.9590646000579,861.4576159999706,861.9590646000579,861.4576159999706,861.9590646000579,861.4576159999706,861.9590646000579,860.5395899999421,None,861.9590646000579,863.5284706999082,0.9400000000000006,863.5440072000492,None,864.2954813998658,None,,,,,,,[[1.56]],3.3300000000000027,0.6666666666666666,11031,002,2024_Jan_11_1446,MFTM_A_new1021,2021.2.3,60.088173455538495,
,,,,,,,,stim/Instruction_adaptive.png,conditions/adaptive.xlsx,test,0.6,0.6,0.6,-0.6,-0.6,right,R,,,,,0,1,1,1,0,6,6,12,,,,,,,,,,,,,,,,,,,,,,,,,,,,,,,,,,,,,,,,,,,,864.7975065999199,None,left,0,0.688556500012055,865.297378399875,866.4483392999973,865.297378399875,865.9475759000052,865.297378399875,865.9475759000052,865.297378399875,865.9475759000052,865.297378399875,865.9475759000052,865.297378399875,865.9475759000052,865.9316745998804,866.4317838000134,865.9316745998804,866.4317838000134,865.9316745998804,866.4317838000134,865.9316745998804,866.4317838000134,865.9316745998804,866.4317838000134,865.9316745998804,866.4317838000134,865.9316745998804,866.4317838000134,865.9316745998804,866.4317838000134,865.297378399875,None,866.4317838000134,868.0515572999138,0.6500000000000004,868.0674346999731,None,868.8187100999057,None,,,,,,,[1.61142857],2.3600000000000017,0.5714285714285714,11031,002,2024_Jan_11_1446,MFTM_A_new1021,2021.2.3,60.088173455538495,
,,,,,,,,stim/Instruction_adaptive.png,conditions/adaptive.xlsx,test,0.6,0.6,0.6,-0.6,-0.6,right,R,,,,,0,1,1,1,0,7,7,4,,,,,,,,,,,,,,,,,,,,,,,,,,,,,,,,,,,,,,,,,,,,869.3198233998846,None,right,1,0.5899798001628369,869.8200205999892,871.6066079998855,869.8200205999892,871.105344499927,869.8200205999892,871.105344499927,869.8200205999892,871.105344499927,869.8200205999892,871.105344499927,869.8200205999892,871.105344499927,871.0892946000677,871.5900474998634,871.0892946000677,871.5900474998634,871.0892946000677,871.5900474998634,871.0892946000677,871.5900474998634,871.0892946000677,871.5900474998634,871.0892946000677,871.5900474998634,871.0892946000677,871.5900474998634,871.0892946000677,871.5900474998634,869.8200205999892,None,871.5900474998634,None,1.280000000000001,872.824104799889,None,873.5762120999862,None,,,,,,,[[1.22]],2.780000000000002,0.625,11031,002,2024_Jan_11_1446,MFTM_A_new1021,2021.2.3,60.088173455538495,
,,,,,,,,stim/Instruction_adaptive.png,conditions/adaptive.xlsx,test,0.6,0.6,0.6,-0.6,-0.6,right,R,,,,,0,1,1,1,0,8,8,88,,,,,,,,,,,,,,,,,,,,,,,,,,,,,,,,,,,,,,,,,,,,874.077237599995,None,left,0,0.9286315001081675,874.577546000015,876.045867400011,874.577546000015,875.5456513999961,874.577546000015,875.5456513999961,874.577546000015,875.5456513999961,874.577546000015,875.5456513999961,874.577546000015,875.5456513999961,875.5291673999745,876.0294784998987,875.5291673999745,876.0294784998987,875.5291673999745,876.0294784998987,875.5291673999745,876.0294784998987,875.5291673999745,876.0294784998987,875.5291673999745,876.0294784998987,875.5291673999745,876.0294784998987,875.5291673999745,876.0294784998987,874.577546000015,None,876.0294784998987,None,0.9600000000000006,877.5809879000299,None,878.3332851000596,None,,,,,,,[[1.54]],1.8800000000000012,0.5555555555555556,11031,002,2024_Jan_11_1446,MFTM_A_new1021,2021.2.3,60.088173455538495,
,,,,,,,,stim/Instruction_adaptive.png,conditions/adaptive.xlsx,test,0.6,0.6,0.6,-0.6,-0.6,right,R,,,,,0,1,1,1,0,9,9,72,,,,,,,,,,,,,,,,,,,,,,,,,,,,,,,,,,,,,,,,,,,,878.8333842998836,None,right,1,2.0034533999860287,879.3345415999647,881.6379289999604,879.3345415999647,881.1367407999933,879.3345415999647,881.1367407999933,879.3345415999647,881.1367407999933,879.3345415999647,881.1367407999933,879.3345415999647,881.1367407999933,881.1040312999394,881.6040320000611,881.1040312999394,881.6040320000611,881.1040312999394,881.6040320000611,881.1040312999394,881.6040320000611,881.1040312999394,881.6040320000611,881.1040312999394,881.6040320000611,881.1040312999394,881.6040320000611,881.1040312999394,881.6040320000611,879.3345415999647,None,881.6040320000611,882.3230520000216,1.7900000000000014,882.3383009000681,None,883.0901891000103,None,,,,,,,[[0.71]],2.2800000000000016,0.6,11031,002,2024_Jan_11_1446,MFTM_A_new1021,2021.2.3,60.088173455538495,
,,,,,,,,stim/Instruction_adaptive.png,conditions/adaptive.xlsx,test,0.6,0.6,0.6,-0.6,-0.6,right,R,,,,,0,1,1,1,0,10,10,32,,,,,,,,,,,,,,,,,,,,,,,,,,,,,,,,,,,,,,,,,,,,883.5908299998846,None,left,0,1.1187173000071198,884.0911943998653,885.9445811000187,884.0911943998653,885.4428600000683,884.0911943998653,885.4428600000683,884.0911943998653,885.4428600000683,884.0911943998653,885.4428600000683,884.0911943998653,885.4428600000683,885.4267100000288,885.9274945999496,885.4267100000288,885.9274945999496,885.4267100000288,885.9274945999496,885.4267100000288,885.9274945999496,885.4267100000288,885.9274945999496,885.4267100000288,885.9274945999496,885.4267100000288,885.9274945999496,885.4267100000288,885.9274945999496,884.0911943998653,None,885.9274945999496,887.0790973999538,1.350000000000001,887.0954052000307,None,887.8475675000809,None,,,,,,,[[1.15]],1.4000000000000008,0.5454545454545454,11031,002,2024_Jan_11_1446,MFTM_A_new1021,2021.2.3,60.088173455538495,
,,,,,,,,stim/Instruction_adaptive.png,conditions/adaptive.xlsx,test,0.6,0.6,0.6,-0.6,-0.6,right,R,,,,,0,1,1,1,0,11,11,18,,,,,,,,,,,,,,,,,,,,,,,,,,,,,,,,,,,,,,,,,,,,888.348429699894,None,left,0,1.0819574999623,888.8480827000458,891.8360095999669,888.8480827000458,891.3531954998616,888.8480827000458,891.3531954998616,888.8480827000458,891.3531954998616,888.8480827000458,891.3531954998616,888.8480827000458,891.3531954998616,891.3186468998902,891.8203014000319,891.3186468998902,891.8203014000319,891.3186468998902,891.8203014000319,891.3186468998902,891.8203014000319,891.3186468998902,891.8203014000319,891.3186468998902,891.8203014000319,891.3186468998902,891.8203014000319,891.3186468998902,891.8203014000319,888.8480827000458,None,891.8203014000319,891.8360095999669,2.490000000000002,891.852605199907,None,892.6040393000003,None,,,,,,,[[0.01]],0.5,0.5,11031,002,2024_Jan_11_1446,MFTM_A_new1021,2021.2.3,60.088173455538495,
,,,,,,,,stim/Instruction_adaptive.png,conditions/adaptive.xlsx,test,0.6,0.6,0.6,-0.6,-0.6,right,R,,,,,0,1,1,1,0,12,12,44,,,,,,,,,,,,,,,,,,,,,,,,,,,,,,,,,,,,,,,,,,,,893.1052621998824,None,right,1,1.9649317997973412,893.6051950000692,None,893.6051950000692,896.6097981000785,893.6051950000692,896.6097981000785,893.6051950000692,896.6097981000785,893.6051950000692,896.6097981000785,893.6051950000692,896.6097981000785,896.5937737999484,897.093943899963,896.5937737999484,897.093943899963,896.5937737999484,897.093943899963,896.5937737999484,897.093943899963,896.5937737999484,897.093943899963,896.5937737999484,897.093943899963,896.5937737999484,897.093943899963,896.5937737999484,897.093943899963,893.6051950000692,None,897.093943899963,897.093943899963,3.0000000000000027,897.1103320999537,None,897.8623828999698,None,,,,,,,0,0.6400000000000001,0.5384615384615384,11031,002,2024_Jan_11_1446,MFTM_A_new1021,2021.2.3,60.088173455538495,
,,,,,,,,stim/Instruction_adaptive.png,conditions/adaptive.xlsx,test,-0.6,-0.6,-0.6,0.6,0.6,left,L,,,,,0,1,1,1,0,13,13,1,,,,,,,,,,,,,,,,,,,,,,,,,,,,,,,,,,,,,,,,,,,,898.3629290999379,None,right,0,1.6913026000838727,898.8628293999936,None,898.8628293999936,901.8674327998888,898.8628293999936,901.8674327998888,898.8628293999936,901.8674327998888,898.8628293999936,901.8674327998888,898.8628293999936,901.8674327998888,901.8508760000113,902.3523861998692,901.8508760000113,902.3523861998692,901.8508760000113,902.3523861998692,901.8508760000113,902.3523861998692,901.8508760000113,902.3523861998692,901.8508760000113,902.3523861998692,901.8508760000113,902.3523861998692,901.8508760000113,902.3523861998692,898.8628293999936,None,902.3523861998692,902.3523861998692,3.0000000000000027,902.3682572999969,None,903.1191853999626,None,,,,,,,0,0.5,0.5,11031,002,2024_Jan_11_1446,MFTM_A_new1021,2021.2.3,60.088173455538495,
,,,,,,,,stim/Instruction_adaptive.png,conditions/adaptive.xlsx,test,0.6,0.6,0.6,-0.6,-0.6,right,R,,,,,0,1,1,1,0,14,14,64,,,,,,,,,,,,,,,,,,,,,,,,,,,,,,,,,,,,,,,,,,,,903.6199272999074,None,right,1,2.537180900108069,904.1209310998674,None,904.1209310998674,907.1253027999774,904.1209310998674,907.1253027999774,904.1209310998674,907.1253027999774,904.1209310998674,907.1253027999774,904.1209310998674,907.1253027999774,907.1084710999858,907.6093675999437,907.1084710999858,907.6093675999437,907.1084710999858,907.6093675999437,907.1084710999858,907.6093675999437,907.1084710999858,907.6093675999437,907.1084710999858,907.6093675999437,907.1084710999858,907.6093675999437,907.1084710999858,907.6093675999437,904.1209310998674,None,907.6093675999437,907.6093675999437,3.0000000000000027,907.6263373000547,None,908.3770260000601,None,,,,,,,0,0.5,0.5333333333333333,11031,002,2024_Jan_11_1446,MFTM_A_new1021,2021.2.3,60.088173455538495,
,,,,,,,,stim/Instruction_adaptive.png,conditions/adaptive.xlsx,test,-0.6,-0.6,-0.6,0.6,0.6,left,L,,,,,0,1,1,1,0,15,15,43,,,,,,,,,,,,,,,,,,,,,,,,,,,,,,,,,,,,,,,,,,,,908.8788159999531,None,left,1,1.815344600006938,909.3786053999793,None,909.3786053999793,912.3830307000317,909.3786053999793,912.3830307000317,909.3786053999793,912.3830307000317,909.3786053999793,912.3830307000317,909.3786053999793,912.3830307000317,912.3664625000674,912.8673133000266,912.3664625000674,912.8673133000266,912.3664625000674,912.8673133000266,912.3664625000674,912.8673133000266,912.3664625000674,912.8673133000266,912.3664625000674,912.8673133000266,912.3664625000674,912.8673133000266,912.3664625000674,912.8673133000266,909.3786053999793,None,912.8673133000266,912.8673133000266,3.0000000000000027,912.8837592999917,None,913.6355928999837,None,,,,,,,0,0.53,0.5625,11031,002,2024_Jan_11_1446,MFTM_A_new1021,2021.2.3,60.088173455538495,
,,,,,,,,stim/Instruction_adaptive.png,conditions/adaptive.xlsx,test,0.6,0.6,0.6,-0.6,-0.6,right,R,,,,,0,1,1,1,0,16,16,26,,,,,,,,,,,,,,,,,,,,,,,,,,,,,,,,,,,,,,,,,,,,914.1360235000029,None,right,1,1.5337195999454707,914.6361751998775,None,914.6361751998775,917.6421860998962,914.6361751998775,917.6421860998962,914.6361751998775,917.6421860998962,914.6361751998775,917.6421860998962,914.6361751998775,917.6421860998962,917.6247089998797,918.1255369000137,917.6247089998797,918.1255369000137,917.6247089998797,918.1255369000137,917.6247089998797,918.1255369000137,917.6247089998797,918.1255369000137,917.6247089998797,918.1255369000137,917.6247089998797,918.1255369000137,917.6247089998797,918.1255369000137,914.6361751998775,None,918.1255369000137,918.1255369000137,3.0000000000000027,918.1418959998991,None,918.8944262000732,None,,,,,,,0,0.8700000000000003,0.5882352941176471,11031,002,2024_Jan_11_1446,MFTM_A_new1021,2021.2.3,60.088173455538495,
,,,,,,,,stim/Instruction_adaptive.png,conditions/adaptive.xlsx,test,-0.6,-0.6,-0.6,0.6,0.6,left,L,,,,,0,1,1,1,0,17,17,9,,,,,,,,,,,,,,,,,,,,,,,,,,,,,,,,,,,,,,,,,,,,919.3945980998687,None,left,1,1.5236347001045942,919.8942390000448,None,919.8942390000448,922.8986323000863,919.8942390000448,922.8986323000863,919.8942390000448,922.8986323000863,919.8942390000448,922.8986323000863,919.8942390000448,922.8986323000863,922.8818757999688,923.3832495000679,922.8818757999688,923.3832495000679,922.8818757999688,923.3832495000679,922.8818757999688,923.3832495000679,922.8818757999688,923.3832495000679,922.8818757999688,923.3832495000679,922.8818757999688,923.3832495000679,922.8818757999688,923.3832495000679,919.8942390000448,None,923.3832495000679,923.3832495000679,3.0000000000000027,923.399374099914,None,924.15085919993,None,,,,,,,0,1.1200000000000006,0.6111111111111112,11031,002,2024_Jan_11_1446,MFTM_A_new1021,2021.2.3,60.088173455538495,
,,,,,,,,stim/Instruction_adaptive.png,conditions/adaptive.xlsx,test,-0.6,-0.6,-0.6,0.6,0.6,left,L,,,,,0,1,1,1,0,18,18,53,,,,,,,,,,,,,,,,,,,,,,,,,,,,,,,,,,,,,,,,,,,,924.6516992999241,None,right,0,1.753238399978727,925.1525061000139,None,925.1525061000139,928.1571887000464,925.1525061000139,928.1571887000464,925.1525061000139,928.1571887000464,925.1525061000139,928.1571887000464,925.1525061000139,928.1571887000464,928.140585300047,928.6409276998602,928.140585300047,928.6409276998602,928.140585300047,928.6409276998602,928.140585300047,928.6409276998602,928.140585300047,928.6409276998602,928.140585300047,928.6409276998602,928.140585300047,928.6409276998602,928.140585300047,928.6409276998602,925.1525061000139,None,928.6409276998602,928.6409276998602,3.0000000000000027,928.6571054998785,None,929.4088242999278,None,,,,,,,0,0.5,0.5789473684210527,11031,002,2024_Jan_11_1446,MFTM_A_new1021,2021.2.3,60.088173455538495,
,,,,,,,,stim/Instruction_adaptive.png,conditions/adaptive.xlsx,test,-0.6,-0.6,-0.6,0.6,0.6,left,L,,,,,0,1,1,1,0,19,19,35,,,,,,,,,,,,,,,,,,,,,,,,,,,,,,,,,,,,,,,,,,,,929.9093790999614,None,left,1,2.120133599964902,930.4099055998959,None,930.4099055998959,933.414172800025,930.4099055998959,933.414172800025,930.4099055998959,933.414172800025,930.4099055998959,933.414172800025,930.4099055998959,933.414172800025,933.3979742999654,933.8989422000013,933.3979742999654,933.8989422000013,933.3979742999654,933.8989422000013,933.3979742999654,933.8989422000013,933.3979742999654,933.8989422000013,933.3979742999654,933.8989422000013,933.3979742999654,933.8989422000013,933.3979742999654,933.8989422000013,930.4099055998959,None,933.8989422000013,933.8989422000013,3.0000000000000027,933.9148460999131,None,934.6668636999093,None,,,,,,,0,0.7500000000000002,0.6,11031,002,2024_Jan_11_1446,MFTM_A_new1021,2021.2.3,60.088173455538495,
,,,,,,,,stim/Instruction_adaptive.png,conditions/adaptive.xlsx,test,0.6,0.6,0.6,-0.6,-0.6,right,R,,,,,0,1,1,1,0,20,20,96,,,,,,,,,,,,,,,,,,,,,,,,,,,,,,,,,,,,,,,,,,,,935.1675567000639,None,right,1,1.9266277998685837,935.6675990000367,None,935.6675990000367,938.6721931998618,935.6675990000367,938.6721931998618,935.6675990000367,938.6721931998618,935.6675990000367,938.6721931998618,935.6675990000367,938.6721931998618,938.6555920999963,939.1563164000399,938.6555920999963,939.1563164000399,938.6555920999963,939.1563164000399,938.6555920999963,939.1563164000399,938.6555920999963,939.1563164000399,938.6555920999963,939.1563164000399,938.6555920999963,939.1563164000399,938.6555920999963,939.1563164000399,935.6675990000367,None,939.1563164000399,939.1563164000399,3.0000000000000027,939.1728421999142,None,939.9242732999846,None,,,,,,,0,0.9600000000000004,0.6190476190476191,11031,002,2024_Jan_11_1446,MFTM_A_new1021,2021.2.3,60.088173455538495,
,,,,,,,,stim/Instruction_adaptive.png,conditions/adaptive.xlsx,test,-0.6,-0.6,-0.6,0.6,0.6,left,L,,,,,0,1,1,1,0,21,21,3,,,,,,,,,,,,,,,,,,,,,,,,,,,,,,,,,,,,,,,,,,,,940.4257280998863,None,left,1,2.3088668000418693,940.9252094998956,None,940.9252094998956,943.9307369999588,940.9252094998956,943.9307369999588,940.9252094998956,943.9307369999588,940.9252094998956,943.9307369999588,940.9252094998956,943.9307369999588,943.9135455999058,944.414317100076,943.9135455999058,944.414317100076,943.9135455999058,944.414317100076,943.9135455999058,944.414317100076,943.9135455999058,944.414317100076,943.9135455999058,944.414317100076,943.9135455999058,944.414317100076,943.9135455999058,944.414317100076,940.9252094998956,None,944.414317100076,944.414317100076,3.0000000000000027,944.4305610998999,None,945.1841883000452,None,,,,,,,0,1.1200000000000006,0.6363636363636364,11031,002,2024_Jan_11_1446,MFTM_A_new1021,2021.2.3,60.088173455538495,
,,,,,,,,stim/Instruction_adaptive.png,conditions/adaptive.xlsx,test,0.6,0.6,0.6,-0.6,-0.6,right,R,,,,,0,1,1,1,0,22,22,58,,,,,,,,,,,,,,,,,,,,,,,,,,,,,,,,,,,,,,,,,,,,945.6825220999308,None,right,1,1.5060934000648558,946.1838247000705,None,946.1838247000705,949.1874967999756,946.1838247000705,949.1874967999756,946.1838247000705,949.1874967999756,946.1838247000705,949.1874967999756,946.1838247000705,949.1874967999756,949.1708807998803,949.6715798999649,949.1708807998803,949.6715798999649,949.1708807998803,949.6715798999649,949.1708807998803,949.6715798999649,949.1708807998803,949.6715798999649,949.1708807998803,949.6715798999649,949.1708807998803,949.6715798999649,949.1708807998803,949.6715798999649,946.1838247000705,None,949.6715798999649,949.6715798999649,3.0000000000000027,949.6892915999051,None,950.4410305998754,None,,,,,,,0,1.2600000000000007,0.6521739130434783,11031,002,2024_Jan_11_1446,MFTM_A_new1021,2021.2.3,60.088173455538495,
,,,,,,,,stim/Instruction_adaptive.png,conditions/adaptive.xlsx,test,-0.6,-0.6,-0.6,0.6,0.6,left,L,,,,,0,1,1,1,0,23,23,63,,,,,,,,,,,,,,,,,,,,,,,,,,,,,,,,,,,,,,,,,,,,950.9407730998937,None,left,1,3.0248765000142157,951.4409789000638,None,951.4409789000638,954.1950016999617,951.4409789000638,954.1950016999617,951.4409789000638,954.1950016999617,951.4409789000638,954.1950016999617,951.4409789000638,954.1950016999617,954.178857000079,954.6792707000859,954.178857000079,954.6792707000859,954.178857000079,954.6792707000859,954.178857000079,954.6792707000859,954.178857000079,954.6792707000859,954.178857000079,954.6792707000859,954.178857000079,954.6792707000859,954.178857000079,954.6792707000859,951.4409789000638,None,954.6792707000859,954.6792707000859,2.750000000000002,954.6961980999913,None,955.4475422999822,None,,,,,,,0,1.3800000000000008,0.6666666666666666,11031,002,2024_Jan_11_1446,MFTM_A_new1021,2021.2.3,60.088173455538495,
,,,,,,,,stim/Instruction_adaptive.png,conditions/adaptive.xlsx,test,0.6,0.6,0.6,-0.6,-0.6,right,R,,,,,0,1,1,1,0,24,24,2,,,,,,,,,,,,,,,,,,,,,,,,,,,,,,,,,,,,,,,,,,,,955.94892850006,None,right,1,2.5620261000003666,956.4481949000619,None,956.4481949000619,958.9862186000682,956.4481949000619,958.9862186000682,956.4481949000619,958.9862186000682,956.4481949000619,958.9862186000682,956.4481949000619,958.9862186000682,958.952685300028,959.4533458000515,958.952685300028,959.4533458000515,958.952685300028,959.4533458000515,958.952685300028,959.4533458000515,958.952685300028,959.4533458000515,958.952685300028,959.4533458000515,958.952685300028,959.4533458000515,958.952685300028,959.4533458000515,956.4481949000619,None,959.4533458000515,959.4533458000515,2.530000000000002,959.4867597999983,None,960.2379091000184,None,,,,,,,0,1.4800000000000009,0.68,11031,002,2024_Jan_11_1446,MFTM_A_new1021,2021.2.3,60.088173455538495,
,,,,,,,,stim/Instruction_adaptive.png,conditions/adaptive.xlsx,test,-0.6,-0.6,-0.6,0.6,0.6,left,L,,,,,0,1,1,1,0,25,25,77,,,,,,,,,,,,,,,,,,,,,,,,,,,,,,,,,,,,,,,,,,,,960.7388444000389,None,left,1,1.947037700098008,961.2389251000714,964.1100506000221,961.2389251000714,963.6100792998914,961.2389251000714,963.6100792998914,961.2389251000714,963.6100792998914,961.2389251000714,963.6100792998914,961.2389251000714,963.6100792998914,963.5763727999292,964.0769630998839,963.5763727999292,964.0769630998839,963.5763727999292,964.0769630998839,963.5763727999292,964.0769630998839,963.5763727999292,964.0769630998839,963.5763727999292,964.0769630998839,963.5763727999292,964.0769630998839,963.5763727999292,964.0769630998839,961.2389251000714,None,964.0769630998839,964.2273506999481,2.360000000000002,964.2435234999284,None,964.9950107000768,None,,,,,,,[[0.14]],1.570000000000001,0.6923076923076923,11031,002,2024_Jan_11_1446,MFTM_A_new1021,2021.2.3,60.088173455538495,
,,,,,,,,stim/Instruction_adaptive.png,conditions/adaptive.xlsx,test,0.6,0.6,0.6,-0.6,-0.6,right,R,,,,,0,1,1,1,0,26,26,70,,,,,,,,,,,,,,,,,,,,,,,,,,,,,,,,,,,,,,,,,,,,965.495294299908,None,right,1,1.7983944001607597,965.9957143999636,968.7169003998861,965.9957143999636,968.2167551999446,965.9957143999636,968.2167551999446,965.9957143999636,968.2167551999446,965.9957143999636,968.2167551999446,965.9957143999636,968.2167551999446,968.198911299929,968.6999009000137,968.198911299929,968.6999009000137,968.198911299929,968.6999009000137,968.198911299929,968.6999009000137,968.198911299929,968.6999009000137,968.198911299929,968.6999009000137,968.198911299929,968.6999009000137,968.198911299929,968.6999009000137,965.9957143999636,None,968.6999009000137,968.9840853998903,2.2200000000000015,969.0002047999296,None,969.7516093000304,None,,,,,,,[[0.28]],1.660000000000001,0.7037037037037037,11031,002,2024_Jan_11_1446,MFTM_A_new1021,2021.2.3,60.088173455538495,
,,,,,,,,stim/Instruction_adaptive.png,conditions/adaptive.xlsx,test,0.6,0.6,0.6,-0.6,-0.6,right,R,,,,,0,1,1,1,0,27,27,94,,,,,,,,,,,,,,,,,,,,,,,,,,,,,,,,,,,,,,,,,,,,970.2529531999025,None,right,1,2.0813397001475096,970.7527971998788,973.340477099875,970.7527971998788,972.8392989998683,970.7527971998788,972.8392989998683,970.7527971998788,972.8392989998683,970.7527971998788,972.8392989998683,970.7527971998788,972.8392989998683,972.8225416999776,973.3234913998749,972.8225416999776,973.3234913998749,972.8225416999776,973.3234913998749,972.8225416999776,973.3234913998749,972.8225416999776,973.3234913998749,972.8225416999776,973.3234913998749,972.8225416999776,973.3234913998749,972.8225416999776,973.3234913998749,970.7527971998788,None,973.3234913998749,None,2.080000000000002,973.7239459999837,None,974.4752990999259,None,,,,,,,[0.39178571],1.730000000000001,0.7142857142857143,11031,002,2024_Jan_11_1446,MFTM_A_new1021,2021.2.3,60.088173455538495,
,,,,,,,,stim/Instruction_adaptive.png,conditions/adaptive.xlsx,test,-0.6,-0.6,-0.6,0.6,0.6,left,L,,,,,0,1,1,1,0,28,28,95,,,,,,,,,,,,,,,,,,,,,,,,,,,,,,,,,,,,,,,,,,,,974.9763152999803,None,left,1,1.2214491998311132,975.4773039000574,977.9644482999574,975.4773039000574,977.462955399882,975.4773039000574,977.462955399882,975.4773039000574,977.462955399882,975.4773039000574,977.462955399882,975.4773039000574,977.462955399882,977.4299550000578,977.9303753999993,977.4299550000578,977.9303753999993,977.4299550000578,977.9303753999993,977.4299550000578,977.9303753999993,977.4299550000578,977.9303753999993,977.4299550000578,977.9303753999993,977.4299550000578,977.9303753999993,977.4299550000578,977.9303753999993,975.4773039000574,None,977.9481857998762,978.3472307000775,1.9800000000000015,978.3640956999734,None,979.1157052998897,None,,,,,,,[0.3962069],1.8000000000000012,0.7241379310344828,11031,002,2024_Jan_11_1446,MFTM_A_new1021,2021.2.3,60.088173455538495,
,,,,,,,,stim/Instruction_adaptive.png,conditions/adaptive.xlsx,test,0.6,0.6,0.6,-0.6,-0.6,right,R,,,,,0,1,1,1,0,29,29,84,,,,,,,,,,,,,,,,,,,,,,,,,,,,,,,,,,,,,,,,,,,,979.6165640000254,None,right,1,1.477459300076589,980.1165966000408,982.5203511000145,980.1165966000408,982.0199253000319,980.1165966000408,982.0199253000319,980.1165966000408,982.0199253000319,980.1165966000408,982.0199253000319,980.1165966000408,982.0199253000319,981.9865075999405,982.4875604999252,981.9865075999405,982.4875604999252,981.9865075999405,982.4875604999252,981.9865075999405,982.4875604999252,981.9865075999405,982.4875604999252,981.9865075999405,982.4875604999252,981.9865075999405,982.4875604999252,981.9865075999405,982.4875604999252,980.1165966000408,None,982.4875604999252,982.9042537000496,1.8900000000000015,982.9211637000553,None,983.6719889999367,None,,,,,,,[0.40333333],1.8700000000000012,0.7333333333333333,11031,002,2024_Jan_11_1446,MFTM_A_new1021,2021.2.3,60.088173455538495,
,,,,,,,,stim/Instruction_adaptive.png,conditions/adaptive.xlsx,test,0.6,0.6,0.6,-0.6,-0.6,right,R,,,,,0,1,1,1,0,30,30,6,,,,,,,,,,,,,,,,,,,,,,,,,,,,,,,,,,,,,,,,,,,,984.1727491999045,None,left,0,1.3196491000708193,984.6742348999251,986.9770603000652,984.6742348999251,986.4762464000378,984.6742348999251,986.4762464000378,984.6742348999251,986.4762464000378,984.6742348999251,986.4762464000378,984.6742348999251,986.4762464000378,986.4601839999668,986.9606385000516,986.4601839999668,986.9606385000516,986.4601839999668,986.9606385000516,986.4601839999668,986.9606385000516,986.4601839999668,986.9606385000516,986.4601839999668,986.9606385000516,986.4601839999668,986.9606385000516,986.4601839999668,986.9606385000516,984.6742348999251,None,986.9606385000516,987.3794746999629,1.8000000000000014,987.3937782000285,None,988.1455886999611,None,,,,,,,[0.41290323],1.680000000000001,0.7096774193548387,11031,002,2024_Jan_11_1446,MFTM_A_new1021,2021.2.3,60.088173455538495,
,,,,,,,,stim/Instruction_adaptive.png,conditions/adaptive.xlsx,test,0.6,0.6,0.6,-0.6,-0.6,right,R,,,,,0,1,1,1,0,31,31,48,,,,,,,,,,,,,,,,,,,,,,,,,,,,,,,,,,,,,,,,,,,,988.646456199931,None,right,1,1.8710024999454618,989.1469069998711,991.7013580999337,989.1469069998711,991.2004042998888,989.1469069998711,991.2004042998888,989.1469069998711,991.2004042998888,989.1469069998711,991.2004042998888,989.1469069998711,991.2004042998888,991.1838066999335,991.6843055000063,991.1838066999335,991.6843055000063,991.1838066999335,991.6843055000063,991.1838066999335,991.6843055000063,991.1838066999335,991.6843055000063,991.1838066999335,991.6843055000063,991.1838066999335,991.6843055000063,991.1838066999335,991.6843055000063,989.1469069998711,None,991.6843055000063,992.1018540998921,2.0500000000000016,992.1178061000537,None,992.8697440999094,None,,,,,,,[0.4140625],1.750000000000001,0.71875,11031,002,2024_Jan_11_1446,MFTM_A_new1021,2021.2.3,60.088173455538495,
,,,,,,,,stim/Instruction_adaptive.png,conditions/adaptive.xlsx,test,0.6,0.6,0.6,-0.6,-0.6,right,R,,,,,0,1,1,1,0,32,32,28,,,,,,,,,,,,,,,,,,,,,,,,,,,,,,,,,,,,,,,,,,,,993.3697259000037,None,right,1,1.339763400144875,993.8706350000575,996.3414147000294,993.8706350000575,995.8411443000659,993.8706350000575,995.8411443000659,993.8706350000575,995.8411443000659,993.8706350000575,995.8411443000659,993.8706350000575,995.8411443000659,995.8075067000464,996.3080670998897,995.8075067000464,996.3080670998897,995.8075067000464,996.3080670998897,995.8075067000464,996.3080670998897,995.8075067000464,996.3080670998897,995.8075067000464,996.3080670998897,995.8075067000464,996.3080670998897,995.8075067000464,996.3080670998897,993.8706350000575,None,996.3080670998897,996.7254274999723,1.9600000000000015,996.7591096998658,None,997.5095120000187,None,,,,,,,[0.41787879],1.8100000000000012,0.7272727272727273,11031,002,2024_Jan_11_1446,MFTM_A_new1021,2021.2.3,60.088173455538495,
,,,,,,,,stim/Instruction_adaptive.png,conditions/adaptive.xlsx,test,0.6,0.6,0.6,-0.6,-0.6,right,R,,,,,0,1,1,1,0,33,33,34,,,,,,,,,,,,,,,,,,,,,,,,,,,,,,,,,,,,,,,,,,,,998.0099716999102,None,right,1,2.0671299998648465,998.510923899943,1000.8979700999334,998.510923899943,1000.3972400999628,998.510923899943,1000.3972400999628,998.510923899943,1000.3972400999628,998.510923899943,1000.3972400999628,998.510923899943,1000.3972400999628,1000.3803804998752,1000.8811995999422,1000.3803804998752,1000.8811995999422,1000.3803804998752,1000.8811995999422,1000.3803804998752,1000.8811995999422,1000.3803804998752,1000.8811995999422,1000.3803804998752,1000.8811995999422,1000.3803804998752,1000.8811995999422,1000.3803804998752,1000.8811995999422,998.510923899943,None,1000.8652725999709,1001.2999978000298,1.8800000000000014,1001.3148546000011,None,1002.0663795000874,None,,,,,,,[0.42382353],1.8700000000000012,0.7352941176470589,11031,002,2024_Jan_11_1446,MFTM_A_new1021,2021.2.3,60.088173455538495,
,,,,,,,,stim/Instruction_adaptive.png,conditions/adaptive.xlsx,test,0.6,0.6,0.6,-0.6,-0.6,right,R,,,,,0,1,1,1,0,34,34,82,,,,,,,,,,,,,,,,,,,,,,,,,,,,,,,,,,,,,,,,,,,,1002.5672522999812,None,right,1,1.598837599856779,1003.0672325999476,1005.3710036000703,1003.0672325999476,1004.8698612998705,1003.0672325999476,1004.8698612998705,1003.0672325999476,1004.8698612998705,1003.0672325999476,1004.8698612998705,1003.0672325999476,1004.8698612998705,1004.8537810000125,1005.3548349998891,1004.8537810000125,1005.3548349998891,1004.8537810000125,1005.3548349998891,1004.8537810000125,1005.3548349998891,1004.8537810000125,1005.3548349998891,1004.8537810000125,1005.3548349998891,1004.8537810000125,1005.3548349998891,1004.8537810000125,1005.3548349998891,1003.0672325999476,None,1005.3548349998891,1005.7888875999488,1.8000000000000014,1005.8057381999679,None,1006.5560236999299,None,,,,,,,[0.43171429],1.9200000000000013,0.7428571428571429,11031,002,2024_Jan_11_1446,MFTM_A_new1021,2021.2.3,60.088173455538495,
,,,,,,,,stim/Instruction_adaptive.png,conditions/adaptive.xlsx,test,-0.6,-0.6,-0.6,0.6,0.6,left,L,,,,,0,1,1,1,0,35,35,91,,,,,,,,,,,,,,,,,,,,,,,,,,,,,,,,,,,,,,,,,,,,1007.0568931999151,None,left,1,1.4119640002027154,1007.5579599998891,1009.811555699911,1007.5579599998891,1009.3100191000849,1007.5579599998891,1009.3100191000849,1007.5579599998891,1009.3100191000849,1007.5579599998891,1009.3100191000849,1007.5579599998891,1009.3100191000849,1009.2763813999481,1009.7781559000723,1009.2763813999481,1009.7781559000723,1009.2763813999481,1009.7781559000723,1009.2763813999481,1009.7781559000723,1009.2763813999481,1009.7781559000723,1009.2763813999481,1009.7781559000723,1009.2763813999481,1009.7781559000723,1009.2763813999481,1009.7781559000723,1007.5579599998891,None,1009.7781559000723,1010.2292529998813,1.7400000000000013,1010.2453274000436,None,1010.9957729000598,None,,,,,,,[0.44083333],1.9800000000000013,0.75,11031,002,2024_Jan_11_1446,MFTM_A_new1021,2021.2.3,60.088173455538495,
,,,,,,,,stim/Instruction_adaptive.png,conditions/adaptive.xlsx,test,-0.6,-0.6,-0.6,0.6,0.6,left,L,,,,,0,1,1,1,0,36,36,89,,,,,,,,,,,,,,,,,,,,,,,,,,,,,,,,,,,,,,,,,,,,1011.4965154000092,None,left,1,1.5885125999338925,1011.9973917999305,1014.1673615998589,1011.9973917999305,1013.667598699918,1011.9973917999305,1013.667598699918,1011.9973917999305,1013.667598699918,1011.9973917999305,1013.667598699918,1011.9973917999305,1013.667598699918,1013.6504939000588,1014.1507943000179,1013.6504939000588,1014.1507943000179,1013.6504939000588,1014.1507943000179,1013.6504939000588,1014.1507943000179,1013.6504939000588,1014.1507943000179,1013.6504939000588,1014.1507943000179,1013.6504939000588,1014.1507943000179,1013.6504939000588,1014.1507943000179,1011.9973917999305,None,1014.1507943000179,1014.6016037999652,1.6700000000000013,1014.6177246000152,None,1015.36918899999,None,,,,,,,[0.45135135],2.0200000000000014,0.7567567567567568,11031,002,2024_Jan_11_1446,MFTM_A_new1021,2021.2.3,60.088173455538495,
,,,,,,,,stim/Instruction_adaptive.png,conditions/adaptive.xlsx,test,-0.6,-0.6,-0.6,0.6,0.6,left,L,,,,,0,1,1,1,0,37,37,33,,,,,,,,,,,,,,,,,,,,,,,,,,,,,,,,,,,,,,,,,,,,1015.8706974999513,None,left,1,1.5668079999741167,1016.3715186999179,1018.4902872000821,1016.3715186999179,1018.007051799912,1016.3715186999179,1018.007051799912,1016.3715186999179,1018.007051799912,1016.3715186999179,1018.007051799912,1016.3715186999179,1018.007051799912,1017.9731648999732,1018.4741821999196,1017.9731648999732,1018.4741821999196,1017.9731648999732,1018.4741821999196,1017.9731648999732,1018.4741821999196,1017.9731648999732,1018.4741821999196,1017.9731648999732,1018.4741821999196,1017.9731648999732,1018.4741821999196,1017.9731648999732,1018.4741821999196,1016.3715186999179,None,1018.4741821999196,1018.9417818000074,1.6200000000000012,1018.9588228000794,None,1019.7088258999866,None,,,,,,,[0.46263158],2.070000000000001,0.7631578947368421,11031,002,2024_Jan_11_1446,MFTM_A_new1021,2021.2.3,60.088173455538495,
,,,,,,,,stim/Instruction_adaptive.png,conditions/adaptive.xlsx,test,-0.6,-0.6,-0.6,0.6,0.6,left,L,,,,,0,1,1,1,0,38,38,31,,,,,,,,,,,,,,,,,,,,,,,,,,,,,,,,,,,,,,,,,,,,1020.2096367999911,None,left,1,1.7631880999542773,1020.7107736999169,1022.779991999967,1020.7107736999169,1022.2793831999879,1020.7107736999169,1022.2793831999879,1020.7107736999169,1022.2793831999879,1020.7107736999169,1022.2793831999879,1020.7107736999169,1022.2793831999879,1022.2634161000606,1022.763276200043,1022.2634161000606,1022.763276200043,1022.2634161000606,1022.763276200043,1022.2634161000606,1022.763276200043,1022.2634161000606,1022.763276200043,1022.2634161000606,1022.763276200043,1022.2634161000606,1022.763276200043,1022.2634161000606,1022.763276200043,1020.7107736999169,None,1022.763276200043,1023.2478739998769,1.5700000000000012,1023.2641723998822,None,1024.015732999891,None,,,,,,,[0.47461538],2.110000000000001,0.7692307692307693,11031,002,2024_Jan_11_1446,MFTM_A_new1021,2021.2.3,60.088173455538495,
,,,,,,,,stim/Instruction_adaptive.png,conditions/adaptive.xlsx,test,-0.6,-0.6,-0.6,0.6,0.6,left,L,,,,,0,1,1,1,0,39,39,23,,,,,,,,,,,,,,,,,,,,,,,,,,,,,,,,,,,,,,,,,,,,1024.5159972000401,None,right,0,1.6411873998586088,1025.0169595999178,1027.0368500999175,1025.0169595999178,1026.5534619998652,1025.0169595999178,1026.5534619998652,1025.0169595999178,1026.5534619998652,1025.0169595999178,1026.5534619998652,1025.0169595999178,1026.5534619998652,1026.5191184999421,1027.0204193000682,1026.5191184999421,1027.0204193000682,1026.5191184999421,1027.0204193000682,1026.5191184999421,1027.0204193000682,1026.5191184999421,1027.0204193000682,1026.5191184999421,1027.0204193000682,1026.5191184999421,1027.0204193000682,1026.5191184999421,1027.0204193000682,1025.0169595999178,None,1027.0204193000682,1027.5207316998858,1.5200000000000011,1027.5371006000787,None,1028.2881894998718,None,,,,,,,[0.48725],1.9900000000000013,0.75,11031,002,2024_Jan_11_1446,MFTM_A_new1021,2021.2.3,60.088173455538495,
,,,,,,,,stim/Instruction_adaptive.png,conditions/adaptive.xlsx,test,-0.6,-0.6,-0.6,0.6,0.6,left,L,,,,,0,1,1,1,0,40,40,51,,,,,,,,,,,,,,,,,,,,,,,,,,,,,,,,,,,,,,,,,,,,1028.7897594000679,None,left,1,1.4723610000219196,1029.2897983000148,1031.4605860998854,1029.2897983000148,1030.960195099935,1029.2897983000148,1030.960195099935,1029.2897983000148,1030.960195099935,1029.2897983000148,1030.960195099935,1029.2897983000148,1030.960195099935,1030.9257171000354,1031.4262610999867,1030.9257171000354,1031.4262610999867,1030.9257171000354,1031.4262610999867,1030.9257171000354,1031.4262610999867,1030.9257171000354,1031.4262610999867,1030.9257171000354,1031.4262610999867,1030.9257171000354,1031.4262610999867,1030.9257171000354,1031.4262610999867,1029.2897983000148,None,1031.4262610999867,1031.9272270000074,1.6600000000000013,1031.960025300039,None,1032.7114830000792,None,,,,,,,[0.49585366],2.030000000000001,0.7560975609756098,11031,002,2024_Jan_11_1446,MFTM_A_new1021,2021.2.3,60.088173455538495,
,,,,,,,,stim/Instruction_adaptive.png,conditions/adaptive.xlsx,test,-0.6,-0.6,-0.6,0.6,0.6,left,L,,,,,0,1,1,1,0,41,41,45,,,,,,,,,,,,,,,,,,,,,,,,,,,,,,,,,,,,,,,,,,,,1033.2126541999169,None,right,0,1.8893432999029756,1033.7127646999434,1035.833173400024,1033.7127646999434,1035.3332686000504,1033.7127646999434,1035.3332686000504,1033.7127646999434,1035.3332686000504,1033.7127646999434,1035.3332686000504,1033.7127646999434,1035.3332686000504,1035.2983832000755,1035.7999678000342,1035.2983832000755,1035.7999678000342,1035.2983832000755,1035.7999678000342,1035.2983832000755,1035.7999678000342,1035.2983832000755,1035.7999678000342,1035.2983832000755,1035.7999678000342,1035.2983832000755,1035.7999678000342,1035.2983832000755,1035.7999678000342,1033.7127646999434,None,1035.7999678000342,1036.317236599978,1.6100000000000012,1036.3334041999187,None,1037.0854430000763,None,,,,,,,[0.5052381],1.9000000000000012,0.7380952380952381,11031,002,2024_Jan_11_1446,MFTM_A_new1021,2021.2.3,60.088173455538495,
,,,,,,,,stim/Instruction_adaptive.png,conditions/adaptive.xlsx,test,0.6,0.6,0.6,-0.6,-0.6,right,R,,,,,0,1,1,1,0,42,42,40,,,,,,,,,,,,,,,,,,,,,,,,,,,,,,,,,,,,,,,,,,,,1037.5851513999514,None,right,1,2.052657100139186,1038.0857690998819,1040.3560512999538,1038.0857690998819,1039.8552653999068,1038.0857690998819,1039.8552653999068,1038.0857690998819,1039.8552653999068,1038.0857690998819,1039.8552653999068,1038.0857690998819,1039.8552653999068,1039.8219496000092,1040.3239583999384,1039.8219496000092,1040.3239583999384,1039.8219496000092,1040.3239583999384,1039.8219496000092,1040.3239583999384,1039.8219496000092,1040.3239583999384,1039.8219496000092,1040.3239583999384,1039.8219496000092,1040.3239583999384,1039.8219496000092,1040.3239583999384,1038.0857690998819,None,1040.3239583999384,1040.841000000015,1.7600000000000013,1040.8568384998944,None,1041.6079919000622,None,,,,,,,[0.51069767],1.9500000000000013,0.7441860465116279,11031,002,2024_Jan_11_1446,MFTM_A_new1021,2021.2.3,60.088173455538495,
,,,,,,,,stim/Instruction_adaptive.png,conditions/adaptive.xlsx,test,0.6,0.6,0.6,-0.6,-0.6,right,R,,,,,0,1,1,1,0,43,43,38,,,,,,,,,,,,,,,,,,,,,,,,,,,,,,,,,,,,,,,,,,,,1042.109354400076,None,right,1,1.4546312000602484,1042.6112561998889,1044.8134757999796,1042.6112561998889,1044.3125100000761,1042.6112561998889,1044.3125100000761,1042.6112561998889,1044.3125100000761,1042.6112561998889,1044.3125100000761,1042.6112561998889,1044.3125100000761,1044.2955137998797,1044.7968401999678,1044.2955137998797,1044.7968401999678,1044.2955137998797,1044.7968401999678,1044.2955137998797,1044.7968401999678,1044.2955137998797,1044.7968401999678,1044.2955137998797,1044.7968401999678,1044.2955137998797,1044.7968401999678,1044.2955137998797,1044.7968401999678,1042.6112561998889,None,1044.7968401999678,1045.313808399951,1.7000000000000013,1045.330031099962,None,1046.0819146998692,None,,,,,,,[0.51727273],1.9900000000000013,0.75,11031,002,2024_Jan_11_1446,MFTM_A_new1021,2021.2.3,60.088173455538495,
,,,,,,,,stim/Instruction_adaptive.png,conditions/adaptive.xlsx,test,0.6,0.6,0.6,-0.6,-0.6,right,R,,,,,0,1,1,1,0,44,44,42,,,,,,,,,,,,,,,,,,,,,,,,,,,,,,,,,,,,,,,,,,,,1046.5826437999494,None,right,1,1.551095400005579,1047.0845494000241,1049.2531345000025,1047.0845494000241,1048.7520194998942,1047.0845494000241,1048.7520194998942,1047.0845494000241,1048.7520194998942,1047.0845494000241,1048.7520194998942,1047.0845494000241,1048.7520194998942,1048.7184387999587,1049.2201441000216,1048.7184387999587,1049.2201441000216,1048.7184387999587,1049.2201441000216,1048.7184387999587,1049.2201441000216,1048.7184387999587,1049.2201441000216,1048.7184387999587,1049.2201441000216,1048.7184387999587,1049.2201441000216,1048.7184387999587,1049.2201441000216,1047.0845494000241,None,1049.2201441000216,1049.753653399879,1.6600000000000013,1049.7705675000325,None,1050.5216820999049,None,,,,,,,[0.52444444],2.030000000000001,0.7555555555555555,11031,002,2024_Jan_11_1446,MFTM_A_new1021,2021.2.3,60.088173455538495,
,,,,,,,,stim/Instruction_adaptive.png,conditions/adaptive.xlsx,test,-0.6,-0.6,-0.6,0.6,0.6,left,L,,,,,0,1,1,1,0,45,45,17,,,,,,,,,,,,,,,,,,,,,,,,,,,,,,,,,,,,,,,,,,,,1051.022366499994,None,left,1,1.5273051999974996,1051.5226455999073,1053.6430242999922,1051.5226455999073,1053.141623799922,1051.5226455999073,1053.141623799922,1051.5226455999073,1053.141623799922,1051.5226455999073,1053.141623799922,1051.5226455999073,1053.141623799922,1053.1085451000836,1053.6091157000046,1053.1085451000836,1053.6091157000046,1053.1085451000836,1053.6091157000046,1053.1085451000836,1053.6091157000046,1053.1085451000836,1053.6091157000046,1053.1085451000836,1053.6091157000046,1053.1085451000836,1053.6091157000046,1053.1085451000836,1053.6091157000046,1051.5226455999073,None,1053.6091157000046,1054.1435761998873,1.6100000000000012,1054.1767496999819,None,1054.9273421999533,None,,,,,,,[0.5323913],2.070000000000001,0.7608695652173914,11031,002,2024_Jan_11_1446,MFTM_A_new1021,2021.2.3,60.088173455538495,
,,,,,,,,stim/Instruction_adaptive.png,conditions/adaptive.xlsx,test,-0.6,-0.6,-0.6,0.6,0.6,left,L,,,,,0,1,1,1,0,46,46,79,,,,,,,,,,,,,,,,,,,,,,,,,,,,,,,,,,,,,,,,,,,,1055.4288276999723,None,left,1,1.4329295000061393,1055.9298878998961,1057.999264499871,1055.9298878998961,1057.5146125999745,1055.9298878998961,1057.5146125999745,1055.9298878998961,1057.5146125999745,1055.9298878998961,1057.5146125999745,1055.9298878998961,1057.5146125999745,1057.4813554000575,1057.982132700039,1057.4813554000575,1057.982132700039,1057.4813554000575,1057.982132700039,1057.4813554000575,1057.982132700039,1057.4813554000575,1057.982132700039,1057.4813554000575,1057.982132700039,1057.4813554000575,1057.982132700039,1057.4813554000575,1057.982132700039,1055.9298878998961,None,1057.982132700039,1058.5329883999657,1.5700000000000012,1058.5496354000643,None,1059.3013941999525,None,,,,,,,[0.54085106],2.110000000000001,0.7659574468085106,11031,002,2024_Jan_11_1446,MFTM_A_new1021,2021.2.3,60.088173455538495,
,,,,,,,,stim/Instruction_adaptive.png,conditions/adaptive.xlsx,test,-0.6,-0.6,-0.6,0.6,0.6,left,L,,,,,0,1,1,1,0,47,47,61,,,,,,,,,,,,,,,,,,,,,,,,,,,,,,,,,,,,,,,,,,,,1059.802310399944,None,left,1,1.6841329000890255,1060.302546699997,1062.3221070000436,1060.302546699997,1061.8219874000642,1060.302546699997,1061.8219874000642,1060.302546699997,1061.8219874000642,1060.302546699997,1061.8219874000642,1060.302546699997,1061.8219874000642,1061.8059398999903,1062.305902000051,1061.8059398999903,1062.305902000051,1061.8059398999903,1062.305902000051,1061.8059398999903,1062.305902000051,1061.8059398999903,1062.305902000051,1061.8059398999903,1062.305902000051,1061.8059398999903,1062.305902000051,1061.8059398999903,1062.305902000051,1060.302546699997,None,1062.305902000051,1062.8559574000537,1.5200000000000011,1062.8727885000408,None,1063.6246390999295,None,,,,,,,[0.55],2.1500000000000012,0.7708333333333334,11031,002,2024_Jan_11_1446,MFTM_A_new1021,2021.2.3,60.088173455538495,
,,,,,,,,stim/Instruction_adaptive.png,conditions/adaptive.xlsx,test,0.6,0.6,0.6,-0.6,-0.6,right,R,,,,,0,1,1,1,0,48,48,36,,,,,,,,,,,,,,,,,,,,,,,,,,,,,,,,,,,,,,,,,,,,1064.125439299969,None,right,1,1.936192800058052,1064.6263134998735,1066.6116770999506,1064.6263134998735,1066.1109293999616,1064.6263134998735,1066.1109293999616,1064.6263134998735,1066.1109293999616,1064.6263134998735,1066.1109293999616,1064.6263134998735,1066.1109293999616,1066.0946076998953,1066.5955145999324,1066.0946076998953,1066.5955145999324,1066.0946076998953,1066.5955145999324,1066.0946076998953,1066.5955145999324,1066.0946076998953,1066.5955145999324,1066.0946076998953,1066.5955145999324,1066.0946076998953,1066.5955145999324,1066.0946076998953,1066.5955145999324,1064.6263134998735,None,1066.5955145999324,1067.1625677000266,1.480000000000001,1067.179216499906,None,1067.9311073999852,None,,,,,,,[0.55959184],2.1800000000000015,0.7755102040816326,11031,002,2024_Jan_11_1446,MFTM_A_new1021,2021.2.3,60.088173455538495,
,,,,,,,,stim/Instruction_adaptive.png,conditions/adaptive.xlsx,test,-0.6,-0.6,-0.6,0.6,0.6,left,L,,,,,0,1,1,1,0,49,49,71,,,,,,,,,,,,,,,,,,,,,,,,,,,,,,,,,,,,,,,,,,,,1068.4313181000762,None,left,1,1.398310299962759,1068.9319976000115,1070.885354500031,1068.9319976000115,1070.3846300998703,1068.9319976000115,1070.3846300998703,1068.9319976000115,1070.3846300998703,1068.9319976000115,1070.3846300998703,1068.9319976000115,1070.3846300998703,1070.3681020999793,1070.8684691998642,1070.3681020999793,1070.8684691998642,1070.3681020999793,1070.8684691998642,1070.3681020999793,1070.8684691998642,1070.3681020999793,1070.8684691998642,1070.3681020999793,1070.8684691998642,1070.3681020999793,1070.8684691998642,1070.3681020999793,1070.8684691998642,1068.9319976000115,None,1070.8684691998642,None,1.450000000000001,1071.4518506999593,None,1072.2041734000668,None,,,,,,,[0.5694],2.2100000000000017,0.78,11031,002,2024_Jan_11_1446,MFTM_A_new1021,2021.2.3,60.088173455538495,
,,,,,,,,stim/Instruction_adaptive.png,conditions/adaptive.xlsx,test,0.6,0.6,0.6,-0.6,-0.6,right,R,,,,,0,1,1,1,0,50,50,14,,,,,,,,,,,,,,,,,,,,,,,,,,,,,,,,,,,,,,,,,,,,1072.7048509998713,None,right,1,1.5969197999220341,1073.205142899882,1075.124388499884,1073.205142899882,1074.6402229000814,1073.205142899882,1074.6402229000814,1073.205142899882,1074.6402229000814,1073.205142899882,1074.6402229000814,1073.205142899882,1074.6402229000814,1074.6066059998702,1075.1075377999805,1074.6066059998702,1075.1075377999805,1074.6066059998702,1075.1075377999805,1074.6066059998702,1075.1075377999805,1074.6066059998702,1075.1075377999805,1074.6066059998702,1075.1075377999805,1074.6066059998702,1075.1075377999805,1074.6066059998702,1075.1075377999805,1073.205142899882,None,1075.1075377999805,1075.6935133999214,1.420000000000001,1075.7084057000466,None,1076.4600430000573,None,,,,,,,[0.57941176],2.2500000000000018,0.7843137254901961,11031,002,2024_Jan_11_1446,MFTM_A_new1021,2021.2.3,60.088173455538495,
,,,,,,,,stim/Instruction_adaptive.png,conditions/adaptive.xlsx,test,0.6,0.6,0.6,-0.6,-0.6,right,R,,,,,0,1,1,1,0,51,51,20,,,,,,,,,,,,,,,,,,,,,,,,,,,,,,,,,,,,,,,,,,,,1076.9608432999812,None,right,1,1.0130581001285464,1077.461101199966,1079.3482460000087,1077.461101199966,1078.8465193999,1077.461101199966,1078.8465193999,1077.461101199966,1078.8465193999,1077.461101199966,1078.8465193999,1077.461101199966,1078.8465193999,1078.8313903999515,1079.3315733000636,1078.8313903999515,1079.3315733000636,1078.8313903999515,1079.3315733000636,1078.8313903999515,1079.3315733000636,1078.8313903999515,1079.3315733000636,1078.8313903999515,1079.3315733000636,1078.8313903999515,1079.3315733000636,1078.8313903999515,1079.3315733000636,1077.461101199966,None,1079.3315733000636,None,1.380000000000001,1079.9314746998716,None,1080.6831384999678,None,,,,,,,[0.58980769],2.2800000000000016,0.7884615384615384,11031,002,2024_Jan_11_1446,MFTM_A_new1021,2021.2.3,60.088173455538495,
,,,,,,,,stim/Instruction_adaptive.png,conditions/adaptive.xlsx,test,-0.6,-0.6,-0.6,0.6,0.6,left,L,,,,,0,1,1,1,0,52,52,99,,,,,,,,,,,,,,,,,,,,,,,,,,,,,,,,,,,,,,,,,,,,1081.18363279989,None,right,0,1.534638499841094,1081.6840035999194,1083.537070600083,1081.6840035999194,1083.0365911000408,1081.6840035999194,1083.0365911000408,1081.6840035999194,1083.0365911000408,1081.6840035999194,1083.0365911000408,1081.6840035999194,1083.0365911000408,1083.0192849999294,1083.52011459996,1083.0192849999294,1083.52011459996,1083.0192849999294,1083.52011459996,1083.0192849999294,1083.52011459996,1083.0192849999294,1083.52011459996,1083.0192849999294,1083.52011459996,1083.0192849999294,1083.52011459996,1083.0192849999294,1083.52011459996,1081.6840035999194,None,1083.52011459996,1084.1219836999662,1.350000000000001,1084.1381286999676,None,1084.889370399993,None,,,,,,,[0.60037736],2.1900000000000013,0.7735849056603774,11031,002,2024_Jan_11_1446,MFTM_A_new1021,2021.2.3,60.088173455538495,
,,,,,,,,stim/Instruction_adaptive.png,conditions/adaptive.xlsx,test,0.6,0.6,0.6,-0.6,-0.6,right,R,,,,,0,1,1,1,0,53,53,0,,,,,,,,,,,,,,,,,,,,,,,,,,,,,,,,,,,,,,,,,,,,1085.3894167998806,None,left,0,1.759901399957016,1085.8901881999336,1087.8434703000821,1085.8901881999336,1087.3431259000208,1085.8901881999336,1087.3431259000208,1085.8901881999336,1087.3431259000208,1085.8901881999336,1087.3431259000208,1085.8901881999336,1087.3431259000208,1087.308878599899,1087.8096620999277,1087.308878599899,1087.8096620999277,1087.308878599899,1087.8096620999277,1087.308878599899,1087.8096620999277,1087.308878599899,1087.8096620999277,1087.308878599899,1087.8096620999277,1087.308878599899,1087.8096620999277,1087.308878599899,1087.8096620999277,1085.8901881999336,None,1087.8096620999277,1088.428061200073,1.440000000000001,1088.4440001000185,None,1089.19585369993,None,,,,,,,[0.60888889],2.0900000000000016,0.7592592592592593,11031,002,2024_Jan_11_1446,MFTM_A_new1021,2021.2.3,60.088173455538495,
,,,,,,,,stim/Instruction_adaptive.png,conditions/adaptive.xlsx,test,0.6,0.6,0.6,-0.6,-0.6,right,R,,,,,0,1,1,1,0,54,54,80,,,,,,,,,,,,,,,,,,,,,,,,,,,,,,,,,,,,,,,,,,,,1089.6962915998884,None,right,1,1.7496921999845654,1090.1967782999855,1092.2496432000771,1090.1967782999855,1091.7498512999155,1090.1967782999855,1091.7498512999155,1090.1967782999855,1091.7498512999155,1090.1967782999855,1091.7498512999155,1090.1967782999855,1091.7498512999155,1091.7327093998902,1092.234502499923,1091.7327093998902,1092.234502499923,1091.7327093998902,1092.234502499923,1091.7327093998902,1092.234502499923,1091.7327093998902,1092.234502499923,1091.7327093998902,1092.234502499923,1091.7327093998902,1092.234502499923,1091.7327093998902,1092.234502499923,1090.1967782999855,None,1092.234502499923,1092.8510986999609,1.5500000000000012,1092.867984100012,None,1093.6185012999922,None,,,,,,,[0.61509091],2.1200000000000014,0.7636363636363637,11031,002,2024_Jan_11_1446,MFTM_A_new1021,2021.2.3,60.088173455538495,
,,,,,,,,stim/Instruction_adaptive.png,conditions/adaptive.xlsx,test,-0.6,-0.6,-0.6,0.6,0.6,left,L,,,,,0,1,1,1,0,55,55,97,,,,,,,,,,,,,,,,,,,,,,,,,,,,,,,,,,,,,,,,,,,,1094.1189997999463,None,right,0,1.7342950000893325,1094.6197468999308,1096.6400055000558,1094.6197468999308,1096.1387557999697,1094.6197468999308,1096.1387557999697,1094.6197468999308,1096.1387557999697,1094.6197468999308,1096.1387557999697,1094.6197468999308,1096.1387557999697,1096.1219571998809,1096.623861500062,1096.1219571998809,1096.623861500062,1096.1219571998809,1096.623861500062,1096.1219571998809,1096.623861500062,1096.1219571998809,1096.623861500062,1096.1219571998809,1096.623861500062,1096.1219571998809,1096.623861500062,1096.1219571998809,1096.623861500062,1094.6197468999308,None,1096.606196400011,1097.2412509999704,1.5100000000000011,1097.2564588000532,None,1098.0086508998647,None,,,,,,,[0.62178571],2.030000000000001,0.75,11031,002,2024_Jan_11_1446,MFTM_A_new1021,2021.2.3,60.088173455538495,
,,,,,,,,stim/Instruction_adaptive.png,conditions/adaptive.xlsx,test,-0.6,-0.6,-0.6,0.6,0.6,left,L,,,,,0,1,1,1,0,56,56,67,,,,,,,,,,,,,,,,,,,,,,,,,,,,,,,,,,,,,,,,,,,,1098.5089052000549,None,left,1,1.8886971999891102,1099.0096680999268,1101.1299264999107,1099.0096680999268,1100.6287274998613,1099.0096680999268,1100.6287274998613,1099.0096680999268,1100.6287274998613,1099.0096680999268,1100.6287274998613,1099.0096680999268,1100.6287274998613,1100.596034300048,1101.0970175999682,1100.596034300048,1101.0970175999682,1100.596034300048,1101.0970175999682,1100.596034300048,1101.0970175999682,1100.596034300048,1101.0970175999682,1100.596034300048,1101.0970175999682,1100.596034300048,1101.0970175999682,1100.596034300048,1101.0970175999682,1099.0096680999268,None,1101.0970175999682,1101.7313244999386,1.6100000000000012,1101.7469524000771,None,1102.4992323999759,None,,,,,,,[0.62649123],2.0600000000000014,0.7543859649122807,11031,002,2024_Jan_11_1446,MFTM_A_new1021,2021.2.3,60.088173455538495,
,,,,,,,,stim/Instruction_adaptive.png,conditions/adaptive.xlsx,test,0.6,0.6,0.6,-0.6,-0.6,right,R,,,,,0,1,1,1,0,57,57,16,,,,,,,,,,,,,,,,,,,,,,,,,,,,,,,,,,,,,,,,,,,,1102.9990532000083,None,left,0,1.1828847001306713,1103.4996199000161,1105.5873809000477,1103.4996199000161,1105.0860605000053,1103.4996199000161,1105.0860605000053,1103.4996199000161,1105.0860605000053,1103.4996199000161,1105.0860605000053,1103.4996199000161,1105.0860605000053,1105.0690949999262,1105.5692765000276,1105.0690949999262,1105.5692765000276,1105.0690949999262,1105.5692765000276,1105.0690949999262,1105.5692765000276,1105.0690949999262,1105.5692765000276,1105.0690949999262,1105.5692765000276,1105.0690949999262,1105.5692765000276,1105.0690949999262,1105.5692765000276,1103.4996199000161,None,1105.5692765000276,1106.2036852000747,1.5800000000000012,1106.2203367999755,None,1106.9714790999424,None,,,,,,,[0.63155172],1.9700000000000013,0.7413793103448276,11031,002,2024_Jan_11_1446,MFTM_A_new1021,2021.2.3,60.088173455538495,
,,,,,,,,stim/Instruction_adaptive.png,conditions/adaptive.xlsx,test,-0.6,-0.6,-0.6,0.6,0.6,left,L,,,,,0,1,1,1,0,58,58,29,,,,,,,,,,,,,,,,,,,,,,,,,,,,,,,,,,,,,,,,,,,,1107.4731761999428,None,left,1,1.9091425999067724,1107.9732043000404,1110.1595107000321,1107.9732043000404,1109.6587362000719,1107.9732043000404,1109.6587362000719,1107.9732043000404,1109.6587362000719,1107.9732043000404,1109.6587362000719,1107.9732043000404,1109.6587362000719,1109.6421520998701,1110.1434361999854,1109.6421520998701,1110.1434361999854,1109.6421520998701,1110.1434361999854,1109.6421520998701,1110.1434361999854,1109.6421520998701,1110.1434361999854,1109.6421520998701,1110.1434361999854,1109.6421520998701,1110.1434361999854,1109.6421520998701,1110.1434361999854,1107.9732043000404,None,1110.1434361999854,1110.777128699934,1.6800000000000013,1110.7936732999515,None,1111.5449397000484,None,,,,,,,[0.63474576],2.0000000000000013,0.7457627118644068,11031,002,2024_Jan_11_1446,MFTM_A_new1021,2021.2.3,60.088173455538495,
,,,,,,,,stim/Instruction_adaptive.png,conditions/adaptive.xlsx,test,0.6,0.6,0.6,-0.6,-0.6,right,R,,,,,0,1,1,1,0,59,59,54,,,,,,,,,,,,,,,,,,,,,,,,,,,,,,,,,,,,,,,,,,,,1112.0463831999805,None,right,1,1.2332226999569684,1112.5464896999765,1114.69977200008,1112.5464896999765,1114.1986489999108,1112.5464896999765,1114.1986489999108,1112.5464896999765,1114.1986489999108,1112.5464896999765,1114.1986489999108,1112.5464896999765,1114.1986489999108,1114.1653606998734,1114.6668767000083,1114.1653606998734,1114.6668767000083,1114.1653606998734,1114.6668767000083,1114.1653606998734,1114.6668767000083,1114.1653606998734,1114.6668767000083,1114.1653606998734,1114.6668767000083,1114.1653606998734,1114.6668767000083,1114.1653606998734,1114.6668767000083,1112.5464896999765,None,1114.6668767000083,1115.3181117000058,1.6400000000000012,1115.3338319999166,None,1116.084890899947,None,,,,,,,[0.6385],2.030000000000001,0.75,11031,002,2024_Jan_11_1446,MFTM_A_new1021,2021.2.3,60.088173455538495,
,,,,,,,,stim/Instruction_adaptive.png,conditions/adaptive.xlsx,test,-0.6,-0.6,-0.6,0.6,0.6,left,L,,,,,0,1,1,1,0,60,60,21,,,,,,,,,,,,,,,,,,,,,,,,,,,,,,,,,,,,,,,,,,,,1116.5855334000662,None,left,1,1.8119385000318289,1117.0870984999929,1119.2064990999643,1117.0870984999929,1118.7054608999752,1117.0870984999929,1118.7054608999752,1117.0870984999929,1118.7054608999752,1117.0870984999929,1118.7054608999752,1117.0870984999929,1118.7054608999752,1118.6720586998854,1119.1728810998611,1118.6720586998854,1119.1728810998611,1118.6720586998854,1119.1728810998611,1118.6720586998854,1119.1728810998611,1118.6720586998854,1119.1728810998611,1118.6720586998854,1119.1728810998611,1118.6720586998854,1119.1728810998611,1118.6720586998854,1119.1728810998611,1117.0870984999929,None,1119.1728810998611,1119.8239104000386,1.6100000000000012,1119.8405597000383,None,1120.5927301999182,None,,,,,,,[0.64262295],2.0600000000000014,0.7540983606557377,11031,002,2024_Jan_11_1446,MFTM_A_new1021,2021.2.3,60.088173455538495,
,,,,,,,,stim/Instruction_adaptive.png,conditions/adaptive.xlsx,test,-0.6,-0.6,-0.6,0.6,0.6,left,L,,,,,0,1,1,1,0,61,61,73,,,,,,,,,,,,,,,,,,,,,,,,,,,,,,,,,,,,,,,,,,,,1121.0936576998793,None,left,1,2.065508399857208,1121.593211099971,1123.6796987999696,1121.593211099971,1123.179508100031,1121.593211099971,1123.179508100031,1121.593211099971,1123.179508100031,1121.593211099971,1123.179508100031,1121.593211099971,1123.179508100031,1123.1467031999491,1123.6466955998912,1123.1467031999491,1123.6466955998912,1123.1467031999491,1123.6466955998912,1123.1467031999491,1123.6466955998912,1123.1467031999491,1123.6466955998912,1123.1467031999491,1123.6466955998912,1123.1467031999491,1123.6466955998912,1123.1467031999491,1123.6466955998912,1121.593211099971,None,1123.6466955998912,1124.2977785998955,1.5800000000000012,1124.3304620999843,None,1125.0823073000647,None,,,,,,,[0.64709677],2.0900000000000016,0.7580645161290323,11031,002,2024_Jan_11_1446,MFTM_A_new1021,2021.2.3,60.088173455538495,
,,,,,,,,stim/Instruction_adaptive.png,conditions/adaptive.xlsx,test,0.6,0.6,0.6,-0.6,-0.6,right,R,,,,,0,1,1,1,0,62,62,98,,,,,,,,,,,,,,,,,,,,,,,,,,,,,,,,,,,,,,,,,,,,1125.5832567000762,None,left,0,1.238936600042507,1126.0830798000097,1128.1368412999436,1126.0830798000097,1127.635299500078,1126.0830798000097,1127.635299500078,1126.0830798000097,1127.635299500078,1126.0830798000097,1127.635299500078,1126.0830798000097,1127.635299500078,1127.6189768998884,1128.1202247999609,1127.6189768998884,1128.1202247999609,1127.6189768998884,1128.1202247999609,1127.6189768998884,1128.1202247999609,1127.6189768998884,1128.1202247999609,1127.6189768998884,1128.1202247999609,1127.6189768998884,1128.1202247999609,1127.6189768998884,1128.1202247999609,1126.0830798000097,None,1128.1202247999609,None,1.5500000000000012,1128.7870279999916,None,1129.5392501000315,None,,,,,,,[0.65190476],2.0000000000000013,0.746031746031746,11031,002,2024_Jan_11_1446,MFTM_A_new1021,2021.2.3,60.088173455538495,
,,,,,,,,stim/Instruction_adaptive.png,conditions/adaptive.xlsx,test,0.6,0.6,0.6,-0.6,-0.6,right,R,,,,,0,1,1,1,0,63,63,22,,,,,,,,,,,,,,,,,,,,,,,,,,,,,,,,,,,,,,,,,,,,1130.0389539999887,None,right,1,1.5508250000420958,1130.5395251999144,1132.693036899902,1130.5395251999144,1132.1928302999586,1130.5395251999144,1132.1928302999586,1130.5395251999144,1132.1928302999586,1130.5395251999144,1132.1928302999586,1130.5395251999144,1132.1928302999586,1132.1594773000106,1132.6595294999424,1132.1594773000106,1132.6595294999424,1132.1594773000106,1132.6595294999424,1132.1594773000106,1132.6595294999424,1132.1594773000106,1132.6595294999424,1132.1594773000106,1132.6595294999424,1132.1594773000106,1132.6595294999424,1132.1594773000106,1132.6595294999424,1130.5395251999144,None,1132.6595294999424,1133.3278202998918,1.6400000000000012,1133.3438208999578,None,1134.0949848999735,None,,,,,,,[0.65515625],2.030000000000001,0.75,11031,002,2024_Jan_11_1446,MFTM_A_new1021,2021.2.3,60.088173455538495,
,,,,,,,,stim/Instruction_adaptive.png,conditions/adaptive.xlsx,test,0.6,0.6,0.6,-0.6,-0.6,right,R,,,,,0,1,1,1,0,64,64,68,,,,,,,,,,,,,,,,,,,,,,,,,,,,,,,,,,,,,,,,,,,,1134.5964226999786,None,right,1,1.4566136000212282,1135.097728200024,1137.2168711998966,1135.097728200024,1136.715206899913,1135.097728200024,1136.715206899913,1135.097728200024,1136.715206899913,1135.097728200024,1136.715206899913,1135.097728200024,1136.715206899913,1136.6822226999793,1137.1830434999429,1136.6822226999793,1137.1830434999429,1136.6822226999793,1137.1830434999429,1136.6822226999793,1137.1830434999429,1136.6822226999793,1137.1830434999429,1136.6822226999793,1137.1830434999429,1136.6822226999793,1137.1830434999429,1136.6822226999793,1137.1830434999429,1135.097728200024,None,1137.1830434999429,1137.8506936000194,1.6100000000000012,1137.8670612999704,None,1138.6197212000843,None,,,,,,,[0.65876923],2.0600000000000014,0.7538461538461538,11031,002,2024_Jan_11_1446,MFTM_A_new1021,2021.2.3,60.088173455538495,
,,,,,,,,stim/Instruction_adaptive.png,conditions/adaptive.xlsx,test,-0.6,-0.6,-0.6,0.6,0.6,left,L,,,,,0,1,1,1,0,65,65,87,,,,,,,,,,,,,,,,,,,,,,,,,,,,,,,,,,,,,,,,,,,,1139.1201589999255,None,left,1,1.5420601998921484,1139.6203385000117,1141.707175299991,1139.6203385000117,1141.205672299955,1139.6203385000117,1141.205672299955,1139.6203385000117,1141.205672299955,1139.6203385000117,1141.205672299955,1139.6203385000117,1141.205672299955,1141.1731560998596,1141.6735991998576,1141.1731560998596,1141.6735991998576,1141.1731560998596,1141.6735991998576,1141.1731560998596,1141.6735991998576,1141.1731560998596,1141.6735991998576,1141.1731560998596,1141.6735991998576,1141.1731560998596,1141.6735991998576,1141.1731560998596,1141.6735991998576,1139.6203385000117,None,1141.6735991998576,1142.340590100037,1.5800000000000012,1142.373820199864,None,1143.1259049999062,None,,,,,,,[0.66272727],2.0900000000000016,0.7575757575757576,11031,002,2024_Jan_11_1446,MFTM_A_new1021,2021.2.3,60.088173455538495,
,,,,,,,,stim/Instruction_adaptive.png,conditions/adaptive.xlsx,test,0.6,0.6,0.6,-0.6,-0.6,right,R,,,,,0,1,1,1,0,66,66,76,,,,,,,,,,,,,,,,,,,,,,,,,,,,,,,,,,,,,,,,,,,,1143.6265064000618,None,right,1,1.2520778998732567,1144.1264492999762,1146.1796937000472,1144.1264492999762,1145.6791624000762,1144.1264492999762,1145.6791624000762,1144.1264492999762,1145.6791624000762,1144.1264492999762,1145.6791624000762,1144.1264492999762,1145.6791624000762,1145.6625623998698,1146.1633397999685,1145.6625623998698,1146.1633397999685,1145.6625623998698,1146.1633397999685,1145.6625623998698,1146.1633397999685,1145.6625623998698,1146.1633397999685,1145.6625623998698,1146.1633397999685,1145.6625623998698,1146.1633397999685,1145.6625623998698,1146.1633397999685,1144.1264492999762,None,1146.1633397999685,1146.831755100051,1.5500000000000012,1146.847096099984,None,1147.5992191000842,None,,,,,,,[0.66701493],2.1200000000000014,0.7611940298507462,11031,002,2024_Jan_11_1446,MFTM_A_new1021,2021.2.3,60.088173455538495,
,,,,,,,,stim/Instruction_adaptive.png,conditions/adaptive.xlsx,test,-0.6,-0.6,-0.6,0.6,0.6,left,L,,,,,0,1,1,1,0,67,67,49,,,,,,,,,,,,,,,,,,,,,,,,,,,,,,,,,,,,,,,,,,,,1148.0997218999546,None,right,0,1.914783800020814,1148.599937299965,1150.6195187000558,1148.599937299965,1150.1188384999987,1148.599937299965,1150.1188384999987,1148.599937299965,1150.1188384999987,1148.599937299965,1150.1188384999987,1148.599937299965,1150.1188384999987,1150.1026786000002,1150.6027591999155,1150.1026786000002,1150.6027591999155,1150.1026786000002,1150.6027591999155,1150.1026786000002,1150.6027591999155,1150.1026786000002,1150.6027591999155,1150.1026786000002,1150.6027591999155,1150.1026786000002,1150.6027591999155,1150.1026786000002,1150.6027591999155,1148.599937299965,None,1150.6027591999155,None,1.5100000000000011,1151.287340800045,None,1152.0385729998816,None,,,,,,,[0.67176471],2.0400000000000014,0.75,11031,002,2024_Jan_11_1446,MFTM_A_new1021,2021.2.3,60.088173455538495,
,,,,,,,,stim/Instruction_adaptive.png,conditions/adaptive.xlsx,test,-0.6,-0.6,-0.6,0.6,0.6,left,L,,,,,0,1,1,1,0,68,68,15,,,,,,,,,,,,,,,,,,,,,,,,,,,,,,,,,,,,,,,,,,,,1152.538960600039,None,left,1,0.8508100998587906,1153.0402935999446,1155.143209300004,1153.0402935999446,1154.6420227999333,1153.0402935999446,1154.6420227999333,1153.0402935999446,1154.6420227999333,1153.0402935999446,1154.6420227999333,1153.0402935999446,1154.6420227999333,1154.6255954999942,1155.127098399913,1154.6255954999942,1155.127098399913,1154.6255954999942,1155.127098399913,1154.6255954999942,1155.127098399913,1154.6255954999942,1155.127098399913,1154.6255954999942,1155.127098399913,1154.6255954999942,1155.127098399913,1154.6255954999942,1155.127098399913,1153.0402935999446,None,1155.127098399913,1155.811291599879,1.6000000000000012,1155.8278709000442,None,1156.5782882000785,None,,,,,,,[0.67507246],2.070000000000001,0.7536231884057971,11031,002,2024_Jan_11_1446,MFTM_A_new1021,2021.2.3,60.088173455538495,
,,,,,,,,stim/Instruction_adaptive.png,conditions/adaptive.xlsx,test,0.6,0.6,0.6,-0.6,-0.6,right,R,,,,,0,1,1,1,0,69,69,46,,,,,,,,,,,,,,,,,,,,,,,,,,,,,,,,,,,,,,,,,,,,1157.0796628999524,None,left,0,1.6064184999559075,1157.5801967999432,1159.65001880005,1157.5801967999432,1159.149127899902,1157.5801967999432,1159.149127899902,1157.5801967999432,1159.149127899902,1157.5801967999432,1159.149127899902,1157.5801967999432,1159.149127899902,1159.1329840000253,1159.6336481000762,1159.1329840000253,1159.6336481000762,1159.1329840000253,1159.6336481000762,1159.1329840000253,1159.6336481000762,1159.1329840000253,1159.6336481000762,1159.1329840000253,1159.6336481000762,1159.1329840000253,1159.6336481000762,1159.1329840000253,1159.6336481000762,1157.5801967999432,None,1159.6336481000762,1160.3175389999524,1.5700000000000012,1160.333832199918,None,1161.0849234999623,None,,,,,,,[0.67871429],1.9900000000000013,0.7428571428571429,11031,002,2024_Jan_11_1446,MFTM_A_new1021,2021.2.3,60.088173455538495,
,,,,,,,,stim/Instruction_adaptive.png,conditions/adaptive.xlsx,test,-0.6,-0.6,-0.6,0.6,0.6,left,L,,,,,0,1,1,1,0,70,70,59,,,,,,,,,,,,,,,,,,,,,,,,,,,,,,,,,,,,,,,,,,,,1161.5864760000259,None,left,1,1.5400029001757503,1162.0863657998852,1164.2560928999446,1162.0863657998852,1163.7569182000589,1162.0863657998852,1163.7569182000589,1162.0863657998852,1163.7569182000589,1162.0863657998852,1163.7569182000589,1162.0863657998852,1163.7569182000589,1163.7221657000482,1164.2233877999242,1163.7221657000482,1164.2233877999242,1163.7221657000482,1164.2233877999242,1163.7221657000482,1164.2233877999242,1163.7221657000482,1164.2233877999242,1163.7221657000482,1164.2233877999242,1163.7221657000482,1164.2233877999242,1163.7221657000482,1164.2233877999242,1162.0863657998852,None,1164.2233877999242,1164.9072630999144,1.6600000000000013,1164.9406578000635,None,1165.6918581000064,None,,,,,,,[0.68098592],2.0100000000000016,0.7464788732394366,11031,002,2024_Jan_11_1446,MFTM_A_new1021,2021.2.3,60.088173455538495,
,,,,,,,,stim/Instruction_adaptive.png,conditions/adaptive.xlsx,test,0.6,0.6,0.6,-0.6,-0.6,right,R,,,,,0,1,1,1,0,71,71,66,,,,,,,,,,,,,,,,,,,,,,,,,,,,,,,,,,,,,,,,,,,,1166.1925818999298,None,left,0,1.9567647001240402,1166.6934447998647,1168.8312563998625,1166.6934447998647,1168.3301403999794,1166.6934447998647,1168.3301403999794,1166.6934447998647,1168.3301403999794,1166.6934447998647,1168.3301403999794,1166.6934447998647,1168.3301403999794,1168.3123838000465,1168.8128740999382,1168.3123838000465,1168.8128740999382,1168.3123838000465,1168.8128740999382,1168.3123838000465,1168.8128740999382,1168.3123838000465,1168.8128740999382,1168.3123838000465,1168.8128740999382,1168.3123838000465,1168.8128740999382,1168.3123838000465,1168.8128740999382,1166.6934447998647,None,1168.8128740999382,1169.4993393998593,1.6300000000000012,1169.5138349998742,None,1170.266422299901,None,,,,,,,[0.68361111],1.9300000000000013,0.7361111111111112,11031,002,2024_Jan_11_1446,MFTM_A_new1021,2021.2.3,60.088173455538495,
,,,,,,,,stim/Instruction_adaptive.png,conditions/adaptive.xlsx,test,0.6,0.6,0.6,-0.6,-0.6,right,R,,,,,0,1,1,1,0,72,72,60,,,,,,,,,,,,,,,,,,,,,,,,,,,,,,,,,,,,,,,,,,,,1170.7662183998618,None,right,1,1.3202021000906825,1171.2666440000758,1173.5040917999577,1171.2666440000758,1173.0029835000169,1171.2666440000758,1173.0029835000169,1171.2666440000758,1173.0029835000169,1171.2666440000758,1173.0029835000169,1171.2666440000758,1173.0029835000169,1172.9861085999291,1173.486642099917,1172.9861085999291,1173.486642099917,1172.9861085999291,1173.486642099917,1172.9861085999291,1173.486642099917,1172.9861085999291,1173.486642099917,1172.9861085999291,1173.486642099917,1172.9861085999291,1173.486642099917,1172.9861085999291,1173.486642099917,1171.2666440000758,None,1173.4705248998944,1174.1544373000506,1.7300000000000013,1174.1878307999577,None,1174.9386996999383,None,,,,,,,[0.68479452],1.9600000000000013,0.7397260273972602,11031,002,2024_Jan_11_1446,MFTM_A_new1021,2021.2.3,60.088173455538495,
,,,,,,,,stim/Instruction_adaptive.png,conditions/adaptive.xlsx,test,0.6,0.6,0.6,-0.6,-0.6,right,R,,,,,0,1,1,1,0,73,73,78,,,,,,,,,,,,,,,,,,,,,,,,,,,,,,,,,,,,,,,,,,,,1175.440734700067,None,right,1,1.5977308999281377,1175.940658400068,1178.1436596000567,1175.940658400068,1177.64261119999,1175.940658400068,1177.64261119999,1175.940658400068,1177.64261119999,1175.940658400068,1177.64261119999,1175.940658400068,1177.64261119999,1177.6095117998775,1178.1101341999602,1177.6095117998775,1178.1101341999602,1177.6095117998775,1178.1101341999602,1177.6095117998775,1178.1101341999602,1177.6095117998775,1178.1101341999602,1177.6095117998775,1178.1101341999602,1177.6095117998775,1178.1101341999602,1177.6095117998775,1178.1101341999602,1175.940658400068,None,1178.1101341999602,1178.8112552999519,1.6900000000000013,1178.827891400084,None,1179.5790609999094,None,,,,,,,[0.68648649],1.9900000000000013,0.7432432432432432,11031,002,2024_Jan_11_1446,MFTM_A_new1021,2021.2.3,60.088173455538495,
,,,,,,,,stim/Instruction_adaptive.png,conditions/adaptive.xlsx,test,-0.6,-0.6,-0.6,0.6,0.6,left,L,,,,,0,1,1,1,0,74,74,69,,,,,,,,,,,,,,,,,,,,,,,,,,,,,,,,,,,,,,,,,,,,1180.0801460999064,None,left,1,1.5334930000826716,1180.5811608999502,1182.7509250999428,1180.5811608999502,1182.2499178000726,1180.5811608999502,1182.2499178000726,1180.5811608999502,1182.2499178000726,1180.5811608999502,1182.2499178000726,1180.5811608999502,1182.2499178000726,1182.2165959998965,1182.7175207999535,1182.2165959998965,1182.7175207999535,1182.2165959998965,1182.7175207999535,1182.2165959998965,1182.7175207999535,1182.2165959998965,1182.7175207999535,1182.2165959998965,1182.7175207999535,1182.2165959998965,1182.7175207999535,1182.2165959998965,1182.7175207999535,1180.5811608999502,None,1182.7175207999535,1183.4180771000683,1.6600000000000013,1183.4351600999944,None,1184.1866552999709,None,,,,,,,[0.68853333],2.0100000000000016,0.7466666666666667,11031,002,2024_Jan_11_1446,MFTM_A_new1021,2021.2.3,60.088173455538495,
,,,,,,,,stim/Instruction_adaptive.png,conditions/adaptive.xlsx,test,-0.6,-0.6,-0.6,0.6,0.6,left,L,,,,,0,1,1,1,0,75,75,65,,,,,,,,,,,,,,,,,,,,,,,,,,,,,,,,,,,,,,,,,,,,1184.6872849999927,None,right,0,1.4312141998670995,1185.1871692999266,1187.3246162999421,1185.1871692999266,1186.8228899000678,1185.1871692999266,1186.8228899000678,1185.1871692999266,1186.8228899000678,1185.1871692999266,1186.8228899000678,1185.1871692999266,1186.8228899000678,1186.789728899952,1187.2907326000277,1186.789728899952,1187.2907326000277,1186.789728899952,1187.2907326000277,1186.789728899952,1187.2907326000277,1186.789728899952,1187.2907326000277,1186.789728899952,1187.2907326000277,1186.789728899952,1187.2907326000277,1186.789728899952,1187.2907326000277,1185.1871692999266,None,1187.307811500039,None,1.6300000000000012,1188.0081175998785,None,1188.7595991999842,None,,,,,,,[0.69092105],1.9400000000000013,0.7368421052631579,11031,002,2024_Jan_11_1446,MFTM_A_new1021,2021.2.3,60.088173455538495,
,,,,,,,,stim/Instruction_adaptive.png,conditions/adaptive.xlsx,test,0.6,0.6,0.6,-0.6,-0.6,right,R,,,,,0,1,1,1,0,76,76,50,,,,,,,,,,,,,,,,,,,,,,,,,,,,,,,,,,,,,,,,,,,,1189.260038800072,None,right,1,1.4027139998506755,1189.7609333000146,1191.9814166999422,1189.7609333000146,1191.480788399931,1189.7609333000146,1191.480788399931,1189.7609333000146,1191.480788399931,1189.7609333000146,1191.480788399931,1189.7609333000146,1191.480788399931,1191.446661700029,1191.9472286000382,1191.446661700029,1191.9472286000382,1191.446661700029,1191.9472286000382,1191.446661700029,1191.9472286000382,1191.446661700029,1191.9472286000382,1191.446661700029,1191.9472286000382,1191.446661700029,1191.9472286000382,1191.446661700029,1191.9472286000382,1189.7609333000146,None,1191.9472286000382,1192.6488409999292,1.7100000000000013,1192.6651590999682,None,1193.417186100036,None,,,,,,,[0.69220779],1.9600000000000013,0.7402597402597403,11031,002,2024_Jan_11_1446,MFTM_A_new1021,2021.2.3,60.088173455538495,
,,,,,,,,stim/Instruction_adaptive.png,conditions/adaptive.xlsx,test,0.6,0.6,0.6,-0.6,-0.6,right,R,,,,,0,1,1,1,0,77,77,24,,,,,,,,,,,,,,,,,,,,,,,,,,,,,,,,,,,,,,,,,,,,1193.9174844999798,None,right,1,1.7285597999580204,1194.4176324000582,1196.621368400054,1194.4176324000582,1196.1202165998984,1194.4176324000582,1196.1202165998984,1194.4176324000582,1196.1202165998984,1194.4176324000582,1196.1202165998984,1194.4176324000582,1196.1202165998984,1196.0870047998615,1196.5876770999748,1196.0870047998615,1196.5876770999748,1196.0870047998615,1196.5876770999748,1196.0870047998615,1196.5876770999748,1196.0870047998615,1196.5876770999748,1196.0870047998615,1196.5876770999748,1196.0870047998615,1196.5876770999748,1196.0870047998615,1196.5876770999748,1194.4176324000582,None,1196.5876770999748,1197.288447599858,1.6900000000000013,1197.3051636000164,None,1198.0564035999123,None,,,,,,,[0.69371795],1.9900000000000013,0.7435897435897436,11031,002,2024_Jan_11_1446,MFTM_A_new1021,2021.2.3,60.088173455538495,
,,,,,,,,stim/Instruction_adaptive.png,conditions/adaptive.xlsx,test,-0.6,-0.6,-0.6,0.6,0.6,left,L,,,,,0,1,1,1,0,78,78,39,,,,,,,,,,,,,,,,,,,,,,,,,,,,,,,,,,,,,,,,,,,,1198.5570104999933,None,left,1,0.9204084000084549,1199.0582828999031,1201.227812899975,1199.0582828999031,1200.727701399941,1199.0582828999031,1200.727701399941,1199.0582828999031,1200.727701399941,1199.0582828999031,1200.727701399941,1199.0582828999031,1200.727701399941,1200.6940629999153,1201.194294200046,1200.6940629999153,1201.194294200046,1200.6940629999153,1201.194294200046,1200.6940629999153,1201.194294200046,1200.6940629999153,1201.194294200046,1200.6940629999153,1201.194294200046,1200.6940629999153,1201.194294200046,1200.6940629999153,1201.194294200046,1199.0582828999031,None,1201.194294200046,1201.89525699988,1.6600000000000013,1201.9286527000368,None,1202.6807939999271,None,,,,,,,[0.69556962],2.0100000000000016,0.7468354430379747,11031,002,2024_Jan_11_1446,MFTM_A_new1021,2021.2.3,60.088173455538495,
,,,,,,,,stim/Instruction_adaptive.png,conditions/adaptive.xlsx,test,0.6,0.6,0.6,-0.6,-0.6,right,R,,,,,0,1,1,1,0,79,79,8,,,,,,,,,,,,,,,,,,,,,,,,,,,,,,,,,,,,,,,,,,,,1203.1806204998866,None,right,1,0.9854994998313487,1203.6813167999499,1205.8178946999833,1203.6813167999499,1205.3172013000585,1203.6813167999499,1205.3172013000585,1203.6813167999499,1205.3172013000585,1203.6813167999499,1205.3172013000585,1203.6813167999499,1205.3172013000585,1205.3004902999382,1205.8011908999179,1205.3004902999382,1205.8011908999179,1205.3004902999382,1205.8011908999179,1205.3004902999382,1205.8011908999179,1205.3004902999382,1205.8011908999179,1205.3004902999382,1205.8011908999179,1205.3004902999382,1205.8011908999179,1205.3004902999382,1205.8011908999179,1203.6813167999499,None,1205.8011908999179,1206.502868300071,1.6300000000000012,1206.5189014999196,None,1207.2714348000009,None,,,,,,,[0.69775],2.0400000000000014,0.75,11031,002,2024_Jan_11_1446,MFTM_A_new1021,2021.2.3,60.088173455538495,
,,,,,,,,stim/Instruction_adaptive.png,conditions/adaptive.xlsx,test,-0.6,-0.6,-0.6,0.6,0.6,left,L,,,,,0,1,1,1,0,80,80,19,,,,,,,,,,,,,,,,,,,,,,,,,,,,,,,,,,,,,,,,,,,,1207.7716741000768,None,left,1,1.202654399909079,1208.2720711999573,1210.374847299885,1208.2720711999573,1209.8745967999566,1208.2720711999573,1209.8745967999566,1208.2720711999573,1209.8745967999566,1208.2720711999573,1209.8745967999566,1208.2720711999573,1209.8745967999566,1209.8573419000022,1210.358209399972,1209.8573419000022,1210.358209399972,1209.8573419000022,1210.358209399972,1209.8573419000022,1210.358209399972,1209.8573419000022,1210.358209399972,1209.8573419000022,1210.358209399972,1209.8573419000022,1210.358209399972,1209.8573419000022,1210.358209399972,1208.2720711999573,None,1210.358209399972,1211.059345500078,1.6000000000000012,1211.075695300009,None,1211.8273290998768,None,,,,,,,[0.70024691],2.0600000000000014,0.7530864197530864,11031,002,2024_Jan_11_1446,MFTM_A_new1021,2021.2.3,60.088173455538495,
,,,,,,,,stim/Instruction_adaptive.png,conditions/adaptive.xlsx,test,-0.6,-0.6,-0.6,0.6,0.6,left,L,,,,,0,1,1,1,0,81,81,27,,,,,,,,,,,,,,,,,,,,,,,,,,,,,,,,,,,,,,,,,,,,1212.3284877999686,None,right,0,1.7902536001056433,1212.828198999865,1214.915200700052,1212.828198999865,1214.4142422000878,1212.828198999865,1214.4142422000878,1212.828198999865,1214.4142422000878,1212.828198999865,1214.4142422000878,1212.828198999865,1214.4142422000878,1214.3978090998717,1214.89840429998,1214.3978090998717,1214.89840429998,1214.3978090998717,1214.89840429998,1214.3978090998717,1214.89840429998,1214.3978090998717,1214.89840429998,1214.3978090998717,1214.89840429998,1214.3978090998717,1214.89840429998,1214.3978090998717,1214.89840429998,1212.828198999865,None,1214.89840429998,None,1.5800000000000012,1215.615652400069,None,1216.367433700012,None,,,,,,,[0.70292683],1.9900000000000013,0.7439024390243902,11031,002,2024_Jan_11_1446,MFTM_A_new1021,2021.2.3,60.088173455538495,
,,,,,,,,stim/Instruction_adaptive.png,conditions/adaptive.xlsx,test,-0.6,-0.6,-0.6,0.6,0.6,left,L,,,,,0,1,1,1,0,82,82,37,,,,,,,,,,,,,,,,,,,,,,,,,,,,,,,,,,,,,,,,,,,,1216.8675718999002,None,left,1,1.8498118999414146,1217.3690380000044,1219.5381873000879,1217.3690380000044,1219.0378576999065,1217.3690380000044,1219.0378576999065,1217.3690380000044,1219.0378576999065,1217.3690380000044,1219.0378576999065,1217.3690380000044,1219.0378576999065,1219.004055300029,1219.5050604999997,1219.004055300029,1219.5050604999997,1219.004055300029,1219.5050604999997,1219.004055300029,1219.5050604999997,1219.004055300029,1219.5050604999997,1219.004055300029,1219.5050604999997,1219.004055300029,1219.5050604999997,1219.004055300029,1219.5050604999997,1217.3690380000044,None,1219.5050604999997,1220.2226022998802,1.6600000000000013,1220.239241000032,None,1220.991657699924,None,,,,,,,[0.70457831],2.0200000000000014,0.7469879518072289,11031,002,2024_Jan_11_1446,MFTM_A_new1021,2021.2.3,60.088173455538495,
,,,,,,,,stim/Instruction_adaptive.png,conditions/adaptive.xlsx,test,-0.6,-0.6,-0.6,0.6,0.6,left,L,,,,,0,1,1,1,0,83,83,83,,,,,,,,,,,,,,,,,,,,,,,,,,,,,,,,,,,,,,,,,,,,1221.4915110999718,None,left,1,0.9061512001790106,1221.9920814998914,1224.113111200044,1221.9920814998914,1223.611579499906,1221.9920814998914,1223.611579499906,1221.9920814998914,1223.611579499906,1221.9920814998914,1223.611579499906,1221.9920814998914,1223.611579499906,1223.5943288998678,1224.0960035000462,1223.5943288998678,1224.0960035000462,1223.5943288998678,1224.0960035000462,1223.5943288998678,1224.0960035000462,1223.5943288998678,1224.0960035000462,1223.5943288998678,1224.0960035000462,1223.5943288998678,1224.0960035000462,1223.5943288998678,1224.0960035000462,1221.9920814998914,None,1224.0960035000462,1224.8137898000423,1.6200000000000012,1224.8305210000835,None,1225.5809959999751,None,,,,,,,[0.70666667],2.0400000000000014,0.75,11031,002,2024_Jan_11_1446,MFTM_A_new1021,2021.2.3,60.088173455538495,
,,,,,,,,stim/Instruction_adaptive.png,conditions/adaptive.xlsx,test,0.6,0.6,0.6,-0.6,-0.6,right,R,,,,,0,1,1,1,0,84,84,86,,,,,,,,,,,,,,,,,,,,,,,,,,,,,,,,,,,,,,,,,,,,1226.082163499901,None,right,1,1.5799143000040203,1226.5822799999733,1228.6851216000505,1226.5822799999733,1228.184448499931,1226.5822799999733,1228.184448499931,1226.5822799999733,1228.184448499931,1226.5822799999733,1228.184448499931,1226.5822799999733,1228.184448499931,1228.1676671998575,1228.6688363999128,1228.1676671998575,1228.6688363999128,1228.1676671998575,1228.6688363999128,1228.1676671998575,1228.6688363999128,1228.1676671998575,1228.6688363999128,1228.1676671998575,1228.6688363999128,1228.1676671998575,1228.6688363999128,1228.1676671998575,1228.6688363999128,1226.5822799999733,None,1228.6688363999128,1229.3874828000553,1.6000000000000012,1229.4027724000625,None,1230.1553036998957,None,,,,,,,[0.70894118],2.0600000000000014,0.7529411764705882,11031,002,2024_Jan_11_1446,MFTM_A_new1021,2021.2.3,60.088173455538495,
,,,,,,,,stim/Instruction_adaptive.png,conditions/adaptive.xlsx,test,-0.6,-0.6,-0.6,0.6,0.6,left,L,,,,,0,1,1,1,0,85,85,57,,,,,,,,,,,,,,,,,,,,,,,,,,,,,,,,,,,,,,,,,,,,1230.6559820000548,None,right,0,1.9110299001913518,1231.1554618999362,1233.2429583999328,1231.1554618999362,1232.7411144999787,1231.1554618999362,1232.7411144999787,1231.1554618999362,1232.7411144999787,1231.1554618999362,1232.7411144999787,1231.1554618999362,1232.7411144999787,1232.724291200051,1233.2267865000758,1232.724291200051,1233.2267865000758,1232.724291200051,1233.2267865000758,1232.724291200051,1233.2267865000758,1232.724291200051,1233.2267865000758,1232.724291200051,1233.2267865000758,1232.724291200051,1233.2267865000758,1232.724291200051,1233.2267865000758,1231.1554618999362,None,1233.2267865000758,1233.943813299993,1.5800000000000012,1233.9594221999869,None,1234.7110681000631,None,,,,,,,[0.71139535],2.0000000000000013,0.7441860465116279,11031,002,2024_Jan_11_1446,MFTM_A_new1021,2021.2.3,60.088173455538495,
,,,,,,,,stim/Instruction_adaptive.png,conditions/adaptive.xlsx,test,-0.6,-0.6,-0.6,0.6,0.6,left,L,,,,,0,1,1,1,0,86,86,47,,,,,,,,,,,,,,,,,,,,,,,,,,,,,,,,,,,,,,,,,,,,1235.2115714000538,None,left,1,1.8344334999565035,1235.7121953999158,1237.8660482999403,1235.7121953999158,1237.3654374000616,1235.7121953999158,1237.3654374000616,1235.7121953999158,1237.3654374000616,1235.7121953999158,1237.3654374000616,1235.7121953999158,1237.3654374000616,1237.3325552998576,1237.833362699952,1237.3325552998576,1237.833362699952,1237.3325552998576,1237.833362699952,1237.3325552998576,1237.833362699952,1237.3325552998576,1237.833362699952,1237.3325552998576,1237.833362699952,1237.3325552998576,1237.833362699952,1237.3325552998576,1237.833362699952,1235.7121953999158,None,1237.833362699952,1238.550279499963,1.6400000000000012,1238.5662271999754,None,1239.318146500038,None,,,,,,,[0.71310345],2.0200000000000014,0.7471264367816092,11031,002,2024_Jan_11_1446,MFTM_A_new1021,2021.2.3,60.088173455538495,
,,,,,,,,stim/Instruction_adaptive.png,conditions/adaptive.xlsx,test,0.6,0.6,0.6,-0.6,-0.6,right,R,,,,,0,1,1,1,0,87,87,62,,,,,,,,,,,,,,,,,,,,,,,,,,,,,,,,,,,,,,,,,,,,1239.8190144998953,None,left,0,1.4993320999201387,1240.3190462999046,1242.4401040999219,1240.3190462999046,1241.9380872000474,1240.3190462999046,1241.9380872000474,1240.3190462999046,1241.9380872000474,1240.3190462999046,1241.9380872000474,1240.3190462999046,1241.9380872000474,1241.9214750998653,1242.4230313000735,1241.9214750998653,1242.4230313000735,1241.9214750998653,1242.4230313000735,1241.9214750998653,1242.4230313000735,1241.9214750998653,1242.4230313000735,1241.9214750998653,1242.4230313000735,1241.9214750998653,1242.4230313000735,1241.9214750998653,1242.4230313000735,1240.3190462999046,None,1242.4230313000735,1243.1398932999,1.6200000000000012,1243.15647669998,None,1243.9082931999583,None,,,,,,,[0.715],1.9500000000000013,0.7386363636363636,11031,002,2024_Jan_11_1446,MFTM_A_new1021,2021.2.3,60.088173455538495,
,,,,,,,,stim/Instruction_adaptive.png,conditions/adaptive.xlsx,test,0.6,0.6,0.6,-0.6,-0.6,right,R,,,,,0,1,1,1,0,88,88,10,,,,,,,,,,,,,,,,,,,,,,,,,,,,,,,,,,,,,,,,,,,,1244.408173599979,None,right,1,1.3170954999513924,1244.9091938999481,1247.11318450002,1244.9091938999481,1246.6124249000568,1244.9091938999481,1246.6124249000568,1244.9091938999481,1246.6124249000568,1244.9091938999481,1246.6124249000568,1244.9091938999481,1246.6124249000568,1246.5950815000106,1247.0963582999539,1246.5950815000106,1247.0963582999539,1246.5950815000106,1247.0963582999539,1246.5950815000106,1247.0963582999539,1246.5950815000106,1247.0963582999539,1246.5950815000106,1247.0963582999539,1246.5950815000106,1247.0963582999539,1246.5950815000106,1247.0963582999539,1244.9091938999481,None,1247.0963582999539,1247.8139013000764,1.7000000000000013,1247.8308520000428,None,1248.581939799944,None,,,,,,,[0.71595506],1.9700000000000013,0.7415730337078652,11031,002,2024_Jan_11_1446,MFTM_A_new1021,2021.2.3,60.088173455538495,
,,,,,,,,stim/Instruction_adaptive.png,conditions/adaptive.xlsx,test,0.6,0.6,0.6,-0.6,-0.6,right,R,,,,,0,1,1,1,0,89,89,74,,,,,,,,,,,,,,,,,,,,,,,,,,,,,,,,,,,,,,,,,,,,1249.0826045998838,None,right,1,1.0907798998523504,1249.583732200088,1251.7705850000493,1249.583732200088,1251.2685165000148,1249.583732200088,1251.2685165000148,1249.583732200088,1251.2685165000148,1249.583732200088,1251.2685165000148,1249.583732200088,1251.2685165000148,1251.2518974998966,1251.7525327000767,1251.2518974998966,1251.7525327000767,1251.2518974998966,1251.7525327000767,1251.2518974998966,1251.7525327000767,1251.2518974998966,1251.7525327000767,1251.2518974998966,1251.7525327000767,1251.2518974998966,1251.7525327000767,1251.2518974998966,1251.7525327000767,1249.583732200088,None,1251.7525327000767,1252.4711885999423,1.6800000000000013,1252.4881827000063,None,1253.2393567999825,None,,,,,,,[0.71711111],2.0000000000000013,0.7444444444444445,11031,002,2024_Jan_11_1446,MFTM_A_new1021,2021.2.3,60.088173455538495,
,,,,,,,,stim/Instruction_adaptive.png,conditions/adaptive.xlsx,test,-0.6,-0.6,-0.6,0.6,0.6,left,L,,,,,0,1,1,1,0,90,90,85,,,,,,,,,,,,,,,,,,,,,,,,,,,,,,,,,,,,,,,,,,,,1253.739124600077,None,left,1,0.9307163001503795,1254.2396917999722,1256.393991400022,1254.2396917999722,1255.8927758999635,1254.2396917999722,1255.8927758999635,1254.2396917999722,1255.8927758999635,1254.2396917999722,1255.8927758999635,1254.2396917999722,1255.8927758999635,1255.8587642000057,1256.3594023999758,1255.8587642000057,1256.3594023999758,1255.8587642000057,1256.3594023999758,1255.8587642000057,1256.3594023999758,1255.8587642000057,1256.3594023999758,1255.8587642000057,1256.3594023999758,1255.8587642000057,1256.3594023999758,1255.8587642000057,1256.3594023999758,1254.2396917999722,None,1256.3594023999758,1257.0770827999804,1.6400000000000012,1257.110664699925,None,1257.8622494998854,None,,,,,,,[0.71868132],2.0200000000000014,0.7472527472527473,11031,002,2024_Jan_11_1446,MFTM_A_new1021,2021.2.3,60.088173455538495,
,,,,,,,,stim/Instruction_adaptive.png,conditions/adaptive.xlsx,test,0.6,0.6,0.6,-0.6,-0.6,right,R,,,,,0,1,1,1,0,91,91,56,,,,,,,,,,,,,,,,,,,,,,,,,,,,,,,,,,,,,,,,,,,,1258.3633675999008,None,left,0,1.395350300008431,1258.8632340000477,1260.9830742999911,1258.8632340000477,1260.4823179999366,1258.8632340000477,1260.4823179999366,1258.8632340000477,1260.4823179999366,1258.8632340000477,1260.4823179999366,1258.8632340000477,1260.4823179999366,1260.4659702000208,1260.9661779999733,1260.4659702000208,1260.9661779999733,1260.4659702000208,1260.9661779999733,1260.4659702000208,1260.9661779999733,1260.4659702000208,1260.9661779999733,1260.4659702000208,1260.9661779999733,1260.4659702000208,1260.9661779999733,1260.4659702000208,1260.9661779999733,1258.8632340000477,None,1260.9661779999733,1261.70216970006,1.6200000000000012,1261.7171948000323,None,1262.469086600002,None,,,,,,,[0.72043478],1.9500000000000013,0.7391304347826086,11031,002,2024_Jan_11_1446,MFTM_A_new1021,2021.2.3,60.088173455538495,
,,,,,,,,stim/Instruction_adaptive.png,conditions/adaptive.xlsx,test,-0.6,-0.6,-0.6,0.6,0.6,left,L,,,,,0,1,1,1,0,92,92,81,,,,,,,,,,,,,,,,,,,,,,,,,,,,,,,,,,,,,,,,,,,,1262.969401899958,None,left,1,1.027890000026673,1263.4704046999104,1265.6736367000267,1263.4704046999104,1265.1725767999887,1263.4704046999104,1265.1725767999887,1263.4704046999104,1265.1725767999887,1263.4704046999104,1265.1725767999887,1263.4704046999104,1265.1725767999887,1265.1561036000494,1265.657225899864,1265.1561036000494,1265.657225899864,1265.1561036000494,1265.657225899864,1265.1561036000494,1265.657225899864,1265.1561036000494,1265.657225899864,1265.1561036000494,1265.657225899864,1265.1561036000494,1265.657225899864,1265.1561036000494,1265.657225899864,1263.4704046999104,None,1265.657225899864,None,1.7000000000000013,1266.3911057000514,None,1267.1420815999154,None,,,,,,,[0.72129032],1.9800000000000013,0.7419354838709677,11031,002,2024_Jan_11_1446,MFTM_A_new1021,2021.2.3,60.088173455538495,
,,,,,,,,stim/Instruction_adaptive.png,conditions/adaptive.xlsx,test,-0.6,-0.6,-0.6,0.6,0.6,left,L,,,,,0,1,1,1,0,93,93,41,,,,,,,,,,,,,,,,,,,,,,,,,,,,,,,,,,,,,,,,,,,,1267.6433594999835,None,left,1,1.4180797000881284,1268.1443183000665,1270.31346450001,1268.1443183000665,1269.8304117000662,1268.1443183000665,1269.8304117000662,1268.1443183000665,1269.8304117000662,1268.1443183000665,1269.8304117000662,1268.1443183000665,1269.8304117000662,1269.7959956999402,1270.2966334999073,1269.7959956999402,1270.2966334999073,1269.7959956999402,1270.2966334999073,1269.7959956999402,1270.2966334999073,1269.7959956999402,1270.2966334999073,1269.7959956999402,1270.2966334999073,1269.7959956999402,1270.2966334999073,1269.7959956999402,1270.2966334999073,1268.1443183000665,None,1270.2966334999073,1271.0324084998574,1.6700000000000013,1271.0478369998746,None,1271.7992056000512,None,,,,,,,[0.72244681],2.0000000000000013,0.7446808510638298,11031,002,2024_Jan_11_1446,MFTM_A_new1021,2021.2.3,60.088173455538495,
