arrwidth1,arrwidth2,arrwidth3,arrwidth4,arrwidth5,keyb,type,orientation,instruction_image,block_filename,block_type,arrow11,arrow22,arrow33,arrow44,arrow55,keyb_3,orientation3,trials.thisRepN,trials.thisTrialN,trials.thisN,trials.thisIndex,trials_3.thisRepN,trials_3.thisTrialN,trials_3.thisN,trials_3.thisIndex,trials_2.thisRepN,trials_2.thisTrialN,trials_2.thisN,trials_2.thisIndex,welcome.started,welcome.stopped,key_resp.keys,key_resp.rt,key_resp.started,key_resp.stopped,instruction_example.started,instruction_example.stopped,key_resp_3.keys,key_resp_3.rt,key_resp_3.started,key_resp_3.stopped,instruction_task.started,instruction_task.stopped,key_resp_2.keys,key_resp_2.rt,key_resp_2.started,key_resp_2.stopped,text_2.started,text_2.stopped,A1.started,A1.stopped,A2.started,A2.stopped,A3.started,A3.stopped,A4.started,A4.stopped,A5.started,A5.stopped,key_resp_4.keys,key_resp_4.corr,key_resp_4.rt,key_resp_4.started,key_resp_4.stopped,fb.started,fb.stopped,instruction_block.started,instruction_block.stopped,key_resp_8.keys,key_resp_8.rt,key_resp_8.started,key_resp_8.stopped,text_8.started,text_8.stopped,key_resp_9.keys,key_resp_9.corr,key_resp_9.rt,text_5.started,text_5.stopped,A11_3.started,A11_3.stopped,A22_2.started,A22_2.stopped,A33_2.started,A33_2.stopped,A44_2.started,A44_2.stopped,A55_2.started,A55_2.stopped,M1_3.started,M1_3.stopped,M2_2.started,M2_2.stopped,M3_2.started,M3_2.stopped,M4_2.started,M4_2.stopped,M5_2.started,M5_2.stopped,M6_2.started,M6_2.stopped,M7_2.started,M7_2.stopped,M8_2.started,M8_2.stopped,key_resp_9.started,key_resp_9.stopped,fixation.started,fixation.stopped,ET,fb_3.started,fb_3.stopped,text_9.started,text_9.stopped,fb_4.started,fb_4.stopped,text_7.started,text_7.stopped,endtext.started,endtext.stopped,fixation_ITI,CCC,Acc,participant,session,date,expName,psychopyVersion,frameRate,
,,,,,,,,,,,,,,,,,,,,,,,,,,,,,,9.959572699852288,None,left,8.936710900161415,9.959572699852288,None,,,,,,,,,,,,,,,,,,,,,,,,,,,,,,,,,,,,,,,,,,,,,,,,,,,,,,,,,,,,,,,,,,,,,,,,,,,,,,,,,,,,,,,,,11038,001,2024_Mar_11_1559,MFTM_A_new1021,2021.2.3,59.65928579420775,
,,,,,,,,,,,,,,,,,,,,,,,,,,,,,,,,,,,,18.922593399882317,None,right,9.526454300154,18.922593399882317,None,,,,,,,,,,,,,,,,,,,,,,,,,,,,,,,,,,,,,,,,,,,,,,,,,,,,,,,,,,,,,,,,,,,,,,,,,,,,,,,,,,,11038,001,2024_Mar_11_1559,MFTM_A_new1021,2021.2.3,59.65928579420775,
,,,,,,,,,,,,,,,,,,,,,,,,,,,,,,,,,,,,,,,,,,28.470534899970517,None,right,4.9459744999185205,28.470534899970517,None,,,,,,,,,,,,,,,,,,,,,,,,,,,,,,,,,,,,,,,,,,,,,,,,,,,,,,,,,,,,,,,,,,,,,,,,,,,,,11038,001,2024_Mar_11_1559,MFTM_A_new1021,2021.2.3,59.65928579420775,
0.6,0.6,0.6,-0.6,-0.6,right,3:2,R,,,,,,,,,,,0,0,0,0,,,,,,,,,,,,,,,,,,,,,,,,,,,33.462326099863276,None,33.462326099863276,None,33.462326099863276,None,33.462326099863276,None,33.462326099863276,None,33.462326099863276,None,right,1,4.010713800089434,33.462326099863276,None,37.51790159987286,None,,,,,,,,,,,,,,,,,,,,,,,,,,,,,,,,,,,,,,,,,,,,,,,,,,,,,,,,,,11038,001,2024_Mar_11_1559,MFTM_A_new1021,2021.2.3,59.65928579420775,
-0.6,-0.6,-0.6,0.6,0.6,left,3:2,L,,,,,,,,,,,0,1,1,1,,,,,,,,,,,,,,,,,,,,,,,,,,,38.26854459987953,None,38.26854459987953,None,38.26854459987953,None,38.26854459987953,None,38.26854459987953,None,38.26854459987953,None,left,1,1.820451800012961,38.26854459987953,None,40.104659700067714,None,,,,,,,,,,,,,,,,,,,,,,,,,,,,,,,,,,,,,,,,,,,,,,,,,,,,,,,,,,11038,001,2024_Mar_11_1559,MFTM_A_new1021,2021.2.3,59.65928579420775,
-0.6,-0.6,-0.6,0.6,0.6,left,3:2,L,,,,,,,,,,,1,0,2,1,,,,,,,,,,,,,,,,,,,,,,,,,,,40.855752599891275,None,40.855752599891275,None,40.855752599891275,None,40.855752599891275,None,40.855752599891275,None,40.855752599891275,None,left,1,1.601554799824953,40.855752599891275,None,42.47483629989438,None,,,,,,,,,,,,,,,,,,,,,,,,,,,,,,,,,,,,,,,,,,,,,,,,,,,,,,,,,,11038,001,2024_Mar_11_1559,MFTM_A_new1021,2021.2.3,59.65928579420775,
0.6,0.6,0.6,-0.6,-0.6,right,3:2,R,,,,,,,,,,,1,1,3,0,,,,,,,,,,,,,,,,,,,,,,,,,,,43.22673509991728,None,43.22673509991728,None,43.22673509991728,None,43.22673509991728,None,43.22673509991728,None,43.22673509991728,None,right,1,2.582094999961555,43.22673509991728,None,45.8300212000031,None,,,,,,,,,,,,,,,,,,,,,,,,,,,,,,,,,,,,,,,,,,,,,,,,,,,,,,,,,,11038,001,2024_Mar_11_1559,MFTM_A_new1021,2021.2.3,59.65928579420775,
,,,,,,,,stim/Instruction_mask.png,conditions/adaptive.xlsx,practice,0.6,0.6,0.6,-0.6,-0.6,right,R,,,,,0,0,0,0,0,0,0,68,,,,,,,,,,,,,,,,,,,,,,,,,,,,,,,,,,,,,,46.93084779987112,None,right,36.02419259981252,46.93084779987112,None,83.05264779995196,None,right,1,2.3632064000703394,83.48681689985096,None,83.48681689985096,86.4921126998961,83.48681689985096,86.4921126998961,83.48681689985096,86.4921126998961,83.48681689985096,86.4921126998961,83.48681689985096,86.4921126998961,86.47550829988904,86.97704619984142,86.47550829988904,86.97704619984142,86.47550829988904,86.97704619984142,86.47550829988904,86.97704619984142,86.47550829988904,86.97704619984142,86.47550829988904,86.97704619984142,86.47550829988904,86.97704619984142,86.47550829988904,86.97704619984142,83.48681689985096,None,86.97704619984142,86.97704619984142,3,86.99198190006427,None,87.7441415998619,None,,,,,,,,,,11038,001,2024_Mar_11_1559,MFTM_A_new1021,2021.2.3,59.65928579420775,
,,,,,,,,stim/Instruction_mask.png,conditions/adaptive.xlsx,practice,0.6,0.6,0.6,-0.6,-0.6,right,R,,,,,0,0,0,0,0,1,1,88,,,,,,,,,,,,,,,,,,,,,,,,,,,,,,,,,,,,,,,,,,,,88.24466499988921,None,None,0,0,88.74484930001199,90.75036499998532,88.74484930001199,90.24791889986955,88.74484930001199,90.24791889986955,88.74484930001199,90.24791889986955,88.74484930001199,90.24791889986955,88.74484930001199,90.24791889986955,90.23044379986823,90.73095760005526,90.23044379986823,90.73095760005526,90.23044379986823,90.73095760005526,90.23044379986823,90.73095760005526,90.23044379986823,90.73095760005526,90.23044379986823,90.73095760005526,90.23044379986823,90.73095760005526,90.23044379986823,90.73095760005526,88.74484930001199,None,90.73095760005526,92.23324400000274,1.5,92.24978720000945,None,93.00254769995809,None,,,,,,,,,,11038,001,2024_Mar_11_1559,MFTM_A_new1021,2021.2.3,59.65928579420775,
,,,,,,,,stim/Instruction_mask.png,conditions/adaptive.xlsx,practice,0.6,0.6,0.6,-0.6,-0.6,right,R,,,,,0,0,0,0,0,2,2,12,,,,,,,,,,,,,,,,,,,,,,,,,,,,,,,,,,,,,,,,,,,,93.50290079996921,None,left,0,1.8796111000701785,94.00270000007004,95.30446420004591,94.00270000007004,94.80406749993563,94.00270000007004,94.80406749993563,94.00270000007004,94.80406749993563,94.00270000007004,94.80406749993563,94.00270000007004,94.80406749993563,94.78709809994325,95.28796979994513,94.78709809994325,95.28796979994513,94.78709809994325,95.28796979994513,94.78709809994325,95.28796979994513,94.78709809994325,95.28796979994513,94.78709809994325,95.28796979994513,94.78709809994325,95.28796979994513,94.78709809994325,95.28796979994513,94.00270000007004,None,95.28796979994513,97.49138329993002,0.8,97.50786819984205,None,98.25898739998229,None,,,,,,,,,,11038,001,2024_Mar_11_1559,MFTM_A_new1021,2021.2.3,59.65928579420775,
,,,,,,,,stim/Instruction_mask.png,conditions/adaptive.xlsx,practice,0.6,0.6,0.6,-0.6,-0.6,right,R,,,,,0,0,0,0,0,3,3,44,,,,,,,,,,,,,,,,,,,,,,,,,,,,,,,,,,,,,,,,,,,,98.76078559993766,None,right,1,1.5731740000192076,99.26131789991632,100.01229769992642,99.26131789991632,99.51105499989353,99.26131789991632,99.51105499989353,99.26131789991632,99.51105499989353,99.26131789991632,99.51105499989353,99.26131789991632,99.51105499989353,99.49511220003478,99.99576919991523,99.49511220003478,99.99576919991523,99.49511220003478,99.99576919991523,99.49511220003478,99.99576919991523,99.49511220003478,99.99576919991523,99.49511220003478,99.99576919991523,99.49511220003478,99.99576919991523,99.49511220003478,99.99576919991523,99.26131789991632,None,99.99576919991523,102.74971590004861,3,102.76596620003693,None,103.51791809988208,None,,,,,,,,,,11038,001,2024_Mar_11_1559,MFTM_A_new1021,2021.2.3,59.65928579420775,
,,,,,,,,stim/Instruction_mask.png,conditions/adaptive.xlsx,practice,,,,,,,,,,,,0,0,0,0,,,,,,,,,,,,,,,,,,,,,,,,,,,,,,,,,,,,,,,,,,,,,,,,,,,,,,,,,,,,,,,,,,,,,,,,,,,,,,,,,,,,,,,,,,104.03431909997016,105.03666139999405,105.02002179995179,105.02002179995179,105.02002179995179,None,,,,11038,001,2024_Mar_11_1559,MFTM_A_new1021,2021.2.3,59.65928579420775,
,,,,,,,,stim/Instruction_adaptive.png,conditions/adaptive.xlsx,test,-0.6,-0.6,-0.6,0.6,0.6,left,L,,,,,0,1,1,1,0,0,0,69,,,,,,,,,,,,,,,,,,,,,,,,,,,,,,,,,,,,,,108.20731880003586,None,right,15.27592429984361,108.20731880003586,None,123.53096530004404,None,left,1,1.4118073000572622,124.03132289997302,None,124.03132289997302,127.03617569990456,124.03132289997302,127.03617569990456,124.03132289997302,127.03617569990456,124.03132289997302,127.03617569990456,124.03132289997302,127.03617569990456,127.01939889998175,127.51991189992987,127.01939889998175,127.51991189992987,127.01939889998175,127.51991189992987,127.01939889998175,127.51991189992987,127.01939889998175,127.51991189992987,127.01939889998175,127.51991189992987,127.01939889998175,127.51991189992987,127.01939889998175,127.51991189992987,124.03132289997302,None,127.51991189992987,127.51991189992987,3,127.5371659998782,None,128.28834689990617,None,,,,,,,0,6.000000000000005,1.0,11038,001,2024_Mar_11_1559,MFTM_A_new1021,2021.2.3,59.65928579420775,
,,,,,,,,stim/Instruction_adaptive.png,conditions/adaptive.xlsx,test,-0.6,-0.6,-0.6,0.6,0.6,left,L,,,,,0,1,1,1,0,1,1,13,,,,,,,,,,,,,,,,,,,,,,,,,,,,,,,,,,,,,,,,,,,,128.78944369987585,None,right,0,1.8821541001088917,129.28936809999868,130.0403871999588,129.28936809999868,129.53956869989634,129.28936809999868,129.53956869989634,129.28936809999868,129.53956869989634,129.28936809999868,129.53956869989634,129.28936809999868,129.53956869989634,129.52286319993436,130.02454239991494,129.52286319993436,130.02454239991494,129.52286319993436,130.02454239991494,129.52286319993436,130.02454239991494,129.52286319993436,130.02454239991494,129.52286319993436,130.02454239991494,129.52286319993436,130.02454239991494,129.52286319993436,130.02454239991494,129.28936809999868,None,130.02454239991494,131.1919893999584,0.25,131.20859739999287,None,131.96002559992485,None,,,,,,,[0.875],2.570000000000002,0.5,11038,001,2024_Mar_11_1559,MFTM_A_new1021,2021.2.3,59.65928579420775,
,,,,,,,,stim/Instruction_adaptive.png,conditions/adaptive.xlsx,test,0.6,0.6,0.6,-0.6,-0.6,right,R,,,,,0,1,1,1,0,2,2,58,,,,,,,,,,,,,,,,,,,,,,,,,,,,,,,,,,,,,,,,,,,,132.46122059994377,None,left,0,1.5941214999184012,132.96149719995447,134.5805154000409,132.96149719995447,134.08059649984352,132.96149719995447,134.08059649984352,132.96149719995447,134.08059649984352,132.96149719995447,134.08059649984352,132.96149719995447,134.08059649984352,134.06410109996796,134.56402759999037,134.06410109996796,134.56402759999037,134.06410109996796,134.56402759999037,134.06410109996796,134.56402759999037,134.06410109996796,134.56402759999037,134.06410109996796,134.56402759999037,134.06410109996796,134.56402759999037,134.06410109996796,134.56402759999037,132.96149719995447,None,134.56402759999037,135.61576069984585,1.1100000000000008,135.63215520000085,None,136.3842004998587,None,,,,,,,[1.04666667],0.5800000000000001,0.3333333333333333,11038,001,2024_Mar_11_1559,MFTM_A_new1021,2021.2.3,59.65928579420775,
,,,,,,,,stim/Instruction_adaptive.png,conditions/adaptive.xlsx,test,-0.6,-0.6,-0.6,0.6,0.6,left,L,,,,,0,1,1,1,0,3,3,45,,,,,,,,,,,,,,,,,,,,,,,,,,,,,,,,,,,,,,,,,,,,136.88438199996017,None,left,1,1.9711490999907255,137.38486739993095,None,137.38486739993095,140.38942339993082,137.38486739993095,140.38942339993082,137.38486739993095,140.38942339993082,137.38486739993095,140.38942339993082,137.38486739993095,140.38942339993082,140.37260430003516,140.87337549985386,140.37260430003516,140.87337549985386,140.37260430003516,140.87337549985386,140.37260430003516,140.87337549985386,140.37260430003516,140.87337549985386,140.37260430003516,140.87337549985386,140.37260430003516,140.87337549985386,140.37260430003516,140.87337549985386,137.38486739993095,None,140.87337549985386,140.87337549985386,3.0000000000000027,140.88996739988215,None,141.64117729989812,None,,,,,,,0,1.660000000000001,0.5,11038,001,2024_Mar_11_1559,MFTM_A_new1021,2021.2.3,59.65928579420775,
,,,,,,,,stim/Instruction_adaptive.png,conditions/adaptive.xlsx,test,-0.6,-0.6,-0.6,0.6,0.6,left,L,,,,,0,1,1,1,0,4,4,33,,,,,,,,,,,,,,,,,,,,,,,,,,,,,,,,,,,,,,,,,,,,142.14320879988372,None,left,1,1.7698965999297798,142.6428093998693,145.22993359994143,142.6428093998693,144.7291566999629,142.6428093998693,144.7291566999629,142.6428093998693,144.7291566999629,142.6428093998693,144.7291566999629,142.6428093998693,144.7291566999629,144.7126543999184,145.21403179992922,144.7126543999184,145.21403179992922,144.7126543999184,145.21403179992922,144.7126543999184,145.21403179992922,144.7126543999184,145.21403179992922,144.7126543999184,145.21403179992922,144.7126543999184,145.21403179992922,144.7126543999184,145.21403179992922,142.6428093998693,None,145.19678239990026,145.63072569994256,2.080000000000002,145.6471915000584,None,146.39895349997096,None,,,,,,,[[0.42]],2.1200000000000014,0.6,11038,001,2024_Mar_11_1559,MFTM_A_new1021,2021.2.3,59.65928579420775,
,,,,,,,,stim/Instruction_adaptive.png,conditions/adaptive.xlsx,test,0.6,0.6,0.6,-0.6,-0.6,right,R,,,,,0,1,1,1,0,5,5,72,,,,,,,,,,,,,,,,,,,,,,,,,,,,,,,,,,,,,,,,,,,,146.89917319989763,None,right,1,1.2361938001122326,147.40027359989472,149.42032759985887,147.40027359989472,148.91979289986193,147.40027359989472,148.91979289986193,147.40027359989472,148.91979289986193,147.40027359989472,148.91979289986193,147.40027359989472,148.91979289986193,148.88527780002914,149.38625079998747,148.88527780002914,149.38625079998747,148.88527780002914,149.38625079998747,148.88527780002914,149.38625079998747,148.88527780002914,149.38625079998747,148.88527780002914,149.38625079998747,148.88527780002914,149.38625079998747,148.88527780002914,149.38625079998747,147.40027359989472,None,149.38625079998747,150.07137180003338,1.5100000000000011,150.08721709996462,None,150.83855609991588,None,,,,,,,[0.675],2.450000000000002,0.6666666666666666,11038,001,2024_Mar_11_1559,MFTM_A_new1021,2021.2.3,59.65928579420775,
,,,,,,,,stim/Instruction_adaptive.png,conditions/adaptive.xlsx,test,-0.6,-0.6,-0.6,0.6,0.6,left,L,,,,,0,1,1,1,0,6,6,71,,,,,,,,,,,,,,,,,,,,,,,,,,,,,,,,,,,,,,,,,,,,151.34046430001035,None,left,1,0.8202154999598861,151.8397337999195,153.5424474000465,151.8397337999195,153.04246439994313,151.8397337999195,153.04246439994313,151.8397337999195,153.04246439994313,151.8397337999195,153.04246439994313,151.8397337999195,153.04246439994313,153.02571339998394,153.52607059990987,153.02571339998394,153.52607059990987,153.02571339998394,153.52607059990987,153.02571339998394,153.52607059990987,153.02571339998394,153.52607059990987,153.02571339998394,153.52607059990987,153.02571339998394,153.52607059990987,153.02571339998394,153.52607059990987,151.8397337999195,None,153.52607059990987,154.29366349987686,1.2000000000000008,154.31039229989983,None,155.06245610001497,None,,,,,,,[0.76428571],2.700000000000002,0.7142857142857143,11038,001,2024_Mar_11_1559,MFTM_A_new1021,2021.2.3,59.65928579420775,
,,,,,,,,stim/Instruction_adaptive.png,conditions/adaptive.xlsx,test,0.6,0.6,0.6,-0.6,-0.6,right,R,,,,,0,1,1,1,0,7,7,88,,,,,,,,,,,,,,,,,,,,,,,,,,,,,,,,,,,,,,,,,,,,155.562914500013,None,right,1,1.1323804999701679,156.06374979997054,157.58267379994504,156.06374979997054,157.08187330001965,156.06374979997054,157.08187330001965,156.06374979997054,157.08187330001965,156.06374979997054,157.08187330001965,156.06374979997054,157.08187330001965,157.04837940004654,157.54885519994423,157.04837940004654,157.54885519994423,157.04837940004654,157.54885519994423,157.04837940004654,157.54885519994423,157.04837940004654,157.54885519994423,157.04837940004654,157.54885519994423,157.04837940004654,157.54885519994423,157.04837940004654,157.54885519994423,156.06374979997054,None,157.54885519994423,158.41691919998266,1.0100000000000007,158.43291680002585,None,159.18451849999838,None,,,,,,,[0.855],2.910000000000002,0.75,11038,001,2024_Mar_11_1559,MFTM_A_new1021,2021.2.3,59.65928579420775,
,,,,,,,,stim/Instruction_adaptive.png,conditions/adaptive.xlsx,test,0.6,0.6,0.6,-0.6,-0.6,right,R,,,,,0,1,1,1,0,8,8,28,,,,,,,,,,,,,,,,,,,,,,,,,,,,,,,,,,,,,,,,,,,,159.6858016999904,None,left,0,1.1537031999323517,160.18687450001016,161.57130429986864,160.18687450001016,161.0706505998969,160.18687450001016,161.0706505998969,160.18687450001016,161.0706505998969,160.18687450001016,161.0706505998969,160.18687450001016,161.0706505998969,161.0537429000251,161.55479969992302,161.0537429000251,161.55479969992302,161.0537429000251,161.55479969992302,161.0537429000251,161.55479969992302,161.0537429000251,161.55479969992302,161.0537429000251,161.55479969992302,161.0537429000251,161.55479969992302,161.0537429000251,161.55479969992302,160.18687450001016,None,161.55479969992302,162.50632599997334,0.8800000000000006,162.52252099988982,None,163.27394119999371,None,,,,,,,[0.94],2.4000000000000017,0.6666666666666666,11038,001,2024_Mar_11_1559,MFTM_A_new1021,2021.2.3,59.65928579420775,
,,,,,,,,stim/Instruction_adaptive.png,conditions/adaptive.xlsx,test,0.6,0.6,0.6,-0.6,-0.6,right,R,,,,,0,1,1,1,0,9,9,20,,,,,,,,,,,,,,,,,,,,,,,,,,,,,,,,,,,,,,,,,,,,163.77451179991476,None,right,1,1.592186399968341,164.2761874999851,166.0279705999419,164.2761874999851,165.52732990006916,164.2761874999851,165.52732990006916,164.2761874999851,165.52732990006916,164.2761874999851,165.52732990006916,164.2761874999851,165.52732990006916,165.5106317999307,166.0113524000626,165.5106317999307,166.0113524000626,165.5106317999307,166.0113524000626,165.5106317999307,166.0113524000626,165.5106317999307,166.0113524000626,165.5106317999307,166.0113524000626,165.5106317999307,166.0113524000626,165.5106317999307,166.0113524000626,164.2761874999851,None,166.0113524000626,166.99607979995199,1.2500000000000009,167.01304099988192,None,167.7647323999554,None,,,,,,,[0.971],2.600000000000002,0.7,11038,001,2024_Mar_11_1559,MFTM_A_new1021,2021.2.3,59.65928579420775,
,,,,,,,,stim/Instruction_adaptive.png,conditions/adaptive.xlsx,test,0.6,0.6,0.6,-0.6,-0.6,right,R,,,,,0,1,1,1,0,10,10,76,,,,,,,,,,,,,,,,,,,,,,,,,,,,,,,,,,,,,,,,,,,,168.26480620005168,None,right,1,1.2782149000559002,168.76605920004658,170.36868930002674,168.76605920004658,169.8677228000015,168.76605920004658,169.8677228000015,168.76605920004658,169.8677228000015,168.76605920004658,169.8677228000015,168.76605920004658,169.8677228000015,169.8346289000474,170.33541790000163,169.8346289000474,170.33541790000163,169.8346289000474,170.33541790000163,169.8346289000474,170.33541790000163,169.8346289000474,170.33541790000163,169.8346289000474,170.33541790000163,169.8346289000474,170.33541790000163,169.8346289000474,170.33541790000163,168.76605920004658,None,170.33541790000163,171.35252949991263,1.0900000000000007,171.3693092998583,None,172.1207653998863,None,,,,,,,[1.01090909],2.760000000000002,0.7272727272727273,11038,001,2024_Mar_11_1559,MFTM_A_new1021,2021.2.3,59.65928579420775,
,,,,,,,,stim/Instruction_adaptive.png,conditions/adaptive.xlsx,test,-0.6,-0.6,-0.6,0.6,0.6,left,L,,,,,0,1,1,1,0,11,11,79,,,,,,,,,,,,,,,,,,,,,,,,,,,,,,,,,,,,,,,,,,,,172.62175639998168,None,left,1,0.778372900094837,173.12195069994777,174.59135850006714,173.12195069994777,174.10679690004326,173.12195069994777,174.10679690004326,173.12195069994777,174.10679690004326,173.12195069994777,174.10679690004326,173.12195069994777,174.10679690004326,174.07338840002194,174.57503529987298,174.07338840002194,174.57503529987298,174.07338840002194,174.57503529987298,174.07338840002194,174.57503529987298,174.07338840002194,174.57503529987298,174.07338840002194,174.57503529987298,174.07338840002194,174.57503529987298,174.07338840002194,174.57503529987298,173.12195069994777,None,174.57503529987298,175.6438865000382,0.9700000000000006,175.65924349986017,None,176.4102781000547,None,,,,,,,[1.05416667],2.910000000000002,0.75,11038,001,2024_Mar_11_1559,MFTM_A_new1021,2021.2.3,59.65928579420775,
,,,,,,,,stim/Instruction_adaptive.png,conditions/adaptive.xlsx,test,-0.6,-0.6,-0.6,0.6,0.6,left,L,,,,,0,1,1,1,0,12,12,29,,,,,,,,,,,,,,,,,,,,,,,,,,,,,,,,,,,,,,,,,,,,176.9108676998876,None,left,1,0.8497211001813412,177.41182579984888,178.79846709989943,177.41182579984888,178.29660569992848,177.41182579984888,178.29660569992848,177.41182579984888,178.29660569992848,177.41182579984888,178.29660569992848,177.41182579984888,178.29660569992848,178.27990449988283,178.78056169999763,178.27990449988283,178.78056169999763,178.27990449988283,178.78056169999763,178.27990449988283,178.78056169999763,178.27990449988283,178.78056169999763,178.27990449988283,178.78056169999763,178.27990449988283,178.78056169999763,178.27990449988283,178.78056169999763,177.41182579984888,None,178.78056169999763,179.88300350005738,0.8800000000000006,179.8985987000633,None,180.6510121000465,None,,,,,,,[1.09769231],3.0400000000000023,0.7692307692307693,11038,001,2024_Mar_11_1559,MFTM_A_new1021,2021.2.3,59.65928579420775,
,,,,,,,,stim/Instruction_adaptive.png,conditions/adaptive.xlsx,test,-0.6,-0.6,-0.6,0.6,0.6,left,L,,,,,0,1,1,1,0,13,13,17,,,,,,,,,,,,,,,,,,,,,,,,,,,,,,,,,,,,,,,,,,,,181.15160289988853,None,left,1,0.6489636998157948,181.6515677999705,182.95428010006435,181.6515677999705,182.45263960002922,181.6515677999705,182.45263960002922,181.6515677999705,182.45263960002922,181.6515677999705,182.45263960002922,181.6515677999705,182.45263960002922,182.437347299885,182.93727009999566,182.437347299885,182.93727009999566,182.437347299885,182.93727009999566,182.437347299885,182.93727009999566,182.437347299885,182.93727009999566,182.437347299885,182.93727009999566,182.437347299885,182.93727009999566,182.437347299885,182.93727009999566,181.6515677999705,None,182.93727009999566,184.089386299951,0.8000000000000005,184.1049820999615,None,184.85639229998924,None,,,,,,,[1.14071429],3.150000000000002,0.7857142857142857,11038,001,2024_Mar_11_1559,MFTM_A_new1021,2021.2.3,59.65928579420775,
,,,,,,,,stim/Instruction_adaptive.png,conditions/adaptive.xlsx,test,-0.6,-0.6,-0.6,0.6,0.6,left,L,,,,,0,1,1,1,0,14,14,57,,,,,,,,,,,,,,,,,,,,,,,,,,,,,,,,,,,,,,,,,,,,185.35794089990668,None,left,1,0.6990655001718551,185.85789899993688,187.11049390002154,185.85789899993688,186.6089550999459,185.85789899993688,186.6089550999459,185.85789899993688,186.6089550999459,185.85789899993688,186.6089550999459,185.85789899993688,186.6089550999459,186.57565819984302,187.07672029989772,186.57565819984302,187.07672029989772,186.57565819984302,187.07672029989772,186.57565819984302,187.07672029989772,186.57565819984302,187.07672029989772,186.57565819984302,187.07672029989772,186.57565819984302,187.07672029989772,186.57565819984302,187.07672029989772,185.85789899993688,None,187.07672029989772,188.26216270006262,0.7400000000000004,188.29494219995104,None,189.04685309994966,None,,,,,,,[1.182],3.2600000000000025,0.8,11038,001,2024_Mar_11_1559,MFTM_A_new1021,2021.2.3,59.65928579420775,
,,,,,,,,stim/Instruction_adaptive.png,conditions/adaptive.xlsx,test,0.6,0.6,0.6,-0.6,-0.6,right,R,,,,,0,1,1,1,0,15,15,92,,,,,,,,,,,,,,,,,,,,,,,,,,,,,,,,,,,,,,,,,,,,189.5476164999418,None,left,0,0.5412551001645625,190.0475957999006,191.25017379992642,190.0475957999006,190.74885619990528,190.0475957999006,190.74885619990528,190.0475957999006,190.74885619990528,190.0475957999006,190.74885619990528,190.0475957999006,190.74885619990528,190.71586139989085,191.21643360005692,190.71586139989085,191.21643360005692,190.71586139989085,191.21643360005692,190.71586139989085,191.21643360005692,190.71586139989085,191.21643360005692,190.71586139989085,191.21643360005692,190.71586139989085,191.21643360005692,190.71586139989085,191.21643360005692,190.0475957999006,None,191.21643360005692,192.4512064999435,0.6900000000000004,192.46780049987137,None,193.21909699984826,None,,,,,,,[1.22125],2.9700000000000024,0.75,11038,001,2024_Mar_11_1559,MFTM_A_new1021,2021.2.3,59.65928579420775,
,,,,,,,,stim/Instruction_adaptive.png,conditions/adaptive.xlsx,test,-0.6,-0.6,-0.6,0.6,0.6,left,L,,,,,0,1,1,1,0,16,16,91,,,,,,,,,,,,,,,,,,,,,,,,,,,,,,,,,,,,,,,,,,,,193.71977459988557,None,left,1,2.011089700041339,194.22034469991922,195.5732316998765,194.22034469991922,195.072380800033,194.22034469991922,195.072380800033,194.22034469991922,195.072380800033,194.22034469991922,195.072380800033,194.22034469991922,195.072380800033,195.038502600044,195.54016530001536,195.038502600044,195.54016530001536,195.038502600044,195.54016530001536,195.038502600044,195.54016530001536,195.038502600044,195.54016530001536,195.038502600044,195.54016530001536,195.038502600044,195.54016530001536,195.038502600044,195.54016530001536,194.22034469991922,None,195.54016530001536,196.7918835999444,0.8400000000000005,196.80785029986873,None,197.5589395998977,None,,,,,,,[1.24705882],3.0800000000000023,0.7647058823529411,11038,001,2024_Mar_11_1559,MFTM_A_new1021,2021.2.3,59.65928579420775,
,,,,,,,,stim/Instruction_adaptive.png,conditions/adaptive.xlsx,test,0.6,0.6,0.6,-0.6,-0.6,right,R,,,,,0,1,1,1,0,17,17,0,,,,,,,,,,,,,,,,,,,,,,,,,,,,,,,,,,,,,,,,,,,,198.05946039990522,None,right,1,1.2607724000699818,198.5604347998742,199.8457638998516,198.5604347998742,199.3447395998519,198.5604347998742,199.3447395998519,198.5604347998742,199.3447395998519,198.5604347998742,199.3447395998519,198.5604347998742,199.3447395998519,199.32846460002474,199.82884979993105,199.32846460002474,199.82884979993105,199.32846460002474,199.82884979993105,199.32846460002474,199.82884979993105,199.32846460002474,199.82884979993105,199.32846460002474,199.82884979993105,199.32846460002474,199.82884979993105,199.32846460002474,199.82884979993105,198.5604347998742,None,199.82884979993105,None,0.7800000000000005,201.11475619999692,None,201.8661406999454,None,,,,,,,[1.27333333],3.1700000000000026,0.7777777777777778,11038,001,2024_Mar_11_1559,MFTM_A_new1021,2021.2.3,59.65928579420775,
,,,,,,,,stim/Instruction_adaptive.png,conditions/adaptive.xlsx,test,-0.6,-0.6,-0.6,0.6,0.6,left,L,,,,,0,1,1,1,0,18,18,97,,,,,,,,,,,,,,,,,,,,,,,,,,,,,,,,,,,,,,,,,,,,202.36608539987355,None,left,1,2.075470400042832,202.86666339985095,204.1019836999476,202.86666339985095,203.60256080003455,202.86666339985095,203.60256080003455,202.86666339985095,203.60256080003455,202.86666339985095,203.60256080003455,202.86666339985095,203.60256080003455,203.58471139986068,204.08522400003858,203.58471139986068,204.08522400003858,203.58471139986068,204.08522400003858,203.58471139986068,204.08522400003858,203.58471139986068,204.08522400003858,203.58471139986068,204.08522400003858,203.58471139986068,204.08522400003858,203.58471139986068,204.08522400003858,202.86666339985095,None,204.08522400003858,205.3877323998604,0.7300000000000004,205.40484469989315,None,206.15613340004347,None,,,,,,,[1.29947368],3.2600000000000025,0.7894736842105263,11038,001,2024_Mar_11_1559,MFTM_A_new1021,2021.2.3,59.65928579420775,
,,,,,,,,stim/Instruction_adaptive.png,conditions/adaptive.xlsx,test,0.6,0.6,0.6,-0.6,-0.6,right,R,,,,,0,1,1,1,0,19,19,22,,,,,,,,,,,,,,,,,,,,,,,,,,,,,,,,,,,,,,,,,,,,206.65672719990835,None,right,1,1.5690616997890174,207.15657559991814,208.3584437998943,207.15657559991814,207.85798279987648,207.15657559991814,207.85798279987648,207.15657559991814,207.85798279987648,207.15657559991814,207.85798279987648,207.15657559991814,207.85798279987648,207.82437089993618,208.3249441999942,207.82437089993618,208.3249441999942,207.82437089993618,208.3249441999942,207.82437089993618,208.3249441999942,207.82437089993618,208.3249441999942,207.82437089993618,208.3249441999942,207.82437089993618,208.3249441999942,207.82437089993618,208.3249441999942,207.15657559991814,None,208.3249441999942,209.66126729990356,0.6900000000000004,209.67711569997482,None,210.42852469999343,None,,,,,,,[1.325],3.3400000000000025,0.8,11038,001,2024_Mar_11_1559,MFTM_A_new1021,2021.2.3,59.65928579420775,
,,,,,,,,stim/Instruction_adaptive.png,conditions/adaptive.xlsx,test,0.6,0.6,0.6,-0.6,-0.6,right,R,,,,,0,1,1,1,0,20,20,38,,,,,,,,,,,,,,,,,,,,,,,,,,,,,,,,,,,,,,,,,,,,210.9287914999295,None,right,1,1.6073807999491692,211.42983899987303,212.58136099996045,211.42983899987303,212.0806841000449,211.42983899987303,212.0806841000449,211.42983899987303,212.0806841000449,211.42983899987303,212.0806841000449,211.42983899987303,212.0806841000449,212.0640304000117,212.56466949987225,212.0640304000117,212.56466949987225,212.0640304000117,212.56466949987225,212.0640304000117,212.56466949987225,212.0640304000117,212.56466949987225,212.0640304000117,212.56466949987225,212.0640304000117,212.56466949987225,212.0640304000117,212.56466949987225,211.42983899987303,None,212.56466949987225,213.91743629984558,0.6500000000000004,213.93347739987075,None,214.68473069998436,None,,,,,,,[1.35],3.4200000000000026,0.8095238095238095,11038,001,2024_Mar_11_1559,MFTM_A_new1021,2021.2.3,59.65928579420775,
,,,,,,,,stim/Instruction_adaptive.png,conditions/adaptive.xlsx,test,0.6,0.6,0.6,-0.6,-0.6,right,R,,,,,0,1,1,1,0,21,21,54,,,,,,,,,,,,,,,,,,,,,,,,,,,,,,,,,,,,,,,,,,,,215.18597600003704,None,left,0,1.7182034000288695,215.68793240003288,216.804432899924,215.68793240003288,216.30400720005855,215.68793240003288,216.30400720005855,215.68793240003288,216.30400720005855,215.68793240003288,216.30400720005855,215.68793240003288,216.30400720005855,216.27062289998867,216.7709296999965,216.27062289998867,216.7709296999965,216.27062289998867,216.7709296999965,216.27062289998867,216.7709296999965,216.27062289998867,216.7709296999965,216.27062289998867,216.7709296999965,216.27062289998867,216.7709296999965,216.27062289998867,216.7709296999965,215.68793240003288,None,216.7709296999965,218.15653619985096,0.6100000000000003,218.1732604999561,None,218.92454539984465,None,,,,,,,[1.37454545],3.2100000000000026,0.7727272727272727,11038,001,2024_Mar_11_1559,MFTM_A_new1021,2021.2.3,59.65928579420775,
,,,,,,,,stim/Instruction_adaptive.png,conditions/adaptive.xlsx,test,-0.6,-0.6,-0.6,0.6,0.6,left,L,,,,,0,1,1,1,0,22,22,63,,,,,,,,,,,,,,,,,,,,,,,,,,,,,,,,,,,,,,,,,,,,219.42598939989693,None,left,1,1.5360010000877082,219.9259595000185,221.1443803999573,219.9259595000185,220.64352379995398,219.9259595000185,220.64352379995398,219.9259595000185,220.64352379995398,219.9259595000185,220.64352379995398,219.9259595000185,220.64352379995398,220.62717469991185,221.12766820006073,220.62717469991185,221.12766820006073,220.62717469991185,221.12766820006073,220.62717469991185,221.12766820006073,220.62717469991185,221.12766820006073,220.62717469991185,221.12766820006073,220.62717469991185,221.12766820006073,220.62717469991185,221.12766820006073,219.9259595000185,None,221.11113289999776,222.51320659997873,0.7100000000000004,222.52980789984576,None,223.2812534000259,None,,,,,,,[1.3926087],3.2800000000000025,0.782608695652174,11038,001,2024_Mar_11_1559,MFTM_A_new1021,2021.2.3,59.65928579420775,
,,,,,,,,stim/Instruction_adaptive.png,conditions/adaptive.xlsx,test,-0.6,-0.6,-0.6,0.6,0.6,left,L,,,,,0,1,1,1,0,23,23,43,,,,,,,,,,,,,,,,,,,,,,,,,,,,,,,,,,,,,,,,,,,,223.78210949990898,None,left,1,1.6038716998882592,224.2824740000069,225.46789029985666,224.2824740000069,224.9669005998876,224.2824740000069,224.9669005998876,224.2824740000069,224.9669005998876,224.2824740000069,224.9669005998876,224.2824740000069,224.9669005998876,224.95028529991396,225.45178569993004,224.95028529991396,225.45178569993004,224.95028529991396,225.45178569993004,224.95028529991396,225.45178569993004,224.95028529991396,225.45178569993004,224.95028529991396,225.45178569993004,224.95028529991396,225.45178569993004,224.95028529991396,225.45178569993004,224.2824740000069,None,225.45178569993004,226.8701891999226,0.6800000000000004,226.886315099895,None,227.63761149998754,None,,,,,,,[1.41041667],3.3500000000000023,0.7916666666666666,11038,001,2024_Mar_11_1559,MFTM_A_new1021,2021.2.3,59.65928579420775,
,,,,,,,,stim/Instruction_adaptive.png,conditions/adaptive.xlsx,test,0.6,0.6,0.6,-0.6,-0.6,right,R,,,,,0,1,1,1,0,24,24,74,,,,,,,,,,,,,,,,,,,,,,,,,,,,,,,,,,,,,,,,,,,,228.1382531998679,None,left,0,1.462329699890688,228.63997979997657,229.79294339986518,228.63997979997657,229.29017119994387,228.63997979997657,229.29017119994387,228.63997979997657,229.29017119994387,228.63997979997657,229.29017119994387,228.63997979997657,229.29017119994387,229.27348960004747,229.77403109986335,229.27348960004747,229.77403109986335,229.27348960004747,229.77403109986335,229.27348960004747,229.77403109986335,229.27348960004747,229.77403109986335,229.27348960004747,229.77403109986335,229.27348960004747,229.77403109986335,229.27348960004747,229.77403109986335,228.63997979997657,None,229.77403109986335,231.2113757999614,0.6500000000000004,231.2433149998542,None,231.9949898000341,None,,,,,,,[1.428],3.1600000000000024,0.76,11038,001,2024_Mar_11_1559,MFTM_A_new1021,2021.2.3,59.65928579420775,
,,,,,,,,stim/Instruction_adaptive.png,conditions/adaptive.xlsx,test,-0.6,-0.6,-0.6,0.6,0.6,left,L,,,,,0,1,1,1,0,25,25,39,,,,,,,,,,,,,,,,,,,,,,,,,,,,,,,,,,,,,,,,,,,,232.49560160003603,None,right,0,2.5294383000582457,232.99635959998704,234.24895399995148,232.99635959998704,233.74683209997602,232.99635959998704,233.74683209997602,232.99635959998704,233.74683209997602,232.99635959998704,233.74683209997602,232.99635959998704,233.74683209997602,233.71343769994564,234.21413989993744,233.71343769994564,234.21413989993744,233.71343769994564,234.21413989993744,233.71343769994564,234.21413989993744,233.71343769994564,234.21413989993744,233.71343769994564,234.21413989993744,233.71343769994564,234.21413989993744,233.71343769994564,234.21413989993744,232.99635959998704,None,234.21413989993744,235.66626810003072,0.7400000000000004,235.68300469988026,None,236.43395760003477,None,,,,,,,[1.44076923],2.950000000000002,0.7307692307692307,11038,001,2024_Mar_11_1559,MFTM_A_new1021,2021.2.3,59.65928579420775,
,,,,,,,,stim/Instruction_adaptive.png,conditions/adaptive.xlsx,test,-0.6,-0.6,-0.6,0.6,0.6,left,L,,,,,0,1,1,1,0,26,26,19,,,,,,,,,,,,,,,,,,,,,,,,,,,,,,,,,,,,,,,,,,,,236.93477279995568,None,left,1,1.7456580998841673,237.43667989992537,238.788175099995,237.43667989992537,238.28726619994268,237.43667989992537,238.28726619994268,237.43667989992537,238.28726619994268,237.43667989992537,238.28726619994268,237.43667989992537,238.28726619994268,238.2711634999141,238.77170749986544,238.2711634999141,238.77170749986544,238.2711634999141,238.77170749986544,238.2711634999141,238.77170749986544,238.2711634999141,238.77170749986544,238.2711634999141,238.77170749986544,238.2711634999141,238.77170749986544,238.2711634999141,238.77170749986544,237.43667989992537,None,238.77170749986544,240.2232090998441,0.8500000000000005,240.23958180006593,None,240.99216019990854,None,,,,,,,[1.44851852],3.0200000000000022,0.7407407407407407,11038,001,2024_Mar_11_1559,MFTM_A_new1021,2021.2.3,59.65928579420775,
,,,,,,,,stim/Instruction_adaptive.png,conditions/adaptive.xlsx,test,-0.6,-0.6,-0.6,0.6,0.6,left,L,,,,,0,1,1,1,0,27,27,7,,,,,,,,,,,,,,,,,,,,,,,,,,,,,,,,,,,,,,,,,,,,241.49236449995078,None,left,1,1.725639299955219,241.99313999991864,243.31204309989698,241.99313999991864,242.81043719989248,241.99313999991864,242.81043719989248,241.99313999991864,242.81043719989248,241.99313999991864,242.81043719989248,241.99313999991864,242.81043719989248,242.7783027999103,243.2785189000424,242.7783027999103,243.2785189000424,242.7783027999103,243.2785189000424,242.7783027999103,243.2785189000424,242.7783027999103,243.2785189000424,242.7783027999103,243.2785189000424,242.7783027999103,243.2785189000424,242.7783027999103,243.2785189000424,241.99313999991864,None,243.2785189000424,244.74674459989183,0.8100000000000005,244.7640535000246,None,245.51516489987262,None,,,,,,,[1.45714286],3.0900000000000025,0.75,11038,001,2024_Mar_11_1559,MFTM_A_new1021,2021.2.3,59.65928579420775,
,,,,,,,,stim/Instruction_adaptive.png,conditions/adaptive.xlsx,test,0.6,0.6,0.6,-0.6,-0.6,right,R,,,,,0,1,1,1,0,28,28,24,,,,,,,,,,,,,,,,,,,,,,,,,,,,,,,,,,,,,,,,,,,,246.01597959990613,None,right,1,2.3147047001402825,246.51616830006242,247.8013021000661,246.51616830006242,247.30124209984206,246.51616830006242,247.30124209984206,246.51616830006242,247.30124209984206,246.51616830006242,247.30124209984206,246.51616830006242,247.30124209984206,247.26706520002335,247.76769979996607,247.26706520002335,247.76769979996607,247.26706520002335,247.76769979996607,247.26706520002335,247.76769979996607,247.26706520002335,247.76769979996607,247.26706520002335,247.76769979996607,247.26706520002335,247.76769979996607,247.26706520002335,247.76769979996607,246.51616830006242,None,247.76769979996607,249.23852139990777,0.7700000000000005,249.25334279984236,None,250.00461669988,None,,,,,,,[1.46655172],3.1600000000000024,0.7586206896551724,11038,001,2024_Mar_11_1559,MFTM_A_new1021,2021.2.3,59.65928579420775,
,,,,,,,,stim/Instruction_adaptive.png,conditions/adaptive.xlsx,test,0.6,0.6,0.6,-0.6,-0.6,right,R,,,,,0,1,1,1,0,29,29,34,,,,,,,,,,,,,,,,,,,,,,,,,,,,,,,,,,,,,,,,,,,,250.5065013000276,None,right,1,2.0247335000894964,251.0059497000184,252.25792869995348,251.0059497000184,251.7580917000305,251.0059497000184,251.7580917000305,251.0059497000184,251.7580917000305,251.0059497000184,251.7580917000305,251.0059497000184,251.7580917000305,251.7242425000295,252.22460670000874,251.7242425000295,252.22460670000874,251.7242425000295,252.22460670000874,251.7242425000295,252.22460670000874,251.7242425000295,252.22460670000874,251.7242425000295,252.22460670000874,251.7242425000295,252.22460670000874,251.7242425000295,252.22460670000874,251.0059497000184,None,252.22460670000874,253.71041830000468,0.7400000000000004,253.7269176999107,None,254.4787798000034,None,,,,,,,[1.47633333],3.2200000000000024,0.7666666666666667,11038,001,2024_Mar_11_1559,MFTM_A_new1021,2021.2.3,59.65928579420775,
,,,,,,,,stim/Instruction_adaptive.png,conditions/adaptive.xlsx,test,-0.6,-0.6,-0.6,0.6,0.6,left,L,,,,,0,1,1,1,0,30,30,83,,,,,,,,,,,,,,,,,,,,,,,,,,,,,,,,,,,,,,,,,,,,254.9791548999492,None,left,1,1.7354506000410765,255.47951259999536,256.69792569987476,255.47951259999536,256.1980401999317,255.47951259999536,256.1980401999317,255.47951259999536,256.1980401999317,255.47951259999536,256.1980401999317,255.47951259999536,256.1980401999317,256.1647385000251,256.6647071999032,256.1647385000251,256.6647071999032,256.1647385000251,256.6647071999032,256.1647385000251,256.6647071999032,256.1647385000251,256.6647071999032,256.1647385000251,256.6647071999032,256.1647385000251,256.6647071999032,256.1647385000251,256.6647071999032,255.47951259999536,None,256.6647071999032,258.15092649986036,0.7100000000000004,258.18437239993364,None,258.93453299999237,None,,,,,,,[1.48645161],3.2700000000000022,0.7741935483870968,11038,001,2024_Mar_11_1559,MFTM_A_new1021,2021.2.3,59.65928579420775,
,,,,,,,,stim/Instruction_adaptive.png,conditions/adaptive.xlsx,test,-0.6,-0.6,-0.6,0.6,0.6,left,L,,,,,0,1,1,1,0,31,31,23,,,,,,,,,,,,,,,,,,,,,,,,,,,,,,,,,,,,,,,,,,,,259.4361084999982,None,left,1,1.4946042001247406,259.9361952999607,261.12230270006694,259.9361952999607,260.6208577998914,259.9361952999607,260.6208577998914,259.9361952999607,260.6208577998914,259.9361952999607,260.6208577998914,259.9361952999607,260.6208577998914,260.60415969998576,261.10543369990773,260.60415969998576,261.10543369990773,260.60415969998576,261.10543369990773,260.60415969998576,261.10543369990773,260.60415969998576,261.10543369990773,260.60415969998576,261.10543369990773,260.60415969998576,261.10543369990773,260.60415969998576,261.10543369990773,259.9361952999607,None,261.10543369990773,262.6078106998466,0.6800000000000004,262.6235425998457,None,263.3756822999567,None,,,,,,,[1.496875],3.3300000000000027,0.78125,11038,001,2024_Mar_11_1559,MFTM_A_new1021,2021.2.3,59.65928579420775,
,,,,,,,,stim/Instruction_adaptive.png,conditions/adaptive.xlsx,test,-0.6,-0.6,-0.6,0.6,0.6,left,L,,,,,0,1,1,1,0,32,32,21,,,,,,,,,,,,,,,,,,,,,,,,,,,,,,,,,,,,,,,,,,,,263.8761078999378,None,left,1,1.4868153999559581,264.37681479984894,265.52828509989195,264.37681479984894,265.0272319999058,264.37681479984894,265.0272319999058,264.37681479984894,265.0272319999058,264.37681479984894,265.0272319999058,264.37681479984894,265.0272319999058,265.0104532998521,265.51253079995513,265.0104532998521,265.51253079995513,265.0104532998521,265.51253079995513,265.0104532998521,265.51253079995513,265.0104532998521,265.51253079995513,265.0104532998521,265.51253079995513,265.0104532998521,265.51253079995513,265.0104532998521,265.51253079995513,264.37681479984894,None,265.51253079995513,267.0302025999408,0.6500000000000004,267.0473511000164,None,267.7991040998604,None,,,,,,,[1.50757576],3.3800000000000026,0.7878787878787878,11038,001,2024_Mar_11_1559,MFTM_A_new1021,2021.2.3,59.65928579420775,
,,,,,,,,stim/Instruction_adaptive.png,conditions/adaptive.xlsx,test,0.6,0.6,0.6,-0.6,-0.6,right,R,,,,,0,1,1,1,0,33,33,70,,,,,,,,,,,,,,,,,,,,,,,,,,,,,,,,,,,,,,,,,,,,268.2987843998708,None,left,0,1.5045751000288874,268.7996681998484,269.9343892999459,268.7996681998484,269.4340112998616,268.7996681998484,269.4340112998616,268.7996681998484,269.4340112998616,268.7996681998484,269.4340112998616,268.7996681998484,269.4340112998616,269.4172165999189,269.91793549992144,269.4172165999189,269.91793549992144,269.4172165999189,269.91793549992144,269.4172165999189,269.91793549992144,269.4172165999189,269.91793549992144,269.4172165999189,269.91793549992144,269.4172165999189,269.91793549992144,269.4172165999189,269.91793549992144,268.7996681998484,None,269.91793549992144,271.43783489987254,0.6300000000000003,271.4534760999959,None,272.2045717998408,None,,,,,,,[1.51823529],3.230000000000002,0.7647058823529411,11038,001,2024_Mar_11_1559,MFTM_A_new1021,2021.2.3,59.65928579420775,
,,,,,,,,stim/Instruction_adaptive.png,conditions/adaptive.xlsx,test,-0.6,-0.6,-0.6,0.6,0.6,left,L,,,,,0,1,1,1,0,34,34,3,,,,,,,,,,,,,,,,,,,,,,,,,,,,,,,,,,,,,,,,,,,,272.7063471998554,None,right,0,1.4969956998247653,273.2063104000408,274.40800679987296,273.2063104000408,273.90820989990607,273.2063104000408,273.90820989990607,273.2063104000408,273.90820989990607,273.2063104000408,273.90820989990607,273.2063104000408,273.90820989990607,273.8914349998813,274.39232339989394,273.8914349998813,274.39232339989394,273.8914349998813,274.39232339989394,273.8914349998813,274.39232339989394,273.8914349998813,274.39232339989394,273.8914349998813,274.39232339989394,273.8914349998813,274.39232339989394,273.8914349998813,274.39232339989394,273.2063104000408,None,274.39232339989394,275.92689340002835,0.7000000000000004,275.94388729985803,None,276.69710300001316,None,,,,,,,[1.52628571],3.0800000000000023,0.7428571428571429,11038,001,2024_Mar_11_1559,MFTM_A_new1021,2021.2.3,59.65928579420775,
,,,,,,,,stim/Instruction_adaptive.png,conditions/adaptive.xlsx,test,0.6,0.6,0.6,-0.6,-0.6,right,R,,,,,0,1,1,1,0,35,35,32,,,,,,,,,,,,,,,,,,,,,,,,,,,,,,,,,,,,,,,,,,,,277.2137869000435,None,left,0,1.7273800999391824,277.6964304000139,278.98264549998567,277.6964304000139,278.4808865999803,277.6964304000139,278.4808865999803,277.6964304000139,278.4808865999803,277.6964304000139,278.4808865999803,277.6964304000139,278.4808865999803,278.46443549986,278.9648674998898,278.46443549986,278.9648674998898,278.46443549986,278.9648674998898,278.46443549986,278.9648674998898,278.46443549986,278.9648674998898,278.46443549986,278.9648674998898,278.46443549986,278.9648674998898,278.46443549986,278.9648674998898,277.6964304000139,None,278.9648674998898,280.5007064000238,0.7800000000000005,280.51722479984164,None,281.2683693000581,None,,,,,,,[1.53166667],2.920000000000002,0.7222222222222222,11038,001,2024_Mar_11_1559,MFTM_A_new1021,2021.2.3,59.65928579420775,
,,,,,,,,stim/Instruction_adaptive.png,conditions/adaptive.xlsx,test,0.6,0.6,0.6,-0.6,-0.6,right,R,,,,,0,1,1,1,0,36,36,8,,,,,,,,,,,,,,,,,,,,,,,,,,,,,,,,,,,,,,,,,,,,281.76937430002727,None,left,0,1.8097200999036431,282.2698522999417,283.6393009000458,282.2698522999417,283.13791359984316,282.2698522999417,283.13791359984316,282.2698522999417,283.13791359984316,282.2698522999417,283.13791359984316,282.2698522999417,283.13791359984316,283.1226136998739,283.6224986000452,283.1226136998739,283.6224986000452,283.1226136998739,283.6224986000452,283.1226136998739,283.6224986000452,283.1226136998739,283.6224986000452,283.1226136998739,283.6224986000452,283.1226136998739,283.6224986000452,283.1226136998739,283.6224986000452,282.2698522999417,None,283.6224986000452,285.1581836999394,0.8700000000000006,285.17525770002976,None,285.9253750999924,None,,,,,,,[1.53432432],2.740000000000002,0.7027027027027027,11038,001,2024_Mar_11_1559,MFTM_A_new1021,2021.2.3,59.65928579420775,
,,,,,,,,stim/Instruction_adaptive.png,conditions/adaptive.xlsx,test,-0.6,-0.6,-0.6,0.6,0.6,left,L,,,,,0,1,1,1,0,37,37,93,,,,,,,,,,,,,,,,,,,,,,,,,,,,,,,,,,,,,,,,,,,,286.42696349998005,None,left,1,2.216857000021264,286.92696679988876,288.41258060000837,286.92696679988876,287.9117161000613,286.92696679988876,287.9117161000613,286.92696679988876,287.9117161000613,286.92696679988876,287.9117161000613,286.92696679988876,287.9117161000613,287.89565319987014,288.39581670006737,287.89565319987014,288.39581670006737,287.89565319987014,288.39581670006737,287.89565319987014,288.39581670006737,287.89565319987014,288.39581670006737,287.89565319987014,288.39581670006737,287.89565319987014,288.39581670006737,287.89565319987014,288.39581670006737,286.92696679988876,None,288.39581670006737,289.9154481999576,0.9800000000000006,289.93135379999876,None,290.6834537999239,None,,,,,,,[[1.52]],2.8100000000000023,0.7105263157894737,11038,001,2024_Mar_11_1559,MFTM_A_new1021,2021.2.3,59.65928579420775,
,,,,,,,,stim/Instruction_adaptive.png,conditions/adaptive.xlsx,test,0.6,0.6,0.6,-0.6,-0.6,right,R,,,,,0,1,1,1,0,38,38,52,,,,,,,,,,,,,,,,,,,,,,,,,,,,,,,,,,,,,,,,,,,,291.1840057000518,None,right,1,1.8598142999690026,291.684091999894,293.13690149993636,291.684091999894,292.636222000001,291.684091999894,292.636222000001,291.684091999894,292.636222000001,291.684091999894,292.636222000001,291.684091999894,292.636222000001,292.6036352000665,293.10339409997687,292.6036352000665,293.10339409997687,292.6036352000665,293.10339409997687,292.6036352000665,293.10339409997687,292.6036352000665,293.10339409997687,292.6036352000665,293.10339409997687,292.6036352000665,293.10339409997687,292.6036352000665,293.10339409997687,291.684091999894,None,293.10339409997687,294.63904449995607,0.9400000000000006,294.67195850005373,None,295.42395299999043,None,,,,,,,[1.53461538],2.860000000000002,0.717948717948718,11038,001,2024_Mar_11_1559,MFTM_A_new1021,2021.2.3,59.65928579420775,
,,,,,,,,stim/Instruction_adaptive.png,conditions/adaptive.xlsx,test,0.6,0.6,0.6,-0.6,-0.6,right,R,,,,,0,1,1,1,0,39,39,4,,,,,,,,,,,,,,,,,,,,,,,,,,,,,,,,,,,,,,,,,,,,295.9244244999718,None,right,1,1.8149874000810087,296.42538599995896,297.8447155000176,296.42538599995896,297.3433147999458,296.42538599995896,297.3433147999458,296.42538599995896,297.3433147999458,296.42538599995896,297.3433147999458,296.42538599995896,297.3433147999458,297.3269933999982,297.8273821999319,297.3269933999982,297.8273821999319,297.3269933999982,297.8273821999319,297.3269933999982,297.8273821999319,297.3269933999982,297.8273821999319,297.3269933999982,297.8273821999319,297.3269933999982,297.8273821999319,297.3269933999982,297.8273821999319,296.42538599995896,None,297.8273821999319,299.36226510000415,0.9100000000000006,299.3788924999535,None,300.1311446998734,None,,,,,,,[1.536],2.920000000000002,0.725,11038,001,2024_Mar_11_1559,MFTM_A_new1021,2021.2.3,59.65928579420775,
,,,,,,,,stim/Instruction_adaptive.png,conditions/adaptive.xlsx,test,-0.6,-0.6,-0.6,0.6,0.6,left,L,,,,,0,1,1,1,0,40,40,65,,,,,,,,,,,,,,,,,,,,,,,,,,,,,,,,,,,,,,,,,,,,300.6312299000565,None,left,1,1.771641100058332,301.1325668999925,302.51711330004036,301.1325668999925,302.01731069991365,301.1325668999925,302.01731069991365,301.1325668999925,302.01731069991365,301.1325668999925,302.01731069991365,301.1325668999925,302.01731069991365,301.98297280003317,302.4837177998852,301.98297280003317,302.4837177998852,301.98297280003317,302.4837177998852,301.98297280003317,302.4837177998852,301.98297280003317,302.4837177998852,301.98297280003317,302.4837177998852,301.98297280003317,302.4837177998852,301.98297280003317,302.4837177998852,301.1325668999925,None,302.4837177998852,304.03611409990117,0.8700000000000006,304.0525857000612,None,304.80460430006497,None,,,,,,,[1.53829268],2.9700000000000024,0.7317073170731707,11038,001,2024_Mar_11_1559,MFTM_A_new1021,2021.2.3,59.65928579420775,
,,,,,,,,stim/Instruction_adaptive.png,conditions/adaptive.xlsx,test,-0.6,-0.6,-0.6,0.6,0.6,left,L,,,,,0,1,1,1,0,41,41,75,,,,,,,,,,,,,,,,,,,,,,,,,,,,,,,,,,,,,,,,,,,,305.3055008999072,None,left,1,1.850738000124693,305.80537399998866,307.15851529990323,305.80537399998866,306.65738980006427,305.80537399998866,306.65738980006427,305.80537399998866,306.65738980006427,305.80537399998866,306.65738980006427,305.80537399998866,306.65738980006427,306.6233932999894,307.1245559998788,306.6233932999894,307.1245559998788,306.6233932999894,307.1245559998788,306.6233932999894,307.1245559998788,306.6233932999894,307.1245559998788,306.6233932999894,307.1245559998788,306.6233932999894,307.1245559998788,306.6233932999894,307.1245559998788,305.80537399998866,None,307.1245559998788,308.67735029989854,0.8400000000000005,308.69318179995753,None,309.44544050004333,None,,,,,,,[1.54119048],3.0200000000000022,0.7380952380952381,11038,001,2024_Mar_11_1559,MFTM_A_new1021,2021.2.3,59.65928579420775,
,,,,,,,,stim/Instruction_adaptive.png,conditions/adaptive.xlsx,test,0.6,0.6,0.6,-0.6,-0.6,right,R,,,,,0,1,1,1,0,42,42,98,,,,,,,,,,,,,,,,,,,,,,,,,,,,,,,,,,,,,,,,,,,,309.94586730003357,None,left,0,2.0892924000509083,310.44676019996405,311.76426109997556,310.44676019996405,311.26373200002126,310.44676019996405,311.26373200002126,310.44676019996405,311.26373200002126,310.44676019996405,311.26373200002126,310.44676019996405,311.26373200002126,311.24691709992476,311.7477551999036,311.24691709992476,311.7477551999036,311.24691709992476,311.7477551999036,311.24691709992476,311.7477551999036,311.24691709992476,311.7477551999036,311.24691709992476,311.7477551999036,311.24691709992476,311.7477551999036,311.24691709992476,311.7477551999036,310.44676019996405,None,311.7477551999036,None,0.8100000000000005,313.2999803998973,None,314.05131409992464,None,,,,,,,[1.54465116],2.880000000000002,0.7209302325581395,11038,001,2024_Mar_11_1559,MFTM_A_new1021,2021.2.3,59.65928579420775,
,,,,,,,,stim/Instruction_adaptive.png,conditions/adaptive.xlsx,test,-0.6,-0.6,-0.6,0.6,0.6,left,L,,,,,0,1,1,1,0,43,43,77,,,,,,,,,,,,,,,,,,,,,,,,,,,,,,,,,,,,,,,,,,,,314.5528212999925,None,right,0,2.7557657998986542,315.0528144000564,316.45535479998216,315.0528144000564,315.95413829991594,315.0528144000564,315.95413829991594,315.0528144000564,315.95413829991594,315.0528144000564,315.95413829991594,315.0528144000564,315.95413829991594,315.92069659987465,316.4227563999593,315.92069659987465,316.4227563999593,315.92069659987465,316.4227563999593,315.92069659987465,316.4227563999593,315.92069659987465,316.4227563999593,315.92069659987465,316.4227563999593,315.92069659987465,316.4227563999593,315.92069659987465,316.4227563999593,315.0528144000564,None,316.4227563999593,317.97376209986396,0.8900000000000006,317.99049009988084,None,318.7414438999258,None,,,,,,,[1.54613636],2.730000000000002,0.7045454545454546,11038,001,2024_Mar_11_1559,MFTM_A_new1021,2021.2.3,59.65928579420775,
,,,,,,,,stim/Instruction_adaptive.png,conditions/adaptive.xlsx,test,0.6,0.6,0.6,-0.6,-0.6,right,R,,,,,0,1,1,1,0,44,44,16,,,,,,,,,,,,,,,,,,,,,,,,,,,,,,,,,,,,,,,,,,,,319.2426751998719,None,right,1,1.9845845000818372,319.7436613999307,321.2454021999147,319.7436613999307,320.7447001999244,319.7436613999307,320.7447001999244,319.7436613999307,320.7447001999244,319.7436613999307,320.7447001999244,319.7436613999307,320.7447001999244,320.711303899996,321.2118591000326,320.711303899996,321.2118591000326,320.711303899996,321.2118591000326,320.711303899996,321.2118591000326,320.711303899996,321.2118591000326,320.711303899996,321.2118591000326,320.711303899996,321.2118591000326,320.711303899996,321.2118591000326,319.7436613999307,None,321.2118591000326,322.7309925998561,0.9900000000000007,322.7479238000233,None,323.4986930999439,None,,,,,,,[[1.51]],2.780000000000002,0.7111111111111111,11038,001,2024_Mar_11_1559,MFTM_A_new1021,2021.2.3,59.65928579420775,
,,,,,,,,stim/Instruction_adaptive.png,conditions/adaptive.xlsx,test,-0.6,-0.6,-0.6,0.6,0.6,left,L,,,,,0,1,1,1,0,45,45,53,,,,,,,,,,,,,,,,,,,,,,,,,,,,,,,,,,,,,,,,,,,,324.0000558998436,None,right,0,1.9801228998694569,324.50059469998814,325.96903649996966,324.50059469998814,325.4689795000013,324.50059469998814,325.4689795000013,324.50059469998814,325.4689795000013,324.50059469998814,325.4689795000013,324.50059469998814,325.4689795000013,325.45182419987395,325.9535282999277,325.45182419987395,325.9535282999277,325.45182419987395,325.9535282999277,325.45182419987395,325.9535282999277,325.45182419987395,325.9535282999277,325.45182419987395,325.9535282999277,325.45182419987395,325.9535282999277,325.45182419987395,325.9535282999277,324.50059469998814,None,325.9535282999277,None,0.9600000000000006,327.50478089996614,None,328.2567102999892,None,,,,,,,[[1.54]],2.6300000000000017,0.6956521739130435,11038,001,2024_Mar_11_1559,MFTM_A_new1021,2021.2.3,59.65928579420775,
,,,,,,,,stim/Instruction_adaptive.png,conditions/adaptive.xlsx,test,-0.6,-0.6,-0.6,0.6,0.6,left,L,,,,,0,1,1,1,0,46,46,31,,,,,,,,,,,,,,,,,,,,,,,,,,,,,,,,,,,,,,,,,,,,328.75765499984846,None,left,1,2.1588270999491215,329.2578894000035,330.8284599999897,329.2578894000035,330.32628319994546,329.2578894000035,330.32628319994546,329.2578894000035,330.32628319994546,329.2578894000035,330.32628319994546,329.2578894000035,330.32628319994546,330.30921790003777,330.81010150001384,330.30921790003777,330.81010150001384,330.30921790003777,330.81010150001384,330.30921790003777,330.81010150001384,330.30921790003777,330.81010150001384,330.30921790003777,330.81010150001384,330.30921790003777,330.81010150001384,330.30921790003777,330.81010150001384,329.2578894000035,None,330.79361080005765,332.24630540004,1.0600000000000007,332.2619062999729,None,333.015171200037,None,,,,,,,[[1.44]],2.690000000000002,0.7021276595744681,11038,001,2024_Mar_11_1559,MFTM_A_new1021,2021.2.3,59.65928579420775,
,,,,,,,,stim/Instruction_adaptive.png,conditions/adaptive.xlsx,test,0.6,0.6,0.6,-0.6,-0.6,right,R,,,,,0,1,1,1,0,47,47,80,,,,,,,,,,,,,,,,,,,,,,,,,,,,,,,,,,,,,,,,,,,,333.5138203999959,None,right,1,1.8826922001317143,334.0147380998824,335.5503099998459,334.0147380998824,335.04962820000947,334.0147380998824,335.04962820000947,334.0147380998824,335.04962820000947,334.0147380998824,335.04962820000947,334.0147380998824,335.04962820000947,335.01619430002756,335.5169420999009,335.01619430002756,335.5169420999009,335.01619430002756,335.5169420999009,335.01619430002756,335.5169420999009,335.01619430002756,335.5169420999009,335.01619430002756,335.5169420999009,335.01619430002756,335.5169420999009,335.01619430002756,335.5169420999009,334.0147380998824,None,335.5169420999009,337.00252630002797,1.0200000000000007,337.01976939989254,None,337.77027309988625,None,,,,,,,[[1.48]],2.740000000000002,0.7083333333333334,11038,001,2024_Mar_11_1559,MFTM_A_new1021,2021.2.3,59.65928579420775,
,,,,,,,,stim/Instruction_adaptive.png,conditions/adaptive.xlsx,test,-0.6,-0.6,-0.6,0.6,0.6,left,L,,,,,0,1,1,1,0,48,48,27,,,,,,,,,,,,,,,,,,,,,,,,,,,,,,,,,,,,,,,,,,,,338.2711648000404,None,right,0,1.8453139001503587,338.7717571000103,340.25819660001434,338.7717571000103,339.75662999995984,338.7717571000103,339.75662999995984,338.7717571000103,339.75662999995984,338.7717571000103,339.75662999995984,338.7717571000103,339.75662999995984,339.73996509984136,340.24176390003413,339.73996509984136,340.24176390003413,339.73996509984136,340.24176390003413,339.73996509984136,340.24176390003413,339.73996509984136,340.24176390003413,339.73996509984136,340.24176390003413,339.73996509984136,340.24176390003413,339.73996509984136,340.24176390003413,338.7717571000103,None,340.24176390003413,None,0.9800000000000006,341.77626309986226,None,342.52801680006087,None,,,,,,,[[1.52]],2.5900000000000016,0.6938775510204082,11038,001,2024_Mar_11_1559,MFTM_A_new1021,2021.2.3,59.65928579420775,
,,,,,,,,stim/Instruction_adaptive.png,conditions/adaptive.xlsx,test,-0.6,-0.6,-0.6,0.6,0.6,left,L,,,,,0,1,1,1,0,49,49,89,,,,,,,,,,,,,,,,,,,,,,,,,,,,,,,,,,,,,,,,,,,,343.0288597999606,None,left,1,1.487805400043726,343.52905360003933,345.1314093999099,343.52905360003933,344.6304725999944,343.52905360003933,344.6304725999944,343.52905360003933,344.6304725999944,343.52905360003933,344.6304725999944,343.52905360003933,344.6304725999944,344.59736529993825,345.0980489999056,344.59736529993825,345.0980489999056,344.59736529993825,345.0980489999056,344.59736529993825,345.0980489999056,344.59736529993825,345.0980489999056,344.59736529993825,345.0980489999056,344.59736529993825,345.0980489999056,344.59736529993825,345.0980489999056,343.52905360003933,None,345.0980489999056,346.51705869985744,1.0900000000000007,346.5334737999365,None,347.28632009983994,None,,,,,,,[[1.41]],2.640000000000002,0.7,11038,001,2024_Mar_11_1559,MFTM_A_new1021,2021.2.3,59.65928579420775,
,,,,,,,,stim/Instruction_adaptive.png,conditions/adaptive.xlsx,test,0.6,0.6,0.6,-0.6,-0.6,right,R,,,,,0,1,1,1,0,50,50,94,,,,,,,,,,,,,,,,,,,,,,,,,,,,,,,,,,,,,,,,,,,,347.78563549998216,None,right,1,1.547333399998024,348.2859149000142,349.85515920002945,348.2859149000142,349.35507089993916,348.2859149000142,349.35507089993916,348.2859149000142,349.35507089993916,348.2859149000142,349.35507089993916,348.2859149000142,349.35507089993916,349.32219980005175,349.82262529991567,349.32219980005175,349.82262529991567,349.32219980005175,349.82262529991567,349.32219980005175,349.82262529991567,349.32219980005175,349.82262529991567,349.32219980005175,349.82262529991567,349.32219980005175,349.82262529991567,349.32219980005175,349.82262529991567,348.2859149000142,None,349.82262529991567,351.274557699915,1.0600000000000007,351.29076289990917,None,352.0418859999627,None,,,,,,,[[1.44]],2.690000000000002,0.7058823529411765,11038,001,2024_Mar_11_1559,MFTM_A_new1021,2021.2.3,59.65928579420775,
,,,,,,,,stim/Instruction_adaptive.png,conditions/adaptive.xlsx,test,0.6,0.6,0.6,-0.6,-0.6,right,R,,,,,0,1,1,1,0,51,51,68,,,,,,,,,,,,,,,,,,,,,,,,,,,,,,,,,,,,,,,,,,,,352.5437153999228,None,right,1,1.7184303998947144,353.04319839994423,354.57958390004933,353.04319839994423,354.0790860999841,353.04319839994423,354.0790860999841,353.04319839994423,354.0790860999841,353.04319839994423,354.0790860999841,353.04319839994423,354.0790860999841,354.0448410999961,354.54550129990093,354.0448410999961,354.54550129990093,354.0448410999961,354.54550129990093,354.0448410999961,354.54550129990093,354.0448410999961,354.54550129990093,354.0448410999961,354.54550129990093,354.0448410999961,354.54550129990093,354.0448410999961,354.54550129990093,353.04319839994423,None,354.54550129990093,356.03133839997463,1.0200000000000007,356.0480851000175,None,356.79904349986464,None,,,,,,,[[1.48]],2.740000000000002,0.7115384615384616,11038,001,2024_Mar_11_1559,MFTM_A_new1021,2021.2.3,59.65928579420775,
,,,,,,,,stim/Instruction_adaptive.png,conditions/adaptive.xlsx,test,0.6,0.6,0.6,-0.6,-0.6,right,R,,,,,0,1,1,1,0,52,52,40,,,,,,,,,,,,,,,,,,,,,,,,,,,,,,,,,,,,,,,,,,,,357.30069909989834,None,right,1,1.3703201001044363,357.80050119990483,359.28610539995134,357.80050119990483,358.78530379990116,357.80050119990483,358.78530379990116,357.80050119990483,358.78530379990116,357.80050119990483,358.78530379990116,357.80050119990483,358.78530379990116,358.7687321000267,359.27005679998547,358.7687321000267,359.27005679998547,358.7687321000267,359.27005679998547,358.7687321000267,359.27005679998547,358.7687321000267,359.27005679998547,358.7687321000267,359.27005679998547,358.7687321000267,359.27005679998547,358.7687321000267,359.27005679998547,357.80050119990483,None,359.2535442998633,360.7894359000493,0.9800000000000006,360.8050609000493,None,361.5567792998627,None,,,,,,,[[1.52]],2.780000000000002,0.7169811320754716,11038,001,2024_Mar_11_1559,MFTM_A_new1021,2021.2.3,59.65928579420775,
,,,,,,,,stim/Instruction_adaptive.png,conditions/adaptive.xlsx,test,-0.6,-0.6,-0.6,0.6,0.6,left,L,,,,,0,1,1,1,0,53,53,41,,,,,,,,,,,,,,,,,,,,,,,,,,,,,,,,,,,,,,,,,,,,362.0572319000494,None,left,1,1.3316299000289291,362.5580821998883,364.026467199903,362.5580821998883,363.52583679999225,362.5580821998883,363.52583679999225,362.5580821998883,363.52583679999225,362.5580821998883,363.52583679999225,362.5580821998883,363.52583679999225,363.50913699995726,364.0099281000439,363.50913699995726,364.0099281000439,363.50913699995726,364.0099281000439,363.50913699995726,364.0099281000439,363.50913699995726,364.0099281000439,363.50913699995726,364.0099281000439,363.50913699995726,364.0099281000439,363.50913699995726,364.0099281000439,362.5580821998883,None,364.0099281000439,365.54549399996176,0.9600000000000006,365.5621024998836,None,366.31336679984815,None,,,,,,,[1.53537037],2.820000000000002,0.7222222222222222,11038,001,2024_Mar_11_1559,MFTM_A_new1021,2021.2.3,59.65928579420775,
,,,,,,,,stim/Instruction_adaptive.png,conditions/adaptive.xlsx,test,-0.6,-0.6,-0.6,0.6,0.6,left,L,,,,,0,1,1,1,0,54,54,9,,,,,,,,,,,,,,,,,,,,,,,,,,,,,,,,,,,,,,,,,,,,366.8149836000521,None,left,1,0.9906387000810355,367.3154647999909,368.75102109997533,367.3154647999909,368.24960740003735,367.3154647999909,368.24960740003735,367.3154647999909,368.24960740003735,367.3154647999909,368.24960740003735,367.3154647999909,368.24960740003735,368.23302889987826,368.73451659991406,368.23302889987826,368.73451659991406,368.23302889987826,368.73451659991406,368.23302889987826,368.73451659991406,368.23302889987826,368.73451659991406,368.23302889987826,368.73451659991406,368.23302889987826,368.73451659991406,368.23302889987826,368.73451659991406,367.3154647999909,None,368.71693279989995,370.25358729995787,0.9300000000000006,370.2866908998694,None,371.03819329990074,None,,,,,,,[1.536],2.860000000000002,0.7272727272727273,11038,001,2024_Mar_11_1559,MFTM_A_new1021,2021.2.3,59.65928579420775,
,,,,,,,,stim/Instruction_adaptive.png,conditions/adaptive.xlsx,test,0.6,0.6,0.6,-0.6,-0.6,right,R,,,,,0,1,1,1,0,55,55,36,,,,,,,,,,,,,,,,,,,,,,,,,,,,,,,,,,,,,,,,,,,,371.5386137999594,None,right,1,1.2113912999629974,372.0385558998678,373.4582433998585,372.0385558998678,372.95733570004813,372.0385558998678,372.95733570004813,372.0385558998678,372.95733570004813,372.0385558998678,372.95733570004813,372.0385558998678,372.95733570004813,372.94017409998924,373.4407386998646,372.94017409998924,373.4407386998646,372.94017409998924,373.4407386998646,372.94017409998924,373.4407386998646,372.94017409998924,373.4407386998646,372.94017409998924,373.4407386998646,372.94017409998924,373.4407386998646,372.94017409998924,373.4407386998646,372.0385558998678,None,373.4407386998646,None,0.9100000000000006,374.99323539994657,None,375.7450867998414,None,,,,,,,[1.53696429],2.900000000000002,0.7321428571428571,11038,001,2024_Mar_11_1559,MFTM_A_new1021,2021.2.3,59.65928579420775,
,,,,,,,,stim/Instruction_adaptive.png,conditions/adaptive.xlsx,test,0.6,0.6,0.6,-0.6,-0.6,right,R,,,,,0,1,1,1,0,56,56,12,,,,,,,,,,,,,,,,,,,,,,,,,,,,,,,,,,,,,,,,,,,,376.24507090006955,None,right,1,1.1516988000366837,376.74636289989576,378.1316145998426,376.74636289989576,377.63043459993787,376.74636289989576,377.63043459993787,376.74636289989576,377.63043459993787,376.74636289989576,377.63043459993787,376.74636289989576,377.63043459993787,377.6138792000711,378.11506300000474,377.6138792000711,378.11506300000474,377.6138792000711,378.11506300000474,377.6138792000711,378.11506300000474,377.6138792000711,378.11506300000474,377.6138792000711,378.11506300000474,377.6138792000711,378.11506300000474,377.6138792000711,378.11506300000474,376.74636289989576,None,378.11506300000474,None,0.8800000000000006,379.66690879990347,None,380.41830569994636,None,,,,,,,[1.53842105],2.940000000000002,0.7368421052631579,11038,001,2024_Mar_11_1559,MFTM_A_new1021,2021.2.3,59.65928579420775,
,,,,,,,,stim/Instruction_adaptive.png,conditions/adaptive.xlsx,test,0.6,0.6,0.6,-0.6,-0.6,right,R,,,,,0,1,1,1,0,57,57,60,,,,,,,,,,,,,,,,,,,,,,,,,,,,,,,,,,,,,,,,,,,,380.9185414998792,None,right,1,1.6946086001116782,381.41946449992247,382.78887579985894,381.41946449992247,382.28778659994714,381.41946449992247,382.28778659994714,381.41946449992247,382.28778659994714,381.41946449992247,382.28778659994714,381.41946449992247,382.28778659994714,382.2706662998535,382.7713742000051,382.2706662998535,382.7713742000051,382.2706662998535,382.7713742000051,382.2706662998535,382.7713742000051,382.2706662998535,382.7713742000051,382.2706662998535,382.7713742000051,382.2706662998535,382.7713742000051,382.2706662998535,382.7713742000051,381.41946449992247,None,382.7713742000051,None,0.8600000000000005,384.32453189999796,None,385.0756776998751,None,,,,,,,[1.54017241],2.9700000000000024,0.7413793103448276,11038,001,2024_Mar_11_1559,MFTM_A_new1021,2021.2.3,59.65928579420775,
,,,,,,,,stim/Instruction_adaptive.png,conditions/adaptive.xlsx,test,-0.6,-0.6,-0.6,0.6,0.6,left,L,,,,,0,1,1,1,0,58,58,15,,,,,,,,,,,,,,,,,,,,,,,,,,,,,,,,,,,,,,,,,,,,385.57712260005064,None,right,0,1.0374598000198603,386.07654739986174,387.42847579997033,386.07654739986174,386.92790909996256,386.07654739986174,386.92790909996256,386.07654739986174,386.92790909996256,386.07654739986174,386.92790909996256,386.07654739986174,386.92790909996256,386.8943473000545,387.3957277999725,386.8943473000545,387.3957277999725,386.8943473000545,387.3957277999725,386.8943473000545,387.3957277999725,386.8943473000545,387.3957277999725,386.8943473000545,387.3957277999725,386.8943473000545,387.3957277999725,386.8943473000545,387.3957277999725,386.07654739986174,None,387.3957277999725,388.9482825000305,0.8400000000000005,388.96380739985034,None,389.7163183998782,None,,,,,,,[1.54220339],2.870000000000002,0.7288135593220338,11038,001,2024_Mar_11_1559,MFTM_A_new1021,2021.2.3,59.65928579420775,
,,,,,,,,stim/Instruction_adaptive.png,conditions/adaptive.xlsx,test,-0.6,-0.6,-0.6,0.6,0.6,left,L,,,,,0,1,1,1,0,59,59,11,,,,,,,,,,,,,,,,,,,,,,,,,,,,,,,,,,,,,,,,,,,,390.2169588999823,None,left,1,1.2057350999675691,390.7168781000655,392.1192274999339,390.7168781000655,391.61819199984893,390.7168781000655,391.61819199984893,390.7168781000655,391.61819199984893,390.7168781000655,391.61819199984893,390.7168781000655,391.61819199984893,391.60166629985906,392.1030311998911,391.60166629985906,392.1030311998911,391.60166629985906,392.1030311998911,391.60166629985906,392.1030311998911,391.60166629985906,392.1030311998911,391.60166629985906,392.1030311998911,391.60166629985906,392.1030311998911,391.60166629985906,392.1030311998911,390.7168781000655,None,392.1030311998911,393.65555469994433,0.9000000000000006,393.6712106000632,None,394.42314790003,None,,,,,,,[1.54316667],2.900000000000002,0.7333333333333333,11038,001,2024_Mar_11_1559,MFTM_A_new1021,2021.2.3,59.65928579420775,
,,,,,,,,stim/Instruction_adaptive.png,conditions/adaptive.xlsx,test,0.6,0.6,0.6,-0.6,-0.6,right,R,,,,,0,1,1,1,0,60,60,46,,,,,,,,,,,,,,,,,,,,,,,,,,,,,,,,,,,,,,,,,,,,394.9233196999412,None,right,1,1.8750599001068622,395.423774600029,396.8096986999735,395.423774600029,396.30865500005893,395.423774600029,396.30865500005893,395.423774600029,396.30865500005893,395.423774600029,396.30865500005893,395.423774600029,396.30865500005893,396.2920458998997,396.79286869987845,396.2920458998997,396.79286869987845,396.2920458998997,396.79286869987845,396.2920458998997,396.79286869987845,396.2920458998997,396.79286869987845,396.2920458998997,396.79286869987845,396.2920458998997,396.79286869987845,396.2920458998997,396.79286869987845,395.423774600029,None,396.79286869987845,398.34588379994966,0.8800000000000006,398.3615238000639,None,399.1141015999019,None,,,,,,,[1.54442623],2.940000000000002,0.7377049180327869,11038,001,2024_Mar_11_1559,MFTM_A_new1021,2021.2.3,59.65928579420775,
,,,,,,,,stim/Instruction_adaptive.png,conditions/adaptive.xlsx,test,-0.6,-0.6,-0.6,0.6,0.6,left,L,,,,,0,1,1,1,0,61,61,85,,,,,,,,,,,,,,,,,,,,,,,,,,,,,,,,,,,,,,,,,,,,399.6142177998554,None,right,0,1.3925416998099536,400.1143606000114,401.4837141998578,400.1143606000114,400.9824647998903,400.1143606000114,400.9824647998903,400.1143606000114,400.9824647998903,400.1143606000114,400.9824647998903,400.1143606000114,400.9824647998903,400.96582909999415,401.4665822999086,400.96582909999415,401.4665822999086,400.96582909999415,401.4665822999086,400.96582909999415,401.4665822999086,400.96582909999415,401.4665822999086,400.96582909999415,401.4665822999086,400.96582909999415,401.4665822999086,400.96582909999415,401.4665822999086,400.1143606000114,None,401.4665822999086,403.0187113999855,0.8600000000000005,403.0354597000405,None,403.7873396000359,None,,,,,,,[1.54596774],2.840000000000002,0.7258064516129032,11038,001,2024_Mar_11_1559,MFTM_A_new1021,2021.2.3,59.65928579420775,
,,,,,,,,stim/Instruction_adaptive.png,conditions/adaptive.xlsx,test,0.6,0.6,0.6,-0.6,-0.6,right,R,,,,,0,1,1,1,0,62,62,30,,,,,,,,,,,,,,,,,,,,,,,,,,,,,,,,,,,,,,,,,,,,404.28820459987037,None,left,0,1.375095299910754,404.7879004999995,406.20704449992627,404.7879004999995,405.72284090006724,404.7879004999995,405.72284090006724,404.7879004999995,405.72284090006724,404.7879004999995,405.72284090006724,404.7879004999995,405.72284090006724,405.6901924998965,406.1910116998479,405.6901924998965,406.1910116998479,405.6901924998965,406.1910116998479,405.6901924998965,406.1910116998479,405.6901924998965,406.1910116998479,405.6901924998965,406.1910116998479,405.6901924998965,406.1910116998479,405.6901924998965,406.1910116998479,404.7879004999995,None,406.1910116998479,407.74294229992665,0.9200000000000006,407.75934219988994,None,408.5104437000118,None,,,,,,,[1.54650794],2.740000000000002,0.7142857142857143,11038,001,2024_Mar_11_1559,MFTM_A_new1021,2021.2.3,59.65928579420775,
,,,,,,,,stim/Instruction_adaptive.png,conditions/adaptive.xlsx,test,-0.6,-0.6,-0.6,0.6,0.6,left,L,,,,,0,1,1,1,0,63,63,95,,,,,,,,,,,,,,,,,,,,,,,,,,,,,,,,,,,,,,,,,,,,409.01191059988923,None,left,1,1.219499999890104,409.5122839000542,410.9977835000027,409.5122839000542,410.4969216999598,409.5122839000542,410.4969216999598,409.5122839000542,410.4969216999598,409.5122839000542,410.4969216999598,409.5122839000542,410.4969216999598,410.479977699928,410.981615900062,410.479977699928,410.981615900062,410.479977699928,410.981615900062,410.479977699928,410.981615900062,410.479977699928,410.981615900062,410.479977699928,410.981615900062,410.479977699928,410.981615900062,410.479977699928,410.981615900062,409.5122839000542,None,410.981615900062,None,0.9800000000000006,412.5165327999275,None,413.26726979995146,None,,,,,,,[[1.52]],2.7700000000000022,0.71875,11038,001,2024_Mar_11_1559,MFTM_A_new1021,2021.2.3,59.65928579420775,
,,,,,,,,stim/Instruction_adaptive.png,conditions/adaptive.xlsx,test,0.6,0.6,0.6,-0.6,-0.6,right,R,,,,,0,1,1,1,0,64,64,66,,,,,,,,,,,,,,,,,,,,,,,,,,,,,,,,,,,,,,,,,,,,413.7679643998854,None,right,1,1.1899185001384467,414.2689956999384,415.7380019000266,414.2689956999384,415.2368707000278,414.2689956999384,415.2368707000278,414.2689956999384,415.2368707000278,414.2689956999384,415.2368707000278,414.2689956999384,415.2368707000278,415.22049929993227,415.7211817998905,415.22049929993227,415.7211817998905,415.22049929993227,415.7211817998905,415.22049929993227,415.7211817998905,415.22049929993227,415.7211817998905,415.22049929993227,415.7211817998905,415.22049929993227,415.7211817998905,415.22049929993227,415.7211817998905,414.2689956999384,None,415.70435149990954,417.25680570001714,0.9600000000000006,417.2736750000622,None,418.02463139989413,None,,,,,,,[[1.54]],2.8100000000000023,0.7230769230769231,11038,001,2024_Mar_11_1559,MFTM_A_new1021,2021.2.3,59.65928579420775,
,,,,,,,,stim/Instruction_adaptive.png,conditions/adaptive.xlsx,test,0.6,0.6,0.6,-0.6,-0.6,right,R,,,,,0,1,1,1,0,65,65,48,,,,,,,,,,,,,,,,,,,,,,,,,,,,,,,,,,,,,,,,,,,,418.52588750002906,None,left,0,1.3531633999664336,419.0262627999764,420.48016180004925,419.0262627999764,419.97765660006553,419.0262627999764,419.97765660006553,419.0262627999764,419.97765660006553,419.0262627999764,419.97765660006553,419.0262627999764,419.97765660006553,419.9443260000553,420.4449696999509,419.9443260000553,420.4449696999509,419.9443260000553,420.4449696999509,419.9443260000553,420.4449696999509,419.9443260000553,420.4449696999509,419.9443260000553,420.4449696999509,419.9443260000553,420.4449696999509,419.9443260000553,420.4449696999509,419.0262627999764,None,420.4449696999509,421.99844340002164,0.9400000000000006,422.01381969987415,None,422.765264299931,None,,,,,,,[1.54621212],2.7100000000000017,0.7121212121212122,11038,001,2024_Mar_11_1559,MFTM_A_new1021,2021.2.3,59.65928579420775,
,,,,,,,,stim/Instruction_adaptive.png,conditions/adaptive.xlsx,test,0.6,0.6,0.6,-0.6,-0.6,right,R,,,,,0,1,1,1,0,66,66,96,,,,,,,,,,,,,,,,,,,,,,,,,,,,,,,,,,,,,,,,,,,,423.2657156998757,None,right,1,1.9889783000107855,423.7666426000651,425.2864612999838,423.7666426000651,424.7848769000266,423.7666426000651,424.7848769000266,423.7666426000651,424.7848769000266,423.7666426000651,424.7848769000266,423.7666426000651,424.7848769000266,424.76822900003754,425.2693958999589,424.76822900003754,425.2693958999589,424.76822900003754,425.2693958999589,424.76822900003754,425.2693958999589,424.76822900003754,425.2693958999589,424.76822900003754,425.2693958999589,424.76822900003754,425.2693958999589,424.76822900003754,425.2693958999589,423.7666426000651,None,425.2693958999589,None,1.0100000000000007,426.77106219995767,None,427.52229449991137,None,,,,,,,[[1.49]],2.740000000000002,0.7164179104477612,11038,001,2024_Mar_11_1559,MFTM_A_new1021,2021.2.3,59.65928579420775,
,,,,,,,,stim/Instruction_adaptive.png,conditions/adaptive.xlsx,test,0.6,0.6,0.6,-0.6,-0.6,right,R,,,,,0,1,1,1,0,67,67,14,,,,,,,,,,,,,,,,,,,,,,,,,,,,,,,,,,,,,,,,,,,,428.0239707999863,None,right,1,1.2946150000207126,428.52492709993385,430.0102866999805,428.52492709993385,429.50878129992634,428.52492709993385,429.50878129992634,428.52492709993385,429.50878129992634,428.52492709993385,429.50878129992634,428.52492709993385,429.50878129992634,429.4935275998432,429.9930120999925,429.4935275998432,429.9930120999925,429.4935275998432,429.9930120999925,429.4935275998432,429.9930120999925,429.4935275998432,429.9930120999925,429.4935275998432,429.9930120999925,429.4935275998432,429.9930120999925,429.4935275998432,429.9930120999925,428.52492709993385,None,429.9930120999925,None,0.9800000000000006,431.5285195999313,None,432.28037849999964,None,,,,,,,[[1.52]],2.7700000000000022,0.7205882352941176,11038,001,2024_Mar_11_1559,MFTM_A_new1021,2021.2.3,59.65928579420775,
,,,,,,,,stim/Instruction_adaptive.png,conditions/adaptive.xlsx,test,0.6,0.6,0.6,-0.6,-0.6,right,R,,,,,0,1,1,1,0,68,68,42,,,,,,,,,,,,,,,,,,,,,,,,,,,,,,,,,,,,,,,,,,,,432.7802643000614,None,right,1,1.8989204000681639,433.28101080004126,434.7505536999088,433.28101080004126,434.2497759000398,433.28101080004126,434.2497759000398,433.28101080004126,434.2497759000398,433.28101080004126,434.2497759000398,433.28101080004126,434.2497759000398,434.21603549993597,434.71709070005454,434.21603549993597,434.71709070005454,434.21603549993597,434.71709070005454,434.21603549993597,434.71709070005454,434.21603549993597,434.71709070005454,434.21603549993597,434.71709070005454,434.21603549993597,434.71709070005454,434.21603549993597,434.71709070005454,433.28101080004126,None,434.71709070005454,436.2688531000167,0.9600000000000006,436.28544089989737,None,437.03747350000776,None,,,,,,,[[1.54]],2.8100000000000023,0.7246376811594203,11038,001,2024_Mar_11_1559,MFTM_A_new1021,2021.2.3,59.65928579420775,
,,,,,,,,stim/Instruction_adaptive.png,conditions/adaptive.xlsx,test,-0.6,-0.6,-0.6,0.6,0.6,left,L,,,,,0,1,1,1,0,69,69,55,,,,,,,,,,,,,,,,,,,,,,,,,,,,,,,,,,,,,,,,,,,,437.53748569986783,None,left,1,1.486153299920261,438.0385638999287,439.49202049989253,438.0385638999287,438.98961849999614,438.0385638999287,438.98961849999614,438.0385638999287,438.98961849999614,438.0385638999287,438.98961849999614,438.0385638999287,438.98961849999614,438.9570644998457,439.456912699854,438.9570644998457,439.456912699854,438.9570644998457,439.456912699854,438.9570644998457,439.456912699854,438.9570644998457,439.456912699854,438.9570644998457,439.456912699854,438.9570644998457,439.456912699854,438.9570644998457,439.456912699854,438.0385638999287,None,439.456912699854,441.01084210001864,0.9400000000000006,441.0265037000645,None,441.7782387000043,None,,,,,,,[1.54514286],2.840000000000002,0.7285714285714285,11038,001,2024_Mar_11_1559,MFTM_A_new1021,2021.2.3,59.65928579420775,
,,,,,,,,stim/Instruction_adaptive.png,conditions/adaptive.xlsx,test,-0.6,-0.6,-0.6,0.6,0.6,left,L,,,,,0,1,1,1,0,70,70,37,,,,,,,,,,,,,,,,,,,,,,,,,,,,,,,,,,,,,,,,,,,,442.2784585999325,None,left,1,1.2170596001669765,442.77891850005835,444.19856429984793,442.77891850005835,443.7142141999211,442.77891850005835,443.7142141999211,442.77891850005835,443.7142141999211,442.77891850005835,443.7142141999211,442.77891850005835,443.7142141999211,443.68003279995173,444.1823764999863,443.68003279995173,444.1823764999863,443.68003279995173,444.1823764999863,443.68003279995173,444.1823764999863,443.68003279995173,444.1823764999863,443.68003279995173,444.1823764999863,443.68003279995173,444.1823764999863,443.68003279995173,444.1823764999863,442.77891850005835,None,444.1823764999863,445.73323359992355,0.9200000000000006,445.7503597999457,None,446.5013176999055,None,,,,,,,[1.5456338],2.870000000000002,0.7323943661971831,11038,001,2024_Mar_11_1559,MFTM_A_new1021,2021.2.3,59.65928579420775,
,,,,,,,,stim/Instruction_adaptive.png,conditions/adaptive.xlsx,test,0.6,0.6,0.6,-0.6,-0.6,right,R,,,,,0,1,1,1,0,71,71,64,,,,,,,,,,,,,,,,,,,,,,,,,,,,,,,,,,,,,,,,,,,,447.00188470003195,None,left,0,0.9187405998818576,447.5023077998776,448.9045545000117,447.5023077998776,448.40482609998435,447.5023077998776,448.40482609998435,447.5023077998776,448.40482609998435,447.5023077998776,448.40482609998435,447.5023077998776,448.40482609998435,448.38828019984066,448.88873180001974,448.38828019984066,448.88873180001974,448.38828019984066,448.88873180001974,448.38828019984066,448.88873180001974,448.38828019984066,448.88873180001974,448.38828019984066,448.88873180001974,448.38828019984066,448.88873180001974,448.38828019984066,448.88873180001974,447.5023077998776,None,448.88873180001974,450.4409489999525,0.9000000000000006,450.45634160004556,None,451.2090684999712,None,,,,,,,[1.54638889],2.780000000000002,0.7222222222222222,11038,001,2024_Mar_11_1559,MFTM_A_new1021,2021.2.3,59.65928579420775,
,,,,,,,,stim/Instruction_adaptive.png,conditions/adaptive.xlsx,test,-0.6,-0.6,-0.6,0.6,0.6,left,L,,,,,0,1,1,1,0,72,72,51,,,,,,,,,,,,,,,,,,,,,,,,,,,,,,,,,,,,,,,,,,,,451.7086715998594,None,right,0,1.5068373000249267,452.2096587000415,453.6792021000292,452.2096587000415,453.1787155000493,452.2096587000415,453.1787155000493,452.2096587000415,453.1787155000493,452.2096587000415,453.1787155000493,452.2096587000415,453.1787155000493,453.1616448999848,453.6624867999926,453.1616448999848,453.6624867999926,453.1616448999848,453.6624867999926,453.1616448999848,453.6624867999926,453.1616448999848,453.6624867999926,453.1616448999848,453.6624867999926,453.1616448999848,453.6624867999926,453.1616448999848,453.6624867999926,452.2096587000415,None,453.6624867999926,None,0.9600000000000006,455.2149704999756,None,455.96613670000806,None,,,,,,,[[1.54]],2.690000000000002,0.7123287671232876,11038,001,2024_Mar_11_1559,MFTM_A_new1021,2021.2.3,59.65928579420775,
,,,,,,,,stim/Instruction_adaptive.png,conditions/adaptive.xlsx,test,0.6,0.6,0.6,-0.6,-0.6,right,R,,,,,0,1,1,1,0,73,73,44,,,,,,,,,,,,,,,,,,,,,,,,,,,,,,,,,,,,,,,,,,,,456.4664972999599,None,right,1,2.1258343998342752,456.96691469987854,458.50312469992787,456.96691469987854,457.98493369994685,456.96691469987854,457.98493369994685,456.96691469987854,457.98493369994685,456.96691469987854,457.98493369994685,456.96691469987854,457.98493369994685,457.97001939988695,458.46906369994394,457.97001939988695,458.46906369994394,457.97001939988695,458.46906369994394,457.97001939988695,458.46906369994394,457.97001939988695,458.46906369994394,457.97001939988695,458.46906369994394,457.97001939988695,458.46906369994394,457.97001939988695,458.46906369994394,456.96691469987854,None,458.46906369994394,459.9546562000178,1.0200000000000007,459.9710851998534,None,460.7224878000561,None,,,,,,,[[1.48]],2.720000000000002,0.7162162162162162,11038,001,2024_Mar_11_1559,MFTM_A_new1021,2021.2.3,59.65928579420775,
,,,,,,,,stim/Instruction_adaptive.png,conditions/adaptive.xlsx,test,-0.6,-0.6,-0.6,0.6,0.6,left,L,,,,,0,1,1,1,0,74,74,67,,,,,,,,,,,,,,,,,,,,,,,,,,,,,,,,,,,,,,,,,,,,461.22438309993595,None,left,1,1.1445623999461532,461.7238820998464,463.22620989987627,461.7238820998464,462.72514039999805,461.7238820998464,462.72514039999805,461.7238820998464,462.72514039999805,461.7238820998464,462.72514039999805,461.7238820998464,462.72514039999805,462.7087208000012,463.2095138998702,462.7087208000012,463.2095138998702,462.7087208000012,463.2095138998702,462.7087208000012,463.2095138998702,462.7087208000012,463.2095138998702,462.7087208000012,463.2095138998702,462.7087208000012,463.2095138998702,462.7087208000012,463.2095138998702,461.7238820998464,None,463.2095138998702,464.7125208999496,1.0000000000000007,464.72871960001066,None,465.47952679987065,None,,,,,,,[[1.5]],2.7500000000000018,0.72,11038,001,2024_Mar_11_1559,MFTM_A_new1021,2021.2.3,59.65928579420775,
,,,,,,,,stim/Instruction_adaptive.png,conditions/adaptive.xlsx,test,0.6,0.6,0.6,-0.6,-0.6,right,R,,,,,0,1,1,1,0,75,75,78,,,,,,,,,,,,,,,,,,,,,,,,,,,,,,,,,,,,,,,,,,,,465.98087349999696,None,right,1,1.2990686998236924,466.4811092999298,467.9667221000418,466.4811092999298,467.4664157999214,466.4811092999298,467.4664157999214,466.4811092999298,467.4664157999214,466.4811092999298,467.4664157999214,466.4811092999298,467.4664157999214,467.4498848998919,467.94997789990157,467.4498848998919,467.94997789990157,467.4498848998919,467.94997789990157,467.4498848998919,467.94997789990157,467.4498848998919,467.94997789990157,467.4498848998919,467.94997789990157,467.4498848998919,467.94997789990157,467.4498848998919,467.94997789990157,466.4811092999298,None,467.94997789990157,469.4694707999006,0.9800000000000006,469.4863136999775,None,470.2377001000568,None,,,,,,,[[1.52]],2.780000000000002,0.7236842105263158,11038,001,2024_Mar_11_1559,MFTM_A_new1021,2021.2.3,59.65928579420775,
,,,,,,,,stim/Instruction_adaptive.png,conditions/adaptive.xlsx,test,0.6,0.6,0.6,-0.6,-0.6,right,R,,,,,0,1,1,1,0,76,76,18,,,,,,,,,,,,,,,,,,,,,,,,,,,,,,,,,,,,,,,,,,,,470.7383644999936,None,right,1,1.318793199956417,471.23829740006477,472.70707849995233,471.23829740006477,472.20752759999596,471.23829740006477,472.20752759999596,471.23829740006477,472.20752759999596,471.23829740006477,472.20752759999596,471.23829740006477,472.20752759999596,472.19082419993356,472.6906007998623,472.19082419993356,472.6906007998623,472.19082419993356,472.6906007998623,472.19082419993356,472.6906007998623,472.19082419993356,472.6906007998623,472.19082419993356,472.6906007998623,472.19082419993356,472.6906007998623,472.19082419993356,472.6906007998623,471.23829740006477,None,472.6736824000254,474.22681819996797,0.9600000000000006,474.2434801000636,None,474.99396659992635,None,,,,,,,[[1.54]],2.8100000000000023,0.7272727272727273,11038,001,2024_Mar_11_1559,MFTM_A_new1021,2021.2.3,59.65928579420775,
,,,,,,,,stim/Instruction_adaptive.png,conditions/adaptive.xlsx,test,-0.6,-0.6,-0.6,0.6,0.6,left,L,,,,,0,1,1,1,0,77,77,25,,,,,,,,,,,,,,,,,,,,,,,,,,,,,,,,,,,,,,,,,,,,475.4953862000257,None,left,1,1.097568399971351,475.99552779993974,477.44956139987335,475.99552779993974,476.9475042000413,475.99552779993974,476.9475042000413,475.99552779993974,476.9475042000413,475.99552779993974,476.9475042000413,475.99552779993974,476.9475042000413,476.9149946998805,477.41485850000754,476.9149946998805,477.41485850000754,476.9149946998805,477.41485850000754,476.9149946998805,477.41485850000754,476.9149946998805,477.41485850000754,476.9149946998805,477.41485850000754,476.9149946998805,477.41485850000754,476.9149946998805,477.41485850000754,475.99552779993974,None,477.41485850000754,478.9664210998453,0.9400000000000006,478.9831824998837,None,479.7345499000512,None,,,,,,,[1.54461538],2.840000000000002,0.7307692307692307,11038,001,2024_Mar_11_1559,MFTM_A_new1021,2021.2.3,59.65928579420775,
,,,,,,,,stim/Instruction_adaptive.png,conditions/adaptive.xlsx,test,0.6,0.6,0.6,-0.6,-0.6,right,R,,,,,0,1,1,1,0,78,78,86,,,,,,,,,,,,,,,,,,,,,,,,,,,,,,,,,,,,,,,,,,,,480.2357179999817,None,right,1,1.2451462000608444,480.73579269996844,482.1711615999229,480.73579269996844,481.67075020004995,480.73579269996844,481.67075020004995,480.73579269996844,481.67075020004995,480.73579269996844,481.67075020004995,480.73579269996844,481.67075020004995,481.6381315998733,482.1380785999354,481.6381315998733,482.1380785999354,481.6381315998733,482.1380785999354,481.6381315998733,482.1380785999354,481.6381315998733,482.1380785999354,481.6381315998733,482.1380785999354,481.6381315998733,482.1380785999354,481.6381315998733,482.1380785999354,480.73579269996844,None,482.1380785999354,483.69144129985943,0.9200000000000006,483.70742470002733,None,484.45878059999086,None,,,,,,,[1.54506329],2.860000000000002,0.7341772151898734,11038,001,2024_Mar_11_1559,MFTM_A_new1021,2021.2.3,59.65928579420775,
,,,,,,,,stim/Instruction_adaptive.png,conditions/adaptive.xlsx,test,0.6,0.6,0.6,-0.6,-0.6,right,R,,,,,0,1,1,1,0,79,79,90,,,,,,,,,,,,,,,,,,,,,,,,,,,,,,,,,,,,,,,,,,,,484.9597952000331,None,right,1,1.0336507000029087,485.4596679999959,486.87938890000805,485.4596679999959,486.3782180000562,485.4596679999959,486.3782180000562,485.4596679999959,486.3782180000562,485.4596679999959,486.3782180000562,485.4596679999959,486.3782180000562,486.36181310005486,486.8626164998859,486.36181310005486,486.8626164998859,486.36181310005486,486.8626164998859,486.36181310005486,486.8626164998859,486.36181310005486,486.8626164998859,486.36181310005486,486.8626164998859,486.36181310005486,486.8626164998859,486.36181310005486,486.8626164998859,485.4596679999959,None,486.8626164998859,None,0.9100000000000006,488.4147336999886,None,489.1656466999557,None,,,,,,,[1.545625],2.8900000000000023,0.7375,11038,001,2024_Mar_11_1559,MFTM_A_new1021,2021.2.3,59.65928579420775,
,,,,,,,,stim/Instruction_adaptive.png,conditions/adaptive.xlsx,test,-0.6,-0.6,-0.6,0.6,0.6,left,L,,,,,0,1,1,1,0,80,80,1,,,,,,,,,,,,,,,,,,,,,,,,,,,,,,,,,,,,,,,,,,,,489.6667987999972,None,left,1,1.166244300082326,490.1674112000037,491.56914400006644,490.1674112000037,491.0681141000241,490.1674112000037,491.0681141000241,490.1674112000037,491.0681141000241,490.1674112000037,491.0681141000241,490.1674112000037,491.0681141000241,491.0349705000408,491.53587089991197,491.0349705000408,491.53587089991197,491.0349705000408,491.53587089991197,491.0349705000408,491.53587089991197,491.0349705000408,491.53587089991197,491.0349705000408,491.53587089991197,491.0349705000408,491.53587089991197,491.0349705000408,491.53587089991197,490.1674112000037,None,491.53587089991197,493.08841879991814,0.8900000000000006,493.1045408998616,None,493.8562803999521,None,,,,,,,[1.54641975],2.910000000000002,0.7407407407407407,11038,001,2024_Mar_11_1559,MFTM_A_new1021,2021.2.3,59.65928579420775,
,,,,,,,,stim/Instruction_adaptive.png,conditions/adaptive.xlsx,test,0.6,0.6,0.6,-0.6,-0.6,right,R,,,,,0,1,1,1,0,81,81,26,,,,,,,,,,,,,,,,,,,,,,,,,,,,,,,,,,,,,,,,,,,,494.35734099987894,None,left,0,1.5643157998565584,494.857151000062,496.24243859993294,494.857151000062,495.7418163998518,494.857151000062,495.7418163998518,494.857151000062,495.7418163998518,494.857151000062,495.7418163998518,494.857151000062,495.7418163998518,495.72654070006683,496.2263491000049,495.72654070006683,496.2263491000049,495.72654070006683,496.2263491000049,495.72654070006683,496.2263491000049,495.72654070006683,496.2263491000049,495.72654070006683,496.2263491000049,495.72654070006683,496.2263491000049,495.72654070006683,496.2263491000049,494.857151000062,None,496.2263491000049,497.7791369999759,0.8800000000000006,497.79465499985963,None,498.546208600048,None,,,,,,,[1.54731707],2.840000000000002,0.7317073170731707,11038,001,2024_Mar_11_1559,MFTM_A_new1021,2021.2.3,59.65928579420775,
,,,,,,,,stim/Instruction_adaptive.png,conditions/adaptive.xlsx,test,0.6,0.6,0.6,-0.6,-0.6,right,R,,,,,0,1,1,1,0,82,82,2,,,,,,,,,,,,,,,,,,,,,,,,,,,,,,,,,,,,,,,,,,,,499.0467659998685,None,right,1,1.1536976001225412,499.5477370999288,500.9831598000601,499.5477370999288,500.4826408000663,499.5477370999288,500.4826408000663,499.5477370999288,500.4826408000663,499.5477370999288,500.4826408000663,499.5477370999288,500.4826408000663,500.44900440005586,500.9496945999563,500.44900440005586,500.9496945999563,500.44900440005586,500.9496945999563,500.44900440005586,500.9496945999563,500.44900440005586,500.9496945999563,500.44900440005586,500.9496945999563,500.44900440005586,500.9496945999563,500.44900440005586,500.9496945999563,499.5477370999288,None,500.9496945999563,502.5027657998726,0.9200000000000006,502.518867299892,None,503.2703480999917,None,,,,,,,[1.54771084],2.870000000000002,0.7349397590361446,11038,001,2024_Mar_11_1559,MFTM_A_new1021,2021.2.3,59.65928579420775,
,,,,,,,,stim/Instruction_adaptive.png,conditions/adaptive.xlsx,test,0.6,0.6,0.6,-0.6,-0.6,right,R,,,,,0,1,1,1,0,83,83,10,,,,,,,,,,,,,,,,,,,,,,,,,,,,,,,,,,,,,,,,,,,,503.7717772999313,None,right,1,1.3904017999302596,504.2717088998761,505.67340549989603,504.2717088998761,505.17398809990846,504.2717088998761,505.17398809990846,504.2717088998761,505.17398809990846,504.2717088998761,505.17398809990846,504.2717088998761,505.17398809990846,505.15719729987904,505.65760089992546,505.15719729987904,505.65760089992546,505.15719729987904,505.65760089992546,505.15719729987904,505.65760089992546,505.15719729987904,505.65760089992546,505.15719729987904,505.65760089992546,505.15719729987904,505.65760089992546,505.15719729987904,505.65760089992546,504.2717088998761,None,505.65760089992546,507.20918580004945,0.9000000000000006,507.22583919996396,None,507.9772369998973,None,,,,,,,[1.54833333],2.8900000000000023,0.7380952380952381,11038,001,2024_Mar_11_1559,MFTM_A_new1021,2021.2.3,59.65928579420775,
,,,,,,,,stim/Instruction_adaptive.png,conditions/adaptive.xlsx,test,0.6,0.6,0.6,-0.6,-0.6,right,R,,,,,0,1,1,1,0,84,84,84,,,,,,,,,,,,,,,,,,,,,,,,,,,,,,,,,,,,,,,,,,,,508.47872369992547,None,right,1,1.3550624998752028,508.97843159991316,510.38147519994527,508.97843159991316,509.87966029997915,508.97843159991316,509.87966029997915,508.97843159991316,509.87966029997915,508.97843159991316,509.87966029997915,508.97843159991316,509.87966029997915,509.8471228000708,510.3476833999157,509.8471228000708,510.3476833999157,509.8471228000708,510.3476833999157,509.8471228000708,510.3476833999157,509.8471228000708,510.3476833999157,509.8471228000708,510.3476833999157,509.8471228000708,510.3476833999157,509.8471228000708,510.3476833999157,508.97843159991316,None,510.3476833999157,511.9019654998556,0.8900000000000006,511.9156855000183,None,512.6674699999858,None,,,,,,,[1.54905882],2.910000000000002,0.7411764705882353,11038,001,2024_Mar_11_1559,MFTM_A_new1021,2021.2.3,59.65928579420775,
,,,,,,,,stim/Instruction_adaptive.png,conditions/adaptive.xlsx,test,0.6,0.6,0.6,-0.6,-0.6,right,R,,,,,0,1,1,1,0,85,85,50,,,,,,,,,,,,,,,,,,,,,,,,,,,,,,,,,,,,,,,,,,,,513.1682790999766,None,right,1,1.5127386001404375,513.6689985999838,515.0545222999062,513.6689985999838,514.5544236998539,513.6689985999838,514.5544236998539,513.6689985999838,514.5544236998539,513.6689985999838,514.5544236998539,513.6689985999838,514.5544236998539,514.5370660999324,515.0386604999658,514.5370660999324,515.0386604999658,514.5370660999324,515.0386604999658,514.5370660999324,515.0386604999658,514.5370660999324,515.0386604999658,514.5370660999324,515.0386604999658,514.5370660999324,515.0386604999658,514.5370660999324,515.0386604999658,513.6689985999838,None,515.0386604999658,516.5908202999271,0.8800000000000006,516.6073212998454,None,517.3584868998732,None,,,,,,,[1.54988372],2.940000000000002,0.7441860465116279,11038,001,2024_Mar_11_1559,MFTM_A_new1021,2021.2.3,59.65928579420775,
,,,,,,,,stim/Instruction_adaptive.png,conditions/adaptive.xlsx,test,-0.6,-0.6,-0.6,0.6,0.6,left,L,,,,,0,1,1,1,0,86,86,5,,,,,,,,,,,,,,,,,,,,,,,,,,,,,,,,,,,,,,,,,,,,517.8592004000675,None,left,1,0.8939920999109745,518.3597812999506,519.7288762000389,518.3597812999506,519.2275417998899,518.3597812999506,519.2275417998899,518.3597812999506,519.2275417998899,518.3597812999506,519.2275417998899,518.3597812999506,519.2275417998899,519.1940041999333,519.6946350999642,519.1940041999333,519.6946350999642,519.1940041999333,519.6946350999642,519.1940041999333,519.6946350999642,519.1940041999333,519.6946350999642,519.1940041999333,519.6946350999642,519.1940041999333,519.6946350999642,519.1940041999333,519.6946350999642,518.3597812999506,None,519.6946350999642,521.2476740998682,0.8600000000000005,521.2813744000159,None,522.0315300000366,None,,,,,,,[1.55091954],2.960000000000002,0.7471264367816092,11038,001,2024_Mar_11_1559,MFTM_A_new1021,2021.2.3,59.65928579420775,
,,,,,,,,stim/Instruction_adaptive.png,conditions/adaptive.xlsx,test,-0.6,-0.6,-0.6,0.6,0.6,left,L,,,,,0,1,1,1,0,87,87,87,,,,,,,,,,,,,,,,,,,,,,,,,,,,,,,,,,,,,,,,,,,,522.5331734998617,None,left,1,0.8689884999766946,523.0330306999385,524.3859536000527,523.0330306999385,523.8843483000528,523.0330306999385,523.8843483000528,523.0330306999385,523.8843483000528,523.0330306999385,523.8843483000528,523.0330306999385,523.8843483000528,523.8685892999638,524.3692113999277,523.8685892999638,524.3692113999277,523.8685892999638,524.3692113999277,523.8685892999638,524.3692113999277,523.8685892999638,524.3692113999277,523.8685892999638,524.3692113999277,523.8685892999638,524.3692113999277,523.8685892999638,524.3692113999277,523.0330306999385,None,524.3692113999277,525.9208084000275,0.8500000000000005,525.9374964998569,None,526.6893765998539,None,,,,,,,[1.55204545],2.980000000000002,0.75,11038,001,2024_Mar_11_1559,MFTM_A_new1021,2021.2.3,59.65928579420775,
,,,,,,,,stim/Instruction_adaptive.png,conditions/adaptive.xlsx,test,0.6,0.6,0.6,-0.6,-0.6,right,R,,,,,0,1,1,1,0,88,88,82,,,,,,,,,,,,,,,,,,,,,,,,,,,,,,,,,,,,,,,,,,,,527.1892053999472,None,right,1,1.1479827999137342,527.6904211000074,529.0260369000025,527.6904211000074,528.5246911998838,527.6904211000074,528.5246911998838,527.6904211000074,528.5246911998838,527.6904211000074,528.5246911998838,527.6904211000074,528.5246911998838,528.508074299898,529.0094554000534,528.508074299898,529.0094554000534,528.508074299898,529.0094554000534,528.508074299898,529.0094554000534,528.508074299898,529.0094554000534,528.508074299898,529.0094554000534,528.508074299898,529.0094554000534,528.508074299898,529.0094554000534,527.6904211000074,None,529.0094554000534,530.5612323998939,0.8300000000000005,530.5791193000041,None,531.3286820999347,None,,,,,,,[1.55337079],3.000000000000002,0.7528089887640449,11038,001,2024_Mar_11_1559,MFTM_A_new1021,2021.2.3,59.65928579420775,
,,,,,,,,stim/Instruction_adaptive.png,conditions/adaptive.xlsx,test,0.6,0.6,0.6,-0.6,-0.6,right,R,,,,,0,1,1,1,0,89,89,62,,,,,,,,,,,,,,,,,,,,,,,,,,,,,,,,,,,,,,,,,,,,531.8304822000209,None,right,1,1.1952746999450028,532.3310630000196,533.6657151998952,532.3310630000196,533.1648486000486,532.3310630000196,533.1648486000486,532.3310630000196,533.1648486000486,532.3310630000196,533.1648486000486,532.3310630000196,533.1648486000486,533.1316857999191,533.632358300034,533.1316857999191,533.632358300034,533.1316857999191,533.632358300034,533.1316857999191,533.632358300034,533.1316857999191,533.632358300034,533.1316857999191,533.632358300034,533.1316857999191,533.632358300034,533.1316857999191,533.632358300034,532.3310630000196,None,533.632358300034,535.201439099852,0.8200000000000005,535.2190163000487,None,535.9703605999239,None,,,,,,,[1.55477778],3.030000000000002,0.7555555555555555,11038,001,2024_Mar_11_1559,MFTM_A_new1021,2021.2.3,59.65928579420775,
,,,,,,,,stim/Instruction_adaptive.png,conditions/adaptive.xlsx,test,-0.6,-0.6,-0.6,0.6,0.6,left,L,,,,,0,1,1,1,0,90,90,81,,,,,,,,,,,,,,,,,,,,,,,,,,,,,,,,,,,,,,,,,,,,536.4708217999432,None,left,1,0.787305099889636,536.9708978999406,538.289389600046,536.9708978999406,537.7898305999115,536.9708978999406,537.7898305999115,536.9708978999406,537.7898305999115,536.9708978999406,537.7898305999115,536.9708978999406,537.7898305999115,537.7552895999979,538.2565748998895,537.7552895999979,538.2565748998895,537.7552895999979,538.2565748998895,537.7552895999979,538.2565748998895,537.7552895999979,538.2565748998895,537.7552895999979,538.2565748998895,537.7552895999979,538.2565748998895,537.7552895999979,538.2565748998895,536.9708978999406,None,538.2565748998895,539.8253454000223,0.8100000000000005,539.8416360998526,None,540.5931336998474,None,,,,,,,[1.55626374],3.0500000000000025,0.7582417582417582,11038,001,2024_Mar_11_1559,MFTM_A_new1021,2021.2.3,59.65928579420775,
,,,,,,,,stim/Instruction_adaptive.png,conditions/adaptive.xlsx,test,0.6,0.6,0.6,-0.6,-0.6,right,R,,,,,0,1,1,1,0,91,91,6,,,,,,,,,,,,,,,,,,,,,,,,,,,,,,,,,,,,,,,,,,,,541.0936010000296,None,left,0,1.2445869001094252,541.5943563999608,542.8962782998569,541.5943563999608,542.3959405999631,541.5943563999608,542.3959405999631,541.5943563999608,542.3959405999631,541.5943563999608,542.3959405999631,541.5943563999608,542.3959405999631,542.3621137000155,542.8642651999835,542.3621137000155,542.8642651999835,542.3621137000155,542.8642651999835,542.3621137000155,542.8642651999835,542.3621137000155,542.8642651999835,542.3621137000155,542.8642651999835,542.3621137000155,542.8642651999835,542.3621137000155,542.8642651999835,541.5943563999608,None,542.8642651999835,544.4322462999262,0.7900000000000005,544.4487073000055,None,545.2000210999977,None,,,,,,,[1.55793478],2.990000000000002,0.75,11038,001,2024_Mar_11_1559,MFTM_A_new1021,2021.2.3,59.65928579420775,
,,,,,,,,stim/Instruction_adaptive.png,conditions/adaptive.xlsx,test,-0.6,-0.6,-0.6,0.6,0.6,left,L,,,,,0,1,1,1,0,92,92,59,,,,,,,,,,,,,,,,,,,,,,,,,,,,,,,,,,,,,,,,,,,,545.7017653998919,None,left,1,1.1739149000495672,546.201224999968,547.5372277998831,546.201224999968,547.0360230000224,546.201224999968,547.0360230000224,546.201224999968,547.0360230000224,546.201224999968,547.0360230000224,546.201224999968,547.0360230000224,547.0192507999018,547.5207266998477,547.0192507999018,547.5207266998477,547.0192507999018,547.5207266998477,547.0192507999018,547.5207266998477,547.0192507999018,547.5207266998477,547.0192507999018,547.5207266998477,547.0192507999018,547.5207266998477,547.0192507999018,547.5207266998477,546.201224999968,None,547.5207266998477,None,0.8300000000000005,549.0887670998927,None,549.8403535999823,None,,,,,,,[1.55913978],3.0100000000000025,0.7526881720430108,11038,001,2024_Mar_11_1559,MFTM_A_new1021,2021.2.3,59.65928579420775,
