arrwidth1,arrwidth2,arrwidth3,arrwidth4,arrwidth5,keyb,type,orientation,instruction_image,block_filename,block_type,arrow11,arrow22,arrow33,arrow44,arrow55,keyb_3,orientation3,trials.thisRepN,trials.thisTrialN,trials.thisN,trials.thisIndex,trials_3.thisRepN,trials_3.thisTrialN,trials_3.thisN,trials_3.thisIndex,trials_2.thisRepN,trials_2.thisTrialN,trials_2.thisN,trials_2.thisIndex,welcome.started,welcome.stopped,key_resp.keys,key_resp.rt,key_resp.started,key_resp.stopped,instruction_example.started,instruction_example.stopped,key_resp_3.keys,key_resp_3.rt,key_resp_3.started,key_resp_3.stopped,instruction_task.started,instruction_task.stopped,key_resp_2.keys,key_resp_2.rt,key_resp_2.started,key_resp_2.stopped,text_2.started,text_2.stopped,A1.started,A1.stopped,A2.started,A2.stopped,A3.started,A3.stopped,A4.started,A4.stopped,A5.started,A5.stopped,key_resp_4.keys,key_resp_4.corr,key_resp_4.rt,key_resp_4.started,key_resp_4.stopped,fb.started,fb.stopped,instruction_block.started,instruction_block.stopped,key_resp_8.keys,key_resp_8.rt,key_resp_8.started,key_resp_8.stopped,text_8.started,text_8.stopped,key_resp_9.keys,key_resp_9.corr,key_resp_9.rt,text_5.started,text_5.stopped,A11_3.started,A11_3.stopped,A22_2.started,A22_2.stopped,A33_2.started,A33_2.stopped,A44_2.started,A44_2.stopped,A55_2.started,A55_2.stopped,M1_3.started,M1_3.stopped,M2_2.started,M2_2.stopped,M3_2.started,M3_2.stopped,M4_2.started,M4_2.stopped,M5_2.started,M5_2.stopped,M6_2.started,M6_2.stopped,M7_2.started,M7_2.stopped,M8_2.started,M8_2.stopped,key_resp_9.started,key_resp_9.stopped,fixation.started,fixation.stopped,ET,fb_3.started,fb_3.stopped,text_9.started,text_9.stopped,fb_4.started,fb_4.stopped,text_7.started,text_7.stopped,endtext.started,endtext.stopped,fixation_ITI,CCC,Acc,participant,session,date,expName,psychopyVersion,frameRate,
,,,,,,,,,,,,,,,,,,,,,,,,,,,,,,15.963916399981827,None,space,2.443498799810186,15.963916399981827,None,,,,,,,,,,,,,,,,,,,,,,,,,,,,,,,,,,,,,,,,,,,,,,,,,,,,,,,,,,,,,,,,,,,,,,,,,,,,,,,,,,,,,,,,,11037,002,2024_Mar_11_1905,MFTM_A_new1021,2021.2.3,59.9071439172872,
,,,,,,,,,,,,,,,,,,,,,,,,,,,,,,,,,,,,18.43415299989283,None,space,1.5650400999002159,18.43415299989283,None,,,,,,,,,,,,,,,,,,,,,,,,,,,,,,,,,,,,,,,,,,,,,,,,,,,,,,,,,,,,,,,,,,,,,,,,,,,,,,,,,,,11037,002,2024_Mar_11_1905,MFTM_A_new1021,2021.2.3,59.9071439172872,
,,,,,,,,,,,,,,,,,,,,,,,,,,,,,,,,,,,,,,,,,,20.02016770001501,None,space,1.915078500052914,20.02016770001501,None,,,,,,,,,,,,,,,,,,,,,,,,,,,,,,,,,,,,,,,,,,,,,,,,,,,,,,,,,,,,,,,,,,,,,,,,,,,,,11037,002,2024_Mar_11_1905,MFTM_A_new1021,2021.2.3,59.9071439172872,
-0.6,-0.6,-0.6,0.6,0.6,left,3:2,L,,,,,,,,,,,0,0,0,1,,,,,,,,,,,,,,,,,,,,,,,,,,,21.97497949982062,None,21.97497949982062,None,21.97497949982062,None,21.97497949982062,None,21.97497949982062,None,21.97497949982062,None,left,1,2.5281177000142634,21.97497949982062,None,24.544850799953565,None,,,,,,,,,,,,,,,,,,,,,,,,,,,,,,,,,,,,,,,,,,,,,,,,,,,,,,,,,,11037,002,2024_Mar_11_1905,MFTM_A_new1021,2021.2.3,59.9071439172872,
0.6,0.6,0.6,-0.6,-0.6,right,3:2,R,,,,,,,,,,,0,1,1,0,,,,,,,,,,,,,,,,,,,,,,,,,,,25.295593600021675,None,25.295593600021675,None,25.295593600021675,None,25.295593600021675,None,25.295593600021675,None,25.295593600021675,None,right,1,2.6236696999985725,25.295593600021675,None,27.948701299959794,None,,,,,,,,,,,,,,,,,,,,,,,,,,,,,,,,,,,,,,,,,,,,,,,,,,,,,,,,,,11037,002,2024_Mar_11_1905,MFTM_A_new1021,2021.2.3,59.9071439172872,
0.6,0.6,0.6,-0.6,-0.6,right,3:2,R,,,,,,,,,,,1,0,2,0,,,,,,,,,,,,,,,,,,,,,,,,,,,28.7010019000154,None,28.7010019000154,None,28.7010019000154,None,28.7010019000154,None,28.7010019000154,None,28.7010019000154,None,right,1,3.610144100151956,28.7010019000154,None,32.33859790000133,None,,,,,,,,,,,,,,,,,,,,,,,,,,,,,,,,,,,,,,,,,,,,,,,,,,,,,,,,,,11037,002,2024_Mar_11_1905,MFTM_A_new1021,2021.2.3,59.9071439172872,
-0.6,-0.6,-0.6,0.6,0.6,left,3:2,L,,,,,,,,,,,1,1,3,1,,,,,,,,,,,,,,,,,,,,,,,,,,,33.0898749998305,None,33.0898749998305,None,33.0898749998305,None,33.0898749998305,None,33.0898749998305,None,33.0898749998305,None,left,1,2.877911499934271,33.0898749998305,None,35.99524699989706,None,,,,,,,,,,,,,,,,,,,,,,,,,,,,,,,,,,,,,,,,,,,,,,,,,,,,,,,,,,11037,002,2024_Mar_11_1905,MFTM_A_new1021,2021.2.3,59.9071439172872,
,,,,,,,,stim/Instruction_mask.png,conditions/adaptive.xlsx,practice,0.6,0.6,0.6,-0.6,-0.6,right,R,,,,,0,0,0,0,0,0,0,52,,,,,,,,,,,,,,,,,,,,,,,,,,,,,,,,,,,,,,36.979071599897,None,space,3.2048720000311732,36.979071599897,None,40.26749589992687,None,right,1,2.9054737999103963,40.71800549980253,None,40.71800549980253,43.72362730000168,40.71800549980253,43.72362730000168,40.71800549980253,43.72362730000168,40.71800549980253,43.72362730000168,40.71800549980253,43.72362730000168,43.70604219986126,44.20691019995138,43.70604219986126,44.20691019995138,43.70604219986126,44.20691019995138,43.70604219986126,44.20691019995138,43.70604219986126,44.20691019995138,43.70604219986126,44.20691019995138,43.70604219986126,44.20691019995138,43.70604219986126,44.20691019995138,40.71800549980253,None,44.20691019995138,44.20691019995138,3,44.224268099991605,None,44.97440920001827,None,,,,,,,,,,11037,002,2024_Mar_11_1905,MFTM_A_new1021,2021.2.3,59.9071439172872,
,,,,,,,,stim/Instruction_mask.png,conditions/adaptive.xlsx,practice,0.6,0.6,0.6,-0.6,-0.6,right,R,,,,,0,0,0,0,0,1,1,78,,,,,,,,,,,,,,,,,,,,,,,,,,,,,,,,,,,,,,,,,,,,45.475841499865055,None,left,0,2.079773999983445,45.975998000008985,47.97867069998756,45.975998000008985,47.47856909991242,45.975998000008985,47.47856909991242,45.975998000008985,47.47856909991242,45.975998000008985,47.47856909991242,45.975998000008985,47.47856909991242,47.46156480000354,47.962893299991265,47.46156480000354,47.962893299991265,47.46156480000354,47.962893299991265,47.46156480000354,47.962893299991265,47.46156480000354,47.962893299991265,47.46156480000354,47.962893299991265,47.46156480000354,47.962893299991265,47.46156480000354,47.962893299991265,45.975998000008985,None,47.962893299991265,49.46448179986328,1.5,49.48138439981267,None,50.23287549987435,None,,,,,,,,,,11037,002,2024_Mar_11_1905,MFTM_A_new1021,2021.2.3,59.9071439172872,
,,,,,,,,stim/Instruction_mask.png,conditions/adaptive.xlsx,practice,-0.6,-0.6,-0.6,0.6,0.6,left,L,,,,,0,0,0,0,0,2,2,91,,,,,,,,,,,,,,,,,,,,,,,,,,,,,,,,,,,,,,,,,,,,50.73406799999066,None,right,0,2.597471200162545,51.23464049980976,52.53594459989108,51.23464049980976,52.03509159991518,51.23464049980976,52.03509159991518,51.23464049980976,52.03509159991518,51.23464049980976,52.03509159991518,51.23464049980976,52.03509159991518,52.01922899996862,52.51894129998982,52.01922899996862,52.51894129998982,52.01922899996862,52.51894129998982,52.01922899996862,52.51894129998982,52.01922899996862,52.51894129998982,52.01922899996862,52.51894129998982,52.01922899996862,52.51894129998982,52.01922899996862,52.51894129998982,51.23464049980976,None,52.51894129998982,54.723383700009435,0.8,54.740311599802226,None,55.49030249984935,None,,,,,,,,,,11037,002,2024_Mar_11_1905,MFTM_A_new1021,2021.2.3,59.9071439172872,
,,,,,,,,stim/Instruction_mask.png,conditions/adaptive.xlsx,practice,-0.6,-0.6,-0.6,0.6,0.6,left,L,,,,,0,0,0,0,0,3,3,31,,,,,,,,,,,,,,,,,,,,,,,,,,,,,,,,,,,,,,,,,,,,55.99186349986121,None,left,1,1.4369376001413912,56.49188909982331,57.24381189979613,56.49188909982331,56.74313219985925,56.49188909982331,56.74313219985925,56.49188909982331,56.74313219985925,56.49188909982331,56.74313219985925,56.49188909982331,56.74313219985925,56.72611159994267,57.22685639979318,56.72611159994267,57.22685639979318,56.72611159994267,57.22685639979318,56.72611159994267,57.22685639979318,56.72611159994267,57.22685639979318,56.72611159994267,57.22685639979318,56.72611159994267,57.22685639979318,56.72611159994267,57.22685639979318,56.49188909982331,None,57.22685639979318,59.981071799993515,3,59.99795149988495,None,60.7483062997926,None,,,,,,,,,,11037,002,2024_Mar_11_1905,MFTM_A_new1021,2021.2.3,59.9071439172872,
,,,,,,,,stim/Instruction_mask.png,conditions/adaptive.xlsx,practice,,,,,,,,,,,,0,0,0,0,,,,,,,,,,,,,,,,,,,,,,,,,,,,,,,,,,,,,,,,,,,,,,,,,,,,,,,,,,,,,,,,,,,,,,,,,,,,,,,,,,,,,,,,,,61.265800499822944,62.267425099853426,62.2340313999448,62.2340313999448,62.2340313999448,None,,,,11037,002,2024_Mar_11_1905,MFTM_A_new1021,2021.2.3,59.9071439172872,
,,,,,,,,stim/Instruction_adaptive.png,conditions/adaptive.xlsx,test,-0.6,-0.6,-0.6,0.6,0.6,left,L,,,,,0,1,1,1,0,0,0,31,,,,,,,,,,,,,,,,,,,,,,,,,,,,,,,,,,,,,,65.37113499990664,None,space,2.573264100123197,65.37113499990664,None,67.99228619993664,None,left,1,2.8200206998735666,68.49311229982413,None,68.49311229982413,71.49862339999527,68.49311229982413,71.49862339999527,68.49311229982413,71.49862339999527,68.49311229982413,71.49862339999527,68.49311229982413,71.49862339999527,71.48178139980882,71.98188969981857,71.48178139980882,71.98188969981857,71.48178139980882,71.98188969981857,71.48178139980882,71.98188969981857,71.48178139980882,71.98188969981857,71.48178139980882,71.98188969981857,71.48178139980882,71.98188969981857,71.48178139980882,71.98188969981857,68.49311229982413,None,71.98188969981857,71.98188969981857,3,71.99867290002294,None,72.75046020001173,None,,,,,,,0,6.000000000000005,1.0,11037,002,2024_Mar_11_1905,MFTM_A_new1021,2021.2.3,59.9071439172872,
,,,,,,,,stim/Instruction_adaptive.png,conditions/adaptive.xlsx,test,-0.6,-0.6,-0.6,0.6,0.6,left,L,,,,,0,1,1,1,0,1,1,59,,,,,,,,,,,,,,,,,,,,,,,,,,,,,,,,,,,,,,,,,,,,73.25034629995935,None,left,1,1.5934457001276314,73.7512701000087,74.50236869999208,73.7512701000087,74.00160349998623,73.7512701000087,74.00160349998623,73.7512701000087,74.00160349998623,73.7512701000087,74.00160349998623,73.7512701000087,74.00160349998623,73.98485139990225,74.48576219985262,73.98485139990225,74.48576219985262,73.98485139990225,74.48576219985262,73.98485139990225,74.48576219985262,73.98485139990225,74.48576219985262,73.98485139990225,74.48576219985262,73.98485139990225,74.48576219985262,73.98485139990225,74.48576219985262,73.7512701000087,None,74.48576219985262,75.37022089981474,0.25,75.38749739993364,None,76.1387869999744,None,,,,,,,[0.875],6.000000000000005,1.0,11037,002,2024_Mar_11_1905,MFTM_A_new1021,2021.2.3,59.9071439172872,
,,,,,,,,stim/Instruction_adaptive.png,conditions/adaptive.xlsx,test,0.6,0.6,0.6,-0.6,-0.6,right,R,,,,,0,1,1,1,0,2,2,14,,,,,,,,,,,,,,,,,,,,,,,,,,,,,,,,,,,,,,,,,,,,76.63932819990441,None,right,1,1.1489607999101281,77.13982409983873,77.89077279996127,77.13982409983873,77.39012059988454,77.13982409983873,77.39012059988454,77.13982409983873,77.39012059988454,77.13982409983873,77.39012059988454,77.13982409983873,77.39012059988454,77.37331389985047,77.87513439985923,77.37331389985047,77.87513439985923,77.37331389985047,77.87513439985923,77.37331389985047,77.87513439985923,77.37331389985047,77.87513439985923,77.37331389985047,77.87513439985923,77.37331389985047,77.87513439985923,77.37331389985047,77.87513439985923,77.13982409983873,None,77.87513439985923,79.20941989985295,0.25,79.22684659995139,None,79.97786380001344,None,,,,,,,[1.33333333],6.000000000000005,1.0,11037,002,2024_Mar_11_1905,MFTM_A_new1021,2021.2.3,59.9071439172872,
,,,,,,,,stim/Instruction_adaptive.png,conditions/adaptive.xlsx,test,-0.6,-0.6,-0.6,0.6,0.6,left,L,,,,,0,1,1,1,0,3,3,53,,,,,,,,,,,,,,,,,,,,,,,,,,,,,,,,,,,,,,,,,,,,80.47840549983084,None,left,1,1.4463477998506278,80.97856560000218,81.73025519982912,80.97856560000218,81.22907899995334,80.97856560000218,81.22907899995334,80.97856560000218,81.22907899995334,80.97856560000218,81.22907899995334,80.97856560000218,81.22907899995334,81.2124499999918,81.7133409997914,81.2124499999918,81.7133409997914,81.2124499999918,81.7133409997914,81.2124499999918,81.7133409997914,81.2124499999918,81.7133409997914,81.2124499999918,81.7133409997914,81.2124499999918,81.7133409997914,81.2124499999918,81.7133409997914,80.97856560000218,None,81.7133409997914,83.28303939988837,0.25,83.29967430001125,None,84.05093869986013,None,,,,,,,[1.5625],6.000000000000005,1.0,11037,002,2024_Mar_11_1905,MFTM_A_new1021,2021.2.3,59.9071439172872,
,,,,,,,,stim/Instruction_adaptive.png,conditions/adaptive.xlsx,test,0.6,0.6,0.6,-0.6,-0.6,right,R,,,,,0,1,1,1,0,4,4,40,,,,,,,,,,,,,,,,,,,,,,,,,,,,,,,,,,,,,,,,,,,,84.55161649989896,None,right,1,1.0452630000654608,85.0515671998728,85.8026170998346,85.0515671998728,85.30198729992844,85.0515671998728,85.30198729992844,85.0515671998728,85.30198729992844,85.0515671998728,85.30198729992844,85.0515671998728,85.30198729992844,85.28523509996012,85.7864808999002,85.28523509996012,85.7864808999002,85.28523509996012,85.7864808999002,85.28523509996012,85.7864808999002,85.28523509996012,85.7864808999002,85.28523509996012,85.7864808999002,85.28523509996012,85.7864808999002,85.28523509996012,85.7864808999002,85.0515671998728,None,85.7864808999002,87.48871359997429,0.25,87.50538029987365,None,88.25736009981483,None,,,,,,,[1.7],6.000000000000005,1.0,11037,002,2024_Mar_11_1905,MFTM_A_new1021,2021.2.3,59.9071439172872,
,,,,,,,,stim/Instruction_adaptive.png,conditions/adaptive.xlsx,test,0.6,0.6,0.6,-0.6,-0.6,right,R,,,,,0,1,1,1,0,5,5,54,,,,,,,,,,,,,,,,,,,,,,,,,,,,,,,,,,,,,,,,,,,,88.7588408999145,None,right,1,1.1508392998948693,89.25840689986944,90.00903650000691,89.25840689986944,89.50930779986084,89.25840689986944,89.50930779986084,89.25840689986944,89.50930779986084,89.25840689986944,89.50930779986084,89.25840689986944,89.50930779986084,89.49235860002227,89.99380119983107,89.49235860002227,89.99380119983107,89.49235860002227,89.99380119983107,89.49235860002227,89.99380119983107,89.49235860002227,89.99380119983107,89.49235860002227,89.99380119983107,89.49235860002227,89.99380119983107,89.49235860002227,89.99380119983107,89.25840689986944,None,89.99380119983107,91.7961150999181,0.25,91.81166619993746,None,92.56385589996353,None,,,,,,,[1.79166667],6.000000000000005,1.0,11037,002,2024_Mar_11_1905,MFTM_A_new1021,2021.2.3,59.9071439172872,
,,,,,,,,stim/Instruction_adaptive.png,conditions/adaptive.xlsx,test,0.6,0.6,0.6,-0.6,-0.6,right,R,,,,,0,1,1,1,0,6,6,32,,,,,,,,,,,,,,,,,,,,,,,,,,,,,,,,,,,,,,,,,,,,93.06457559997216,None,left,0,1.3557931000832468,93.56566939991899,94.31659259996377,93.56566939991899,93.81500259996392,93.56566939991899,93.81500259996392,93.56566939991899,93.81500259996392,93.56566939991899,93.81500259996392,93.56566939991899,93.81500259996392,93.79816359980032,94.29883739980869,93.79816359980032,94.29883739980869,93.79816359980032,94.29883739980869,93.79816359980032,94.29883739980869,93.79816359980032,94.29883739980869,93.79816359980032,94.29883739980869,93.79816359980032,94.29883739980869,93.79816359980032,94.29883739980869,93.56566939991899,None,94.29883739980869,96.16932239988819,0.25,96.18479809979908,None,96.93720999988727,None,,,,,,,[1.85714286],5.380000000000004,0.8571428571428571,11037,002,2024_Mar_11_1905,MFTM_A_new1021,2021.2.3,59.9071439172872,
,,,,,,,,stim/Instruction_adaptive.png,conditions/adaptive.xlsx,test,0.6,0.6,0.6,-0.6,-0.6,right,R,,,,,0,1,1,1,0,7,7,84,,,,,,,,,,,,,,,,,,,,,,,,,,,,,,,,,,,,,,,,,,,,97.43708289996721,None,left,0,1.3509333999827504,97.93827609997243,98.68968349997886,97.93827609997243,98.18961439980194,97.93827609997243,98.18961439980194,97.93827609997243,98.18961439980194,97.93827609997243,98.18961439980194,97.93827609997243,98.18961439980194,98.17133759986609,98.67286249995232,98.17133759986609,98.67286249995232,98.17133759986609,98.67286249995232,98.17133759986609,98.67286249995232,98.17133759986609,98.67286249995232,98.17133759986609,98.67286249995232,98.17133759986609,98.67286249995232,98.17133759986609,98.67286249995232,97.93827609997243,None,98.67286249995232,100.59275439986959,0.25,100.60852469992824,None,101.36064899992198,None,,,,,,,[1.90625],4.4200000000000035,0.75,11037,002,2024_Mar_11_1905,MFTM_A_new1021,2021.2.3,59.9071439172872,
,,,,,,,,stim/Instruction_adaptive.png,conditions/adaptive.xlsx,test,0.6,0.6,0.6,-0.6,-0.6,right,R,,,,,0,1,1,1,0,8,8,24,,,,,,,,,,,,,,,,,,,,,,,,,,,,,,,,,,,,,,,,,,,,101.86009129998274,None,right,1,0.9600086999125779,102.36110159987584,103.18045559991151,102.36110159987584,102.67885539983399,102.36110159987584,102.67885539983399,102.36110159987584,102.67885539983399,102.36110159987584,102.67885539983399,102.36110159987584,102.67885539983399,102.64494479983114,103.14538070000708,102.64494479983114,103.14538070000708,102.64494479983114,103.14538070000708,102.64494479983114,103.14538070000708,102.64494479983114,103.14538070000708,102.64494479983114,103.14538070000708,102.64494479983114,103.14538070000708,102.64494479983114,103.14538070000708,102.36110159987584,None,103.16284349979833,None,0.31000000000000005,105.1149732999038,None,105.86743199988268,None,,,,,,,[1.93777778],4.720000000000004,0.7777777777777778,11037,002,2024_Mar_11_1905,MFTM_A_new1021,2021.2.3,59.9071439172872,
,,,,,,,,stim/Instruction_adaptive.png,conditions/adaptive.xlsx,test,0.6,0.6,0.6,-0.6,-0.6,right,R,,,,,0,1,1,1,0,9,9,30,,,,,,,,,,,,,,,,,,,,,,,,,,,,,,,,,,,,,,,,,,,,106.36769079999067,None,right,1,2.2618152999784797,106.8678091999609,107.61967729986645,106.8678091999609,107.11867220001295,106.8678091999609,107.11867220001295,106.8678091999609,107.11867220001295,106.8678091999609,107.11867220001295,106.8678091999609,107.11867220001295,107.10217039985582,107.60348349995911,107.10217039985582,107.60348349995911,107.10217039985582,107.60348349995911,107.10217039985582,107.60348349995911,107.10217039985582,107.60348349995911,107.10217039985582,107.60348349995911,107.10217039985582,107.60348349995911,107.10217039985582,107.60348349995911,106.8678091999609,None,107.60348349995911,109.57274179998785,0.25,109.58889839984477,None,110.34079709998332,None,,,,,,,[1.969],4.940000000000004,0.8,11037,002,2024_Mar_11_1905,MFTM_A_new1021,2021.2.3,59.9071439172872,
,,,,,,,,stim/Instruction_adaptive.png,conditions/adaptive.xlsx,test,0.6,0.6,0.6,-0.6,-0.6,right,R,,,,,0,1,1,1,0,10,10,66,,,,,,,,,,,,,,,,,,,,,,,,,,,,,,,,,,,,,,,,,,,,110.84178059990518,None,right,1,1.3477951001841575,111.34190379991196,112.09231999982148,111.34190379991196,111.59271029988304,111.34190379991196,111.59271029988304,111.34190379991196,111.59271029988304,111.34190379991196,111.59271029988304,111.34190379991196,111.59271029988304,111.57598829991184,112.07562759984285,111.57598829991184,112.07562759984285,111.57598829991184,112.07562759984285,111.57598829991184,112.07562759984285,111.57598829991184,112.07562759984285,111.57598829991184,112.07562759984285,111.57598829991184,112.07562759984285,111.57598829991184,112.07562759984285,111.34190379991196,None,112.07562759984285,114.07933379989117,0.25,114.09544629999436,None,114.84724709996954,None,,,,,,,[1.99454545],5.110000000000004,0.8181818181818182,11037,002,2024_Mar_11_1905,MFTM_A_new1021,2021.2.3,59.9071439172872,
,,,,,,,,stim/Instruction_adaptive.png,conditions/adaptive.xlsx,test,0.6,0.6,0.6,-0.6,-0.6,right,R,,,,,0,1,1,1,0,11,11,78,,,,,,,,,,,,,,,,,,,,,,,,,,,,,,,,,,,,,,,,,,,,115.34721699985676,None,right,1,2.5380011000670493,115.84806229989044,116.59907929995097,115.84806229989044,116.09886829997413,115.84806229989044,116.09886829997413,115.84806229989044,116.09886829997413,115.84806229989044,116.09886829997413,115.84806229989044,116.09886829997413,116.0825773999095,116.58233359991573,116.0825773999095,116.58233359991573,116.0825773999095,116.58233359991573,116.0825773999095,116.58233359991573,116.0825773999095,116.58233359991573,116.0825773999095,116.58233359991573,116.0825773999095,116.58233359991573,116.0825773999095,116.58233359991573,115.84806229989044,None,116.58233359991573,118.60326829995029,0.25,118.61885049985722,None,119.36998680001125,None,,,,,,,[2.01583333],5.250000000000004,0.8333333333333334,11037,002,2024_Mar_11_1905,MFTM_A_new1021,2021.2.3,59.9071439172872,
,,,,,,,,stim/Instruction_adaptive.png,conditions/adaptive.xlsx,test,0.6,0.6,0.6,-0.6,-0.6,right,R,,,,,0,1,1,1,0,12,12,76,,,,,,,,,,,,,,,,,,,,,,,,,,,,,,,,,,,,,,,,,,,,119.87175609986298,None,left,0,1.918945600045845,120.3715468000155,121.12299750000238,120.3715468000155,120.62198819988407,120.3715468000155,120.62198819988407,120.3715468000155,120.62198819988407,120.3715468000155,120.62198819988407,120.3715468000155,120.62198819988407,120.60633370000869,121.10672779986635,120.60633370000869,121.10672779986635,120.60633370000869,121.10672779986635,120.60633370000869,121.10672779986635,120.60633370000869,121.10672779986635,120.60633370000869,121.10672779986635,120.60633370000869,121.10672779986635,120.60633370000869,121.10672779986635,120.3715468000155,None,121.10672779986635,123.14233059994876,0.25,123.15898529998958,None,123.91013609990478,None,,,,,,,[2.03384615],4.720000000000004,0.7692307692307693,11037,002,2024_Mar_11_1905,MFTM_A_new1021,2021.2.3,59.9071439172872,
,,,,,,,,stim/Instruction_adaptive.png,conditions/adaptive.xlsx,test,-0.6,-0.6,-0.6,0.6,0.6,left,L,,,,,0,1,1,1,0,13,13,41,,,,,,,,,,,,,,,,,,,,,,,,,,,,,,,,,,,,,,,,,,,,124.41162819997407,None,left,1,2.0185962000396103,124.91173479985446,125.66376379993744,124.91173479985446,125.16204159986228,124.91173479985446,125.16204159986228,124.91173479985446,125.16204159986228,124.91173479985446,125.16204159986228,124.91173479985446,125.16204159986228,125.1462395999115,125.64722629985772,125.1462395999115,125.64722629985772,125.1462395999115,125.64722629985772,125.1462395999115,125.64722629985772,125.1462395999115,125.64722629985772,125.1462395999115,125.64722629985772,125.1462395999115,125.64722629985772,125.1462395999115,125.64722629985772,124.91173479985446,None,125.64722629985772,127.70004869997501,0.25,127.7157093998976,None,128.46825669985265,None,,,,,,,[2.04928571],4.870000000000004,0.7857142857142857,11037,002,2024_Mar_11_1905,MFTM_A_new1021,2021.2.3,59.9071439172872,
,,,,,,,,stim/Instruction_adaptive.png,conditions/adaptive.xlsx,test,-0.6,-0.6,-0.6,0.6,0.6,left,L,,,,,0,1,1,1,0,14,14,43,,,,,,,,,,,,,,,,,,,,,,,,,,,,,,,,,,,,,,,,,,,,128.96851569996215,None,left,1,1.901819600025192,129.46858039987274,130.21983019984327,129.46858039987274,129.71958239981905,129.46858039987274,129.71958239981905,129.46858039987274,129.71958239981905,129.46858039987274,129.71958239981905,129.46858039987274,129.71958239981905,129.70371949998662,130.20332129998133,129.70371949998662,130.20332129998133,129.70371949998662,130.20332129998133,129.70371949998662,130.20332129998133,129.70371949998662,130.20332129998133,129.70371949998662,130.20332129998133,129.70371949998662,130.20332129998133,129.70371949998662,130.20332129998133,129.46858039987274,None,130.20332129998133,132.2730379998684,0.25,132.28938119998202,None,133.04184309998527,None,,,,,,,[2.06266667],5.0000000000000036,0.8,11037,002,2024_Mar_11_1905,MFTM_A_new1021,2021.2.3,59.9071439172872,
,,,,,,,,stim/Instruction_adaptive.png,conditions/adaptive.xlsx,test,0.6,0.6,0.6,-0.6,-0.6,right,R,,,,,0,1,1,1,0,15,15,92,,,,,,,,,,,,,,,,,,,,,,,,,,,,,,,,,,,,,,,,,,,,133.54234199994244,None,left,0,2.0241155999246985,134.04214369994588,134.79325929982588,134.04214369994588,134.29314209986478,134.04214369994588,134.29314209986478,134.04214369994588,134.29314209986478,134.04214369994588,134.29314209986478,134.04214369994588,134.29314209986478,134.27642239979468,134.77707999991253,134.27642239979468,134.77707999991253,134.27642239979468,134.77707999991253,134.27642239979468,134.77707999991253,134.27642239979468,134.77707999991253,134.27642239979468,134.77707999991253,134.27642239979468,134.77707999991253,134.27642239979468,134.77707999991253,134.04214369994588,None,134.77707999991253,136.86373079987243,0.25,136.87952049984597,None,137.6322308999952,None,,,,,,,[2.074375],4.580000000000004,0.75,11037,002,2024_Mar_11_1905,MFTM_A_new1021,2021.2.3,59.9071439172872,
,,,,,,,,stim/Instruction_adaptive.png,conditions/adaptive.xlsx,test,0.6,0.6,0.6,-0.6,-0.6,right,R,,,,,0,1,1,1,0,16,16,86,,,,,,,,,,,,,,,,,,,,,,,,,,,,,,,,,,,,,,,,,,,,138.13246999983676,None,left,0,2.2020737000275403,138.632325100014,139.41792479995638,138.632325100014,138.91631100000814,138.632325100014,138.91631100000814,138.632325100014,138.91631100000814,138.632325100014,138.91631100000814,138.632325100014,138.91631100000814,138.89944999990985,139.40089649986476,138.89944999990985,139.40089649986476,138.89944999990985,139.40089649986476,138.89944999990985,139.40089649986476,138.89944999990985,139.40089649986476,138.89944999990985,139.40089649986476,138.89944999990985,139.40089649986476,138.89944999990985,139.40089649986476,138.632325100014,None,139.40089649986476,141.4876428998541,0.28,141.50332809984684,None,142.2550991999451,None,,,,,,,[2.08294118],4.1300000000000034,0.7058823529411765,11037,002,2024_Mar_11_1905,MFTM_A_new1021,2021.2.3,59.9071439172872,
,,,,,,,,stim/Instruction_adaptive.png,conditions/adaptive.xlsx,test,-0.6,-0.6,-0.6,0.6,0.6,left,L,,,,,0,1,1,1,0,17,17,5,,,,,,,,,,,,,,,,,,,,,,,,,,,,,,,,,,,,,,,,,,,,142.75615969998762,None,right,0,2.186669399961829,143.25599959981628,144.14133629994467,143.25599959981628,143.64020469994284,143.25599959981628,143.64020469994284,143.25599959981628,143.64020469994284,143.25599959981628,143.64020469994284,143.25599959981628,143.64020469994284,143.62324879993685,144.12474190001376,143.62324879993685,144.12474190001376,143.62324879993685,144.12474190001376,143.62324879993685,144.12474190001376,143.62324879993685,144.12474190001376,143.62324879993685,144.12474190001376,143.62324879993685,144.12474190001376,143.62324879993685,144.12474190001376,143.25599959981628,None,144.12474190001376,146.21073299995624,0.3800000000000001,146.2282300000079,None,146.97908760001883,None,,,,,,,[2.085],3.530000000000003,0.6666666666666666,11037,002,2024_Mar_11_1905,MFTM_A_new1021,2021.2.3,59.9071439172872,
,,,,,,,,stim/Instruction_adaptive.png,conditions/adaptive.xlsx,test,0.6,0.6,0.6,-0.6,-0.6,right,R,,,,,0,1,1,1,0,18,18,34,,,,,,,,,,,,,,,,,,,,,,,,,,,,,,,,,,,,,,,,,,,,147.47951699979603,None,left,0,2.7195896999910474,147.97981039993465,149.0654387997929,147.97981039993465,148.56405939999968,147.97981039993465,148.56405939999968,147.97981039993465,148.56405939999968,147.97981039993465,148.56405939999968,147.97981039993465,148.56405939999968,148.53090090001933,149.0313008998055,148.53090090001933,149.0313008998055,148.53090090001933,149.0313008998055,148.53090090001933,149.0313008998055,148.53090090001933,149.0313008998055,148.53090090001933,149.0313008998055,148.53090090001933,149.0313008998055,148.53090090001933,149.0313008998055,147.97981039993465,None,149.0313008998055,150.9684860999696,0.5700000000000003,150.9844217998907,None,151.7363999998197,None,,,,,,,[[1.93]],2.7100000000000017,0.631578947368421,11037,002,2024_Mar_11_1905,MFTM_A_new1021,2021.2.3,59.9071439172872,
,,,,,,,,stim/Instruction_adaptive.png,conditions/adaptive.xlsx,test,0.6,0.6,0.6,-0.6,-0.6,right,R,,,,,0,1,1,1,0,19,19,18,,,,,,,,,,,,,,,,,,,,,,,,,,,,,,,,,,,,,,,,,,,,152.23621949995868,None,right,1,2.8735297000966966,152.7369823998306,154.25777819985524,152.7369823998306,153.75508309993893,152.7369823998306,153.75508309993893,152.7369823998306,153.75508309993893,152.7369823998306,153.75508309993893,152.7369823998306,153.75508309993893,153.738447799813,154.2393419998698,153.738447799813,154.2393419998698,153.738447799813,154.2393419998698,153.738447799813,154.2393419998698,153.738447799813,154.2393419998698,153.738447799813,154.2393419998698,153.738447799813,154.2393419998698,153.738447799813,154.2393419998698,152.7369823998306,None,154.2393419998698,None,1.0100000000000007,155.7409442998469,None,156.49286170001142,None,,,,,,,[[1.49]],3.070000000000002,0.65,11037,002,2024_Mar_11_1905,MFTM_A_new1021,2021.2.3,59.9071439172872,
,,,,,,,,stim/Instruction_adaptive.png,conditions/adaptive.xlsx,test,0.6,0.6,0.6,-0.6,-0.6,right,R,,,,,0,1,1,1,0,20,20,6,,,,,,,,,,,,,,,,,,,,,,,,,,,,,,,,,,,,,,,,,,,,156.993433999829,None,right,1,2.348902399884537,157.4942564999219,158.7809844999574,157.4942564999219,158.27873389981687,157.4942564999219,158.27873389981687,157.4942564999219,158.27873389981687,157.4942564999219,158.27873389981687,157.4942564999219,158.27873389981687,158.26187019981444,158.76373979984783,158.26187019981444,158.76373979984783,158.26187019981444,158.76373979984783,158.26187019981444,158.76373979984783,158.26187019981444,158.76373979984783,158.26187019981444,158.76373979984783,158.26187019981444,158.76373979984783,158.26187019981444,158.76373979984783,157.4942564999219,None,158.76373979984783,None,0.7800000000000005,160.49921389995143,None,161.2505145999603,None,,,,,,,[[1.72]],3.3200000000000025,0.6666666666666666,11037,002,2024_Mar_11_1905,MFTM_A_new1021,2021.2.3,59.9071439172872,
,,,,,,,,stim/Instruction_adaptive.png,conditions/adaptive.xlsx,test,-0.6,-0.6,-0.6,0.6,0.6,left,L,,,,,0,1,1,1,0,21,21,95,,,,,,,,,,,,,,,,,,,,,,,,,,,,,,,,,,,,,,,,,,,,161.7513160998933,None,left,1,1.3593462000135332,162.2517564999871,163.42045029997826,162.2517564999871,162.9199124998413,162.2517564999871,162.9199124998413,162.2517564999871,162.9199124998413,162.2517564999871,162.9199124998413,162.2517564999871,162.9199124998413,162.88675269996747,163.38633279991336,162.88675269996747,163.38633279991336,162.88675269996747,163.38633279991336,162.88675269996747,163.38633279991336,162.88675269996747,163.38633279991336,162.88675269996747,163.38633279991336,162.88675269996747,163.38633279991336,162.88675269996747,163.38633279991336,162.2517564999871,None,163.38633279991336,165.2397096999921,0.6600000000000004,165.2558929999359,None,166.00782739999704,None,,,,,,,[[1.84]],3.5100000000000025,0.6818181818181818,11037,002,2024_Mar_11_1905,MFTM_A_new1021,2021.2.3,59.9071439172872,
,,,,,,,,stim/Instruction_adaptive.png,conditions/adaptive.xlsx,test,-0.6,-0.6,-0.6,0.6,0.6,left,L,,,,,0,1,1,1,0,22,22,23,,,,,,,,,,,,,,,,,,,,,,,,,,,,,,,,,,,,,,,,,,,,166.5077575999312,None,left,1,2.226227300008759,167.0087468000129,168.0938857998699,167.0087468000129,167.59406529995613,167.0087468000129,167.59406529995613,167.0087468000129,167.59406529995613,167.0087468000129,167.59406529995613,167.0087468000129,167.59406529995613,167.57605249993503,168.07790429983288,167.57605249993503,168.07790429983288,167.57605249993503,168.07790429983288,167.57605249993503,168.07790429983288,167.57605249993503,168.07790429983288,167.57605249993503,168.07790429983288,167.57605249993503,168.07790429983288,167.57605249993503,168.07790429983288,167.0087468000129,None,168.07790429983288,None,0.5800000000000003,170.01332129980437,None,170.7647196999751,None,,,,,,,[[1.92]],3.6700000000000026,0.6956521739130435,11037,002,2024_Mar_11_1905,MFTM_A_new1021,2021.2.3,59.9071439172872,
,,,,,,,,stim/Instruction_adaptive.png,conditions/adaptive.xlsx,test,-0.6,-0.6,-0.6,0.6,0.6,left,L,,,,,0,1,1,1,0,23,23,93,,,,,,,,,,,,,,,,,,,,,,,,,,,,,,,,,,,,,,,,,,,,171.2654926998075,None,left,1,1.6221340000629425,171.76559540000744,172.80128829996102,171.76559540000744,172.29968449985608,171.76559540000744,172.29968449985608,171.76559540000744,172.29968449985608,171.76559540000744,172.29968449985608,171.76559540000744,172.29968449985608,172.2664235997945,172.76784779992886,172.2664235997945,172.76784779992886,172.2664235997945,172.76784779992886,172.2664235997945,172.76784779992886,172.2664235997945,172.76784779992886,172.2664235997945,172.76784779992886,172.2664235997945,172.76784779992886,172.2664235997945,172.76784779992886,171.76559540000744,None,172.76784779992886,174.75434869993478,0.5200000000000002,174.771050499985,None,175.52202229993418,None,,,,,,,[[1.98]],3.800000000000003,0.7083333333333334,11037,002,2024_Mar_11_1905,MFTM_A_new1021,2021.2.3,59.9071439172872,
,,,,,,,,stim/Instruction_adaptive.png,conditions/adaptive.xlsx,test,0.6,0.6,0.6,-0.6,-0.6,right,R,,,,,0,1,1,1,0,24,24,8,,,,,,,,,,,,,,,,,,,,,,,,,,,,,,,,,,,,,,,,,,,,176.02228579996154,None,right,1,2.3692393999081105,176.5227445999626,177.50810799980536,176.5227445999626,177.0073200999759,176.5227445999626,177.0073200999759,176.5227445999626,177.0073200999759,176.5227445999626,177.0073200999759,176.5227445999626,177.0073200999759,176.97419889993034,177.4743490999099,176.97419889993034,177.4743490999099,176.97419889993034,177.4743490999099,176.97419889993034,177.4743490999099,176.97419889993034,177.4743490999099,176.97419889993034,177.4743490999099,176.97419889993034,177.4743490999099,176.97419889993034,177.4743490999099,176.5227445999626,None,177.4743490999099,179.49565769988112,0.4700000000000002,179.51191090000793,None,180.26237959996797,None,,,,,,,[2.0176],3.920000000000003,0.72,11037,002,2024_Mar_11_1905,MFTM_A_new1021,2021.2.3,59.9071439172872,
,,,,,,,,stim/Instruction_adaptive.png,conditions/adaptive.xlsx,test,-0.6,-0.6,-0.6,0.6,0.6,left,L,,,,,0,1,1,1,0,25,25,79,,,,,,,,,,,,,,,,,,,,,,,,,,,,,,,,,,,,,,,,,,,,180.76271219993941,None,left,1,1.300656900042668,181.26312629994936,182.1979643998202,181.26312629994936,181.69770909985527,181.26312629994936,181.69770909985527,181.26312629994936,181.69770909985527,181.26312629994936,181.69770909985527,181.26312629994936,181.69770909985527,181.68077139998786,182.18129360000603,181.68077139998786,182.18129360000603,181.68077139998786,182.18129360000603,181.68077139998786,182.18129360000603,181.68077139998786,182.18129360000603,181.68077139998786,182.18129360000603,181.68077139998786,182.18129360000603,181.68077139998786,182.18129360000603,181.26312629994936,None,182.18129360000603,184.201953999931,0.43000000000000016,184.21754209999926,None,184.96923849987797,None,,,,,,,[2.01961538],4.020000000000003,0.7307692307692307,11037,002,2024_Mar_11_1905,MFTM_A_new1021,2021.2.3,59.9071439172872,
,,,,,,,,stim/Instruction_adaptive.png,conditions/adaptive.xlsx,test,-0.6,-0.6,-0.6,0.6,0.6,left,L,,,,,0,1,1,1,0,26,26,45,,,,,,,,,,,,,,,,,,,,,,,,,,,,,,,,,,,,,,,,,,,,185.47095639980398,None,right,0,2.0890920001547784,185.97037739981897,186.88850669981912,185.97037739981897,186.38788259983994,185.97037739981897,186.38788259983994,185.97037739981897,186.38788259983994,185.97037739981897,186.38788259983994,185.97037739981897,186.38788259983994,186.3710993998684,186.87170579982921,186.3710993998684,186.87170579982921,186.3710993998684,186.87170579982921,186.3710993998684,186.87170579982921,186.3710993998684,186.87170579982921,186.3710993998684,186.87170579982921,186.3710993998684,186.87170579982921,186.3710993998684,186.87170579982921,185.97037739981897,None,186.87170579982921,None,0.41000000000000014,188.90834559989162,None,189.65993550000712,None,,,,,,,[2.02222222],3.740000000000003,0.7037037037037037,11037,002,2024_Mar_11_1905,MFTM_A_new1021,2021.2.3,59.9071439172872,
,,,,,,,,stim/Instruction_adaptive.png,conditions/adaptive.xlsx,test,0.6,0.6,0.6,-0.6,-0.6,right,R,,,,,0,1,1,1,0,27,27,28,,,,,,,,,,,,,,,,,,,,,,,,,,,,,,,,,,,,,,,,,,,,190.16137459990568,None,right,1,2.4792490999680012,190.6609807999339,191.66240779985674,190.6609807999339,191.16212649992667,190.6609807999339,191.16212649992667,190.6609807999339,191.16212649992667,190.6609807999339,191.16212649992667,190.6609807999339,191.16212649992667,191.12813019985333,191.62903339997865,191.12813019985333,191.62903339997865,191.12813019985333,191.62903339997865,191.12813019985333,191.62903339997865,191.12813019985333,191.62903339997865,191.12813019985333,191.62903339997865,191.12813019985333,191.62903339997865,191.12813019985333,191.62903339997865,190.6609807999339,None,191.62903339997865,193.6497276998125,0.4900000000000002,193.66514089982957,None,194.41645139991306,None,,,,,,,[[2.01]],3.840000000000003,0.7142857142857143,11037,002,2024_Mar_11_1905,MFTM_A_new1021,2021.2.3,59.9071439172872,
,,,,,,,,stim/Instruction_adaptive.png,conditions/adaptive.xlsx,test,-0.6,-0.6,-0.6,0.6,0.6,left,L,,,,,0,1,1,1,0,28,28,73,,,,,,,,,,,,,,,,,,,,,,,,,,,,,,,,,,,,,,,,,,,,194.91728479997255,None,right,0,2.896922699874267,195.41901129996404,196.38705259980634,195.41901129996404,195.88637649989687,195.41901129996404,195.88637649989687,195.41901129996404,195.88637649989687,195.41901129996404,195.88637649989687,195.41901129996404,195.88637649989687,195.86870019999333,196.36958729987964,195.86870019999333,196.36958729987964,195.86870019999333,196.36958729987964,195.86870019999333,196.36958729987964,195.86870019999333,196.36958729987964,195.86870019999333,196.36958729987964,195.86870019999333,196.36958729987964,195.86870019999333,196.36958729987964,195.41901129996404,None,196.35370809980668,198.3903387999162,0.4600000000000002,198.42256889981218,None,199.1751149999909,None,,,,,,,[2.02241379],3.5600000000000027,0.6896551724137931,11037,002,2024_Mar_11_1905,MFTM_A_new1021,2021.2.3,59.9071439172872,
,,,,,,,,stim/Instruction_adaptive.png,conditions/adaptive.xlsx,test,0.6,0.6,0.6,-0.6,-0.6,right,R,,,,,0,1,1,1,0,29,29,56,,,,,,,,,,,,,,,,,,,,,,,,,,,,,,,,,,,,,,,,,,,,199.67684219987132,None,right,1,2.2206073000561446,200.17598990001716,201.2435020999983,200.17598990001716,200.74273709999397,200.17598990001716,200.74273709999397,200.17598990001716,200.74273709999397,200.17598990001716,200.74273709999397,200.17598990001716,200.74273709999397,200.70918729994446,201.21075289999135,200.70918729994446,201.21075289999135,200.70918729994446,201.21075289999135,200.70918729994446,201.21075289999135,200.70918729994446,201.21075289999135,200.70918729994446,201.21075289999135,200.70918729994446,201.21075289999135,200.70918729994446,201.21075289999135,200.17598990001716,None,201.21075289999135,203.16382199991494,0.5600000000000003,203.17914379993454,None,203.93109379988164,None,,,,,,,[[1.94]],3.660000000000003,0.7,11037,002,2024_Mar_11_1905,MFTM_A_new1021,2021.2.3,59.9071439172872,
,,,,,,,,stim/Instruction_adaptive.png,conditions/adaptive.xlsx,test,0.6,0.6,0.6,-0.6,-0.6,right,R,,,,,0,1,1,1,0,30,30,82,,,,,,,,,,,,,,,,,,,,,,,,,,,,,,,,,,,,,,,,,,,,204.4326614998281,None,right,1,2.4549807999283075,204.93308179988526,205.96719200001098,204.93308179988526,205.46752980002202,204.93308179988526,205.46752980002202,204.93308179988526,205.46752980002202,204.93308179988526,205.46752980002202,204.93308179988526,205.46752980002202,205.43312769988552,205.9338339997921,205.43312769988552,205.9338339997921,205.43312769988552,205.9338339997921,205.43312769988552,205.9338339997921,205.43312769988552,205.9338339997921,205.43312769988552,205.9338339997921,205.43312769988552,205.9338339997921,205.43312769988552,205.9338339997921,204.93308179988526,None,205.9338339997921,207.9209196998272,0.5200000000000002,207.9369057000149,None,208.68865979998372,None,,,,,,,[[1.98]],3.760000000000003,0.7096774193548387,11037,002,2024_Mar_11_1905,MFTM_A_new1021,2021.2.3,59.9071439172872,
,,,,,,,,stim/Instruction_adaptive.png,conditions/adaptive.xlsx,test,-0.6,-0.6,-0.6,0.6,0.6,left,L,,,,,0,1,1,1,0,31,31,7,,,,,,,,,,,,,,,,,,,,,,,,,,,,,,,,,,,,,,,,,,,,209.1888111999724,None,right,0,2.6259007998742163,209.69036219990812,210.69209459982812,209.69036219990812,210.19031699979678,209.69036219990812,210.19031699979678,209.69036219990812,210.19031699979678,209.69036219990812,210.19031699979678,209.69036219990812,210.19031699979678,210.1568550998345,210.65770899993367,210.1568550998345,210.65770899993367,210.1568550998345,210.65770899993367,210.1568550998345,210.65770899993367,210.1568550998345,210.65770899993367,210.1568550998345,210.65770899993367,210.1568550998345,210.65770899993367,210.1568550998345,210.65770899993367,209.69036219990812,None,210.65770899993367,212.67730039986782,0.4900000000000002,212.69399569998495,None,213.44441789994016,None,,,,,,,[[2.01]],3.490000000000003,0.6875,11037,002,2024_Mar_11_1905,MFTM_A_new1021,2021.2.3,59.9071439172872,
,,,,,,,,stim/Instruction_adaptive.png,conditions/adaptive.xlsx,test,-0.6,-0.6,-0.6,0.6,0.6,left,L,,,,,0,1,1,1,0,32,32,99,,,,,,,,,,,,,,,,,,,,,,,,,,,,,,,,,,,,,,,,,,,,213.9459545998834,None,right,0,2.8373875999823213,214.44704109989107,215.54922369983979,214.44704109989107,215.0489154998213,214.44704109989107,215.0489154998213,214.44704109989107,215.0489154998213,214.44704109989107,215.0489154998213,214.44704109989107,215.0489154998213,215.01477459981106,215.51589469984174,215.01477459981106,215.51589469984174,215.01477459981106,215.51589469984174,215.01477459981106,215.51589469984174,215.01477459981106,215.51589469984174,215.01477459981106,215.51589469984174,215.01477459981106,215.51589469984174,215.01477459981106,215.51589469984174,214.44704109989107,None,215.51589469984174,217.43457389995456,0.5900000000000003,217.45135440002196,None,218.20360709982924,None,,,,,,,[[1.91]],3.190000000000002,0.6666666666666666,11037,002,2024_Mar_11_1905,MFTM_A_new1021,2021.2.3,59.9071439172872,
,,,,,,,,stim/Instruction_adaptive.png,conditions/adaptive.xlsx,test,0.6,0.6,0.6,-0.6,-0.6,right,R,,,,,0,1,1,1,0,33,33,62,,,,,,,,,,,,,,,,,,,,,,,,,,,,,,,,,,,,,,,,,,,,218.7040051999502,None,right,1,2.8001675999257714,219.20466159982607,220.42317009996623,219.20466159982607,219.9393469998613,219.20466159982607,219.9393469998613,219.20466159982607,219.9393469998613,219.20466159982607,219.9393469998613,219.20466159982607,219.9393469998613,219.9050103998743,220.40703070000745,219.9050103998743,220.40703070000745,219.9050103998743,220.40703070000745,219.9050103998743,220.40703070000745,219.9050103998743,220.40703070000745,219.9050103998743,220.40703070000745,219.9050103998743,220.40703070000745,219.9050103998743,220.40703070000745,219.20466159982607,None,220.40703070000745,222.19266279996373,0.7200000000000004,222.20828279992566,None,222.96067189984024,None,,,,,,,[[1.78]],3.3000000000000025,0.6764705882352942,11037,002,2024_Mar_11_1905,MFTM_A_new1021,2021.2.3,59.9071439172872,
,,,,,,,,stim/Instruction_adaptive.png,conditions/adaptive.xlsx,test,-0.6,-0.6,-0.6,0.6,0.6,left,L,,,,,0,1,1,1,0,34,34,83,,,,,,,,,,,,,,,,,,,,,,,,,,,,,,,,,,,,,,,,,,,,223.46095669991337,None,right,0,2.0517533998936415,223.96107729990035,225.14625320001505,223.96107729990035,224.64567160001025,223.96107729990035,224.64567160001025,223.96107729990035,224.64567160001025,223.96107729990035,224.64567160001025,223.96107729990035,224.64567160001025,224.61208579991944,225.1127197998576,224.61208579991944,225.1127197998576,224.61208579991944,225.1127197998576,224.61208579991944,225.1127197998576,224.61208579991944,225.1127197998576,224.61208579991944,225.1127197998576,224.61208579991944,225.1127197998576,224.61208579991944,225.1127197998576,223.96107729990035,None,225.1127197998576,226.94866519980133,0.6700000000000004,226.96539749996737,None,227.71766499988735,None,,,,,,,[[1.83]],2.980000000000002,0.6571428571428571,11037,002,2024_Mar_11_1905,MFTM_A_new1021,2021.2.3,59.9071439172872,
,,,,,,,,stim/Instruction_adaptive.png,conditions/adaptive.xlsx,test,-0.6,-0.6,-0.6,0.6,0.6,left,L,,,,,0,1,1,1,0,35,35,27,,,,,,,,,,,,,,,,,,,,,,,,,,,,,,,,,,,,,,,,,,,,228.21836229995824,None,left,1,2.318907900014892,228.71819329983555,230.05348839983344,228.71819329983555,229.5530486998614,228.71819329983555,229.5530486998614,228.71819329983555,229.5530486998614,228.71819329983555,229.5530486998614,228.71819329983555,229.5530486998614,229.53614139999263,230.03722649998963,229.53614139999263,230.03722649998963,229.53614139999263,230.03722649998963,229.53614139999263,230.03722649998963,229.53614139999263,230.03722649998963,229.53614139999263,230.03722649998963,229.53614139999263,230.03722649998963,229.53614139999263,230.03722649998963,228.71819329983555,None,230.03722649998963,231.70696699991822,0.8300000000000005,231.72261519986205,None,232.4738113998901,None,,,,,,,[[1.67]],3.110000000000002,0.6666666666666666,11037,002,2024_Mar_11_1905,MFTM_A_new1021,2021.2.3,59.9071439172872,
,,,,,,,,stim/Instruction_adaptive.png,conditions/adaptive.xlsx,test,-0.6,-0.6,-0.6,0.6,0.6,left,L,,,,,0,1,1,1,0,36,36,3,,,,,,,,,,,,,,,,,,,,,,,,,,,,,,,,,,,,,,,,,,,,232.97549799992703,None,right,0,2.3934358002152294,233.475753699895,234.74397239997052,233.475753699895,234.2433304998558,233.475753699895,234.2433304998558,233.475753699895,234.2433304998558,233.475753699895,234.2433304998558,233.475753699895,234.2433304998558,234.20988540002145,234.71128839999437,234.20988540002145,234.71128839999437,234.20988540002145,234.71128839999437,234.20988540002145,234.71128839999437,234.20988540002145,234.71128839999437,234.20988540002145,234.71128839999437,234.20988540002145,234.71128839999437,234.20988540002145,234.71128839999437,233.475753699895,None,234.71128839999437,236.46323199989274,0.7600000000000005,236.47974979993887,None,237.2320050999988,None,,,,,,,[[1.74]],2.780000000000002,0.6486486486486487,11037,002,2024_Mar_11_1905,MFTM_A_new1021,2021.2.3,59.9071439172872,
,,,,,,,,stim/Instruction_adaptive.png,conditions/adaptive.xlsx,test,0.6,0.6,0.6,-0.6,-0.6,right,R,,,,,0,1,1,1,0,37,37,96,,,,,,,,,,,,,,,,,,,,,,,,,,,,,,,,,,,,,,,,,,,,237.73192419996485,None,left,0,2.6517058999743313,238.2333863999229,239.702480699867,238.2333863999229,239.20076559996232,238.2333863999229,239.20076559996232,238.2333863999229,239.20076559996232,238.2333863999229,239.20076559996232,238.2333863999229,239.20076559996232,239.16809099982493,239.66805949993432,239.16809099982493,239.66805949993432,239.16809099982493,239.66805949993432,239.16809099982493,239.66805949993432,239.16809099982493,239.66805949993432,239.16809099982493,239.66805949993432,239.16809099982493,239.66805949993432,239.16809099982493,239.66805949993432,238.2333863999229,None,239.66805949993432,241.22254769993015,0.9600000000000006,241.237051300006,None,241.98807119997218,None,,,,,,,[[1.54]],2.3600000000000017,0.631578947368421,11037,002,2024_Mar_11_1905,MFTM_A_new1021,2021.2.3,59.9071439172872,
,,,,,,,,stim/Instruction_adaptive.png,conditions/adaptive.xlsx,test,-0.6,-0.6,-0.6,0.6,0.6,left,L,,,,,0,1,1,1,0,38,38,87,,,,,,,,,,,,,,,,,,,,,,,,,,,,,,,,,,,,,,,,,,,,242.48910709982738,None,left,1,2.3919130000285804,242.9896648998838,244.7767643998377,242.9896648998838,244.27512989984825,242.9896648998838,244.27512989984825,242.9896648998838,244.27512989984825,242.9896648998838,244.27512989984825,242.9896648998838,244.27512989984825,244.25827569980174,244.75955929979682,244.25827569980174,244.75955929979682,244.25827569980174,244.75955929979682,244.25827569980174,244.75955929979682,244.25827569980174,244.75955929979682,244.25827569980174,244.75955929979682,244.25827569980174,244.75955929979682,244.25827569980174,244.75955929979682,242.9896648998838,None,244.75955929979682,None,1.280000000000001,245.9943146998994,None,246.74612029991113,None,,,,,,,[[1.22]],2.530000000000002,0.6410256410256411,11037,002,2024_Mar_11_1905,MFTM_A_new1021,2021.2.3,59.9071439172872,
,,,,,,,,stim/Instruction_adaptive.png,conditions/adaptive.xlsx,test,0.6,0.6,0.6,-0.6,-0.6,right,R,,,,,0,1,1,1,0,39,39,50,,,,,,,,,,,,,,,,,,,,,,,,,,,,,,,,,,,,,,,,,,,,247.24689279985614,None,right,1,1.3540610000491142,247.7470379997976,249.40005389996804,247.7470379997976,248.89978239987977,247.7470379997976,248.89978239987977,247.7470379997976,248.89978239987977,247.7470379997976,248.89978239987977,247.7470379997976,248.89978239987977,248.86610859981738,249.36612859996967,248.86610859981738,249.36612859996967,248.86610859981738,249.36612859996967,248.86610859981738,249.36612859996967,248.86610859981738,249.36612859996967,248.86610859981738,249.36612859996967,248.86610859981738,249.36612859996967,248.86610859981738,249.36612859996967,247.7470379997976,None,249.36612859996967,250.73482399992645,1.1400000000000008,250.75147499982268,None,251.50347190001048,None,,,,,,,[[1.36]],2.660000000000002,0.65,11037,002,2024_Mar_11_1905,MFTM_A_new1021,2021.2.3,59.9071439172872,
,,,,,,,,stim/Instruction_adaptive.png,conditions/adaptive.xlsx,test,-0.6,-0.6,-0.6,0.6,0.6,left,L,,,,,0,1,1,1,0,40,40,21,,,,,,,,,,,,,,,,,,,,,,,,,,,,,,,,,,,,,,,,,,,,252.0038443999365,None,left,1,1.5176956001669168,252.50402689981274,254.05647489987314,252.50402689981274,253.55641989992,252.50402689981274,253.55641989992,252.50402689981274,253.55641989992,252.50402689981274,253.55641989992,252.50402689981274,253.55641989992,253.52359150000848,254.02306969999336,253.52359150000848,254.02306969999336,253.52359150000848,254.02306969999336,253.52359150000848,254.02306969999336,253.52359150000848,254.02306969999336,253.52359150000848,254.02306969999336,253.52359150000848,254.02306969999336,253.52359150000848,254.02306969999336,252.50402689981274,None,254.02306969999336,255.4919688999653,1.0400000000000007,255.50867469981313,None,256.25986399990506,None,,,,,,,[[1.46]],2.780000000000002,0.6585365853658537,11037,002,2024_Mar_11_1905,MFTM_A_new1021,2021.2.3,59.9071439172872,
,,,,,,,,stim/Instruction_adaptive.png,conditions/adaptive.xlsx,test,0.6,0.6,0.6,-0.6,-0.6,right,R,,,,,0,1,1,1,0,41,41,0,,,,,,,,,,,,,,,,,,,,,,,,,,,,,,,,,,,,,,,,,,,,256.76049919985235,None,left,0,1.5685760001651943,257.26179339992814,258.73135369992815,257.26179339992814,258.2301607998088,257.26179339992814,258.2301607998088,257.26179339992814,258.2301607998088,257.26179339992814,258.2301607998088,257.26179339992814,258.2301607998088,258.21268499991857,258.71339319995604,258.21268499991857,258.71339319995604,258.21268499991857,258.71339319995604,258.21268499991857,258.71339319995604,258.21268499991857,258.71339319995604,258.21268499991857,258.71339319995604,258.21268499991857,258.71339319995604,258.21268499991857,258.71339319995604,257.26179339992814,None,258.6976675998885,260.249211399816,0.9600000000000006,260.26577129983343,None,261.0175280999392,None,,,,,,,[[1.54]],2.4600000000000017,0.6428571428571429,11037,002,2024_Mar_11_1905,MFTM_A_new1021,2021.2.3,59.9071439172872,
,,,,,,,,stim/Instruction_adaptive.png,conditions/adaptive.xlsx,test,0.6,0.6,0.6,-0.6,-0.6,right,R,,,,,0,1,1,1,0,42,42,20,,,,,,,,,,,,,,,,,,,,,,,,,,,,,,,,,,,,,,,,,,,,261.51837769988924,None,right,1,1.9313433999195695,262.01835019979626,263.7214953999501,262.01835019979626,263.2204042999074,262.01835019979626,263.2204042999074,262.01835019979626,263.2204042999074,262.01835019979626,263.2204042999074,262.01835019979626,263.2204042999074,263.203545599943,263.7054889998399,263.203545599943,263.7054889998399,263.203545599943,263.7054889998399,263.203545599943,263.7054889998399,263.203545599943,263.7054889998399,263.203545599943,263.7054889998399,263.203545599943,263.7054889998399,263.203545599943,263.7054889998399,262.01835019979626,None,263.7054889998399,265.0072488998994,1.2000000000000008,265.02250999980606,None,265.7748793999199,None,,,,,,,[[1.3]],2.580000000000002,0.6511627906976745,11037,002,2024_Mar_11_1905,MFTM_A_new1021,2021.2.3,59.9071439172872,
,,,,,,,,stim/Instruction_adaptive.png,conditions/adaptive.xlsx,test,-0.6,-0.6,-0.6,0.6,0.6,left,L,,,,,0,1,1,1,0,43,43,75,,,,,,,,,,,,,,,,,,,,,,,,,,,,,,,,,,,,,,,,,,,,266.2753592999652,None,left,1,1.2541773999109864,266.7754917999264,268.37824169988744,266.7754917999264,267.8773054999765,266.7754917999264,267.8773054999765,266.7754917999264,267.8773054999765,266.7754917999264,267.8773054999765,266.7754917999264,267.8773054999765,267.86058949981816,268.3613288998604,267.86058949981816,268.3613288998604,267.86058949981816,268.3613288998604,267.86058949981816,268.3613288998604,267.86058949981816,268.3613288998604,267.86058949981816,268.3613288998604,267.86058949981816,268.3613288998604,267.86058949981816,268.3613288998604,266.7754917999264,None,268.3613288998604,269.76347219990566,1.1000000000000008,269.7800875999965,None,270.53157250001095,None,,,,,,,[[1.4]],2.690000000000002,0.6590909090909091,11037,002,2024_Mar_11_1905,MFTM_A_new1021,2021.2.3,59.9071439172872,
,,,,,,,,stim/Instruction_adaptive.png,conditions/adaptive.xlsx,test,0.6,0.6,0.6,-0.6,-0.6,right,R,,,,,0,1,1,1,0,44,44,68,,,,,,,,,,,,,,,,,,,,,,,,,,,,,,,,,,,,,,,,,,,,271.03328189998865,None,right,1,1.8174748001620173,271.53280189982615,273.0684263999574,271.53280189982615,272.5679810999427,271.53280189982615,272.5679810999427,271.53280189982615,272.5679810999427,271.53280189982615,272.5679810999427,271.53280189982615,272.5679810999427,272.5349691999145,273.035042299889,272.5349691999145,273.035042299889,272.5349691999145,273.035042299889,272.5349691999145,273.035042299889,272.5349691999145,273.035042299889,272.5349691999145,273.035042299889,272.5349691999145,273.035042299889,272.5349691999145,273.035042299889,271.53280189982615,None,273.035042299889,274.52184179984033,1.0200000000000007,274.5373447998427,None,275.28828669991344,None,,,,,,,[[1.48]],2.780000000000002,0.6666666666666666,11037,002,2024_Mar_11_1905,MFTM_A_new1021,2021.2.3,59.9071439172872,
,,,,,,,,stim/Instruction_adaptive.png,conditions/adaptive.xlsx,test,0.6,0.6,0.6,-0.6,-0.6,right,R,,,,,0,1,1,1,0,45,45,70,,,,,,,,,,,,,,,,,,,,,,,,,,,,,,,,,,,,,,,,,,,,275.7897902999539,None,right,1,2.219113300088793,276.29141599987634,277.75996239995584,276.29141599987634,277.25803359993733,276.29141599987634,277.25803359993733,276.29141599987634,277.25803359993733,276.29141599987634,277.25803359993733,276.29141599987634,277.25803359993733,277.22460989980027,277.72634449996985,277.22460989980027,277.72634449996985,277.22460989980027,277.72634449996985,277.22460989980027,277.72634449996985,277.22460989980027,277.72634449996985,277.22460989980027,277.72634449996985,277.22460989980027,277.72634449996985,277.22460989980027,277.72634449996985,276.29141599987634,None,277.72634449996985,279.2778872998897,0.9600000000000006,279.29458609991707,None,280.0456560999155,None,,,,,,,[[1.54]],2.860000000000002,0.6739130434782609,11037,002,2024_Mar_11_1905,MFTM_A_new1021,2021.2.3,59.9071439172872,
,,,,,,,,stim/Instruction_adaptive.png,conditions/adaptive.xlsx,test,-0.6,-0.6,-0.6,0.6,0.6,left,L,,,,,0,1,1,1,0,46,46,19,,,,,,,,,,,,,,,,,,,,,,,,,,,,,,,,,,,,,,,,,,,,280.54626380000263,None,left,1,2.6390786999836564,281.0470200998243,282.4665794998873,281.0470200998243,281.9659566998016,281.0470200998243,281.9659566998016,281.0470200998243,281.9659566998016,281.0470200998243,281.9659566998016,281.0470200998243,281.9659566998016,281.93189449980855,282.43246759986505,281.93189449980855,282.43246759986505,281.93189449980855,282.43246759986505,281.93189449980855,282.43246759986505,281.93189449980855,282.43246759986505,281.93189449980855,282.43246759986505,281.93189449980855,282.43246759986505,281.93189449980855,282.43246759986505,281.0470200998243,None,282.43246759986505,284.0365087999962,0.9100000000000006,284.05161779979244,None,284.80285579990596,None,,,,,,,[[1.59]],2.9300000000000024,0.6808510638297872,11037,002,2024_Mar_11_1905,MFTM_A_new1021,2021.2.3,59.9071439172872,
,,,,,,,,stim/Instruction_adaptive.png,conditions/adaptive.xlsx,test,-0.6,-0.6,-0.6,0.6,0.6,left,L,,,,,0,1,1,1,0,47,47,29,,,,,,,,,,,,,,,,,,,,,,,,,,,,,,,,,,,,,,,,,,,,285.30475559993647,None,left,1,2.2733499999158084,285.80534959980287,287.1731908998918,285.80534959980287,286.67426619981416,285.80534959980287,286.67426619981416,285.80534959980287,286.67426619981416,285.80534959980287,286.67426619981416,285.80534959980287,286.67426619981416,286.6555541998241,287.15746299992315,286.6555541998241,287.15746299992315,286.6555541998241,287.15746299992315,286.6555541998241,287.15746299992315,286.6555541998241,287.15746299992315,286.6555541998241,287.15746299992315,286.6555541998241,287.15746299992315,286.6555541998241,287.15746299992315,285.80534959980287,None,287.1395364999771,288.79320279997773,0.8600000000000005,288.8088075998239,None,289.5608145999722,None,,,,,,,[[1.64]],3.000000000000002,0.6875,11037,002,2024_Mar_11_1905,MFTM_A_new1021,2021.2.3,59.9071439172872,
,,,,,,,,stim/Instruction_adaptive.png,conditions/adaptive.xlsx,test,0.6,0.6,0.6,-0.6,-0.6,right,R,,,,,0,1,1,1,0,48,48,42,,,,,,,,,,,,,,,,,,,,,,,,,,,,,,,,,,,,,,,,,,,,290.06064679985866,None,right,1,1.7816744002047926,290.5615488998592,291.8811211998109,290.5615488998592,291.3961583999917,290.5615488998592,291.3961583999917,290.5615488998592,291.3961583999917,290.5615488998592,291.3961583999917,290.5615488998592,291.3961583999917,291.362756999908,291.864198199939,291.362756999908,291.864198199939,291.362756999908,291.864198199939,291.362756999908,291.864198199939,291.362756999908,291.864198199939,291.362756999908,291.864198199939,291.362756999908,291.864198199939,291.362756999908,291.864198199939,290.5615488998592,None,291.864198199939,293.54917469993234,0.8200000000000005,293.56589149986394,None,294.3180970000103,None,,,,,,,[[1.68]],3.0600000000000023,0.6938775510204082,11037,002,2024_Mar_11_1905,MFTM_A_new1021,2021.2.3,59.9071439172872,
,,,,,,,,stim/Instruction_adaptive.png,conditions/adaptive.xlsx,test,0.6,0.6,0.6,-0.6,-0.6,right,R,,,,,0,1,1,1,0,49,49,26,,,,,,,,,,,,,,,,,,,,,,,,,,,,,,,,,,,,,,,,,,,,294.81778429984115,None,right,1,1.8716994000133127,295.31875330000184,296.6213849999476,295.31875330000184,296.1200564999599,295.31875330000184,296.1200564999599,295.31875330000184,296.1200564999599,295.31875330000184,296.1200564999599,295.31875330000184,296.1200564999599,296.0863413999323,296.5884371998254,296.0863413999323,296.5884371998254,296.0863413999323,296.5884371998254,296.0863413999323,296.5884371998254,296.0863413999323,296.5884371998254,296.0863413999323,296.5884371998254,296.0863413999323,296.5884371998254,296.0863413999323,296.5884371998254,295.31875330000184,None,296.5884371998254,298.3073406999465,0.7900000000000005,298.3230639998801,None,299.0753762999084,None,,,,,,,[[1.71]],3.1200000000000023,0.7,11037,002,2024_Mar_11_1905,MFTM_A_new1021,2021.2.3,59.9071439172872,
,,,,,,,,stim/Instruction_adaptive.png,conditions/adaptive.xlsx,test,-0.6,-0.6,-0.6,0.6,0.6,left,L,,,,,0,1,1,1,0,50,50,91,,,,,,,,,,,,,,,,,,,,,,,,,,,,,,,,,,,,,,,,,,,,299.57509539998136,None,left,1,2.0580242997966707,300.07662109984085,301.34447549981996,300.07662109984085,300.8436582998838,300.07662109984085,300.8436582998838,300.07662109984085,300.8436582998838,300.07662109984085,300.8436582998838,300.07662109984085,300.8436582998838,300.827050199965,301.327841399936,300.827050199965,301.327841399936,300.827050199965,301.327841399936,300.827050199965,301.327841399936,300.827050199965,301.327841399936,300.827050199965,301.327841399936,300.827050199965,301.327841399936,300.827050199965,301.327841399936,300.07662109984085,None,301.327841399936,None,0.7600000000000005,303.0804138998501,None,303.83240929991007,None,,,,,,,[[1.74]],3.1800000000000024,0.7058823529411765,11037,002,2024_Mar_11_1905,MFTM_A_new1021,2021.2.3,59.9071439172872,
,,,,,,,,stim/Instruction_adaptive.png,conditions/adaptive.xlsx,test,0.6,0.6,0.6,-0.6,-0.6,right,R,,,,,0,1,1,1,0,51,51,38,,,,,,,,,,,,,,,,,,,,,,,,,,,,,,,,,,,,,,,,,,,,304.3330901998561,None,right,1,2.2700787999201566,304.8335107997991,306.0680676000193,304.8335107997991,305.5674054999836,304.8335107997991,305.5674054999836,304.8335107997991,305.5674054999836,304.8335107997991,305.5674054999836,304.8335107997991,305.5674054999836,305.55081939999945,306.05264489981346,305.55081939999945,306.05264489981346,305.55081939999945,306.05264489981346,305.55081939999945,306.05264489981346,305.55081939999945,306.05264489981346,305.55081939999945,306.05264489981346,305.55081939999945,306.05264489981346,305.55081939999945,306.05264489981346,304.8335107997991,None,306.05264489981346,None,0.7300000000000004,307.8374689000193,None,308.58854349981993,None,,,,,,,[[1.77]],3.230000000000002,0.7115384615384616,11037,002,2024_Mar_11_1905,MFTM_A_new1021,2021.2.3,59.9071439172872,
,,,,,,,,stim/Instruction_adaptive.png,conditions/adaptive.xlsx,test,-0.6,-0.6,-0.6,0.6,0.6,left,L,,,,,0,1,1,1,0,52,52,57,,,,,,,,,,,,,,,,,,,,,,,,,,,,,,,,,,,,,,,,,,,,309.09004979999736,None,left,1,2.343782400013879,309.5909276998136,310.79211239982396,309.5909276998136,310.2914328998886,309.5909276998136,310.2914328998886,309.5909276998136,310.2914328998886,309.5909276998136,310.2914328998886,309.5909276998136,310.2914328998886,310.2753537998069,310.7760071998928,310.2753537998069,310.7760071998928,310.2753537998069,310.7760071998928,310.2753537998069,310.7760071998928,310.2753537998069,310.7760071998928,310.2753537998069,310.7760071998928,310.2753537998069,310.7760071998928,310.2753537998069,310.7760071998928,309.5909276998136,None,310.7760071998928,312.5787698000204,0.7000000000000004,312.59455939987674,None,313.3463720998261,None,,,,,,,[[1.8]],3.2800000000000025,0.7169811320754716,11037,002,2024_Mar_11_1905,MFTM_A_new1021,2021.2.3,59.9071439172872,
,,,,,,,,stim/Instruction_adaptive.png,conditions/adaptive.xlsx,test,0.6,0.6,0.6,-0.6,-0.6,right,R,,,,,0,1,1,1,0,53,53,60,,,,,,,,,,,,,,,,,,,,,,,,,,,,,,,,,,,,,,,,,,,,313.8473348999396,None,right,1,1.771279300097376,314.34800949995406,315.5332878998015,314.34800949995406,315.032359899953,314.34800949995406,315.032359899953,314.34800949995406,315.032359899953,314.34800949995406,315.032359899953,314.34800949995406,315.032359899953,315.01503209979273,315.51714279991575,315.01503209979273,315.51714279991575,315.01503209979273,315.51714279991575,315.01503209979273,315.51714279991575,315.01503209979273,315.51714279991575,315.01503209979273,315.51714279991575,315.01503209979273,315.51714279991575,315.01503209979273,315.51714279991575,314.34800949995406,None,315.51714279991575,None,0.6800000000000004,317.3524563999381,None,318.10377259994857,None,,,,,,,[[1.82]],3.3200000000000025,0.7222222222222222,11037,002,2024_Mar_11_1905,MFTM_A_new1021,2021.2.3,59.9071439172872,
,,,,,,,,stim/Instruction_adaptive.png,conditions/adaptive.xlsx,test,0.6,0.6,0.6,-0.6,-0.6,right,R,,,,,0,1,1,1,0,54,54,48,,,,,,,,,,,,,,,,,,,,,,,,,,,,,,,,,,,,,,,,,,,,318.60383029980585,None,right,1,1.670343500096351,319.10515989991836,320.27384899999015,319.10515989991836,319.7724737999961,319.10515989991836,319.7724737999961,319.10515989991836,319.7724737999961,319.10515989991836,319.7724737999961,319.10515989991836,319.7724737999961,319.7554083999712,320.2564323998522,319.7554083999712,320.2564323998522,319.7554083999712,320.2564323998522,319.7554083999712,320.2564323998522,319.7554083999712,320.2564323998522,319.7554083999712,320.2564323998522,319.7554083999712,320.2564323998522,319.7554083999712,320.2564323998522,319.10515989991836,None,320.24047149997205,322.0927908997983,0.6600000000000004,322.10913759982213,None,322.86105680000037,None,,,,,,,[[1.84]],3.3700000000000028,0.7272727272727273,11037,002,2024_Mar_11_1905,MFTM_A_new1021,2021.2.3,59.9071439172872,
,,,,,,,,stim/Instruction_adaptive.png,conditions/adaptive.xlsx,test,-0.6,-0.6,-0.6,0.6,0.6,left,L,,,,,0,1,1,1,0,55,55,25,,,,,,,,,,,,,,,,,,,,,,,,,,,,,,,,,,,,,,,,,,,,323.3618630999699,None,left,1,1.9535843001212925,323.86160109983757,325.01351229986176,323.86160109983757,324.5127411999274,323.86160109983757,324.5127411999274,323.86160109983757,324.5127411999274,323.86160109983757,324.5127411999274,323.86160109983757,324.5127411999274,324.4798847998027,324.9801113998983,324.4798847998027,324.9801113998983,324.4798847998027,324.9801113998983,324.4798847998027,324.9801113998983,324.4798847998027,324.9801113998983,324.4798847998027,324.9801113998983,324.4798847998027,324.9801113998983,324.4798847998027,324.9801113998983,323.86160109983757,None,324.9801113998983,326.8335369999986,0.6400000000000003,326.8663431999739,None,327.6178520999383,None,,,,,,,[1.85357143],3.410000000000003,0.7321428571428571,11037,002,2024_Mar_11_1905,MFTM_A_new1021,2021.2.3,59.9071439172872,
,,,,,,,,stim/Instruction_adaptive.png,conditions/adaptive.xlsx,test,-0.6,-0.6,-0.6,0.6,0.6,left,L,,,,,0,1,1,1,0,56,56,15,,,,,,,,,,,,,,,,,,,,,,,,,,,,,,,,,,,,,,,,,,,,328.1189516999293,None,left,1,1.2367373001761734,328.6196359000169,329.7544531999156,328.6196359000169,329.25338999996893,328.6196359000169,329.25338999996893,328.6196359000169,329.25338999996893,328.6196359000169,329.25338999996893,328.6196359000169,329.25338999996893,329.2199234999716,329.7213204000145,329.2199234999716,329.7213204000145,329.2199234999716,329.7213204000145,329.2199234999716,329.7213204000145,329.2199234999716,329.7213204000145,329.2199234999716,329.7213204000145,329.2199234999716,329.7213204000145,329.2199234999716,329.7213204000145,328.6196359000169,None,329.7213204000145,331.5917142999824,0.6200000000000003,331.6067138998769,None,332.35814719996415,None,,,,,,,[1.85403509],3.450000000000003,0.7368421052631579,11037,002,2024_Mar_11_1905,MFTM_A_new1021,2021.2.3,59.9071439172872,
,,,,,,,,stim/Instruction_adaptive.png,conditions/adaptive.xlsx,test,-0.6,-0.6,-0.6,0.6,0.6,left,L,,,,,0,1,1,1,0,57,57,51,,,,,,,,,,,,,,,,,,,,,,,,,,,,,,,,,,,,,,,,,,,,332.8586859998759,None,left,1,2.1748865998815745,333.360548599856,334.46221829997376,333.360548599856,333.96173499990255,333.360548599856,333.96173499990255,333.360548599856,333.96173499990255,333.360548599856,333.96173499990255,333.360548599856,333.96173499990255,333.9436563998461,334.4452376998961,333.9436563998461,334.4452376998961,333.9436563998461,334.4452376998961,333.9436563998461,334.4452376998961,333.9436563998461,334.4452376998961,333.9436563998461,334.4452376998961,333.9436563998461,334.4452376998961,333.9436563998461,334.4452376998961,333.360548599856,None,334.4452376998961,336.31493499991484,0.6000000000000003,336.3312583998777,None,337.0824143998325,None,,,,,,,[1.85482759],3.490000000000003,0.7413793103448276,11037,002,2024_Mar_11_1905,MFTM_A_new1021,2021.2.3,59.9071439172872,
,,,,,,,,stim/Instruction_adaptive.png,conditions/adaptive.xlsx,test,0.6,0.6,0.6,-0.6,-0.6,right,R,,,,,0,1,1,1,0,58,58,46,,,,,,,,,,,,,,,,,,,,,,,,,,,,,,,,,,,,,,,,,,,,337.58325799996965,None,right,1,1.6999888001009822,338.083970699925,339.1855426998809,338.083970699925,338.68404789990745,338.083970699925,338.68404789990745,338.083970699925,338.68404789990745,338.083970699925,338.68404789990745,338.083970699925,338.68404789990745,338.6515451997984,339.1514249998145,338.6515451997984,339.1514249998145,338.6515451997984,339.1514249998145,338.6515451997984,339.1514249998145,338.6515451997984,339.1514249998145,338.6515451997984,339.1514249998145,338.6515451997984,339.1514249998145,338.6515451997984,339.1514249998145,338.083970699925,None,339.1514249998145,341.0219292999245,0.5900000000000003,341.0374363998417,None,341.7886107999366,None,,,,,,,[1.85576271],3.5200000000000027,0.7457627118644068,11037,002,2024_Mar_11_1905,MFTM_A_new1021,2021.2.3,59.9071439172872,
,,,,,,,,stim/Instruction_adaptive.png,conditions/adaptive.xlsx,test,-0.6,-0.6,-0.6,0.6,0.6,left,L,,,,,0,1,1,1,0,59,59,71,,,,,,,,,,,,,,,,,,,,,,,,,,,,,,,,,,,,,,,,,,,,342.2903999998234,None,right,0,2.264770400011912,342.7910905999597,343.87583419983275,342.7910905999597,343.3745756999124,342.7910905999597,343.3745756999124,342.7910905999597,343.3745756999124,342.7910905999597,343.3745756999124,342.7910905999597,343.3745756999124,343.34125449997373,343.8431559999008,343.34125449997373,343.8431559999008,343.34125449997373,343.8431559999008,343.34125449997373,343.8431559999008,343.34125449997373,343.8431559999008,343.34125449997373,343.8431559999008,343.34125449997373,343.8431559999008,343.34125449997373,343.8431559999008,342.7910905999597,None,343.8431559999008,345.7117599998601,0.5700000000000003,345.727797199972,None,346.47911409987137,None,,,,,,,[1.857],3.4200000000000026,0.7333333333333333,11037,002,2024_Mar_11_1905,MFTM_A_new1021,2021.2.3,59.9071439172872,
,,,,,,,,stim/Instruction_adaptive.png,conditions/adaptive.xlsx,test,-0.6,-0.6,-0.6,0.6,0.6,left,L,,,,,0,1,1,1,0,60,60,35,,,,,,,,,,,,,,,,,,,,,,,,,,,,,,,,,,,,,,,,,,,,346.9800189998932,None,left,1,1.9754882000852376,347.48056669998914,348.59997430001386,347.48056669998914,348.09850730001926,347.48056669998914,348.09850730001926,347.48056669998914,348.09850730001926,347.48056669998914,348.09850730001926,347.48056669998914,348.09850730001926,348.0816600997932,348.58318219985813,348.0816600997932,348.58318219985813,348.0816600997932,348.58318219985813,348.0816600997932,348.58318219985813,348.0816600997932,348.58318219985813,348.0816600997932,348.58318219985813,348.0816600997932,348.58318219985813,348.0816600997932,348.58318219985813,347.48056669998914,None,348.58318219985813,None,0.6100000000000003,350.4518631999381,None,351.20358279999346,None,,,,,,,[1.85754098],3.450000000000003,0.7377049180327869,11037,002,2024_Mar_11_1905,MFTM_A_new1021,2021.2.3,59.9071439172872,
,,,,,,,,stim/Instruction_adaptive.png,conditions/adaptive.xlsx,test,-0.6,-0.6,-0.6,0.6,0.6,left,L,,,,,0,1,1,1,0,61,61,67,,,,,,,,,,,,,,,,,,,,,,,,,,,,,,,,,,,,,,,,,,,,351.70469949999824,None,left,1,2.5240380000323057,352.20443739998154,353.30723729985766,352.20443739998154,352.80679109995253,352.20443739998154,352.80679109995253,352.20443739998154,352.80679109995253,352.20443739998154,352.80679109995253,352.20443739998154,352.80679109995253,352.78862949996255,353.28959980001673,352.78862949996255,353.28959980001673,352.78862949996255,353.28959980001673,352.78862949996255,353.28959980001673,352.78862949996255,353.28959980001673,352.78862949996255,353.28959980001673,352.78862949996255,353.28959980001673,352.78862949996255,353.28959980001673,352.20443739998154,None,353.28959980001673,355.15893159992993,0.6000000000000003,355.1756525998935,None,355.92849279986694,None,,,,,,,[1.85822581],3.490000000000003,0.7419354838709677,11037,002,2024_Mar_11_1905,MFTM_A_new1021,2021.2.3,59.9071439172872,
,,,,,,,,stim/Instruction_adaptive.png,conditions/adaptive.xlsx,test,-0.6,-0.6,-0.6,0.6,0.6,left,L,,,,,0,1,1,1,0,62,62,65,,,,,,,,,,,,,,,,,,,,,,,,,,,,,,,,,,,,,,,,,,,,356.4274662998505,None,right,0,1.8560210999567062,356.9283549999818,358.0307791000232,356.9283549999818,357.5300141000189,356.9283549999818,357.5300141000189,356.9283549999818,357.5300141000189,356.9283549999818,357.5300141000189,356.9283549999818,357.5300141000189,357.49658309994265,357.9966994000133,357.49658309994265,357.9966994000133,357.49658309994265,357.9966994000133,357.49658309994265,357.9966994000133,357.49658309994265,357.9966994000133,357.49658309994265,357.9966994000133,357.49658309994265,357.9966994000133,357.49658309994265,357.9966994000133,356.9283549999818,None,357.9966994000133,359.86658529983833,0.5900000000000003,359.8821828998625,None,360.63470519986004,None,,,,,,,[1.85904762],3.3900000000000023,0.7301587301587301,11037,002,2024_Mar_11_1905,MFTM_A_new1021,2021.2.3,59.9071439172872,
,,,,,,,,stim/Instruction_adaptive.png,conditions/adaptive.xlsx,test,0.6,0.6,0.6,-0.6,-0.6,right,R,,,,,0,1,1,1,0,63,63,64,,,,,,,,,,,,,,,,,,,,,,,,,,,,,,,,,,,,,,,,,,,,361.1352856999729,None,right,1,1.9716823000926524,361.63657419988886,362.77095329994336,361.63657419988886,362.26974839996547,361.63657419988886,362.26974839996547,361.63657419988886,362.26974839996547,361.63657419988886,362.26974839996547,361.63657419988886,362.26974839996547,362.2530821999535,362.7549192998558,362.2530821999535,362.7549192998558,362.2530821999535,362.7549192998558,362.2530821999535,362.7549192998558,362.2530821999535,362.7549192998558,362.2530821999535,362.7549192998558,362.2530821999535,362.7549192998558,362.2530821999535,362.7549192998558,361.63657419988886,None,362.7549192998558,364.6240228000097,0.6300000000000003,364.6401098999195,None,365.3910081998911,None,,,,,,,[1.85921875],3.4200000000000026,0.734375,11037,002,2024_Mar_11_1905,MFTM_A_new1021,2021.2.3,59.9071439172872,
,,,,,,,,stim/Instruction_adaptive.png,conditions/adaptive.xlsx,test,0.6,0.6,0.6,-0.6,-0.6,right,R,,,,,0,1,1,1,0,64,64,90,,,,,,,,,,,,,,,,,,,,,,,,,,,,,,,,,,,,,,,,,,,,365.89173889998347,None,right,1,1.5439559000078589,366.3925396997947,367.5120755999815,366.3925396997947,367.0101202998776,366.3925396997947,367.0101202998776,366.3925396997947,367.0101202998776,366.3925396997947,367.0101202998776,366.3925396997947,367.0101202998776,366.9767720999662,367.4775393998716,366.9767720999662,367.4775393998716,366.9767720999662,367.4775393998716,366.9767720999662,367.4775393998716,366.9767720999662,367.4775393998716,366.9767720999662,367.4775393998716,366.9767720999662,367.4775393998716,366.9767720999662,367.4775393998716,366.3925396997947,None,367.4775393998716,369.3479000998195,0.6100000000000003,369.363601999823,None,370.11512380000204,None,,,,,,,[1.85969231],3.4600000000000026,0.7384615384615385,11037,002,2024_Mar_11_1905,MFTM_A_new1021,2021.2.3,59.9071439172872,
,,,,,,,,stim/Instruction_adaptive.png,conditions/adaptive.xlsx,test,-0.6,-0.6,-0.6,0.6,0.6,left,L,,,,,0,1,1,1,0,65,65,39,,,,,,,,,,,,,,,,,,,,,,,,,,,,,,,,,,,,,,,,,,,,370.6166554999072,None,left,1,1.7721973999869078,371.11626809998415,372.21817049989477,371.11626809998415,371.71720109996386,371.11626809998415,371.71720109996386,371.11626809998415,371.71720109996386,371.11626809998415,371.71720109996386,371.11626809998415,371.71720109996386,371.7014946998097,372.2019807000179,371.7014946998097,372.2019807000179,371.7014946998097,372.2019807000179,371.7014946998097,372.2019807000179,371.7014946998097,372.2019807000179,371.7014946998097,372.2019807000179,371.7014946998097,372.2019807000179,371.7014946998097,372.2019807000179,371.11626809998415,None,372.2019807000179,374.0708476998843,0.6000000000000003,374.0875865998678,None,374.839675599942,None,,,,,,,[1.86030303],3.490000000000003,0.7424242424242424,11037,002,2024_Mar_11_1905,MFTM_A_new1021,2021.2.3,59.9071439172872,
,,,,,,,,stim/Instruction_adaptive.png,conditions/adaptive.xlsx,test,-0.6,-0.6,-0.6,0.6,0.6,left,L,,,,,0,1,1,1,0,66,66,89,,,,,,,,,,,,,,,,,,,,,,,,,,,,,,,,,,,,,,,,,,,,375.3398613999598,None,left,1,1.9047580999322236,375.8401132998988,376.9417528999038,375.8401132998988,376.4411416000221,375.8401132998988,376.4411416000221,375.8401132998988,376.4411416000221,375.8401132998988,376.4411416000221,375.8401132998988,376.4411416000221,376.40795879997313,376.9083600998856,376.40795879997313,376.9083600998856,376.40795879997313,376.9083600998856,376.40795879997313,376.9083600998856,376.40795879997313,376.9083600998856,376.40795879997313,376.9083600998856,376.40795879997313,376.9083600998856,376.40795879997313,376.9083600998856,375.8401132998988,None,376.9083600998856,378.777967199916,0.5900000000000003,378.7944928999059,None,379.5456713999156,None,,,,,,,[1.86104478],3.5200000000000027,0.746268656716418,11037,002,2024_Mar_11_1905,MFTM_A_new1021,2021.2.3,59.9071439172872,
,,,,,,,,stim/Instruction_adaptive.png,conditions/adaptive.xlsx,test,-0.6,-0.6,-0.6,0.6,0.6,left,L,,,,,0,1,1,1,0,67,67,11,,,,,,,,,,,,,,,,,,,,,,,,,,,,,,,,,,,,,,,,,,,,380.0465949999634,None,right,0,1.7805940001271665,380.5485282998998,381.63217769982293,380.5485282998998,381.1319381999783,380.5485282998998,381.1319381999783,380.5485282998998,381.1319381999783,380.5485282998998,381.1319381999783,380.5485282998998,381.1319381999783,381.09854009980336,381.5988993998617,381.09854009980336,381.5988993998617,381.09854009980336,381.5988993998617,381.09854009980336,381.5988993998617,381.09854009980336,381.5988993998617,381.09854009980336,381.5988993998617,381.09854009980336,381.5988993998617,381.09854009980336,381.5988993998617,380.5485282998998,None,381.5988993998617,383.46864819992334,0.5700000000000003,383.4852944999002,None,384.23610699991696,None,,,,,,,[1.86205882],3.4300000000000024,0.7352941176470589,11037,002,2024_Mar_11_1905,MFTM_A_new1021,2021.2.3,59.9071439172872,
,,,,,,,,stim/Instruction_adaptive.png,conditions/adaptive.xlsx,test,0.6,0.6,0.6,-0.6,-0.6,right,R,,,,,0,1,1,1,0,68,68,88,,,,,,,,,,,,,,,,,,,,,,,,,,,,,,,,,,,,,,,,,,,,384.73688139999285,None,left,0,2.546544099925086,385.2386540998705,386.3568781998474,385.2386540998705,385.856816199841,385.2386540998705,385.856816199841,385.2386540998705,385.856816199841,385.2386540998705,385.856816199841,385.2386540998705,385.856816199841,385.83868869999424,386.3398151998408,385.83868869999424,386.3398151998408,385.83868869999424,386.3398151998408,385.83868869999424,386.3398151998408,385.83868869999424,386.3398151998408,385.83868869999424,386.3398151998408,385.83868869999424,386.3398151998408,385.83868869999424,386.3398151998408,385.2386540998705,None,386.3398151998408,388.21050939988345,0.6100000000000003,388.22560609993525,None,388.97770259995013,None,,,,,,,[1.86246377],3.3300000000000027,0.7246376811594203,11037,002,2024_Mar_11_1905,MFTM_A_new1021,2021.2.3,59.9071439172872,
,,,,,,,,stim/Instruction_adaptive.png,conditions/adaptive.xlsx,test,-0.6,-0.6,-0.6,0.6,0.6,left,L,,,,,0,1,1,1,0,69,69,13,,,,,,,,,,,,,,,,,,,,,,,,,,,,,,,,,,,,,,,,,,,,389.4773870999925,None,left,1,2.0632974000182003,389.9781168999616,391.1301523000002,389.9781168999616,390.63037589984015,389.9781168999616,390.63037589984015,389.9781168999616,390.63037589984015,389.9781168999616,390.63037589984015,389.9781168999616,390.63037589984015,390.6135305999778,391.113473800011,390.6135305999778,391.113473800011,390.6135305999778,391.113473800011,390.6135305999778,391.113473800011,390.6135305999778,391.113473800011,390.6135305999778,391.113473800011,390.6135305999778,391.113473800011,390.6135305999778,391.113473800011,389.9781168999616,None,391.113473800011,392.9666969999671,0.6500000000000004,392.9825114000123,None,393.7347232999746,None,,,,,,,[[1.85]],3.3700000000000028,0.7285714285714285,11037,002,2024_Mar_11_1905,MFTM_A_new1021,2021.2.3,59.9071439172872,
,,,,,,,,stim/Instruction_adaptive.png,conditions/adaptive.xlsx,test,-0.6,-0.6,-0.6,0.6,0.6,left,L,,,,,0,1,1,1,0,70,70,37,,,,,,,,,,,,,,,,,,,,,,,,,,,,,,,,,,,,,,,,,,,,394.23460869980045,None,right,0,2.234953299863264,394.7353335998487,395.88704980001785,394.7353335998487,395.38663809979334,394.7353335998487,395.38663809979334,394.7353335998487,395.38663809979334,394.7353335998487,395.38663809979334,394.7353335998487,395.38663809979334,395.3536457999144,395.8535954998806,395.3536457999144,395.8535954998806,395.3536457999144,395.8535954998806,395.3536457999144,395.8535954998806,395.3536457999144,395.8535954998806,395.3536457999144,395.8535954998806,395.3536457999144,395.8535954998806,395.3536457999144,395.8535954998806,394.7353335998487,None,395.8535954998806,397.72382499999367,0.6400000000000003,397.73911399999633,None,398.49217469990253,None,,,,,,,[[1.86]],3.2700000000000022,0.7183098591549296,11037,002,2024_Mar_11_1905,MFTM_A_new1021,2021.2.3,59.9071439172872,
,,,,,,,,stim/Instruction_adaptive.png,conditions/adaptive.xlsx,test,0.6,0.6,0.6,-0.6,-0.6,right,R,,,,,0,1,1,1,0,71,71,22,,,,,,,,,,,,,,,,,,,,,,,,,,,,,,,,,,,,,,,,,,,,398.992014199961,None,left,0,1.0924785998649895,399.493130199844,400.67758409981616,399.493130199844,400.1773086998146,399.493130199844,400.1773086998146,399.493130199844,400.1773086998146,399.493130199844,400.1773086998146,399.493130199844,400.1773086998146,400.16023939987645,400.66104189981706,400.16023939987645,400.66104189981706,400.16023939987645,400.66104189981706,400.16023939987645,400.66104189981706,400.16023939987645,400.66104189981706,400.16023939987645,400.66104189981706,400.16023939987645,400.66104189981706,400.16023939987645,400.66104189981706,399.493130199844,None,400.66104189981706,402.48027449985966,0.6800000000000004,402.49677099986,None,403.249460299965,None,,,,,,,[[1.82]],3.1600000000000024,0.7083333333333334,11037,002,2024_Mar_11_1905,MFTM_A_new1021,2021.2.3,59.9071439172872,
,,,,,,,,stim/Instruction_adaptive.png,conditions/adaptive.xlsx,test,0.6,0.6,0.6,-0.6,-0.6,right,R,,,,,0,1,1,1,0,72,72,72,,,,,,,,,,,,,,,,,,,,,,,,,,,,,,,,,,,,,,,,,,,,403.7490244999062,None,right,1,1.896845000097528,404.2497135999147,405.5015157999005,404.2497135999147,405.00142979994416,404.2497135999147,405.00142979994416,404.2497135999147,405.00142979994416,404.2497135999147,405.00142979994416,404.2497135999147,405.00142979994416,404.96739869983867,405.46808489994146,404.96739869983867,405.46808489994146,404.96739869983867,405.46808489994146,404.96739869983867,405.46808489994146,404.96739869983867,405.46808489994146,404.96739869983867,405.46808489994146,404.96739869983867,405.46808489994146,404.96739869983867,405.46808489994146,404.2497135999147,None,405.46808489994146,407.23738739988767,0.7400000000000004,407.2539384998381,None,408.00635149981827,None,,,,,,,[[1.76]],3.2000000000000024,0.7123287671232876,11037,002,2024_Mar_11_1905,MFTM_A_new1021,2021.2.3,59.9071439172872,
,,,,,,,,stim/Instruction_adaptive.png,conditions/adaptive.xlsx,test,-0.6,-0.6,-0.6,0.6,0.6,left,L,,,,,0,1,1,1,0,73,73,63,,,,,,,,,,,,,,,,,,,,,,,,,,,,,,,,,,,,,,,,,,,,408.50716239982285,None,left,1,1.8338295998983085,409.0079911998473,410.2419190998189,409.0079911998473,409.7419671998359,409.0079911998473,409.7419671998359,409.0079911998473,409.7419671998359,409.0079911998473,409.7419671998359,409.0079911998473,409.7419671998359,409.7093666999135,410.20894619985484,409.7093666999135,410.20894619985484,409.7093666999135,410.20894619985484,409.7093666999135,410.20894619985484,409.7093666999135,410.20894619985484,409.7093666999135,410.20894619985484,409.7093666999135,410.20894619985484,409.7093666999135,410.20894619985484,409.0079911998473,None,410.20894619985484,411.99478239985183,0.7200000000000004,412.01114679989405,None,412.76316979993135,None,,,,,,,[[1.78]],3.230000000000002,0.7162162162162162,11037,002,2024_Mar_11_1905,MFTM_A_new1021,2021.2.3,59.9071439172872,
,,,,,,,,stim/Instruction_adaptive.png,conditions/adaptive.xlsx,test,-0.6,-0.6,-0.6,0.6,0.6,left,L,,,,,0,1,1,1,0,74,74,17,,,,,,,,,,,,,,,,,,,,,,,,,,,,,,,,,,,,,,,,,,,,413.2640803998802,None,right,0,1.9501179000362754,413.76407319982536,414.966495399829,413.76407319982536,414.4662299999036,413.76407319982536,414.4662299999036,413.76407319982536,414.4662299999036,413.76407319982536,414.4662299999036,413.76407319982536,414.4662299999036,414.44842059980147,414.94901029998437,414.44842059980147,414.94901029998437,414.44842059980147,414.94901029998437,414.44842059980147,414.94901029998437,414.44842059980147,414.94901029998437,414.44842059980147,414.94901029998437,414.44842059980147,414.94901029998437,414.44842059980147,414.94901029998437,413.76407319982536,None,414.94901029998437,416.752910599811,0.7000000000000004,416.76852489984594,None,417.51982009992935,None,,,,,,,[[1.8]],3.1300000000000026,0.7066666666666667,11037,002,2024_Mar_11_1905,MFTM_A_new1021,2021.2.3,59.9071439172872,
,,,,,,,,stim/Instruction_adaptive.png,conditions/adaptive.xlsx,test,0.6,0.6,0.6,-0.6,-0.6,right,R,,,,,0,1,1,1,0,75,75,2,,,,,,,,,,,,,,,,,,,,,,,,,,,,,,,,,,,,,,,,,,,,418.021258499939,None,left,0,2.312758299987763,418.52123149996623,419.7732224999927,418.52123149996623,419.27307459991425,418.52123149996623,419.27307459991425,418.52123149996623,419.27307459991425,418.52123149996623,419.27307459991425,418.52123149996623,419.27307459991425,419.25568069983274,419.7572763999924,419.25568069983274,419.7572763999924,419.25568069983274,419.7572763999924,419.25568069983274,419.7572763999924,419.25568069983274,419.7572763999924,419.25568069983274,419.7572763999924,419.25568069983274,419.7572763999924,419.25568069983274,419.7572763999924,418.52123149996623,None,419.7572763999924,421.5091388998553,0.7500000000000004,421.5256831999868,None,422.27738929982297,None,,,,,,,[[1.75]],3.030000000000002,0.6973684210526315,11037,002,2024_Mar_11_1905,MFTM_A_new1021,2021.2.3,59.9071439172872,
,,,,,,,,stim/Instruction_adaptive.png,conditions/adaptive.xlsx,test,0.6,0.6,0.6,-0.6,-0.6,right,R,,,,,0,1,1,1,0,76,76,12,,,,,,,,,,,,,,,,,,,,,,,,,,,,,,,,,,,,,,,,,,,,422.7784502999857,None,right,1,1.1720014000311494,423.2782520998735,424.59760899981484,423.2782520998735,424.0969016000163,423.2782520998735,424.0969016000163,423.2782520998735,424.0969016000163,423.2782520998735,424.0969016000163,423.2782520998735,424.0969016000163,424.06284369993955,424.5634859998245,424.06284369993955,424.5634859998245,424.06284369993955,424.5634859998245,424.06284369993955,424.5634859998245,424.06284369993955,424.5634859998245,424.06284369993955,424.5634859998245,424.06284369993955,424.5634859998245,424.06284369993955,424.5634859998245,423.2782520998735,None,424.5634859998245,426.2662124999333,0.8100000000000005,426.2829577999655,None,427.0352440997958,None,,,,,,,[[1.69]],3.0600000000000023,0.7012987012987013,11037,002,2024_Mar_11_1905,MFTM_A_new1021,2021.2.3,59.9071439172872,
,,,,,,,,stim/Instruction_adaptive.png,conditions/adaptive.xlsx,test,0.6,0.6,0.6,-0.6,-0.6,right,R,,,,,0,1,1,1,0,77,77,44,,,,,,,,,,,,,,,,,,,,,,,,,,,,,,,,,,,,,,,,,,,,427.53561479994096,None,right,1,2.230867300182581,428.03547669993713,429.338306899881,428.03547669993713,428.8372095997911,428.03547669993713,428.8372095997911,428.03547669993713,428.8372095997911,428.03547669993713,428.8372095997911,428.03547669993713,428.8372095997911,428.8033121000044,429.3044615997933,428.8033121000044,429.3044615997933,428.8033121000044,429.3044615997933,428.8033121000044,429.3044615997933,428.8033121000044,429.3044615997933,428.8033121000044,429.3044615997933,428.8033121000044,429.3044615997933,428.8033121000044,429.3044615997933,428.03547669993713,None,429.3044615997933,431.0232829998713,0.7900000000000005,431.0400870000012,None,431.7937378999777,None,,,,,,,[[1.71]],3.1000000000000023,0.7051282051282052,11037,002,2024_Mar_11_1905,MFTM_A_new1021,2021.2.3,59.9071439172872,
,,,,,,,,stim/Instruction_adaptive.png,conditions/adaptive.xlsx,test,-0.6,-0.6,-0.6,0.6,0.6,left,L,,,,,0,1,1,1,0,78,78,97,,,,,,,,,,,,,,,,,,,,,,,,,,,,,,,,,,,,,,,,,,,,432.30864379997365,None,left,1,2.1615175001788884,432.79278589994647,434.0778822998982,432.79278589994647,433.5771816999186,432.79278589994647,433.5771816999186,432.79278589994647,433.5771816999186,432.79278589994647,433.5771816999186,432.79278589994647,433.5771816999186,433.54395869979635,434.04438149998896,433.54395869979635,434.04438149998896,433.54395869979635,434.04438149998896,433.54395869979635,434.04438149998896,433.54395869979635,434.04438149998896,433.54395869979635,434.04438149998896,433.54395869979635,434.04438149998896,433.54395869979635,434.04438149998896,432.79278589994647,None,434.04438149998896,435.78112519998103,0.7700000000000005,435.7979198999237,None,436.54834989993833,None,,,,,,,[[1.73]],3.1300000000000026,0.7088607594936709,11037,002,2024_Mar_11_1905,MFTM_A_new1021,2021.2.3,59.9071439172872,
,,,,,,,,stim/Instruction_adaptive.png,conditions/adaptive.xlsx,test,-0.6,-0.6,-0.6,0.6,0.6,left,L,,,,,0,1,1,1,0,79,79,9,,,,,,,,,,,,,,,,,,,,,,,,,,,,,,,,,,,,,,,,,,,,437.04912679991685,None,left,1,2.0676850001327693,437.55069229984656,438.8015491999686,437.55069229984656,438.3023345998954,437.55069229984656,438.3023345998954,437.55069229984656,438.3023345998954,437.55069229984656,438.3023345998954,437.55069229984656,438.3023345998954,438.2841513999738,438.7856459999457,438.2841513999738,438.7856459999457,438.2841513999738,438.7856459999457,438.2841513999738,438.7856459999457,438.2841513999738,438.7856459999457,438.2841513999738,438.7856459999457,438.2841513999738,438.7856459999457,438.2841513999738,438.7856459999457,437.55069229984656,None,438.7856459999457,440.5379858999513,0.7500000000000004,440.5545327998698,None,441.30564409983344,None,,,,,,,[[1.75]],3.1700000000000026,0.7125,11037,002,2024_Mar_11_1905,MFTM_A_new1021,2021.2.3,59.9071439172872,
,,,,,,,,stim/Instruction_adaptive.png,conditions/adaptive.xlsx,test,0.6,0.6,0.6,-0.6,-0.6,right,R,,,,,0,1,1,1,0,80,80,10,,,,,,,,,,,,,,,,,,,,,,,,,,,,,,,,,,,,,,,,,,,,441.80714469985105,None,right,1,2.0159528001677245,442.3069664000068,443.54327749996446,442.3069664000068,443.0414336998947,442.3069664000068,443.0414336998947,442.3069664000068,443.0414336998947,442.3069664000068,443.0414336998947,442.3069664000068,443.0414336998947,443.02545949979685,443.52669859980233,443.02545949979685,443.52669859980233,443.02545949979685,443.52669859980233,443.02545949979685,443.52669859980233,443.02545949979685,443.52669859980233,443.02545949979685,443.52669859980233,443.02545949979685,443.52669859980233,443.02545949979685,443.52669859980233,442.3069664000068,None,443.52669859980233,None,0.7300000000000004,445.3116106998641,None,446.0626769999508,None,,,,,,,[[1.77]],3.2000000000000024,0.7160493827160493,11037,002,2024_Mar_11_1905,MFTM_A_new1021,2021.2.3,59.9071439172872,
,,,,,,,,stim/Instruction_adaptive.png,conditions/adaptive.xlsx,test,0.6,0.6,0.6,-0.6,-0.6,right,R,,,,,0,1,1,1,0,81,81,36,,,,,,,,,,,,,,,,,,,,,,,,,,,,,,,,,,,,,,,,,,,,446.56348120002076,None,left,0,1.6581250000745058,447.0649565998465,448.29942169995047,447.0649565998465,447.79855139995925,447.0649565998465,447.79855139995925,447.0649565998465,447.79855139995925,447.0649565998465,447.79855139995925,447.0649565998465,447.79855139995925,447.7652318999171,448.2659389998298,447.7652318999171,448.2659389998298,447.7652318999171,448.2659389998298,447.7652318999171,448.2659389998298,447.7652318999171,448.2659389998298,447.7652318999171,448.2659389998298,447.7652318999171,448.2659389998298,447.7652318999171,448.2659389998298,447.0649565998465,None,448.2659389998298,450.05270599992946,0.7200000000000004,450.0685466998257,None,450.8203586998861,None,,,,,,,[[1.78]],3.110000000000002,0.7073170731707317,11037,002,2024_Mar_11_1905,MFTM_A_new1021,2021.2.3,59.9071439172872,
,,,,,,,,stim/Instruction_adaptive.png,conditions/adaptive.xlsx,test,-0.6,-0.6,-0.6,0.6,0.6,left,L,,,,,0,1,1,1,0,82,82,61,,,,,,,,,,,,,,,,,,,,,,,,,,,,,,,,,,,,,,,,,,,,451.32060580002144,None,left,1,2.188891700003296,451.8218603997957,453.09000559989363,451.8218603997957,452.5900138998404,451.8218603997957,452.5900138998404,451.8218603997957,452.5900138998404,451.8218603997957,452.5900138998404,451.8218603997957,452.5900138998404,452.5560718998313,453.0575859998353,452.5560718998313,453.0575859998353,452.5560718998313,453.0575859998353,452.5560718998313,453.0575859998353,452.5560718998313,453.0575859998353,452.5560718998313,453.0575859998353,452.5560718998313,453.0575859998353,452.5560718998313,453.0575859998353,451.8218603997957,None,453.0575859998353,454.8121542998124,0.7600000000000005,454.8434420998674,None,455.593717899872,None,,,,,,,[[1.74]],3.1400000000000023,0.7108433734939759,11037,002,2024_Mar_11_1905,MFTM_A_new1021,2021.2.3,59.9071439172872,
,,,,,,,,stim/Instruction_adaptive.png,conditions/adaptive.xlsx,test,-0.6,-0.6,-0.6,0.6,0.6,left,L,,,,,0,1,1,1,0,83,83,1,,,,,,,,,,,,,,,,,,,,,,,,,,,,,,,,,,,,,,,,,,,,456.0950530997943,None,left,1,1.9428622999694198,456.596071699867,457.8477148998063,456.596071699867,457.3462210998405,456.596071699867,457.3462210998405,456.596071699867,457.3462210998405,456.596071699867,457.3462210998405,456.596071699867,457.3462210998405,457.33044980000705,457.83074749982916,457.33044980000705,457.83074749982916,457.33044980000705,457.83074749982916,457.33044980000705,457.83074749982916,457.33044980000705,457.83074749982916,457.33044980000705,457.83074749982916,457.33044980000705,457.83074749982916,457.33044980000705,457.83074749982916,456.596071699867,None,457.83074749982916,459.58299589995295,0.7500000000000004,459.5997850999702,None,460.3507939998526,None,,,,,,,[[1.75]],3.1700000000000026,0.7142857142857143,11037,002,2024_Mar_11_1905,MFTM_A_new1021,2021.2.3,59.9071439172872,
,,,,,,,,stim/Instruction_adaptive.png,conditions/adaptive.xlsx,test,0.6,0.6,0.6,-0.6,-0.6,right,R,,,,,0,1,1,1,0,84,84,52,,,,,,,,,,,,,,,,,,,,,,,,,,,,,,,,,,,,,,,,,,,,460.85250129993074,None,right,1,1.963115399936214,461.3522240999155,462.5884206998162,461.3522240999155,462.0867017998826,461.3522240999155,462.0867017998826,461.3522240999155,462.0867017998826,461.3522240999155,462.0867017998826,461.3522240999155,462.0867017998826,462.0709241000004,462.57118400000036,462.0709241000004,462.57118400000036,462.0709241000004,462.57118400000036,462.0709241000004,462.57118400000036,462.0709241000004,462.57118400000036,462.0709241000004,462.57118400000036,462.0709241000004,462.57118400000036,462.0709241000004,462.57118400000036,461.3522240999155,None,462.5545818998944,464.3234419999644,0.7300000000000004,464.3568298998289,None,465.1086947999429,None,,,,,,,[[1.77]],3.2000000000000024,0.7176470588235294,11037,002,2024_Mar_11_1905,MFTM_A_new1021,2021.2.3,59.9071439172872,
,,,,,,,,stim/Instruction_adaptive.png,conditions/adaptive.xlsx,test,0.6,0.6,0.6,-0.6,-0.6,right,R,,,,,0,1,1,1,0,85,85,4,,,,,,,,,,,,,,,,,,,,,,,,,,,,,,,,,,,,,,,,,,,,465.6090557000134,None,left,0,2.101841499796137,466.10963949980214,467.3283263000194,466.10963949980214,466.84465279988945,466.10963949980214,466.84465279988945,466.10963949980214,466.84465279988945,466.10963949980214,466.84465279988945,466.10963949980214,466.84465279988945,466.81158289988525,467.3129918000195,466.81158289988525,467.3129918000195,466.81158289988525,467.3129918000195,466.81158289988525,467.3129918000195,466.81158289988525,467.3129918000195,466.81158289988525,467.3129918000195,466.81158289988525,467.3129918000195,466.81158289988525,467.3129918000195,466.10963949980214,None,467.3129918000195,469.0972219000105,0.7200000000000004,469.113885599887,None,469.86511439993046,None,,,,,,,[[1.78]],3.110000000000002,0.7093023255813954,11037,002,2024_Mar_11_1905,MFTM_A_new1021,2021.2.3,59.9071439172872,
,,,,,,,,stim/Instruction_adaptive.png,conditions/adaptive.xlsx,test,0.6,0.6,0.6,-0.6,-0.6,right,R,,,,,0,1,1,1,0,86,86,80,,,,,,,,,,,,,,,,,,,,,,,,,,,,,,,,,,,,,,,,,,,,470.36680959980004,None,right,1,1.7927210999187082,470.86689809989184,472.136236499995,470.86689809989184,471.6345571000129,470.86689809989184,471.6345571000129,470.86689809989184,471.6345571000129,470.86689809989184,471.6345571000129,470.86689809989184,471.6345571000129,471.601243800018,472.1018977998756,471.601243800018,472.1018977998756,471.601243800018,472.1018977998756,471.601243800018,472.1018977998756,471.601243800018,472.1018977998756,471.601243800018,472.1018977998756,471.601243800018,472.1018977998756,471.601243800018,472.1018977998756,470.86689809989184,None,472.1018977998756,473.8554352999199,0.7600000000000005,473.87118000001647,None,474.6237790999003,None,,,,,,,[[1.74]],3.1400000000000023,0.7126436781609196,11037,002,2024_Mar_11_1905,MFTM_A_new1021,2021.2.3,59.9071439172872,
,,,,,,,,stim/Instruction_adaptive.png,conditions/adaptive.xlsx,test,-0.6,-0.6,-0.6,0.6,0.6,left,L,,,,,0,1,1,1,0,87,87,49,,,,,,,,,,,,,,,,,,,,,,,,,,,,,,,,,,,,,,,,,,,,475.1239334999118,None,left,1,2.4046282002236694,475.6239960999228,476.87665819982067,475.6239960999228,476.3765004000161,475.6239960999228,476.3765004000161,475.6239960999228,476.3765004000161,475.6239960999228,476.3765004000161,475.6239960999228,476.3765004000161,476.3583970000036,476.8591226998251,476.3583970000036,476.8591226998251,476.3583970000036,476.8591226998251,476.3583970000036,476.8591226998251,476.3583970000036,476.8591226998251,476.3583970000036,476.8591226998251,476.3583970000036,476.8591226998251,476.3583970000036,476.8591226998251,475.6239960999228,None,476.8591226998251,478.6117312000133,0.7500000000000004,478.62834910000674,None,479.38064399990253,None,,,,,,,[[1.75]],3.1700000000000026,0.7159090909090909,11037,002,2024_Mar_11_1905,MFTM_A_new1021,2021.2.3,59.9071439172872,
,,,,,,,,stim/Instruction_adaptive.png,conditions/adaptive.xlsx,test,0.6,0.6,0.6,-0.6,-0.6,right,R,,,,,0,1,1,1,0,88,88,94,,,,,,,,,,,,,,,,,,,,,,,,,,,,,,,,,,,,,,,,,,,,479.88083569984883,None,right,1,1.389394799945876,480.38216779986396,481.61624269979075,480.38216779986396,481.11665559979156,480.38216779986396,481.11665559979156,480.38216779986396,481.11665559979156,480.38216779986396,481.11665559979156,480.38216779986396,481.11665559979156,481.0988923998084,481.6007703000214,481.0988923998084,481.6007703000214,481.0988923998084,481.6007703000214,481.0988923998084,481.6007703000214,481.0988923998084,481.6007703000214,481.0988923998084,481.6007703000214,481.0988923998084,481.6007703000214,481.0988923998084,481.6007703000214,480.38216779986396,None,481.6007703000214,None,0.7300000000000004,483.38539909990504,None,484.13764459989034,None,,,,,,,[[1.77]],3.2000000000000024,0.7191011235955056,11037,002,2024_Mar_11_1905,MFTM_A_new1021,2021.2.3,59.9071439172872,
,,,,,,,,stim/Instruction_adaptive.png,conditions/adaptive.xlsx,test,-0.6,-0.6,-0.6,0.6,0.6,left,L,,,,,0,1,1,1,0,89,89,47,,,,,,,,,,,,,,,,,,,,,,,,,,,,,,,,,,,,,,,,,,,,484.63880269997753,None,right,0,2.033411999931559,485.1390017999802,486.3735996999312,485.1390017999802,485.8726752998773,485.1390017999802,485.8726752998773,485.1390017999802,485.8726752998773,485.1390017999802,485.8726752998773,485.1390017999802,485.8726752998773,485.8394031999633,486.33995900000446,485.8394031999633,486.33995900000446,485.8394031999633,486.33995900000446,485.8394031999633,486.33995900000446,485.8394031999633,486.33995900000446,485.8394031999633,486.33995900000446,485.8394031999633,486.33995900000446,485.8394031999633,486.33995900000446,485.1390017999802,None,486.33995900000446,488.1268352998886,0.7200000000000004,488.1425637998618,None,488.89391069998965,None,,,,,,,[[1.78]],3.1200000000000023,0.7111111111111111,11037,002,2024_Mar_11_1905,MFTM_A_new1021,2021.2.3,59.9071439172872,
,,,,,,,,stim/Instruction_adaptive.png,conditions/adaptive.xlsx,test,0.6,0.6,0.6,-0.6,-0.6,right,R,,,,,0,1,1,1,0,90,90,58,,,,,,,,,,,,,,,,,,,,,,,,,,,,,,,,,,,,,,,,,,,,489.3948289998807,None,right,1,1.7647996000014246,489.89539729990065,491.1655909998808,489.89539729990065,490.6638231999241,489.89539729990065,490.6638231999241,489.89539729990065,490.6638231999241,489.89539729990065,490.6638231999241,489.89539729990065,490.6638231999241,490.64666819991544,491.14718639990315,490.64666819991544,491.14718639990315,490.64666819991544,491.14718639990315,490.64666819991544,491.14718639990315,490.64666819991544,491.14718639990315,490.64666819991544,491.14718639990315,490.64666819991544,491.14718639990315,490.64666819991544,491.14718639990315,489.89539729990065,None,491.13112389994785,492.8841104998719,0.7600000000000005,492.89975039986894,None,493.65160569990985,None,,,,,,,[[1.74]],3.1400000000000023,0.7142857142857143,11037,002,2024_Mar_11_1905,MFTM_A_new1021,2021.2.3,59.9071439172872,
,,,,,,,,stim/Instruction_adaptive.png,conditions/adaptive.xlsx,test,-0.6,-0.6,-0.6,0.6,0.6,left,L,,,,,0,1,1,1,0,91,91,85,,,,,,,,,,,,,,,,,,,,,,,,,,,,,,,,,,,,,,,,,,,,494.1521902999375,None,left,1,1.2556010999251157,494.65256770001724,495.9044418998528,494.65256770001724,495.4037385999691,494.65256770001724,495.4037385999691,494.65256770001724,495.4037385999691,494.65256770001724,495.4037385999691,494.65256770001724,495.4037385999691,495.3870591998566,495.88862669980153,495.3870591998566,495.88862669980153,495.3870591998566,495.88862669980153,495.3870591998566,495.88862669980153,495.3870591998566,495.88862669980153,495.3870591998566,495.88862669980153,495.3870591998566,495.88862669980153,495.3870591998566,495.88862669980153,494.65256770001724,None,495.88862669980153,497.6406786998268,0.7500000000000004,497.65720089990646,None,498.4082635999657,None,,,,,,,[[1.75]],3.1700000000000026,0.717391304347826,11037,002,2024_Mar_11_1905,MFTM_A_new1021,2021.2.3,59.9071439172872,
,,,,,,,,stim/Instruction_adaptive.png,conditions/adaptive.xlsx,test,-0.6,-0.6,-0.6,0.6,0.6,left,L,,,,,0,1,1,1,0,92,92,77,,,,,,,,,,,,,,,,,,,,,,,,,,,,,,,,,,,,,,,,,,,,498.90897709992714,None,left,1,1.9308438999578357,499.4096301998943,500.6450017997995,499.4096301998943,500.14421719987877,499.4096301998943,500.14421719987877,499.4096301998943,500.14421719987877,499.4096301998943,500.14421719987877,499.4096301998943,500.14421719987877,500.12748199980706,500.6280047998298,500.12748199980706,500.6280047998298,500.12748199980706,500.6280047998298,500.12748199980706,500.6280047998298,500.12748199980706,500.6280047998298,500.12748199980706,500.6280047998298,500.12748199980706,500.6280047998298,500.12748199980706,500.6280047998298,499.4096301998943,None,500.6280047998298,502.3982570997905,0.7300000000000004,502.4148473998066,None,503.1662931998726,None,,,,,,,[[1.77]],3.2000000000000024,0.7204301075268817,11037,002,2024_Mar_11_1905,MFTM_A_new1021,2021.2.3,59.9071439172872,
,,,,,,,,stim/Instruction_adaptive.png,conditions/adaptive.xlsx,test,-0.6,-0.6,-0.6,0.6,0.6,left,L,,,,,0,1,1,1,0,93,93,55,,,,,,,,,,,,,,,,,,,,,,,,,,,,,,,,,,,,,,,,,,,,503.66704909992404,None,left,1,1.2774809000547975,504.16690910002217,505.4021276999265,504.16690910002217,504.90146159986034,504.16690910002217,504.90146159986034,504.16690910002217,504.90146159986034,504.16690910002217,504.90146159986034,504.16690910002217,504.90146159986034,504.8681100998074,505.3690569999162,504.8681100998074,505.3690569999162,504.8681100998074,505.3690569999162,504.8681100998074,505.3690569999162,504.8681100998074,505.3690569999162,504.8681100998074,505.3690569999162,504.8681100998074,505.3690569999162,504.8681100998074,505.3690569999162,504.16690910002217,None,505.3690569999162,507.15520769986324,0.7200000000000004,507.1709702999797,None,507.9234158999752,None,,,,,,,[[1.78]],3.2200000000000024,0.723404255319149,11037,002,2024_Mar_11_1905,MFTM_A_new1021,2021.2.3,59.9071439172872,
