arrwidth1,arrwidth2,arrwidth3,arrwidth4,arrwidth5,keyb,type,orientation,instruction_image,block_filename,block_type,arrow11,arrow22,arrow33,arrow44,arrow55,keyb_3,orientation3,trials.thisRepN,trials.thisTrialN,trials.thisN,trials.thisIndex,trials_3.thisRepN,trials_3.thisTrialN,trials_3.thisN,trials_3.thisIndex,trials_2.thisRepN,trials_2.thisTrialN,trials_2.thisN,trials_2.thisIndex,welcome.started,welcome.stopped,key_resp.keys,key_resp.rt,key_resp.started,key_resp.stopped,instruction_example.started,instruction_example.stopped,key_resp_3.keys,key_resp_3.rt,key_resp_3.started,key_resp_3.stopped,instruction_task.started,instruction_task.stopped,key_resp_2.keys,key_resp_2.rt,key_resp_2.started,key_resp_2.stopped,text_2.started,text_2.stopped,A1.started,A1.stopped,A2.started,A2.stopped,A3.started,A3.stopped,A4.started,A4.stopped,A5.started,A5.stopped,key_resp_4.keys,key_resp_4.corr,key_resp_4.rt,key_resp_4.started,key_resp_4.stopped,fb.started,fb.stopped,instruction_block.started,instruction_block.stopped,key_resp_8.keys,key_resp_8.rt,key_resp_8.started,key_resp_8.stopped,text_8.started,text_8.stopped,key_resp_9.keys,key_resp_9.corr,key_resp_9.rt,text_5.started,text_5.stopped,A11_3.started,A11_3.stopped,A22_2.started,A22_2.stopped,A33_2.started,A33_2.stopped,A44_2.started,A44_2.stopped,A55_2.started,A55_2.stopped,M1_3.started,M1_3.stopped,M2_2.started,M2_2.stopped,M3_2.started,M3_2.stopped,M4_2.started,M4_2.stopped,M5_2.started,M5_2.stopped,M6_2.started,M6_2.stopped,M7_2.started,M7_2.stopped,M8_2.started,M8_2.stopped,key_resp_9.started,key_resp_9.stopped,fixation.started,fixation.stopped,ET,fb_3.started,fb_3.stopped,text_9.started,text_9.stopped,fb_4.started,fb_4.stopped,text_7.started,text_7.stopped,endtext.started,endtext.stopped,fixation_ITI,CCC,Acc,participant,session,date,expName,psychopyVersion,frameRate,
,,,,,,,,,,,,,,,,,,,,,,,,,,,,,,10.871713199987425,None,right,2.5447398999967845,10.871713199987425,None,,,,,,,,,,,,,,,,,,,,,,,,,,,,,,,,,,,,,,,,,,,,,,,,,,,,,,,,,,,,,,,,,,,,,,,,,,,,,,,,,,,,,,,,,11039,001,2024_Mar_13_1335,MFTM_A_new1021,2021.2.3,60.03067567473508,
,,,,,,,,,,,,,,,,,,,,,,,,,,,,,,,,,,,,13.442126599999028,None,right,2.7183346999954665,13.442126599999028,None,,,,,,,,,,,,,,,,,,,,,,,,,,,,,,,,,,,,,,,,,,,,,,,,,,,,,,,,,,,,,,,,,,,,,,,,,,,,,,,,,,,11039,001,2024_Mar_13_1335,MFTM_A_new1021,2021.2.3,60.03067567473508,
,,,,,,,,,,,,,,,,,,,,,,,,,,,,,,,,,,,,,,,,,,16.179542899990338,None,right,3.2934505000011995,16.179542899990338,None,,,,,,,,,,,,,,,,,,,,,,,,,,,,,,,,,,,,,,,,,,,,,,,,,,,,,,,,,,,,,,,,,,,,,,,,,,,,,11039,001,2024_Mar_13_1335,MFTM_A_new1021,2021.2.3,60.03067567473508,
-0.6,-0.6,-0.6,0.6,0.6,left,3:2,L,,,,,,,,,,,0,0,0,1,,,,,,,,,,,,,,,,,,,,,,,,,,,19.519413099988014,None,19.519413099988014,None,19.519413099988014,None,19.519413099988014,None,19.519413099988014,None,19.519413099988014,None,left,1,2.12108040000021,19.519413099988014,None,21.68879419998848,None,,,,,,,,,,,,,,,,,,,,,,,,,,,,,,,,,,,,,,,,,,,,,,,,,,,,,,,,,,11039,001,2024_Mar_13_1335,MFTM_A_new1021,2021.2.3,60.03067567473508,
0.6,0.6,0.6,-0.6,-0.6,right,3:2,R,,,,,,,,,,,0,1,1,0,,,,,,,,,,,,,,,,,,,,,,,,,,,22.44023519998882,None,22.44023519998882,None,22.44023519998882,None,22.44023519998882,None,22.44023519998882,None,22.44023519998882,None,right,1,1.1293091000115965,22.44023519998882,None,23.590568399988115,None,,,,,,,,,,,,,,,,,,,,,,,,,,,,,,,,,,,,,,,,,,,,,,,,,,,,,,,,,,11039,001,2024_Mar_13_1335,MFTM_A_new1021,2021.2.3,60.03067567473508,
-0.6,-0.6,-0.6,0.6,0.6,left,3:2,L,,,,,,,,,,,1,0,2,1,,,,,,,,,,,,,,,,,,,,,,,,,,,24.34188149998954,None,24.34188149998954,None,24.34188149998954,None,24.34188149998954,None,24.34188149998954,None,24.34188149998954,None,left,1,0.8829901999997674,24.34188149998954,None,25.244153499996173,None,,,,,,,,,,,,,,,,,,,,,,,,,,,,,,,,,,,,,,,,,,,,,,,,,,,,,,,,,,11039,001,2024_Mar_13_1335,MFTM_A_new1021,2021.2.3,60.03067567473508,
0.6,0.6,0.6,-0.6,-0.6,right,3:2,R,,,,,,,,,,,1,1,3,0,,,,,,,,,,,,,,,,,,,,,,,,,,,25.995297499990556,None,25.995297499990556,None,25.995297499990556,None,25.995297499990556,None,25.995297499990556,None,25.995297499990556,None,right,1,0.9415233000036096,25.995297499990556,None,26.962884399996256,None,,,,,,,,,,,,,,,,,,,,,,,,,,,,,,,,,,,,,,,,,,,,,,,,,,,,,,,,,,11039,001,2024_Mar_13_1335,MFTM_A_new1021,2021.2.3,60.03067567473508,
,,,,,,,,stim/Instruction_mask.png,conditions/adaptive.xlsx,practice,0.6,0.6,0.6,-0.6,-0.6,right,R,,,,,0,0,0,0,0,0,0,38,,,,,,,,,,,,,,,,,,,,,,,,,,,,,,,,,,,,,,27.963898599991808,None,right,4.220852200000081,27.963898599991808,None,32.28661089998786,None,None,0,0,32.721157899999525,None,32.721157899999525,35.72587439999916,32.721157899999525,35.72587439999916,32.721157899999525,35.72587439999916,32.721157899999525,35.72587439999916,32.721157899999525,35.72587439999916,35.710005499990075,36.20999170000141,35.710005499990075,36.20999170000141,35.710005499990075,36.20999170000141,35.710005499990075,36.20999170000141,35.710005499990075,36.20999170000141,35.710005499990075,36.20999170000141,35.710005499990075,36.20999170000141,35.710005499990075,36.20999170000141,32.721157899999525,None,36.20999170000141,36.20999170000141,3,36.243624399998225,None,36.995474499999546,None,,,,,,,,,,11039,001,2024_Mar_13_1335,MFTM_A_new1021,2021.2.3,60.03067567473508,
,,,,,,,,stim/Instruction_mask.png,conditions/adaptive.xlsx,practice,-0.6,-0.6,-0.6,0.6,0.6,left,L,,,,,0,0,0,0,0,1,1,73,,,,,,,,,,,,,,,,,,,,,,,,,,,,,,,,,,,,,,,,,,,,37.495311399994534,None,left,1,1.3574156000104267,37.99593279999681,40.00033369999437,37.99593279999681,39.49812759998895,37.99593279999681,39.49812759998895,37.99593279999681,39.49812759998895,37.99593279999681,39.49812759998895,37.99593279999681,39.49812759998895,39.48154929999146,39.982208099987474,39.48154929999146,39.982208099987474,39.48154929999146,39.982208099987474,39.48154929999146,39.982208099987474,39.48154929999146,39.982208099987474,39.48154929999146,39.982208099987474,39.48154929999146,39.982208099987474,39.48154929999146,39.982208099987474,37.99593279999681,None,39.982208099987474,41.48538069998904,1.5,41.50124069998856,None,42.252232099999674,None,,,,,,,,,,11039,001,2024_Mar_13_1335,MFTM_A_new1021,2021.2.3,60.03067567473508,
,,,,,,,,stim/Instruction_mask.png,conditions/adaptive.xlsx,practice,-0.6,-0.6,-0.6,0.6,0.6,left,L,,,,,0,0,0,0,0,2,2,29,,,,,,,,,,,,,,,,,,,,,,,,,,,,,,,,,,,,,,,,,,,,42.75370639999164,None,left,1,0.8998971999972127,43.25376599999436,44.55576779998955,43.25376599999436,44.055720499993186,43.25376599999436,44.055720499993186,43.25376599999436,44.055720499993186,43.25376599999436,44.055720499993186,43.25376599999436,44.055720499993186,44.03826739999931,44.53903989998798,44.03826739999931,44.53903989998798,44.03826739999931,44.53903989998798,44.03826739999931,44.53903989998798,44.03826739999931,44.53903989998798,44.03826739999931,44.53903989998798,44.03826739999931,44.53903989998798,44.03826739999931,44.53903989998798,43.25376599999436,None,44.53903989998798,46.742493999990984,0.8,46.75947819999419,None,47.51085399999283,None,,,,,,,,,,11039,001,2024_Mar_13_1335,MFTM_A_new1021,2021.2.3,60.03067567473508,
,,,,,,,,stim/Instruction_mask.png,conditions/adaptive.xlsx,practice,-0.6,-0.6,-0.6,0.6,0.6,left,L,,,,,0,0,0,0,0,3,3,65,,,,,,,,,,,,,,,,,,,,,,,,,,,,,,,,,,,,,,,,,,,,48.010868199999095,None,right,0,1.585682100005215,48.51166399999056,49.262625099989236,48.51166399999056,48.7622207999957,48.51166399999056,48.7622207999957,48.51166399999056,48.7622207999957,48.51166399999056,48.7622207999957,48.51166399999056,48.7622207999957,48.745285099998,49.246364599996014,48.745285099998,49.246364599996014,48.745285099998,49.246364599996014,48.745285099998,49.246364599996014,48.745285099998,49.246364599996014,48.745285099998,49.246364599996014,48.745285099998,49.246364599996014,48.745285099998,49.246364599996014,48.51166399999056,None,49.246364599996014,52.00118320000183,3,52.01655139999639,None,52.76836099999491,None,,,,,,,,,,11039,001,2024_Mar_13_1335,MFTM_A_new1021,2021.2.3,60.03067567473508,
,,,,,,,,stim/Instruction_mask.png,conditions/adaptive.xlsx,practice,,,,,,,,,,,,0,0,0,0,,,,,,,,,,,,,,,,,,,,,,,,,,,,,,,,,,,,,,,,,,,,,,,,,,,,,,,,,,,,,,,,,,,,,,,,,,,,,,,,,,,,,,,,,,53.30342749999545,54.30483039999672,54.287139499996556,54.287139499996556,54.287139499996556,None,,,,11039,001,2024_Mar_13_1335,MFTM_A_new1021,2021.2.3,60.03067567473508,
,,,,,,,,stim/Instruction_adaptive.png,conditions/adaptive.xlsx,test,0.6,0.6,0.6,-0.6,-0.6,right,R,,,,,0,1,1,1,0,0,0,72,,,,,,,,,,,,,,,,,,,,,,,,,,,,,,,,,,,,,,57.47546249999141,None,left,42.92759950000618,57.47546249999141,None,100.43931599998905,None,right,1,2.7817690999945626,100.94082150000031,None,100.94082150000031,103.94584149999719,100.94082150000031,103.94584149999719,100.94082150000031,103.94584149999719,100.94082150000031,103.94584149999719,100.94082150000031,103.94584149999719,103.9284719999996,104.43025119999947,103.9284719999996,104.43025119999947,103.9284719999996,104.43025119999947,103.9284719999996,104.43025119999947,103.9284719999996,104.43025119999947,103.9284719999996,104.43025119999947,103.9284719999996,104.43025119999947,103.9284719999996,104.43025119999947,100.94082150000031,None,104.4132932999928,104.4132932999928,3,104.44667619999382,None,105.19753679999849,None,,,,,,,0,6.000000000000005,1.0,11039,001,2024_Mar_13_1335,MFTM_A_new1021,2021.2.3,60.03067567473508,
,,,,,,,,stim/Instruction_adaptive.png,conditions/adaptive.xlsx,test,-0.6,-0.6,-0.6,0.6,0.6,left,L,,,,,0,1,1,1,0,1,1,79,,,,,,,,,,,,,,,,,,,,,,,,,,,,,,,,,,,,,,,,,,,,105.69841499999166,None,left,1,1.2035872999986168,106.19937149999896,106.94983639998827,106.19937149999896,106.449031799988,106.19937149999896,106.449031799988,106.19937149999896,106.449031799988,106.19937149999896,106.449031799988,106.19937149999896,106.449031799988,106.43244249999407,106.93301999999676,106.43244249999407,106.93301999999676,106.43244249999407,106.93301999999676,106.43244249999407,106.93301999999676,106.43244249999407,106.93301999999676,106.43244249999407,106.93301999999676,106.43244249999407,106.93301999999676,106.43244249999407,106.93301999999676,106.19937149999896,None,106.93301999999676,107.81843669999216,0.25,107.83446879999246,None,108.58557289998862,None,,,,,,,[0.875],6.000000000000005,1.0,11039,001,2024_Mar_13_1335,MFTM_A_new1021,2021.2.3,60.03067567473508,
,,,,,,,,stim/Instruction_adaptive.png,conditions/adaptive.xlsx,test,0.6,0.6,0.6,-0.6,-0.6,right,R,,,,,0,1,1,1,0,2,2,84,,,,,,,,,,,,,,,,,,,,,,,,,,,,,,,,,,,,,,,,,,,,109.0873869999923,None,left,0,0.5759383999975398,109.58716329999152,110.33885519999603,109.58716329999152,109.8374027999962,109.58716329999152,109.8374027999962,109.58716329999152,109.8374027999962,109.58716329999152,109.8374027999962,109.58716329999152,109.8374027999962,109.82078419999743,110.32155769999372,109.82078419999743,110.32155769999372,109.82078419999743,110.32155769999372,109.82078419999743,110.32155769999372,109.82078419999743,110.32155769999372,109.82078419999743,110.32155769999372,109.82078419999743,110.32155769999372,109.82078419999743,110.32155769999372,109.58716329999152,None,110.32155769999372,111.65711069999088,0.25,111.67341920000035,None,112.42545359999349,None,,,,,,,[1.33333333],3.1800000000000024,0.6666666666666666,11039,001,2024_Mar_13_1335,MFTM_A_new1021,2021.2.3,60.03067567473508,
,,,,,,,,stim/Instruction_adaptive.png,conditions/adaptive.xlsx,test,0.6,0.6,0.6,-0.6,-0.6,right,R,,,,,0,1,1,1,0,3,3,48,,,,,,,,,,,,,,,,,,,,,,,,,,,,,,,,,,,,,,,,,,,,112.92525219998788,None,left,0,1.1123339000041597,113.42687349999323,114.66112730000168,113.42687349999323,114.16087189999234,113.42687349999323,114.16087189999234,113.42687349999323,114.16087189999234,113.42687349999323,114.16087189999234,113.42687349999323,114.16087189999234,114.14455869999074,114.6445997999981,114.14455869999074,114.6445997999981,114.14455869999074,114.6445997999981,114.14455869999074,114.6445997999981,114.14455869999074,114.6445997999981,114.14455869999074,114.6445997999981,114.14455869999074,114.6445997999981,114.14455869999074,114.6445997999981,113.42687349999323,None,114.6445997999981,116.09822639999038,0.7300000000000004,116.11384669999825,None,116.86483469999803,None,,,,,,,[1.4425],1.510000000000001,0.5,11039,001,2024_Mar_13_1335,MFTM_A_new1021,2021.2.3,60.03067567473508,
,,,,,,,,stim/Instruction_adaptive.png,conditions/adaptive.xlsx,test,-0.6,-0.6,-0.6,0.6,0.6,left,L,,,,,0,1,1,1,0,4,4,49,,,,,,,,,,,,,,,,,,,,,,,,,,,,,,,,,,,,,,,,,,,,117.3654952999932,None,left,1,1.8415570000070147,117.8662869999971,120.68713219999336,117.8662869999971,120.18636149998929,117.8662869999971,120.18636149998929,117.8662869999971,120.18636149998929,117.8662869999971,120.18636149998929,117.8662869999971,120.18636149998929,120.15314280000166,120.65468179999152,120.15314280000166,120.65468179999152,120.15314280000166,120.65468179999152,120.15314280000166,120.65468179999152,120.15314280000166,120.65468179999152,120.15314280000166,120.65468179999152,120.15314280000166,120.65468179999152,120.15314280000166,120.65468179999152,117.8662869999971,None,120.65468179999152,120.85537479999766,2.310000000000002,120.87056429999939,None,121.62247439999192,None,,,,,,,[[0.19]],2.2800000000000016,0.6,11039,001,2024_Mar_13_1335,MFTM_A_new1021,2021.2.3,60.03067567473508,
,,,,,,,,stim/Instruction_adaptive.png,conditions/adaptive.xlsx,test,-0.6,-0.6,-0.6,0.6,0.6,left,L,,,,,0,1,1,1,0,5,5,47,,,,,,,,,,,,,,,,,,,,,,,,,,,,,,,,,,,,,,,,,,,,122.12266689998796,None,left,1,1.5798320000030799,122.6234306999977,124.47720139999001,122.6234306999977,123.97549089998938,122.6234306999977,123.97549089998938,122.6234306999977,123.97549089998938,122.6234306999977,123.97549089998938,122.6234306999977,123.97549089998938,123.95872059999965,124.46078389999457,123.95872059999965,124.46078389999457,123.95872059999965,124.46078389999457,123.95872059999965,124.46078389999457,123.95872059999965,124.46078389999457,123.95872059999965,124.46078389999457,123.95872059999965,124.46078389999457,123.95872059999965,124.46078389999457,122.6234306999977,None,124.46078389999457,125.61233530000027,1.350000000000001,125.62879399998928,None,126.37927320000017,None,,,,,,,[[1.15]],2.7100000000000017,0.6666666666666666,11039,001,2024_Mar_13_1335,MFTM_A_new1021,2021.2.3,60.03067567473508,
,,,,,,,,stim/Instruction_adaptive.png,conditions/adaptive.xlsx,test,-0.6,-0.6,-0.6,0.6,0.6,left,L,,,,,0,1,1,1,0,6,6,25,,,,,,,,,,,,,,,,,,,,,,,,,,,,,,,,,,,,,,,,,,,,126.8797060999932,None,left,1,1.1334872000006726,127.38257249999151,128.8997321999923,127.38257249999151,128.3989089999959,127.38257249999151,128.3989089999959,127.38257249999151,128.3989089999959,127.38257249999151,128.3989089999959,127.38257249999151,128.3989089999959,128.3829454999941,128.88259509998898,128.3829454999941,128.88259509998898,128.3829454999941,128.88259509998898,128.3829454999941,128.88259509998898,128.3829454999941,128.88259509998898,128.3829454999941,128.88259509998898,128.3829454999941,128.88259509998898,128.3829454999941,128.88259509998898,127.38257249999151,None,128.88259509998898,130.1181130999903,1.0100000000000007,130.13637979999476,None,130.8866057999985,None,,,,,,,[1.22857143],3.0200000000000022,0.7142857142857143,11039,001,2024_Mar_13_1335,MFTM_A_new1021,2021.2.3,60.03067567473508,
,,,,,,,,stim/Instruction_adaptive.png,conditions/adaptive.xlsx,test,0.6,0.6,0.6,-0.6,-0.6,right,R,,,,,0,1,1,1,0,7,7,58,,,,,,,,,,,,,,,,,,,,,,,,,,,,,,,,,,,,,,,,,,,,131.3876193999895,None,right,1,1.2357316999987233,131.88779670000076,133.20672779998858,131.88779670000076,132.70600079999713,131.88779670000076,132.70600079999713,131.88779670000076,132.70600079999713,131.88779670000076,132.70600079999713,131.88779670000076,132.70600079999713,132.6720340999891,133.1741231999913,132.6720340999891,133.1741231999913,132.6720340999891,133.1741231999913,132.6720340999891,133.1741231999913,132.6720340999891,133.1741231999913,132.6720340999891,133.1741231999913,132.6720340999891,133.1741231999913,132.6720340999891,133.1741231999913,131.88779670000076,None,133.1741231999913,134.4754755999893,0.8100000000000005,134.49135949999618,None,135.24291789998824,None,,,,,,,[1.28625],3.2800000000000025,0.75,11039,001,2024_Mar_13_1335,MFTM_A_new1021,2021.2.3,60.03067567473508,
,,,,,,,,stim/Instruction_adaptive.png,conditions/adaptive.xlsx,test,0.6,0.6,0.6,-0.6,-0.6,right,R,,,,,0,1,1,1,0,8,8,94,,,,,,,,,,,,,,,,,,,,,,,,,,,,,,,,,,,,,,,,,,,,135.74388209999597,None,left,0,1.3603282999974908,136.24375919999147,137.42986699999892,136.24375919999147,136.92839859999367,136.24375919999147,136.92839859999367,136.24375919999147,136.92839859999367,136.24375919999147,136.92839859999367,136.24375919999147,136.92839859999367,136.91256859998975,137.41321189999871,136.91256859998975,137.41321189999871,136.91256859998975,137.41321189999871,136.91256859998975,137.41321189999871,136.91256859998975,137.41321189999871,136.91256859998975,137.41321189999871,136.91256859998975,137.41321189999871,136.91256859998975,137.41321189999871,136.24375919999147,None,137.41321189999871,138.76473379999516,0.6800000000000004,138.7809877999971,None,139.53196349999052,None,,,,,,,[1.34555556],2.690000000000002,0.6666666666666666,11039,001,2024_Mar_13_1335,MFTM_A_new1021,2021.2.3,60.03067567473508,
,,,,,,,,stim/Instruction_adaptive.png,conditions/adaptive.xlsx,test,0.6,0.6,0.6,-0.6,-0.6,right,R,,,,,0,1,1,1,0,9,9,26,,,,,,,,,,,,,,,,,,,,,,,,,,,,,,,,,,,,,,,,,,,,140.03311720000056,None,right,1,1.0461033000028692,140.53383059999032,142.05366959999083,140.53383059999032,141.5686929999938,140.53383059999032,141.5686929999938,140.53383059999032,141.5686929999938,140.53383059999032,141.5686929999938,140.53383059999032,141.5686929999938,141.53510589999496,142.03720359998988,141.53510589999496,142.03720359998988,141.53510589999496,142.03720359998988,141.53510589999496,142.03720359998988,141.53510589999496,142.03720359998988,141.53510589999496,142.03720359998988,141.53510589999496,142.03720359998988,141.53510589999496,142.03720359998988,140.53383059999032,None,142.03720359998988,143.4049309999973,1.0200000000000007,143.42149069999869,None,144.1727050999907,None,,,,,,,[1.359],2.920000000000002,0.7,11039,001,2024_Mar_13_1335,MFTM_A_new1021,2021.2.3,60.03067567473508,
,,,,,,,,stim/Instruction_adaptive.png,conditions/adaptive.xlsx,test,-0.6,-0.6,-0.6,0.6,0.6,left,L,,,,,0,1,1,1,0,10,10,21,,,,,,,,,,,,,,,,,,,,,,,,,,,,,,,,,,,,,,,,,,,,144.6730760999926,None,right,0,0.8776552000053925,145.17419349998818,146.5439372999972,145.17419349998818,146.059144999992,145.17419349998818,146.059144999992,145.17419349998818,146.059144999992,145.17419349998818,146.059144999992,145.17419349998818,146.059144999992,146.02546150000126,146.5267305999878,146.02546150000126,146.5267305999878,146.02546150000126,146.5267305999878,146.02546150000126,146.5267305999878,146.02546150000126,146.5267305999878,146.02546150000126,146.5267305999878,146.02546150000126,146.5267305999878,146.02546150000126,146.5267305999878,145.17419349998818,None,146.5267305999878,147.91264739999315,0.8700000000000006,147.9465928999998,None,148.6968446999963,None,,,,,,,[1.38363636],2.370000000000002,0.6363636363636364,11039,001,2024_Mar_13_1335,MFTM_A_new1021,2021.2.3,60.03067567473508,
,,,,,,,,stim/Instruction_adaptive.png,conditions/adaptive.xlsx,test,0.6,0.6,0.6,-0.6,-0.6,right,R,,,,,0,1,1,1,0,11,11,24,,,,,,,,,,,,,,,,,,,,,,,,,,,,,,,,,,,,,,,,,,,,149.19772879999073,None,right,1,2.202558899996802,149.69761029999063,151.46780619998754,149.69761029999063,150.98283899998933,149.69761029999063,150.98283899998933,149.69761029999063,150.98283899998933,149.69761029999063,150.98283899998933,149.69761029999063,150.98283899998933,150.9495184999978,151.4509415999928,150.9495184999978,151.4509415999928,150.9495184999978,151.4509415999928,150.9495184999978,151.4509415999928,150.9495184999978,151.4509415999928,150.9495184999978,151.4509415999928,150.9495184999978,151.4509415999928,150.9495184999978,151.4509415999928,149.69761029999063,None,151.4509415999928,152.68632749999233,1.270000000000001,152.70210309998947,None,153.45400059998792,None,,,,,,,[[1.23]],2.5900000000000016,0.6666666666666666,11039,001,2024_Mar_13_1335,MFTM_A_new1021,2021.2.3,60.03067567473508,
,,,,,,,,stim/Instruction_adaptive.png,conditions/adaptive.xlsx,test,0.6,0.6,0.6,-0.6,-0.6,right,R,,,,,0,1,1,1,0,12,12,2,,,,,,,,,,,,,,,,,,,,,,,,,,,,,,,,,,,,,,,,,,,,153.95483719999902,None,right,1,1.1178529000026174,154.45460589999857,156.05805729998974,154.45460589999857,155.55639099999098,154.45460589999857,155.55639099999098,154.45460589999857,155.55639099999098,154.45460589999857,155.55639099999098,154.45460589999857,155.55639099999098,155.52417699999933,156.02496470000187,155.52417699999933,156.02496470000187,155.52417699999933,156.02496470000187,155.52417699999933,156.02496470000187,155.52417699999933,156.02496470000187,155.52417699999933,156.02496470000187,155.52417699999933,156.02496470000187,155.52417699999933,156.02496470000187,154.45460589999857,None,156.02496470000187,157.40998599999875,1.0900000000000007,157.42586059999303,None,158.17801629999303,None,,,,,,,[1.37384615],2.7700000000000022,0.6923076923076923,11039,001,2024_Mar_13_1335,MFTM_A_new1021,2021.2.3,60.03067567473508,
,,,,,,,,stim/Instruction_adaptive.png,conditions/adaptive.xlsx,test,0.6,0.6,0.6,-0.6,-0.6,right,R,,,,,0,1,1,1,0,13,13,44,,,,,,,,,,,,,,,,,,,,,,,,,,,,,,,,,,,,,,,,,,,,158.67780999999377,None,right,1,1.3779189000051701,159.17855979999877,160.64973140000075,159.17855979999877,160.14650849999452,159.17855979999877,160.14650849999452,159.17855979999877,160.14650849999452,159.17855979999877,160.14650849999452,159.17855979999877,160.14650849999452,160.11324989999412,160.6139996999991,160.11324989999412,160.6139996999991,160.11324989999412,160.6139996999991,160.11324989999412,160.6139996999991,160.11324989999412,160.6139996999991,160.11324989999412,160.6139996999991,160.11324989999412,160.6139996999991,160.11324989999412,160.6139996999991,159.17855979999877,None,160.6139996999991,161.99961379999877,0.9600000000000006,162.0325729999895,None,162.78403850000177,None,,,,,,,[1.38571429],2.920000000000002,0.7142857142857143,11039,001,2024_Mar_13_1335,MFTM_A_new1021,2021.2.3,60.03067567473508,
,,,,,,,,stim/Instruction_adaptive.png,conditions/adaptive.xlsx,test,-0.6,-0.6,-0.6,0.6,0.6,left,L,,,,,0,1,1,1,0,14,14,1,,,,,,,,,,,,,,,,,,,,,,,,,,,,,,,,,,,,,,,,,,,,163.28540719999,None,right,0,1.1631377000012435,163.78540709998924,165.17095849999168,163.78540709998924,164.67004069998802,163.78540709998924,164.67004069998802,163.78540709998924,164.67004069998802,163.78540709998924,164.67004069998802,163.78540709998924,164.67004069998802,164.6367254999932,165.13752789999126,164.6367254999932,165.13752789999126,164.6367254999932,165.13752789999126,164.6367254999932,165.13752789999126,164.6367254999932,165.13752789999126,164.6367254999932,165.13752789999126,164.6367254999932,165.13752789999126,164.6367254999932,165.13752789999126,163.78540709998924,None,165.13752789999126,166.5399897999887,0.8700000000000006,166.55560369999148,None,167.30747359999805,None,,,,,,,[1.402],2.530000000000002,0.6666666666666666,11039,001,2024_Mar_13_1335,MFTM_A_new1021,2021.2.3,60.03067567473508,
,,,,,,,,stim/Instruction_adaptive.png,conditions/adaptive.xlsx,test,0.6,0.6,0.6,-0.6,-0.6,right,R,,,,,0,1,1,1,0,15,15,68,,,,,,,,,,,,,,,,,,,,,,,,,,,,,,,,,,,,,,,,,,,,167.80958299999475,None,right,1,1.2555074999982025,168.308795799996,169.9625088999892,168.308795799996,169.4605343000003,168.308795799996,169.4605343000003,168.308795799996,169.4605343000003,168.308795799996,169.4605343000003,168.308795799996,169.4605343000003,169.42710689999512,169.92813380000007,169.42710689999512,169.92813380000007,169.42710689999512,169.92813380000007,169.42710689999512,169.92813380000007,169.42710689999512,169.92813380000007,169.42710689999512,169.92813380000007,169.42710689999512,169.92813380000007,169.42710689999512,169.92813380000007,168.308795799996,None,169.92813380000007,171.2978143999935,1.1400000000000008,171.314192299993,None,172.06531009999162,None,,,,,,,[[1.36]],2.680000000000002,0.6875,11039,001,2024_Mar_13_1335,MFTM_A_new1021,2021.2.3,60.03067567473508,
,,,,,,,,stim/Instruction_adaptive.png,conditions/adaptive.xlsx,test,0.6,0.6,0.6,-0.6,-0.6,right,R,,,,,0,1,1,1,0,16,16,54,,,,,,,,,,,,,,,,,,,,,,,,,,,,,,,,,,,,,,,,,,,,172.5656267999875,None,right,1,1.3146600000036415,173.06617529998766,174.60185490000003,173.06617529998766,174.10092769999756,173.06617529998766,174.10092769999756,173.06617529998766,174.10092769999756,173.06617529998766,174.10092769999756,173.06617529998766,174.10092769999756,174.08427500000107,174.58513789999415,174.08427500000107,174.58513789999415,174.08427500000107,174.58513789999415,174.08427500000107,174.58513789999415,174.08427500000107,174.58513789999415,174.08427500000107,174.58513789999415,174.08427500000107,174.58513789999415,174.08427500000107,174.58513789999415,173.06617529998766,None,174.58513789999415,175.98775649999152,1.0300000000000007,176.00385959999403,None,176.7550479999918,None,,,,,,,[1.40352941],2.800000000000002,0.7058823529411765,11039,001,2024_Mar_13_1335,MFTM_A_new1021,2021.2.3,60.03067567473508,
,,,,,,,,stim/Instruction_adaptive.png,conditions/adaptive.xlsx,test,-0.6,-0.6,-0.6,0.6,0.6,left,L,,,,,0,1,1,1,0,17,17,91,,,,,,,,,,,,,,,,,,,,,,,,,,,,,,,,,,,,,,,,,,,,177.25589069999114,None,left,1,0.8799392000073567,177.7568256999948,179.20865509999567,177.7568256999948,178.70915039999818,177.7568256999948,178.70915039999818,177.7568256999948,178.70915039999818,177.7568256999948,178.70915039999818,177.7568256999948,178.70915039999818,178.67522959999042,179.17605869998806,178.67522959999042,179.17605869998806,178.67522959999042,179.17605869998806,178.67522959999042,179.17605869998806,178.67522959999042,179.17605869998806,178.67522959999042,179.17605869998806,178.67522959999042,179.17605869998806,178.67522959999042,179.17605869998806,177.7568256999948,None,179.17605869998806,180.59404899999208,0.9400000000000006,180.61064939999778,None,181.36183359999268,None,,,,,,,[1.41222222],2.920000000000002,0.7222222222222222,11039,001,2024_Mar_13_1335,MFTM_A_new1021,2021.2.3,60.03067567473508,
,,,,,,,,stim/Instruction_adaptive.png,conditions/adaptive.xlsx,test,0.6,0.6,0.6,-0.6,-0.6,right,R,,,,,0,1,1,1,0,18,18,96,,,,,,,,,,,,,,,,,,,,,,,,,,,,,,,,,,,,,,,,,,,,181.8641834000009,None,right,1,1.0565075999911642,182.36445660000027,183.7488297999953,182.36445660000027,183.24825939998846,182.36445660000027,183.24825939998846,182.36445660000027,183.24825939998846,182.36445660000027,183.24825939998846,182.36445660000027,183.24825939998846,183.21489299999666,183.71608139999444,183.21489299999666,183.71608139999444,183.21489299999666,183.71608139999444,183.21489299999666,183.71608139999444,183.21489299999666,183.71608139999444,183.21489299999666,183.71608139999444,183.21489299999666,183.71608139999444,183.21489299999666,183.71608139999444,182.36445660000027,None,183.71608139999444,185.15164809999987,0.8700000000000006,185.16762690000178,None,185.91934229999606,None,,,,,,,[1.42368421],3.0200000000000022,0.7368421052631579,11039,001,2024_Mar_13_1335,MFTM_A_new1021,2021.2.3,60.03067567473508,
,,,,,,,,stim/Instruction_adaptive.png,conditions/adaptive.xlsx,test,0.6,0.6,0.6,-0.6,-0.6,right,R,,,,,0,1,1,1,0,19,19,56,,,,,,,,,,,,,,,,,,,,,,,,,,,,,,,,,,,,,,,,,,,,186.41963989999203,None,right,1,0.9564381999953184,186.92102229999728,188.2398272999999,186.92102229999728,187.73831950000022,186.92102229999728,187.73831950000022,186.92102229999728,187.73831950000022,186.92102229999728,187.73831950000022,186.92102229999728,187.73831950000022,187.72166039999865,188.22307690000162,187.72166039999865,188.22307690000162,187.72166039999865,188.22307690000162,187.72166039999865,188.22307690000162,187.72166039999865,188.22307690000162,187.72166039999865,188.22307690000162,187.72166039999865,188.22307690000162,187.72166039999865,188.22307690000162,186.92102229999728,None,188.20624390000012,189.65768739998748,0.8100000000000005,189.6744325999898,None,190.42553719998978,None,,,,,,,[1.437],3.110000000000002,0.75,11039,001,2024_Mar_13_1335,MFTM_A_new1021,2021.2.3,60.03067567473508,
,,,,,,,,stim/Instruction_adaptive.png,conditions/adaptive.xlsx,test,-0.6,-0.6,-0.6,0.6,0.6,left,L,,,,,0,1,1,1,0,20,20,99,,,,,,,,,,,,,,,,,,,,,,,,,,,,,,,,,,,,,,,,,,,,190.92616589998943,None,left,1,0.9287374999985332,191.42835819999164,192.69557909999276,191.42835819999164,192.1960478999972,191.42835819999164,192.1960478999972,191.42835819999164,192.1960478999972,191.42835819999164,192.1960478999972,191.42835819999164,192.1960478999972,192.17825079998875,192.68002029998752,192.17825079998875,192.68002029998752,192.17825079998875,192.68002029998752,192.17825079998875,192.68002029998752,192.17825079998875,192.68002029998752,192.17825079998875,192.68002029998752,192.17825079998875,192.68002029998752,192.17825079998875,192.68002029998752,191.42835819999164,None,192.68002029998752,194.1313080999971,0.7600000000000005,194.1479560000007,None,194.89905909998924,None,,,,,,,[1.45142857],3.2000000000000024,0.7619047619047619,11039,001,2024_Mar_13_1335,MFTM_A_new1021,2021.2.3,60.03067567473508,
,,,,,,,,stim/Instruction_adaptive.png,conditions/adaptive.xlsx,test,0.6,0.6,0.6,-0.6,-0.6,right,R,,,,,0,1,1,1,0,21,21,14,,,,,,,,,,,,,,,,,,,,,,,,,,,,,,,,,,,,,,,,,,,,195.39977969999018,None,right,1,0.9280896999989636,195.90110569998797,197.13659460000054,195.90110569998797,196.63634959999763,195.90110569998797,196.63634959999763,195.90110569998797,196.63634959999763,195.90110569998797,196.63634959999763,195.90110569998797,196.63634959999763,196.60262009999133,197.10232629999518,196.60262009999133,197.10232629999518,196.60262009999133,197.10232629999518,196.60262009999133,197.10232629999518,196.60262009999133,197.10232629999518,196.60262009999133,197.10232629999518,196.60262009999133,197.10232629999518,196.60262009999133,197.10232629999518,195.90110569998797,None,197.10232629999518,198.57121329999063,0.7200000000000004,198.58786439998948,None,199.33991949999472,None,,,,,,,[1.46636364],3.2800000000000025,0.7727272727272727,11039,001,2024_Mar_13_1335,MFTM_A_new1021,2021.2.3,60.03067567473508,
,,,,,,,,stim/Instruction_adaptive.png,conditions/adaptive.xlsx,test,0.6,0.6,0.6,-0.6,-0.6,right,R,,,,,0,1,1,1,0,22,22,10,,,,,,,,,,,,,,,,,,,,,,,,,,,,,,,,,,,,,,,,,,,,199.8406721999927,None,left,0,1.1765173000021605,200.34103239999968,201.52549179999914,200.34103239999968,201.02503649999562,200.34103239999968,201.02503649999562,200.34103239999968,201.02503649999562,200.34103239999968,201.02503649999562,200.34103239999968,201.02503649999562,201.00829769999837,201.5094289999979,201.00829769999837,201.5094289999979,201.00829769999837,201.5094289999979,201.00829769999837,201.5094289999979,201.00829769999837,201.5094289999979,201.00829769999837,201.5094289999979,201.00829769999837,201.5094289999979,201.00829769999837,201.5094289999979,200.34103239999968,None,201.5094289999979,202.9946273999958,0.6800000000000004,203.01128779999272,None,203.76234439999098,None,,,,,,,[1.48173913],3.0600000000000023,0.7391304347826086,11039,001,2024_Mar_13_1335,MFTM_A_new1021,2021.2.3,60.03067567473508,
,,,,,,,,stim/Instruction_adaptive.png,conditions/adaptive.xlsx,test,0.6,0.6,0.6,-0.6,-0.6,right,R,,,,,0,1,1,1,0,23,23,42,,,,,,,,,,,,,,,,,,,,,,,,,,,,,,,,,,,,,,,,,,,,204.26298449999013,None,right,1,0.8498217000014847,204.76391579999472,206.06603219998942,204.76391579999472,205.5661972999951,204.76391579999472,205.5661972999951,204.76391579999472,205.5661972999951,204.76391579999472,205.5661972999951,204.76391579999472,205.5661972999951,205.5315518999996,206.03249430000142,205.5315518999996,206.03249430000142,205.5315518999996,206.03249430000142,205.5315518999996,206.03249430000142,205.5315518999996,206.03249430000142,205.5315518999996,206.03249430000142,205.5315518999996,206.03249430000142,205.5315518999996,206.03249430000142,204.76391579999472,None,206.03249430000142,207.53587989999505,0.7900000000000005,207.55150519999734,None,208.30253109999467,None,,,,,,,[1.49125],3.1400000000000023,0.75,11039,001,2024_Mar_13_1335,MFTM_A_new1021,2021.2.3,60.03067567473508,
,,,,,,,,stim/Instruction_adaptive.png,conditions/adaptive.xlsx,test,-0.6,-0.6,-0.6,0.6,0.6,left,L,,,,,0,1,1,1,0,24,24,95,,,,,,,,,,,,,,,,,,,,,,,,,,,,,,,,,,,,,,,,,,,,208.80400740000186,None,left,1,0.9885518000082811,209.30516469999566,210.55579129999387,209.30516469999566,210.0552647000004,209.30516469999566,210.0552647000004,209.30516469999566,210.0552647000004,209.30516469999566,210.0552647000004,209.30516469999566,210.0552647000004,210.03850889999012,210.5393264999875,210.03850889999012,210.5393264999875,210.03850889999012,210.5393264999875,210.03850889999012,210.5393264999875,210.03850889999012,210.5393264999875,210.03850889999012,210.5393264999875,210.03850889999012,210.5393264999875,210.03850889999012,210.5393264999875,209.30516469999566,None,210.5393264999875,212.04275939999206,0.7500000000000004,212.05831179999223,None,212.80966509999416,None,,,,,,,[1.5016],3.2100000000000026,0.76,11039,001,2024_Mar_13_1335,MFTM_A_new1021,2021.2.3,60.03067567473508,
,,,,,,,,stim/Instruction_adaptive.png,conditions/adaptive.xlsx,test,0.6,0.6,0.6,-0.6,-0.6,right,R,,,,,0,1,1,1,0,25,25,98,,,,,,,,,,,,,,,,,,,,,,,,,,,,,,,,,,,,,,,,,,,,213.31010479999532,None,right,1,0.946865699996124,213.81082839999,215.02952679998998,213.81082839999,214.52868079999462,213.81082839999,214.52868079999462,213.81082839999,214.52868079999462,213.81082839999,214.52868079999462,213.81082839999,214.52868079999462,214.5122493999952,215.01274629999534,214.5122493999952,215.01274629999534,214.5122493999952,215.01274629999534,214.5122493999952,215.01274629999534,214.5122493999952,215.01274629999534,214.5122493999952,215.01274629999534,214.5122493999952,215.01274629999534,214.5122493999952,215.01274629999534,213.81082839999,None,215.01274629999534,None,0.7100000000000004,216.53168089999235,None,217.28253349999432,None,,,,,,,[1.51269231],3.2800000000000025,0.7692307692307693,11039,001,2024_Mar_13_1335,MFTM_A_new1021,2021.2.3,60.03067567473508,
,,,,,,,,stim/Instruction_adaptive.png,conditions/adaptive.xlsx,test,-0.6,-0.6,-0.6,0.6,0.6,left,L,,,,,0,1,1,1,0,26,26,43,,,,,,,,,,,,,,,,,,,,,,,,,,,,,,,,,,,,,,,,,,,,217.78440910000063,None,right,0,0.921483599988278,218.2843378999969,219.46953799999028,218.2843378999969,218.969090899991,218.2843378999969,218.969090899991,218.2843378999969,218.969090899991,218.2843378999969,218.969090899991,218.2843378999969,218.969090899991,218.95295469999837,219.4539470000018,218.95295469999837,219.4539470000018,218.95295469999837,219.4539470000018,218.95295469999837,219.4539470000018,218.95295469999837,219.4539470000018,218.95295469999837,219.4539470000018,218.95295469999837,219.4539470000018,218.95295469999837,219.4539470000018,218.2843378999969,None,219.4539470000018,None,0.6800000000000004,220.988305699997,None,221.73948619999283,None,,,,,,,[1.52407407],3.0900000000000025,0.7407407407407407,11039,001,2024_Mar_13_1335,MFTM_A_new1021,2021.2.3,60.03067567473508,
,,,,,,,,stim/Instruction_adaptive.png,conditions/adaptive.xlsx,test,0.6,0.6,0.6,-0.6,-0.6,right,R,,,,,0,1,1,1,0,27,27,6,,,,,,,,,,,,,,,,,,,,,,,,,,,,,,,,,,,,,,,,,,,,222.24101929999597,None,right,1,0.9208871000009822,222.74112229999446,224.00955699999759,222.74112229999446,223.52632819999417,222.74112229999446,223.52632819999417,222.74112229999446,223.52632819999417,222.74112229999446,223.52632819999417,222.74112229999446,223.52632819999417,223.49338269999134,223.993736599994,223.49338269999134,223.993736599994,223.49338269999134,223.993736599994,223.49338269999134,223.993736599994,223.49338269999134,223.993736599994,223.49338269999134,223.993736599994,223.49338269999134,223.993736599994,223.49338269999134,223.993736599994,222.74112229999446,None,223.993736599994,225.52917419999721,0.7700000000000005,225.5450492999953,None,226.29634149999765,None,,,,,,,[1.53142857],3.150000000000002,0.75,11039,001,2024_Mar_13_1335,MFTM_A_new1021,2021.2.3,60.03067567473508,
,,,,,,,,stim/Instruction_adaptive.png,conditions/adaptive.xlsx,test,-0.6,-0.6,-0.6,0.6,0.6,left,L,,,,,0,1,1,1,0,28,28,27,,,,,,,,,,,,,,,,,,,,,,,,,,,,,,,,,,,,,,,,,,,,226.79779869999038,None,left,1,0.956429300000309,227.29778359999182,228.54976979999628,227.29778359999182,228.04905279999366,227.29778359999182,228.04905279999366,227.29778359999182,228.04905279999366,227.29778359999182,228.04905279999366,227.29778359999182,228.04905279999366,228.01612249999016,228.5163504999946,228.01612249999016,228.5163504999946,228.01612249999016,228.5163504999946,228.01612249999016,228.5163504999946,228.01612249999016,228.5163504999946,228.01612249999016,228.5163504999946,228.01612249999016,228.5163504999946,228.01612249999016,228.5163504999946,227.29778359999182,None,228.5163504999946,230.06879889999982,0.7400000000000004,230.0853827999963,None,230.83663609999348,None,,,,,,,[1.53931034],3.2200000000000024,0.7586206896551724,11039,001,2024_Mar_13_1335,MFTM_A_new1021,2021.2.3,60.03067567473508,
,,,,,,,,stim/Instruction_adaptive.png,conditions/adaptive.xlsx,test,-0.6,-0.6,-0.6,0.6,0.6,left,L,,,,,0,1,1,1,0,29,29,39,,,,,,,,,,,,,,,,,,,,,,,,,,,,,,,,,,,,,,,,,,,,231.33727530000033,None,left,1,1.0002635999990162,231.83796869999787,233.05651379999472,231.83796869999787,232.55573179999192,231.83796869999787,232.55573179999192,231.83796869999787,232.55573179999192,231.83796869999787,232.55573179999192,231.83796869999787,232.55573179999192,232.52229579999403,233.0232885000005,232.52229579999403,233.0232885000005,232.52229579999403,233.0232885000005,232.52229579999403,233.0232885000005,232.52229579999403,233.0232885000005,232.52229579999403,233.0232885000005,232.52229579999403,233.0232885000005,232.52229579999403,233.0232885000005,231.83796869999787,None,233.0232885000005,234.57534260000102,0.7100000000000004,234.60883430000104,None,235.36064749999787,None,,,,,,,[1.54766667],3.2800000000000025,0.7666666666666667,11039,001,2024_Mar_13_1335,MFTM_A_new1021,2021.2.3,60.03067567473508,
,,,,,,,,stim/Instruction_adaptive.png,conditions/adaptive.xlsx,test,0.6,0.6,0.6,-0.6,-0.6,right,R,,,,,0,1,1,1,0,30,30,8,,,,,,,,,,,,,,,,,,,,,,,,,,,,,,,,,,,,,,,,,,,,235.8613042999932,None,right,1,0.9739932000084082,236.3612710999878,237.54730890000064,236.3612710999878,237.0459109999938,236.3612710999878,237.0459109999938,236.3612710999878,237.0459109999938,236.3612710999878,237.0459109999938,236.3612710999878,237.0459109999938,237.0292485999962,237.5308420999936,237.0292485999962,237.5308420999936,237.0292485999962,237.5308420999936,237.0292485999962,237.5308420999936,237.0292485999962,237.5308420999936,237.0292485999962,237.5308420999936,237.0292485999962,237.5308420999936,237.0292485999962,237.5308420999936,236.3612710999878,None,237.5308420999936,None,0.6800000000000004,239.09892119999859,None,239.85097639999003,None,,,,,,,[1.55645161],3.3300000000000027,0.7741935483870968,11039,001,2024_Mar_13_1335,MFTM_A_new1021,2021.2.3,60.03067567473508,
,,,,,,,,stim/Instruction_adaptive.png,conditions/adaptive.xlsx,test,-0.6,-0.6,-0.6,0.6,0.6,left,L,,,,,0,1,1,1,0,31,31,73,,,,,,,,,,,,,,,,,,,,,,,,,,,,,,,,,,,,,,,,,,,,240.35092339999392,None,left,1,0.9861860999953933,240.85205390000192,242.0040236999921,240.85205390000192,241.50241010000173,240.85205390000192,241.50241010000173,240.85205390000192,241.50241010000173,240.85205390000192,241.50241010000173,240.85205390000192,241.50241010000173,241.48591360000137,241.9872858999879,241.48591360000137,241.9872858999879,241.48591360000137,241.9872858999879,241.48591360000137,241.9872858999879,241.48591360000137,241.9872858999879,241.48591360000137,241.9872858999879,241.48591360000137,241.9872858999879,241.48591360000137,241.9872858999879,240.85205390000192,None,241.9872858999879,243.55581159998837,0.6500000000000004,243.5723871999944,None,244.3236629999883,None,,,,,,,[1.565625],3.3900000000000023,0.78125,11039,001,2024_Mar_13_1335,MFTM_A_new1021,2021.2.3,60.03067567473508,
,,,,,,,,stim/Instruction_adaptive.png,conditions/adaptive.xlsx,test,0.6,0.6,0.6,-0.6,-0.6,right,R,,,,,0,1,1,1,0,32,32,66,,,,,,,,,,,,,,,,,,,,,,,,,,,,,,,,,,,,,,,,,,,,244.8240708999947,None,left,0,0.7455736000119941,245.32500659998914,246.4599554999877,245.32500659998914,245.9592549999943,245.32500659998914,245.9592549999943,245.32500659998914,245.9592549999943,245.32500659998914,245.9592549999943,245.32500659998914,245.9592549999943,245.94266529999732,246.44313069999043,245.94266529999732,246.44313069999043,245.94266529999732,246.44313069999043,245.94266529999732,246.44313069999043,245.94266529999732,246.44313069999043,245.94266529999732,246.44313069999043,245.94266529999732,246.44313069999043,245.94266529999732,246.44313069999043,245.32500659998914,None,246.44313069999043,None,0.6300000000000003,248.02907039999263,None,248.78023639999446,None,,,,,,,[1.57484848],3.230000000000002,0.7575757575757576,11039,001,2024_Mar_13_1335,MFTM_A_new1021,2021.2.3,60.03067567473508,
,,,,,,,,stim/Instruction_adaptive.png,conditions/adaptive.xlsx,test,0.6,0.6,0.6,-0.6,-0.6,right,R,,,,,0,1,1,1,0,33,33,0,,,,,,,,,,,,,,,,,,,,,,,,,,,,,,,,,,,,,,,,,,,,249.2809844000003,None,left,0,1.1447128999861889,249.7816135999892,250.98358599998755,249.7816135999892,250.48274789999414,249.7816135999892,250.48274789999414,249.7816135999892,250.48274789999414,249.7816135999892,250.48274789999414,249.7816135999892,250.48274789999414,250.4662903999997,250.96684299998742,250.4662903999997,250.96684299998742,250.4662903999997,250.96684299998742,250.4662903999997,250.96684299998742,250.4662903999997,250.96684299998742,250.4662903999997,250.96684299998742,250.4662903999997,250.96684299998742,250.4662903999997,250.96684299998742,249.7816135999892,None,250.96684299998742,252.55270909999672,0.7000000000000004,252.56939879999845,None,253.32030799999484,None,,,,,,,[1.58147059],3.070000000000002,0.7352941176470589,11039,001,2024_Mar_13_1335,MFTM_A_new1021,2021.2.3,60.03067567473508,
,,,,,,,,stim/Instruction_adaptive.png,conditions/adaptive.xlsx,test,0.6,0.6,0.6,-0.6,-0.6,right,R,,,,,0,1,1,1,0,34,34,22,,,,,,,,,,,,,,,,,,,,,,,,,,,,,,,,,,,,,,,,,,,,253.8213504000014,None,right,1,1.0607562999939546,254.32207059999928,255.60736259999976,254.32207059999928,255.10632120000082,254.32207059999928,255.10632120000082,254.32207059999928,255.10632120000082,254.32207059999928,255.10632120000082,254.32207059999928,255.10632120000082,255.08970189999673,255.59111989999656,255.08970189999673,255.59111989999656,255.08970189999673,255.59111989999656,255.08970189999673,255.59111989999656,255.08970189999673,255.59111989999656,255.08970189999673,255.59111989999656,255.08970189999673,255.59111989999656,255.08970189999673,255.59111989999656,254.32207059999928,None,255.59111989999656,257.17703679999977,0.7800000000000005,257.19282339999336,None,257.94404889999714,None,,,,,,,[1.58542857],3.1300000000000026,0.7428571428571429,11039,001,2024_Mar_13_1335,MFTM_A_new1021,2021.2.3,60.03067567473508,
,,,,,,,,stim/Instruction_adaptive.png,conditions/adaptive.xlsx,test,0.6,0.6,0.6,-0.6,-0.6,right,R,,,,,0,1,1,1,0,35,35,88,,,,,,,,,,,,,,,,,,,,,,,,,,,,,,,,,,,,,,,,,,,,258.4447530999896,None,left,0,1.6927913000108674,258.94609259998833,260.1977785999916,258.94609259998833,259.69787029999134,258.94609259998833,259.69787029999134,258.94609259998833,259.69787029999134,258.94609259998833,259.69787029999134,258.94609259998833,259.69787029999134,259.6801198999892,260.1808483999921,259.6801198999892,260.1808483999921,259.6801198999892,260.1808483999921,259.6801198999892,260.1808483999921,259.6801198999892,260.1808483999921,259.6801198999892,260.1808483999921,259.6801198999892,260.1808483999921,259.6801198999892,260.1808483999921,258.94609259998833,None,260.1808483999921,261.7832502999954,0.7500000000000004,261.79985399999714,None,262.55156729999,None,,,,,,,[1.59],2.9700000000000024,0.7222222222222222,11039,001,2024_Mar_13_1335,MFTM_A_new1021,2021.2.3,60.03067567473508,
,,,,,,,,stim/Instruction_adaptive.png,conditions/adaptive.xlsx,test,-0.6,-0.6,-0.6,0.6,0.6,left,L,,,,,0,1,1,1,0,36,36,41,,,,,,,,,,,,,,,,,,,,,,,,,,,,,,,,,,,,,,,,,,,,263.05170109999017,None,right,0,1.1585583000123734,263.55258279999543,264.90476150000177,263.55258279999543,264.40384749999794,263.55258279999543,264.40384749999794,263.55258279999543,264.40384749999794,263.55258279999543,264.40384749999794,263.55258279999543,264.40384749999794,264.3704468999931,264.87191149999853,264.3704468999931,264.87191149999853,264.3704468999931,264.87191149999853,264.3704468999931,264.87191149999853,264.3704468999931,264.87191149999853,264.3704468999931,264.87191149999853,264.3704468999931,264.87191149999853,264.3704468999931,264.87191149999853,263.55258279999543,None,264.87191149999853,266.4735633999953,0.8400000000000005,266.49128349999955,None,267.2419857999921,None,,,,,,,[1.59189189],2.800000000000002,0.7027027027027027,11039,001,2024_Mar_13_1335,MFTM_A_new1021,2021.2.3,60.03067567473508,
,,,,,,,,stim/Instruction_adaptive.png,conditions/adaptive.xlsx,test,-0.6,-0.6,-0.6,0.6,0.6,left,L,,,,,0,1,1,1,0,37,37,57,,,,,,,,,,,,,,,,,,,,,,,,,,,,,,,,,,,,,,,,,,,,267.7421127999987,None,left,1,0.947818600005121,268.2433594999893,269.6951063999877,268.2433594999893,269.19415630000003,268.2433594999893,269.19415630000003,268.2433594999893,269.19415630000003,268.2433594999893,269.19415630000003,268.2433594999893,269.19415630000003,269.16102139999566,269.66276389999257,269.16102139999566,269.66276389999257,269.16102139999566,269.66276389999257,269.16102139999566,269.66276389999257,269.16102139999566,269.66276389999257,269.16102139999566,269.66276389999257,269.16102139999566,269.66276389999257,269.16102139999566,269.66276389999257,268.2433594999893,None,269.66276389999257,271.2308609999891,0.9400000000000006,271.24718310000026,None,271.99877339998784,None,,,,,,,[[1.56]],2.860000000000002,0.7105263157894737,11039,001,2024_Mar_13_1335,MFTM_A_new1021,2021.2.3,60.03067567473508,
,,,,,,,,stim/Instruction_adaptive.png,conditions/adaptive.xlsx,test,-0.6,-0.6,-0.6,0.6,0.6,left,L,,,,,0,1,1,1,0,38,38,81,,,,,,,,,,,,,,,,,,,,,,,,,,,,,,,,,,,,,,,,,,,,272.50022589998844,None,left,1,1.2709796999988612,273.0000402000005,274.4190336999891,273.0000402000005,273.9182843000017,273.0000402000005,273.9182843000017,273.0000402000005,273.9182843000017,273.0000402000005,273.9182843000017,273.0000402000005,273.9182843000017,273.90234190000047,274.4028307999979,273.90234190000047,274.4028307999979,273.90234190000047,274.4028307999979,273.90234190000047,274.4028307999979,273.90234190000047,274.4028307999979,273.90234190000047,274.4028307999979,273.90234190000047,274.4028307999979,273.90234190000047,274.4028307999979,273.0000402000005,None,274.4028307999979,None,0.9100000000000006,276.0057239999878,None,276.75679339999624,None,,,,,,,[[1.59]],2.920000000000002,0.717948717948718,11039,001,2024_Mar_13_1335,MFTM_A_new1021,2021.2.3,60.03067567473508,
,,,,,,,,stim/Instruction_adaptive.png,conditions/adaptive.xlsx,test,0.6,0.6,0.6,-0.6,-0.6,right,R,,,,,0,1,1,1,0,39,39,90,,,,,,,,,,,,,,,,,,,,,,,,,,,,,,,,,,,,,,,,,,,,277.25725209999655,None,right,1,1.6649652999913087,277.7583883999905,279.14259779998974,277.7583883999905,278.6426056999917,277.7583883999905,278.6426056999917,277.7583883999905,278.6426056999917,277.7583883999905,278.6426056999917,277.7583883999905,278.6426056999917,278.60862119999365,279.10921559999406,278.60862119999365,279.10921559999406,278.60862119999365,279.10921559999406,278.60862119999365,279.10921559999406,278.60862119999365,279.10921559999406,278.60862119999365,279.10921559999406,278.60862119999365,279.10921559999406,278.60862119999365,279.10921559999406,277.7583883999905,None,279.10921559999406,280.71184849999554,0.8700000000000006,280.72873449999315,None,281.4806602999888,None,,,,,,,[1.592],2.9700000000000024,0.725,11039,001,2024_Mar_13_1335,MFTM_A_new1021,2021.2.3,60.03067567473508,
,,,,,,,,stim/Instruction_adaptive.png,conditions/adaptive.xlsx,test,0.6,0.6,0.6,-0.6,-0.6,right,R,,,,,0,1,1,1,0,40,40,60,,,,,,,,,,,,,,,,,,,,,,,,,,,,,,,,,,,,,,,,,,,,281.98032989999047,None,left,0,0.8612741000106325,282.4824101999984,283.8342551999958,282.4824101999984,283.33238729998993,282.4824101999984,283.33238729998993,282.4824101999984,283.33238729998993,282.4824101999984,283.33238729998993,282.4824101999984,283.33238729998993,283.2991866999946,283.80016749999777,283.2991866999946,283.80016749999777,283.2991866999946,283.80016749999777,283.2991866999946,283.80016749999777,283.2991866999946,283.80016749999777,283.2991866999946,283.80016749999777,283.2991866999946,283.80016749999777,283.2991866999946,283.80016749999777,282.4824101999984,None,283.80016749999777,285.4019757999922,0.8400000000000005,285.4186789999949,None,286.1704078999901,None,,,,,,,[1.59365854],2.820000000000002,0.7073170731707317,11039,001,2024_Mar_13_1335,MFTM_A_new1021,2021.2.3,60.03067567473508,
,,,,,,,,stim/Instruction_adaptive.png,conditions/adaptive.xlsx,test,0.6,0.6,0.6,-0.6,-0.6,right,R,,,,,0,1,1,1,0,41,41,64,,,,,,,,,,,,,,,,,,,,,,,,,,,,,,,,,,,,,,,,,,,,286.67058469999756,None,right,1,0.9884348999912618,287.17149339999014,288.60739549998834,287.17149339999014,288.10629369999515,287.17149339999014,288.10629369999515,287.17149339999014,288.10629369999515,287.17149339999014,288.10629369999515,287.17149339999014,288.10629369999515,288.08938299999863,288.5911813999992,288.08938299999863,288.5911813999992,288.08938299999863,288.5911813999992,288.08938299999863,288.5911813999992,288.08938299999863,288.5911813999992,288.08938299999863,288.5911813999992,288.08938299999863,288.5911813999992,288.08938299999863,288.5911813999992,287.17149339999014,None,288.5911813999992,None,0.9300000000000006,290.17596680000133,None,290.9269918999926,None,,,,,,,[[1.57]],2.870000000000002,0.7142857142857143,11039,001,2024_Mar_13_1335,MFTM_A_new1021,2021.2.3,60.03067567473508,
,,,,,,,,stim/Instruction_adaptive.png,conditions/adaptive.xlsx,test,-0.6,-0.6,-0.6,0.6,0.6,left,L,,,,,0,1,1,1,0,42,42,23,,,,,,,,,,,,,,,,,,,,,,,,,,,,,,,,,,,,,,,,,,,,291.4279305999953,None,left,1,0.9100961000076495,291.9297574999946,293.3312592000002,291.9297574999946,292.8301164000004,291.9297574999946,292.8301164000004,291.9297574999946,292.8301164000004,291.9297574999946,292.8301164000004,291.9297574999946,292.8301164000004,292.81405509999604,293.314652999994,292.81405509999604,293.314652999994,292.81405509999604,293.314652999994,292.81405509999604,293.314652999994,292.81405509999604,293.314652999994,292.81405509999604,293.314652999994,292.81405509999604,293.314652999994,292.81405509999604,293.314652999994,291.9297574999946,None,293.314652999994,294.91647319999174,0.9000000000000006,294.933191899996,None,295.68479229998775,None,,,,,,,[1.59325581],2.920000000000002,0.7209302325581395,11039,001,2024_Mar_13_1335,MFTM_A_new1021,2021.2.3,60.03067567473508,
,,,,,,,,stim/Instruction_adaptive.png,conditions/adaptive.xlsx,test,-0.6,-0.6,-0.6,0.6,0.6,left,L,,,,,0,1,1,1,0,43,43,67,,,,,,,,,,,,,,,,,,,,,,,,,,,,,,,,,,,,,,,,,,,,296.1849477999931,None,right,0,1.2022042999888072,296.6863195999904,298.07147909999185,296.6863195999904,297.5705530999985,296.6863195999904,297.5705530999985,296.6863195999904,297.5705530999985,296.6863195999904,297.5705530999985,296.6863195999904,297.5705530999985,297.53794099998777,298.03788319999876,297.53794099998777,298.03788319999876,297.53794099998777,298.03788319999876,297.53794099998777,298.03788319999876,297.53794099998777,298.03788319999876,297.53794099998777,298.03788319999876,297.53794099998777,298.03788319999876,297.53794099998777,298.03788319999876,296.6863195999904,None,298.03788319999876,299.6411553999933,0.8700000000000006,299.65670589999354,None,300.4079401999916,None,,,,,,,[1.59409091],2.7700000000000022,0.7045454545454546,11039,001,2024_Mar_13_1335,MFTM_A_new1021,2021.2.3,60.03067567473508,
,,,,,,,,stim/Instruction_adaptive.png,conditions/adaptive.xlsx,test,-0.6,-0.6,-0.6,0.6,0.6,left,L,,,,,0,1,1,1,0,44,44,85,,,,,,,,,,,,,,,,,,,,,,,,,,,,,,,,,,,,,,,,,,,,300.9090523999912,None,right,0,1.0140008999878773,301.4104464999982,302.87842769999406,301.4104464999982,302.37880069999665,301.4104464999982,302.37880069999665,301.4104464999982,302.37880069999665,301.4104464999982,302.37880069999665,301.4104464999982,302.37880069999665,302.3610689999914,302.8617014999909,302.3610689999914,302.8617014999909,302.3610689999914,302.8617014999909,302.3610689999914,302.8617014999909,302.3610689999914,302.8617014999909,302.3610689999914,302.8617014999909,302.3610689999914,302.8617014999909,302.3610689999914,302.8617014999909,301.4104464999982,None,302.8617014999909,None,0.9600000000000006,304.41460519999964,None,305.16505919999327,None,,,,,,,[[1.54]],2.610000000000002,0.6888888888888889,11039,001,2024_Mar_13_1335,MFTM_A_new1021,2021.2.3,60.03067567473508,
,,,,,,,,stim/Instruction_adaptive.png,conditions/adaptive.xlsx,test,-0.6,-0.6,-0.6,0.6,0.6,left,L,,,,,0,1,1,1,0,45,45,87,,,,,,,,,,,,,,,,,,,,,,,,,,,,,,,,,,,,,,,,,,,,305.66694329999154,None,left,1,1.0817985000030603,306.16669539999566,307.7525492999994,306.16669539999566,307.2516631999897,306.16669539999566,307.2516631999897,306.16669539999566,307.2516631999897,306.16669539999566,307.2516631999897,306.16669539999566,307.2516631999897,307.23498239999753,307.73733769998944,307.23498239999753,307.73733769998944,307.23498239999753,307.73733769998944,307.23498239999753,307.73733769998944,307.23498239999753,307.73733769998944,307.23498239999753,307.73733769998944,307.23498239999753,307.73733769998944,307.23498239999753,307.73733769998944,306.16669539999566,None,307.73733769998944,None,1.0800000000000007,309.1711932999897,None,309.9222723999992,None,,,,,,,[[1.42]],2.6700000000000017,0.6956521739130435,11039,001,2024_Mar_13_1335,MFTM_A_new1021,2021.2.3,60.03067567473508,
,,,,,,,,stim/Instruction_adaptive.png,conditions/adaptive.xlsx,test,-0.6,-0.6,-0.6,0.6,0.6,left,L,,,,,0,1,1,1,0,46,46,51,,,,,,,,,,,,,,,,,,,,,,,,,,,,,,,,,,,,,,,,,,,,310.4240405999881,None,left,1,0.9406720999977551,310.92391959999804,312.45973550000053,310.92391959999804,311.958707599988,310.92391959999804,311.958707599988,310.92391959999804,311.958707599988,310.92391959999804,311.958707599988,310.92391959999804,311.958707599988,311.9422244999878,312.4435044999991,311.9422244999878,312.4435044999991,311.9422244999878,312.4435044999991,311.9422244999878,312.4435044999991,311.9422244999878,312.4435044999991,311.9422244999878,312.4435044999991,311.9422244999878,312.4435044999991,311.9422244999878,312.4435044999991,310.92391959999804,None,312.4435044999991,None,1.0300000000000007,313.9284167000005,None,314.67992239999876,None,,,,,,,[[1.47]],2.720000000000002,0.7021276595744681,11039,001,2024_Mar_13_1335,MFTM_A_new1021,2021.2.3,60.03067567473508,
,,,,,,,,stim/Instruction_adaptive.png,conditions/adaptive.xlsx,test,-0.6,-0.6,-0.6,0.6,0.6,left,L,,,,,0,1,1,1,0,47,47,89,,,,,,,,,,,,,,,,,,,,,,,,,,,,,,,,,,,,,,,,,,,,315.1802914,None,left,1,1.1344148000061978,315.68199879999156,317.1837346999964,315.68199879999156,316.683924699988,315.68199879999156,316.683924699988,315.68199879999156,316.683924699988,315.68199879999156,316.683924699988,315.68199879999156,316.683924699988,316.6661729999905,317.16675140000007,316.6661729999905,317.16675140000007,316.6661729999905,317.16675140000007,316.6661729999905,317.16675140000007,316.6661729999905,317.16675140000007,316.6661729999905,317.16675140000007,316.6661729999905,317.16675140000007,316.6661729999905,317.16675140000007,315.68199879999156,None,317.16675140000007,318.6693338999903,1.0000000000000007,318.685579099998,None,319.436750199995,None,,,,,,,[[1.5]],2.7700000000000022,0.7083333333333334,11039,001,2024_Mar_13_1335,MFTM_A_new1021,2021.2.3,60.03067567473508,
,,,,,,,,stim/Instruction_adaptive.png,conditions/adaptive.xlsx,test,0.6,0.6,0.6,-0.6,-0.6,right,R,,,,,0,1,1,1,0,48,48,18,,,,,,,,,,,,,,,,,,,,,,,,,,,,,,,,,,,,,,,,,,,,319.9375682999962,None,right,1,1.274474999998347,320.43819089999306,321.90722009999445,320.43819089999306,321.40735969999514,320.43819089999306,321.40735969999514,320.43819089999306,321.40735969999514,320.43819089999306,321.40735969999514,320.43819089999306,321.40735969999514,321.3728349999874,321.87352660000033,321.3728349999874,321.87352660000033,321.3728349999874,321.87352660000033,321.3728349999874,321.87352660000033,321.3728349999874,321.87352660000033,321.3728349999874,321.87352660000033,321.3728349999874,321.87352660000033,321.3728349999874,321.87352660000033,320.43819089999306,None,321.87352660000033,323.4261050999921,0.9600000000000006,323.44291139999405,None,324.19395839999197,None,,,,,,,[[1.54]],2.820000000000002,0.7142857142857143,11039,001,2024_Mar_13_1335,MFTM_A_new1021,2021.2.3,60.03067567473508,
,,,,,,,,stim/Instruction_adaptive.png,conditions/adaptive.xlsx,test,-0.6,-0.6,-0.6,0.6,0.6,left,L,,,,,0,1,1,1,0,49,49,69,,,,,,,,,,,,,,,,,,,,,,,,,,,,,,,,,,,,,,,,,,,,324.6951876999956,None,left,1,1.1015616999939084,325.19501959999616,326.6318501999922,325.19501959999616,326.1301667999942,325.19501959999616,326.1301667999942,325.19501959999616,326.1301667999942,325.19501959999616,326.1301667999942,325.19501959999616,326.1301667999942,326.1134922999918,326.6150442999933,326.1134922999918,326.6150442999933,326.1134922999918,326.6150442999933,326.1134922999918,326.6150442999933,326.1134922999918,326.6150442999933,326.1134922999918,326.6150442999933,326.1134922999918,326.6150442999933,326.1134922999918,326.6150442999933,325.19501959999616,None,326.6150442999933,328.184010500001,0.9300000000000006,328.1999868999992,None,328.9511465999967,None,,,,,,,[[1.57]],2.870000000000002,0.72,11039,001,2024_Mar_13_1335,MFTM_A_new1021,2021.2.3,60.03067567473508,
,,,,,,,,stim/Instruction_adaptive.png,conditions/adaptive.xlsx,test,0.6,0.6,0.6,-0.6,-0.6,right,R,,,,,0,1,1,1,0,50,50,78,,,,,,,,,,,,,,,,,,,,,,,,,,,,,,,,,,,,,,,,,,,,329.4518761999934,None,right,1,0.9849651999975322,329.95242789998883,331.356421199991,329.95242789998883,330.85382489999756,329.95242789998883,330.85382489999756,329.95242789998883,330.85382489999756,329.95242789998883,330.85382489999756,329.95242789998883,330.85382489999756,330.837174699991,331.3380824999913,330.837174699991,331.3380824999913,330.837174699991,331.3380824999913,330.837174699991,331.3380824999913,330.837174699991,331.3380824999913,330.837174699991,331.3380824999913,330.837174699991,331.3380824999913,330.837174699991,331.3380824999913,329.95242789998883,None,331.3380824999913,332.92458429999533,0.9000000000000006,332.94099149999965,None,333.69210770000063,None,,,,,,,[1.58392157],2.910000000000002,0.7254901960784313,11039,001,2024_Mar_13_1335,MFTM_A_new1021,2021.2.3,60.03067567473508,
,,,,,,,,stim/Instruction_adaptive.png,conditions/adaptive.xlsx,test,-0.6,-0.6,-0.6,0.6,0.6,left,L,,,,,0,1,1,1,0,51,51,37,,,,,,,,,,,,,,,,,,,,,,,,,,,,,,,,,,,,,,,,,,,,334.1934770999942,None,right,0,1.2682414000009885,334.6929914999928,336.07850599999074,334.6929914999928,335.5777597999986,334.6929914999928,335.5777597999986,334.6929914999928,335.5777597999986,334.6929914999928,335.5777597999986,334.6929914999928,335.5777597999986,335.561904599992,336.06190659999265,335.561904599992,336.06190659999265,335.561904599992,336.06190659999265,335.561904599992,336.06190659999265,335.561904599992,336.06190659999265,335.561904599992,336.06190659999265,335.561904599992,336.06190659999265,335.561904599992,336.06190659999265,334.6929914999928,None,336.06190659999265,337.64753550000023,0.8800000000000006,337.6643114999897,None,338.41651060000004,None,,,,,,,[1.58461538],2.790000000000002,0.7115384615384616,11039,001,2024_Mar_13_1335,MFTM_A_new1021,2021.2.3,60.03067567473508,
,,,,,,,,stim/Instruction_adaptive.png,conditions/adaptive.xlsx,test,-0.6,-0.6,-0.6,0.6,0.6,left,L,,,,,0,1,1,1,0,52,52,31,,,,,,,,,,,,,,,,,,,,,,,,,,,,,,,,,,,,,,,,,,,,338.9163412999915,None,left,1,1.0793429000041215,339.4176651999878,340.86899339999945,339.4176651999878,340.3684085999994,339.4176651999878,340.3684085999994,339.4176651999878,340.3684085999994,339.4176651999878,340.3684085999994,339.4176651999878,340.3684085999994,340.3516047999874,340.85300350000034,340.3516047999874,340.85300350000034,340.3516047999874,340.85300350000034,340.3516047999874,340.85300350000034,340.3516047999874,340.85300350000034,340.3516047999874,340.85300350000034,340.3516047999874,340.85300350000034,340.3516047999874,340.85300350000034,339.4176651999878,None,340.85300350000034,342.40554449999763,0.9500000000000006,342.42088839999633,None,343.1727600999875,None,,,,,,,[[1.55]],2.830000000000002,0.7169811320754716,11039,001,2024_Mar_13_1335,MFTM_A_new1021,2021.2.3,60.03067567473508,
,,,,,,,,stim/Instruction_adaptive.png,conditions/adaptive.xlsx,test,-0.6,-0.6,-0.6,0.6,0.6,left,L,,,,,0,1,1,1,0,53,53,45,,,,,,,,,,,,,,,,,,,,,,,,,,,,,,,,,,,,,,,,,,,,343.67438919999404,None,right,0,0.8749365000112448,344.17418769998767,345.6102627999935,344.17418769998767,345.109106399992,344.17418769998767,345.109106399992,344.17418769998767,345.109106399992,344.17418769998767,345.109106399992,344.17418769998767,345.109106399992,345.0926179999951,345.5937869999907,345.0926179999951,345.5937869999907,345.0926179999951,345.5937869999907,345.0926179999951,345.5937869999907,345.0926179999951,345.5937869999907,345.0926179999951,345.5937869999907,345.0926179999951,345.5937869999907,345.0926179999951,345.5937869999907,344.17418769998767,None,345.5937869999907,None,0.9300000000000006,347.1778784999915,None,347.92967379999754,None,,,,,,,[[1.57]],2.700000000000002,0.7037037037037037,11039,001,2024_Mar_13_1335,MFTM_A_new1021,2021.2.3,60.03067567473508,
,,,,,,,,stim/Instruction_adaptive.png,conditions/adaptive.xlsx,test,-0.6,-0.6,-0.6,0.6,0.6,left,L,,,,,0,1,1,1,0,54,54,53,,,,,,,,,,,,,,,,,,,,,,,,,,,,,,,,,,,,,,,,,,,,348.4301884000015,None,None,0,0,348.9312295999989,350.45027509999636,348.9312295999989,349.9505994999927,348.9312295999989,349.9505994999927,348.9312295999989,349.9505994999927,348.9312295999989,349.9505994999927,348.9312295999989,349.9505994999927,349.91683419999026,350.4167371999938,349.91683419999026,350.4167371999938,349.91683419999026,350.4167371999938,349.91683419999026,350.4167371999938,349.91683419999026,350.4167371999938,349.91683419999026,350.4167371999938,349.91683419999026,350.4167371999938,349.91683419999026,350.4167371999938,348.9312295999989,None,350.4167371999938,352.4206283999956,1.0100000000000007,352.43640229999437,None,353.18761539999105,None,,,,,,,[[1.99]],2.570000000000002,0.6909090909090909,11039,001,2024_Mar_13_1335,MFTM_A_new1021,2021.2.3,60.03067567473508,
,,,,,,,,stim/Instruction_adaptive.png,conditions/adaptive.xlsx,test,0.6,0.6,0.6,-0.6,-0.6,right,R,,,,,0,1,1,1,0,55,55,16,,,,,,,,,,,,,,,,,,,,,,,,,,,,,,,,,,,,,,,,,,,,353.68833799999265,None,right,1,0.7325587000086671,354.1890646999964,355.80911170000036,354.1890646999964,355.3073396999971,354.1890646999964,355.3073396999971,354.1890646999964,355.3073396999971,354.1890646999964,355.3073396999971,354.1890646999964,355.3073396999971,355.2905848999944,355.792389299997,355.2905848999944,355.792389299997,355.2905848999944,355.792389299997,355.2905848999944,355.792389299997,355.2905848999944,355.792389299997,355.2905848999944,355.792389299997,355.2905848999944,355.792389299997,355.2905848999944,355.792389299997,354.1890646999964,None,355.7757370999898,357.17753749999974,1.1100000000000008,357.19388359998993,None,357.94480119999207,None,,,,,,,[[1.39]],2.620000000000002,0.6964285714285714,11039,001,2024_Mar_13_1335,MFTM_A_new1021,2021.2.3,60.03067567473508,
,,,,,,,,stim/Instruction_adaptive.png,conditions/adaptive.xlsx,test,0.6,0.6,0.6,-0.6,-0.6,right,R,,,,,0,1,1,1,0,56,56,4,,,,,,,,,,,,,,,,,,,,,,,,,,,,,,,,,,,,,,,,,,,,358.44637169998896,None,right,1,1.3981091000023298,358.9475046000007,360.53206669999054,358.9475046000007,360.03113089999533,358.9475046000007,360.03113089999533,358.9475046000007,360.03113089999533,358.9475046000007,360.03113089999533,358.9475046000007,360.03113089999533,359.99772989998746,360.49865929999214,359.99772989998746,360.49865929999214,359.99772989998746,360.49865929999214,359.99772989998746,360.49865929999214,359.99772989998746,360.49865929999214,359.99772989998746,360.49865929999214,359.99772989998746,360.49865929999214,359.99772989998746,360.49865929999214,358.9475046000007,None,360.49865929999214,361.93475000000035,1.0700000000000007,361.9514052000013,None,362.7020472000004,None,,,,,,,[[1.43]],2.660000000000002,0.7017543859649122,11039,001,2024_Mar_13_1335,MFTM_A_new1021,2021.2.3,60.03067567473508,
,,,,,,,,stim/Instruction_adaptive.png,conditions/adaptive.xlsx,test,-0.6,-0.6,-0.6,0.6,0.6,left,L,,,,,0,1,1,1,0,57,57,5,,,,,,,,,,,,,,,,,,,,,,,,,,,,,,,,,,,,,,,,,,,,363.2028309999878,None,left,1,0.9462519000080647,363.7034516999993,365.25588269998843,363.7034516999993,364.75503089999256,363.7034516999993,364.75503089999256,363.7034516999993,364.75503089999256,363.7034516999993,364.75503089999256,363.7034516999993,364.75503089999256,364.7217496999947,365.22249849999207,364.7217496999947,365.22249849999207,364.7217496999947,365.22249849999207,364.7217496999947,365.22249849999207,364.7217496999947,365.22249849999207,364.7217496999947,365.22249849999207,364.7217496999947,365.22249849999207,364.7217496999947,365.22249849999207,363.7034516999993,None,365.22249849999207,366.69131759999436,1.0400000000000007,366.7079406999983,None,367.45987229999446,None,,,,,,,[[1.46]],2.700000000000002,0.7068965517241379,11039,001,2024_Mar_13_1335,MFTM_A_new1021,2021.2.3,60.03067567473508,
,,,,,,,,stim/Instruction_adaptive.png,conditions/adaptive.xlsx,test,0.6,0.6,0.6,-0.6,-0.6,right,R,,,,,0,1,1,1,0,58,58,80,,,,,,,,,,,,,,,,,,,,,,,,,,,,,,,,,,,,,,,,,,,,367.9598111999949,None,right,1,0.7892374000075506,368.4605673999904,369.97948670000187,368.4605673999904,369.4794172999973,368.4605673999904,369.4794172999973,368.4605673999904,369.4794172999973,368.4605673999904,369.4794172999973,368.4605673999904,369.4794172999973,369.4455040999892,369.94615879999765,369.4455040999892,369.94615879999765,369.4455040999892,369.94615879999765,369.4455040999892,369.94615879999765,369.4455040999892,369.94615879999765,369.4455040999892,369.94615879999765,369.4455040999892,369.94615879999765,369.4455040999892,369.94615879999765,368.4605673999904,None,369.94615879999765,371.448450099997,1.0100000000000007,371.46513509999204,None,372.2167904999951,None,,,,,,,[[1.49]],2.740000000000002,0.711864406779661,11039,001,2024_Mar_13_1335,MFTM_A_new1021,2021.2.3,60.03067567473508,
,,,,,,,,stim/Instruction_adaptive.png,conditions/adaptive.xlsx,test,-0.6,-0.6,-0.6,0.6,0.6,left,L,,,,,0,1,1,1,0,59,59,63,,,,,,,,,,,,,,,,,,,,,,,,,,,,,,,,,,,,,,,,,,,,372.717083999989,None,left,1,0.6073392999969656,373.2185632999899,374.7042586999887,373.2185632999899,374.2025704999978,373.2185632999899,374.2025704999978,373.2185632999899,374.2025704999978,373.2185632999899,374.2025704999978,373.2185632999899,374.2025704999978,374.1862686999957,374.6865356999915,374.1862686999957,374.6865356999915,374.1862686999957,374.6865356999915,374.1862686999957,374.6865356999915,374.1862686999957,374.6865356999915,374.1862686999957,374.6865356999915,374.1862686999957,374.6865356999915,374.1862686999957,374.6865356999915,373.2185632999899,None,374.6865356999915,None,0.9800000000000006,376.2228746999899,None,376.97337959999277,None,,,,,,,[[1.52]],2.780000000000002,0.7166666666666667,11039,001,2024_Mar_13_1335,MFTM_A_new1021,2021.2.3,60.03067567473508,
,,,,,,,,stim/Instruction_adaptive.png,conditions/adaptive.xlsx,test,0.6,0.6,0.6,-0.6,-0.6,right,R,,,,,0,1,1,1,0,60,60,34,,,,,,,,,,,,,,,,,,,,,,,,,,,,,,,,,,,,,,,,,,,,377.4744131999905,None,right,1,0.9064443000097526,377.9753980999958,379.44457149998925,377.9753980999958,378.943159699993,377.9753980999958,378.943159699993,377.9753980999958,378.943159699993,377.9753980999958,378.943159699993,377.9753980999958,378.943159699993,378.9095118999976,379.41135199999553,378.9095118999976,379.41135199999553,378.9095118999976,379.41135199999553,378.9095118999976,379.41135199999553,378.9095118999976,379.41135199999553,378.9095118999976,379.41135199999553,378.9095118999976,379.41135199999553,378.9095118999976,379.41135199999553,377.9753980999958,None,379.41135199999553,380.9626647999976,0.9600000000000006,380.9794580000016,None,381.73076079999737,None,,,,,,,[[1.54]],2.820000000000002,0.7213114754098361,11039,001,2024_Mar_13_1335,MFTM_A_new1021,2021.2.3,60.03067567473508,
,,,,,,,,stim/Instruction_adaptive.png,conditions/adaptive.xlsx,test,-0.6,-0.6,-0.6,0.6,0.6,left,L,,,,,0,1,1,1,0,61,61,9,,,,,,,,,,,,,,,,,,,,,,,,,,,,,,,,,,,,,,,,,,,,382.2326325999893,None,left,1,0.9987804999982473,382.73216819998925,384.167786799997,382.73216819998925,383.6667351999931,382.73216819998925,383.6667351999931,382.73216819998925,383.6667351999931,382.73216819998925,383.6667351999931,382.73216819998925,383.6667351999931,383.65103799999633,384.15094859999954,383.65103799999633,384.15094859999954,383.65103799999633,384.15094859999954,383.65103799999633,384.15094859999954,383.65103799999633,384.15094859999954,383.65103799999633,384.15094859999954,383.65103799999633,384.15094859999954,383.65103799999633,384.15094859999954,382.73216819998925,None,384.15094859999954,385.72014439999475,0.9300000000000006,385.7365114999993,None,386.4877826000011,None,,,,,,,[[1.57]],2.8500000000000023,0.7258064516129032,11039,001,2024_Mar_13_1335,MFTM_A_new1021,2021.2.3,60.03067567473508,
,,,,,,,,stim/Instruction_adaptive.png,conditions/adaptive.xlsx,test,0.6,0.6,0.6,-0.6,-0.6,right,R,,,,,0,1,1,1,0,62,62,20,,,,,,,,,,,,,,,,,,,,,,,,,,,,,,,,,,,,,,,,,,,,386.9886587999936,None,right,1,0.8335721000039484,387.4894130999892,388.9084533999994,387.4894130999892,388.40839099998993,387.4894130999892,388.40839099998993,387.4894130999892,388.40839099998993,387.4894130999892,388.40839099998993,387.4894130999892,388.40839099998993,388.39151069999207,388.891898899994,388.39151069999207,388.891898899994,388.39151069999207,388.891898899994,388.39151069999207,388.891898899994,388.39151069999207,388.891898899994,388.39151069999207,388.891898899994,388.39151069999207,388.891898899994,388.39151069999207,388.891898899994,387.4894130999892,None,388.8755162000016,390.4603214999952,0.9100000000000006,390.47695060000115,None,391.2294963999884,None,,,,,,,[1.57142857],2.8900000000000023,0.7301587301587301,11039,001,2024_Mar_13_1335,MFTM_A_new1021,2021.2.3,60.03067567473508,
,,,,,,,,stim/Instruction_adaptive.png,conditions/adaptive.xlsx,test,-0.6,-0.6,-0.6,0.6,0.6,left,L,,,,,0,1,1,1,0,63,63,7,,,,,,,,,,,,,,,,,,,,,,,,,,,,,,,,,,,,,,,,,,,,391.7290684999898,None,left,1,0.717290900007356,392.22988729999634,393.6330484999926,392.22988729999634,393.13116379998974,392.22988729999634,393.13116379998974,392.22988729999634,393.13116379998974,392.22988729999634,393.13116379998974,392.22988729999634,393.13116379998974,393.0977572999982,393.5994792999991,393.0977572999982,393.5994792999991,393.0977572999982,393.5994792999991,393.0977572999982,393.5994792999991,393.0977572999982,393.5994792999991,393.0977572999982,393.5994792999991,393.0977572999982,393.5994792999991,393.0977572999982,393.5994792999991,392.22988729999634,None,393.5994792999991,395.18426529999124,0.8900000000000006,395.20103969999764,None,395.95202209999843,None,,,,,,,[1.57203125],2.920000000000002,0.734375,11039,001,2024_Mar_13_1335,MFTM_A_new1021,2021.2.3,60.03067567473508,
,,,,,,,,stim/Instruction_adaptive.png,conditions/adaptive.xlsx,test,0.6,0.6,0.6,-0.6,-0.6,right,R,,,,,0,1,1,1,0,64,64,12,,,,,,,,,,,,,,,,,,,,,,,,,,,,,,,,,,,,,,,,,,,,396.4528011999937,None,right,1,1.0492326999956276,396.9535789999936,398.32327009999426,396.9535789999936,397.8385050999932,396.9535789999936,397.8385050999932,396.9535789999936,397.8385050999932,396.9535789999936,397.8385050999932,396.9535789999936,397.8385050999932,397.80581489999895,398.3064649000007,397.80581489999895,398.3064649000007,397.80581489999895,398.3064649000007,397.80581489999895,398.3064649000007,397.80581489999895,398.3064649000007,397.80581489999895,398.3064649000007,397.80581489999895,398.3064649000007,397.80581489999895,398.3064649000007,396.9535789999936,None,398.3064649000007,399.89130569998815,0.8700000000000006,399.9079466999974,None,400.660057599991,None,,,,,,,[1.57292308],2.950000000000002,0.7384615384615385,11039,001,2024_Mar_13_1335,MFTM_A_new1021,2021.2.3,60.03067567473508,
,,,,,,,,stim/Instruction_adaptive.png,conditions/adaptive.xlsx,test,-0.6,-0.6,-0.6,0.6,0.6,left,L,,,,,0,1,1,1,0,65,65,29,,,,,,,,,,,,,,,,,,,,,,,,,,,,,,,,,,,,,,,,,,,,401.15987249999307,None,left,1,0.846285399995395,401.66105699999025,403.0129641999956,401.66105699999025,402.51197419999517,401.66105699999025,402.51197419999517,401.66105699999025,402.51197419999517,401.66105699999025,402.51197419999517,401.66105699999025,402.51197419999517,402.4953768999985,402.9965947000019,402.4953768999985,402.9965947000019,402.4953768999985,402.9965947000019,402.4953768999985,402.9965947000019,402.4953768999985,402.9965947000019,402.4953768999985,402.9965947000019,402.4953768999985,402.9965947000019,402.4953768999985,402.9965947000019,401.66105699999025,None,402.9965947000019,404.581880999991,0.8500000000000005,404.59838039999886,None,405.34969779998937,None,,,,,,,[1.57409091],2.980000000000002,0.7424242424242424,11039,001,2024_Mar_13_1335,MFTM_A_new1021,2021.2.3,60.03067567473508,
,,,,,,,,stim/Instruction_adaptive.png,conditions/adaptive.xlsx,test,-0.6,-0.6,-0.6,0.6,0.6,left,L,,,,,0,1,1,1,0,66,66,33,,,,,,,,,,,,,,,,,,,,,,,,,,,,,,,,,,,,,,,,,,,,405.85015810000186,None,left,1,0.7243630000011763,406.35105979999935,407.6875468999933,406.35105979999935,407.1857580999931,406.35105979999935,407.1857580999931,406.35105979999935,407.1857580999931,406.35105979999935,407.1857580999931,406.35105979999935,407.1857580999931,407.16906679999374,407.67050929999095,407.16906679999374,407.67050929999095,407.16906679999374,407.67050929999095,407.16906679999374,407.67050929999095,407.16906679999374,407.67050929999095,407.16906679999374,407.67050929999095,407.16906679999374,407.67050929999095,407.16906679999374,407.67050929999095,406.35105979999935,None,407.67050929999095,409.25533599998744,0.8300000000000005,409.2721395999979,None,410.02329259998805,None,,,,,,,[1.57552239],3.0100000000000025,0.746268656716418,11039,001,2024_Mar_13_1335,MFTM_A_new1021,2021.2.3,60.03067567473508,
,,,,,,,,stim/Instruction_adaptive.png,conditions/adaptive.xlsx,test,0.6,0.6,0.6,-0.6,-0.6,right,R,,,,,0,1,1,1,0,67,67,52,,,,,,,,,,,,,,,,,,,,,,,,,,,,,,,,,,,,,,,,,,,,410.5247909999889,None,left,0,0.9705790000007255,411.0246722000011,412.34420589999354,411.0246722000011,411.8603798999975,411.0246722000011,411.8603798999975,411.0246722000011,411.8603798999975,411.0246722000011,411.8603798999975,411.0246722000011,411.8603798999975,411.8260034999985,412.32762450000155,411.8260034999985,412.32762450000155,411.8260034999985,412.32762450000155,411.8260034999985,412.32762450000155,411.8260034999985,412.32762450000155,411.8260034999985,412.32762450000155,411.8260034999985,412.32762450000155,411.8260034999985,412.32762450000155,411.0246722000011,None,412.32762450000155,413.9127010999946,0.8200000000000005,413.92932629999996,None,414.6816594999982,None,,,,,,,[1.57705882],2.9300000000000024,0.7352941176470589,11039,001,2024_Mar_13_1335,MFTM_A_new1021,2021.2.3,60.03067567473508,
,,,,,,,,stim/Instruction_adaptive.png,conditions/adaptive.xlsx,test,0.6,0.6,0.6,-0.6,-0.6,right,R,,,,,0,1,1,1,0,68,68,76,,,,,,,,,,,,,,,,,,,,,,,,,,,,,,,,,,,,,,,,,,,,415.1810708999983,None,left,0,0.8092445000074804,415.6818324999913,417.0504190999927,415.6818324999913,416.5498679000011,415.6818324999913,416.5498679000011,415.6818324999913,416.5498679000011,415.6818324999913,416.5498679000011,415.6818324999913,416.5498679000011,416.5162275999901,417.0184575999883,416.5162275999901,417.0184575999883,416.5162275999901,417.0184575999883,416.5162275999901,417.0184575999883,416.5162275999901,417.0184575999883,416.5162275999901,417.0184575999883,416.5162275999901,417.0184575999883,416.5162275999901,417.0184575999883,415.6818324999913,None,417.0184575999883,418.6028449000005,0.8600000000000005,418.6196015999885,None,419.3707840999996,None,,,,,,,[1.57797101],2.840000000000002,0.7246376811594203,11039,001,2024_Mar_13_1335,MFTM_A_new1021,2021.2.3,60.03067567473508,
,,,,,,,,stim/Instruction_adaptive.png,conditions/adaptive.xlsx,test,-0.6,-0.6,-0.6,0.6,0.6,left,L,,,,,0,1,1,1,0,69,69,55,,,,,,,,,,,,,,,,,,,,,,,,,,,,,,,,,,,,,,,,,,,,419.8713543999911,None,right,0,0.8950389999954496,420.3721378999908,421.80743209998764,420.3721378999908,421.3068256999977,420.3721378999908,421.3068256999977,420.3721378999908,421.3068256999977,420.3721378999908,421.3068256999977,420.3721378999908,421.3068256999977,421.27330639999127,421.77438919999986,421.27330639999127,421.77438919999986,421.27330639999127,421.77438919999986,421.27330639999127,421.77438919999986,421.27330639999127,421.77438919999986,421.27330639999127,421.77438919999986,421.27330639999127,421.77438919999986,421.27330639999127,421.77438919999986,420.3721378999908,None,421.77438919999986,423.3598798999883,0.9200000000000006,423.3766285999882,None,424.12776369998755,None,,,,,,,[1.578],2.740000000000002,0.7142857142857143,11039,001,2024_Mar_13_1335,MFTM_A_new1021,2021.2.3,60.03067567473508,
,,,,,,,,stim/Instruction_adaptive.png,conditions/adaptive.xlsx,test,-0.6,-0.6,-0.6,0.6,0.6,left,L,,,,,0,1,1,1,0,70,70,97,,,,,,,,,,,,,,,,,,,,,,,,,,,,,,,,,,,,,,,,,,,,424.6285646999895,None,left,1,0.7938064000045415,425.1293921999895,426.6158483999898,425.1293921999895,426.1140575999889,425.1293921999895,426.1140575999889,425.1293921999895,426.1140575999889,425.1293921999895,426.1140575999889,425.1293921999895,426.1140575999889,426.0973932999914,426.59806459999527,426.0973932999914,426.59806459999527,426.0973932999914,426.59806459999527,426.0973932999914,426.59806459999527,426.0973932999914,426.59806459999527,426.0973932999914,426.59806459999527,426.0973932999914,426.59806459999527,426.0973932999914,426.59806459999527,425.1293921999895,None,426.59806459999527,428.1171323999879,0.9800000000000006,428.1338640999893,None,428.8860605999944,None,,,,,,,[[1.52]],2.780000000000002,0.7183098591549296,11039,001,2024_Mar_13_1335,MFTM_A_new1021,2021.2.3,60.03067567473508,
,,,,,,,,stim/Instruction_adaptive.png,conditions/adaptive.xlsx,test,0.6,0.6,0.6,-0.6,-0.6,right,R,,,,,0,1,1,1,0,71,71,40,,,,,,,,,,,,,,,,,,,,,,,,,,,,,,,,,,,,,,,,,,,,429.3866253999877,None,right,1,0.9410569000028772,429.88654049999604,431.35709259999567,429.88654049999604,430.8545457,429.88654049999604,430.8545457,429.88654049999604,430.8545457,429.88654049999604,430.8545457,429.88654049999604,430.8545457,430.8212802999915,431.3221154999919,430.8212802999915,431.3221154999919,430.8212802999915,431.3221154999919,430.8212802999915,431.3221154999919,430.8212802999915,431.3221154999919,430.8212802999915,431.3221154999919,430.8212802999915,431.3221154999919,430.8212802999915,431.3221154999919,429.88654049999604,None,431.3221154999919,432.87432160000026,0.9600000000000006,432.8910351999948,None,433.64226169999165,None,,,,,,,[[1.54]],2.8100000000000023,0.7222222222222222,11039,001,2024_Mar_13_1335,MFTM_A_new1021,2021.2.3,60.03067567473508,
,,,,,,,,stim/Instruction_adaptive.png,conditions/adaptive.xlsx,test,-0.6,-0.6,-0.6,0.6,0.6,left,L,,,,,0,1,1,1,0,72,72,17,,,,,,,,,,,,,,,,,,,,,,,,,,,,,,,,,,,,,,,,,,,,434.14397079999617,None,left,1,0.8310803000058513,434.64456229998905,436.09607929999765,434.64456229998905,435.5950432999962,434.64456229998905,435.5950432999962,434.64456229998905,435.5950432999962,434.64456229998905,435.5950432999962,434.64456229998905,435.5950432999962,435.56237039998814,436.0624653999985,435.56237039998814,436.0624653999985,435.56237039998814,436.0624653999985,435.56237039998814,436.0624653999985,435.56237039998814,436.0624653999985,435.56237039998814,436.0624653999985,435.56237039998814,436.0624653999985,435.56237039998814,436.0624653999985,434.64456229998905,None,436.0624653999985,437.6326044999878,0.9400000000000006,437.64807830000063,None,438.39948529998946,None,,,,,,,[[1.56]],2.840000000000002,0.726027397260274,11039,001,2024_Mar_13_1335,MFTM_A_new1021,2021.2.3,60.03067567473508,
,,,,,,,,stim/Instruction_adaptive.png,conditions/adaptive.xlsx,test,-0.6,-0.6,-0.6,0.6,0.6,left,L,,,,,0,1,1,1,0,73,73,19,,,,,,,,,,,,,,,,,,,,,,,,,,,,,,,,,,,,,,,,,,,,438.8999971999874,None,right,0,1.0510697999998229,439.40092639999057,440.8365206999879,439.40092639999057,440.3355397999985,439.40092639999057,440.3355397999985,439.40092639999057,440.3355397999985,439.40092639999057,440.3355397999985,439.40092639999057,440.3355397999985,440.30227139999624,440.8029438999947,440.30227139999624,440.8029438999947,440.30227139999624,440.8029438999947,440.30227139999624,440.8029438999947,440.30227139999624,440.8029438999947,440.30227139999624,440.8029438999947,440.30227139999624,440.8029438999947,440.30227139999624,440.8029438999947,439.40092639999057,None,440.8029438999947,442.38965189999726,0.9200000000000006,442.4052832999878,None,443.1564800999913,None,,,,,,,[1.57648649],2.7500000000000018,0.7162162162162162,11039,001,2024_Mar_13_1335,MFTM_A_new1021,2021.2.3,60.03067567473508,
,,,,,,,,stim/Instruction_adaptive.png,conditions/adaptive.xlsx,test,0.6,0.6,0.6,-0.6,-0.6,right,R,,,,,0,1,1,1,0,74,74,32,,,,,,,,,,,,,,,,,,,,,,,,,,,,,,,,,,,,,,,,,,,,443.65862209998886,None,right,1,1.0139296000124887,444.1581398999988,445.6436723999941,444.1581398999988,445.1438427999965,444.1581398999988,445.1438427999965,444.1581398999988,445.1438427999965,444.1581398999988,445.1438427999965,444.1581398999988,445.1438427999965,445.1262119999883,445.62695949999033,445.1262119999883,445.62695949999033,445.1262119999883,445.62695949999033,445.1262119999883,445.62695949999033,445.1262119999883,445.62695949999033,445.1262119999883,445.62695949999033,445.1262119999883,445.62695949999033,445.1262119999883,445.62695949999033,444.1581398999988,None,445.62695949999033,447.1467338999937,0.9800000000000006,447.16192749999755,None,447.91426879999926,None,,,,,,,[[1.52]],2.780000000000002,0.72,11039,001,2024_Mar_13_1335,MFTM_A_new1021,2021.2.3,60.03067567473508,
,,,,,,,,stim/Instruction_adaptive.png,conditions/adaptive.xlsx,test,-0.6,-0.6,-0.6,0.6,0.6,left,L,,,,,0,1,1,1,0,75,75,83,,,,,,,,,,,,,,,,,,,,,,,,,,,,,,,,,,,,,,,,,,,,448.41517659999954,None,left,1,0.7119900000107009,448.91586689998803,450.3841604999907,448.91586689998803,449.8832748999994,448.91586689998803,449.8832748999994,448.91586689998803,449.8832748999994,448.91586689998803,449.8832748999994,448.91586689998803,449.8832748999994,449.85044840000046,450.35072560000117,449.85044840000046,450.35072560000117,449.85044840000046,450.35072560000117,449.85044840000046,450.35072560000117,449.85044840000046,450.35072560000117,449.85044840000046,450.35072560000117,449.85044840000046,450.35072560000117,449.85044840000046,450.35072560000117,448.91586689998803,None,450.35072560000117,451.90295740000147,0.9600000000000006,451.91972910000186,None,452.67072239999834,None,,,,,,,[[1.54]],2.8100000000000023,0.7236842105263158,11039,001,2024_Mar_13_1335,MFTM_A_new1021,2021.2.3,60.03067567473508,
,,,,,,,,stim/Instruction_adaptive.png,conditions/adaptive.xlsx,test,-0.6,-0.6,-0.6,0.6,0.6,left,L,,,,,0,1,1,1,0,76,76,93,,,,,,,,,,,,,,,,,,,,,,,,,,,,,,,,,,,,,,,,,,,,453.17138319999503,None,right,0,0.7156715000019176,453.6725007999921,455.1245790999965,453.6725007999921,454.62485110000125,453.6725007999921,454.62485110000125,453.6725007999921,454.62485110000125,453.6725007999921,454.62485110000125,453.6725007999921,454.62485110000125,454.59053180000046,455.0911958999932,454.59053180000046,455.0911958999932,454.59053180000046,455.0911958999932,454.59053180000046,455.0911958999932,454.59053180000046,455.0911958999932,454.59053180000046,455.0911958999932,454.59053180000046,455.0911958999932,454.59053180000046,455.0911958999932,453.6725007999921,None,455.0911958999932,456.660243899998,0.9400000000000006,456.6767734999885,None,457.42800200000056,None,,,,,,,[[1.56]],2.720000000000002,0.7142857142857143,11039,001,2024_Mar_13_1335,MFTM_A_new1021,2021.2.3,60.03067567473508,
,,,,,,,,stim/Instruction_adaptive.png,conditions/adaptive.xlsx,test,0.6,0.6,0.6,-0.6,-0.6,right,R,,,,,0,1,1,1,0,77,77,30,,,,,,,,,,,,,,,,,,,,,,,,,,,,,,,,,,,,,,,,,,,,457.9288641999883,None,right,1,1.0383149000117555,458.4302566999977,459.93214499999885,458.4302566999977,459.43201819999376,458.4302566999977,459.43201819999376,458.4302566999977,459.43201819999376,458.4302566999977,459.43201819999376,458.4302566999977,459.43201819999376,459.4142901999876,459.91551869999967,459.4142901999876,459.91551869999967,459.4142901999876,459.91551869999967,459.4142901999876,459.91551869999967,459.4142901999876,459.91551869999967,459.4142901999876,459.91551869999967,459.4142901999876,459.91551869999967,459.4142901999876,459.91551869999967,458.4302566999977,None,459.91551869999967,461.4173565999954,1.0000000000000007,461.43399409999256,None,462.1850257999904,None,,,,,,,[[1.5]],2.7500000000000018,0.717948717948718,11039,001,2024_Mar_13_1335,MFTM_A_new1021,2021.2.3,60.03067567473508,
,,,,,,,,stim/Instruction_adaptive.png,conditions/adaptive.xlsx,test,0.6,0.6,0.6,-0.6,-0.6,right,R,,,,,0,1,1,1,0,78,78,62,,,,,,,,,,,,,,,,,,,,,,,,,,,,,,,,,,,,,,,,,,,,462.6859526999906,None,left,0,0.768806099993526,463.18748939999205,464.67318309999246,463.18748939999205,464.17146579999826,463.18748939999205,464.17146579999826,463.18748939999205,464.17146579999826,463.18748939999205,464.17146579999826,463.18748939999205,464.17146579999826,464.15499889999046,464.6563039999892,464.15499889999046,464.6563039999892,464.15499889999046,464.6563039999892,464.15499889999046,464.6563039999892,464.15499889999046,464.6563039999892,464.15499889999046,464.6563039999892,464.15499889999046,464.6563039999892,464.15499889999046,464.6563039999892,463.18748939999205,None,464.6563039999892,None,0.9800000000000006,466.19134959999064,None,466.9421413999953,None,,,,,,,[[1.52]],2.660000000000002,0.7088607594936709,11039,001,2024_Mar_13_1335,MFTM_A_new1021,2021.2.3,60.03067567473508,
,,,,,,,,stim/Instruction_adaptive.png,conditions/adaptive.xlsx,test,-0.6,-0.6,-0.6,0.6,0.6,left,L,,,,,0,1,1,1,0,79,79,15,,,,,,,,,,,,,,,,,,,,,,,,,,,,,,,,,,,,,,,,,,,,467.4438475999923,None,left,1,1.0514538999996148,467.9447131999914,469.4961159999948,467.9447131999914,468.99541920000047,467.9447131999914,468.99541920000047,467.9447131999914,468.99541920000047,467.9447131999914,468.99541920000047,467.9447131999914,468.99541920000047,468.9622956999956,469.46287160000065,468.9622956999956,469.46287160000065,468.9622956999956,469.46287160000065,468.9622956999956,469.46287160000065,468.9622956999956,469.46287160000065,468.9622956999956,469.46287160000065,468.9622956999956,469.46287160000065,468.9622956999956,469.46287160000065,467.9447131999914,None,469.46287160000065,470.9320977999887,1.0400000000000007,470.94846020000114,None,471.6993483999977,None,,,,,,,[[1.46]],2.690000000000002,0.7125,11039,001,2024_Mar_13_1335,MFTM_A_new1021,2021.2.3,60.03067567473508,
,,,,,,,,stim/Instruction_adaptive.png,conditions/adaptive.xlsx,test,-0.6,-0.6,-0.6,0.6,0.6,left,L,,,,,0,1,1,1,0,80,80,11,,,,,,,,,,,,,,,,,,,,,,,,,,,,,,,,,,,,,,,,,,,,472.20091030000185,None,left,1,0.8071332999970764,472.701874099992,474.23671849998937,472.701874099992,473.73595940000087,472.701874099992,473.73595940000087,472.701874099992,473.73595940000087,472.701874099992,473.73595940000087,472.701874099992,473.73595940000087,473.70346569998947,474.20385839999653,473.70346569998947,474.20385839999653,473.70346569998947,474.20385839999653,473.70346569998947,474.20385839999653,473.70346569998947,474.20385839999653,473.70346569998947,474.20385839999653,473.70346569998947,474.20385839999653,473.70346569998947,474.20385839999653,472.701874099992,None,474.20385839999653,475.6893290000007,1.0200000000000007,475.70557229999395,None,476.4566926999978,None,,,,,,,[[1.48]],2.720000000000002,0.7160493827160493,11039,001,2024_Mar_13_1335,MFTM_A_new1021,2021.2.3,60.03067567473508,
,,,,,,,,stim/Instruction_adaptive.png,conditions/adaptive.xlsx,test,0.6,0.6,0.6,-0.6,-0.6,right,R,,,,,0,1,1,1,0,81,81,92,,,,,,,,,,,,,,,,,,,,,,,,,,,,,,,,,,,,,,,,,,,,476.95748849998927,None,right,1,0.6904596999956993,477.4586181999912,478.96121049999783,477.4586181999912,478.4604047999892,477.4586181999912,478.4604047999892,477.4586181999912,478.4604047999892,477.4586181999912,478.4604047999892,477.4586181999912,478.4604047999892,478.44314859999577,478.9443973000016,478.44314859999577,478.9443973000016,478.44314859999577,478.9443973000016,478.44314859999577,478.9443973000016,478.44314859999577,478.9443973000016,478.44314859999577,478.9443973000016,478.44314859999577,478.9443973000016,478.44314859999577,478.9443973000016,477.4586181999912,None,478.9443973000016,480.44623459999275,1.0000000000000007,480.46284529998957,None,481.21397459998843,None,,,,,,,[[1.5]],2.7500000000000018,0.7195121951219512,11039,001,2024_Mar_13_1335,MFTM_A_new1021,2021.2.3,60.03067567473508,
,,,,,,,,stim/Instruction_adaptive.png,conditions/adaptive.xlsx,test,-0.6,-0.6,-0.6,0.6,0.6,left,L,,,,,0,1,1,1,0,82,82,59,,,,,,,,,,,,,,,,,,,,,,,,,,,,,,,,,,,,,,,,,,,,481.71462959999917,None,right,0,1.2693927999935113,482.2155931999878,483.7018143999885,482.2155931999878,483.20104829999036,482.2155931999878,483.20104829999036,482.2155931999878,483.20104829999036,482.2155931999878,483.20104829999036,482.2155931999878,483.20104829999036,483.18355649999285,483.68544570000086,483.18355649999285,483.68544570000086,483.18355649999285,483.68544570000086,483.18355649999285,483.68544570000086,483.18355649999285,483.68544570000086,483.18355649999285,483.68544570000086,483.18355649999285,483.68544570000086,483.18355649999285,483.68544570000086,482.2155931999878,None,483.68544570000086,None,0.9800000000000006,485.2195195999957,None,485.9711138999992,None,,,,,,,[[1.52]],2.6700000000000017,0.7108433734939759,11039,001,2024_Mar_13_1335,MFTM_A_new1021,2021.2.3,60.03067567473508,
,,,,,,,,stim/Instruction_adaptive.png,conditions/adaptive.xlsx,test,0.6,0.6,0.6,-0.6,-0.6,right,R,,,,,0,1,1,1,0,83,83,82,,,,,,,,,,,,,,,,,,,,,,,,,,,,,,,,,,,,,,,,,,,,486.4718228999991,None,right,1,1.2402673999895342,486.97249469999224,488.5087354999996,486.97249469999224,488.00758769999084,486.97249469999224,488.00758769999084,486.97249469999224,488.00758769999084,486.97249469999224,488.00758769999084,486.97249469999224,488.00758769999084,487.9908960999892,488.4916624999896,487.9908960999892,488.4916624999896,487.9908960999892,488.4916624999896,487.9908960999892,488.4916624999896,487.9908960999892,488.4916624999896,487.9908960999892,488.4916624999896,487.9908960999892,488.4916624999896,487.9908960999892,488.4916624999896,486.97249469999224,None,488.4916624999896,489.9609094999905,1.0300000000000007,489.9770709000004,None,490.72827769999276,None,,,,,,,[[1.47]],2.700000000000002,0.7142857142857143,11039,001,2024_Mar_13_1335,MFTM_A_new1021,2021.2.3,60.03067567473508,
,,,,,,,,stim/Instruction_adaptive.png,conditions/adaptive.xlsx,test,-0.6,-0.6,-0.6,0.6,0.6,left,L,,,,,0,1,1,1,0,84,84,61,,,,,,,,,,,,,,,,,,,,,,,,,,,,,,,,,,,,,,,,,,,,491.2291086999903,None,left,1,0.9640035000047646,491.7295618999924,493.2495534999907,491.7295618999924,492.7483818999899,491.7295618999924,492.7483818999899,491.7295618999924,492.7483818999899,491.7295618999924,492.7483818999899,491.7295618999924,492.7483818999899,492.7317073999875,493.2322381999984,492.7317073999875,493.2322381999984,492.7317073999875,493.2322381999984,492.7317073999875,493.2322381999984,492.7317073999875,493.2322381999984,492.7317073999875,493.2322381999984,492.7317073999875,493.2322381999984,492.7317073999875,493.2322381999984,491.7295618999924,None,493.21527409998816,494.7181161999906,1.0100000000000007,494.7343155999988,None,495.4854769999947,None,,,,,,,[[1.49]],2.730000000000002,0.7176470588235294,11039,001,2024_Mar_13_1335,MFTM_A_new1021,2021.2.3,60.03067567473508,
,,,,,,,,stim/Instruction_adaptive.png,conditions/adaptive.xlsx,test,-0.6,-0.6,-0.6,0.6,0.6,left,L,,,,,0,1,1,1,0,85,85,77,,,,,,,,,,,,,,,,,,,,,,,,,,,,,,,,,,,,,,,,,,,,495.9859907999926,None,right,0,1.1427345999982208,496.4866723999876,497.9891210999922,496.4866723999876,497.4893008999934,496.4866723999876,497.4893008999934,496.4866723999876,497.4893008999934,496.4866723999876,497.4893008999934,496.4866723999876,497.4893008999934,497.45531109999865,497.9568384000013,497.45531109999865,497.9568384000013,497.45531109999865,497.9568384000013,497.45531109999865,497.9568384000013,497.45531109999865,497.9568384000013,497.45531109999865,497.9568384000013,497.45531109999865,497.9568384000013,497.45531109999865,497.9568384000013,496.4866723999876,None,497.9568384000013,499.47679999998945,0.9900000000000007,499.4913133999944,None,500.2424675999937,None,,,,,,,[[1.51]],2.640000000000002,0.7093023255813954,11039,001,2024_Mar_13_1335,MFTM_A_new1021,2021.2.3,60.03067567473508,
,,,,,,,,stim/Instruction_adaptive.png,conditions/adaptive.xlsx,test,-0.6,-0.6,-0.6,0.6,0.6,left,L,,,,,0,1,1,1,0,86,86,35,,,,,,,,,,,,,,,,,,,,,,,,,,,,,,,,,,,,,,,,,,,,500.7434852000006,None,right,0,0.9451766000129282,501.2439716999943,502.8135532000015,501.2439716999943,502.31239199999254,501.2439716999943,502.31239199999254,501.2439716999943,502.31239199999254,501.2439716999943,502.31239199999254,501.2439716999943,502.31239199999254,502.27972779999254,502.7807457000017,502.27972779999254,502.7807457000017,502.27972779999254,502.7807457000017,502.27972779999254,502.7807457000017,502.27972779999254,502.7807457000017,502.27972779999254,502.7807457000017,502.27972779999254,502.7807457000017,502.27972779999254,502.7807457000017,501.2439716999943,None,502.7807457000017,504.2340448999894,1.0600000000000007,504.2480516999931,None,504.9997089999961,None,,,,,,,[[1.44]],2.560000000000002,0.7011494252873564,11039,001,2024_Mar_13_1335,MFTM_A_new1021,2021.2.3,60.03067567473508,
,,,,,,,,stim/Instruction_adaptive.png,conditions/adaptive.xlsx,test,0.6,0.6,0.6,-0.6,-0.6,right,R,,,,,0,1,1,1,0,87,87,86,,,,,,,,,,,,,,,,,,,,,,,,,,,,,,,,,,,,,,,,,,,,505.5010418999882,None,right,1,1.5644297000108054,506.00121950000175,507.6205210999906,506.00121950000175,507.13623849999567,506.00121950000175,507.13623849999567,506.00121950000175,507.13623849999567,506.00121950000175,507.13623849999567,506.00121950000175,507.13623849999567,507.10293100000126,507.60448789999646,507.10293100000126,507.60448789999646,507.10293100000126,507.60448789999646,507.10293100000126,507.60448789999646,507.10293100000126,507.60448789999646,507.10293100000126,507.60448789999646,507.10293100000126,507.60448789999646,507.10293100000126,507.60448789999646,506.00121950000175,None,507.60448789999646,508.9904264999932,1.1200000000000008,509.00540860000183,None,509.75743359999615,None,,,,,,,[[1.38]],2.5900000000000016,0.7045454545454546,11039,001,2024_Mar_13_1335,MFTM_A_new1021,2021.2.3,60.03067567473508,
,,,,,,,,stim/Instruction_adaptive.png,conditions/adaptive.xlsx,test,0.6,0.6,0.6,-0.6,-0.6,right,R,,,,,0,1,1,1,0,88,88,28,,,,,,,,,,,,,,,,,,,,,,,,,,,,,,,,,,,,,,,,,,,,510.25767890000134,None,left,0,0.9204738999978872,510.7584465999971,512.360901299995,510.7584465999971,511.86021020000044,510.7584465999971,511.86021020000044,510.7584465999971,511.86021020000044,510.7584465999971,511.86021020000044,510.7584465999971,511.86021020000044,511.8266297999944,512.3277340999921,511.8266297999944,512.3277340999921,511.8266297999944,512.3277340999921,511.8266297999944,512.3277340999921,511.8266297999944,512.3277340999921,511.8266297999944,512.3277340999921,511.8266297999944,512.3277340999921,511.8266297999944,512.3277340999921,510.7584465999971,None,512.3277340999921,513.7462396999908,1.0900000000000007,513.762891499995,None,514.5150869999925,None,,,,,,,[[1.41]],2.5000000000000018,0.6966292134831461,11039,001,2024_Mar_13_1335,MFTM_A_new1021,2021.2.3,60.03067567473508,
,,,,,,,,stim/Instruction_adaptive.png,conditions/adaptive.xlsx,test,-0.6,-0.6,-0.6,0.6,0.6,left,L,,,,,0,1,1,1,0,89,89,75,,,,,,,,,,,,,,,,,,,,,,,,,,,,,,,,,,,,,,,,,,,,515.0157080999925,None,left,1,0.9380755000020145,515.5157107999985,517.1849779999902,515.5157107999985,516.6842090999999,515.5157107999985,516.6842090999999,515.5157107999985,516.6842090999999,515.5157107999985,516.6842090999999,515.5157107999985,516.6842090999999,516.6505225000001,517.1520778999984,516.6505225000001,517.1520778999984,516.6505225000001,517.1520778999984,516.6505225000001,517.1520778999984,516.6505225000001,517.1520778999984,516.6505225000001,517.1520778999984,516.6505225000001,517.1520778999984,516.6505225000001,517.1520778999984,515.5157107999985,None,517.1520778999984,518.5032971999899,1.1600000000000008,518.5199731999892,None,519.2711149999959,None,,,,,,,[[1.34]],2.530000000000002,0.7,11039,001,2024_Mar_13_1335,MFTM_A_new1021,2021.2.3,60.03067567473508,
,,,,,,,,stim/Instruction_adaptive.png,conditions/adaptive.xlsx,test,-0.6,-0.6,-0.6,0.6,0.6,left,L,,,,,0,1,1,1,0,90,90,65,,,,,,,,,,,,,,,,,,,,,,,,,,,,,,,,,,,,,,,,,,,,519.7719935999921,None,right,0,0.7571447999944212,520.2729185999924,521.9260791999986,520.2729185999924,521.4253949999984,520.2729185999924,521.4253949999984,520.2729185999924,521.4253949999984,520.2729185999924,521.4253949999984,520.2729185999924,521.4253949999984,521.3912444000016,521.8919781000004,521.3912444000016,521.8919781000004,521.3912444000016,521.8919781000004,521.3912444000016,521.8919781000004,521.3912444000016,521.8919781000004,521.3912444000016,521.8919781000004,521.3912444000016,521.8919781000004,521.3912444000016,521.8919781000004,520.2729185999924,None,521.8919781000004,523.2619279999926,1.1400000000000008,523.2772047999897,None,524.0290922999993,None,,,,,,,[[1.36]],2.4400000000000017,0.6923076923076923,11039,001,2024_Mar_13_1335,MFTM_A_new1021,2021.2.3,60.03067567473508,
,,,,,,,,stim/Instruction_adaptive.png,conditions/adaptive.xlsx,test,0.6,0.6,0.6,-0.6,-0.6,right,R,,,,,0,1,1,1,0,91,91,36,,,,,,,,,,,,,,,,,,,,,,,,,,,,,,,,,,,,,,,,,,,,524.52964719999,None,right,1,0.8560591999994358,525.0299640000012,526.7500165999954,525.0299640000012,526.2486372999992,525.0299640000012,526.2486372999992,525.0299640000012,526.2486372999992,525.0299640000012,526.2486372999992,525.0299640000012,526.2486372999992,526.2330118999962,526.7328908999916,526.2330118999962,526.7328908999916,526.2330118999962,526.7328908999916,526.2330118999962,526.7328908999916,526.2330118999962,526.7328908999916,526.2330118999962,526.7328908999916,526.2330118999962,526.7328908999916,526.2330118999962,526.7328908999916,525.0299640000012,None,526.7158402999921,528.0184587999975,1.2100000000000009,528.033875299996,None,528.7864220999909,None,,,,,,,[[1.29]],2.4700000000000015,0.6956521739130435,11039,001,2024_Mar_13_1335,MFTM_A_new1021,2021.2.3,60.03067567473508,
,,,,,,,,stim/Instruction_adaptive.png,conditions/adaptive.xlsx,test,-0.6,-0.6,-0.6,0.6,0.6,left,L,,,,,0,1,1,1,0,92,92,13,,,,,,,,,,,,,,,,,,,,,,,,,,,,,,,,,,,,,,,,,,,,529.2861646999954,None,left,1,0.8511683000106132,529.7871132,531.4905485999916,529.7871132,530.9890201999951,529.7871132,530.9890201999951,529.7871132,530.9890201999951,529.7871132,530.9890201999951,529.7871132,530.9890201999951,530.9554388999968,531.4563255999965,530.9554388999968,531.4563255999965,530.9554388999968,531.4563255999965,530.9554388999968,531.4563255999965,530.9554388999968,531.4563255999965,530.9554388999968,531.4563255999965,530.9554388999968,531.4563255999965,530.9554388999968,531.4563255999965,529.7871132,None,531.4563255999965,532.7748500999878,1.1900000000000008,532.7924385999941,None,533.543634799993,None,,,,,,,[[1.31]],2.5000000000000018,0.6989247311827957,11039,001,2024_Mar_13_1335,MFTM_A_new1021,2021.2.3,60.03067567473508,
,,,,,,,,stim/Instruction_adaptive.png,conditions/adaptive.xlsx,test,0.6,0.6,0.6,-0.6,-0.6,right,R,,,,,0,1,1,1,0,93,93,74,,,,,,,,,,,,,,,,,,,,,,,,,,,,,,,,,,,,,,,,,,,,534.0435351999913,None,right,1,0.9418252000032226,534.54428799999,536.2143505999993,534.54428799999,535.7123806000018,534.54428799999,535.7123806000018,534.54428799999,535.7123806000018,534.54428799999,535.7123806000018,534.54428799999,535.7123806000018,535.6794679000013,536.1800236999989,535.6794679000013,536.1800236999989,535.6794679000013,536.1800236999989,535.6794679000013,536.1800236999989,535.6794679000013,536.1800236999989,535.6794679000013,536.1800236999989,535.6794679000013,536.1800236999989,535.6794679000013,536.1800236999989,534.54428799999,None,536.1800236999989,537.532272899989,1.1600000000000008,537.5487123999919,None,538.3009125999961,None,,,,,,,[[1.34]],2.530000000000002,0.7021276595744681,11039,001,2024_Mar_13_1335,MFTM_A_new1021,2021.2.3,60.03067567473508,
