arrwidth1,arrwidth2,arrwidth3,arrwidth4,arrwidth5,keyb,type,orientation,instruction_image,block_filename,block_type,arrow11,arrow22,arrow33,arrow44,arrow55,keyb_3,orientation3,trials.thisRepN,trials.thisTrialN,trials.thisN,trials.thisIndex,trials_3.thisRepN,trials_3.thisTrialN,trials_3.thisN,trials_3.thisIndex,trials_2.thisRepN,trials_2.thisTrialN,trials_2.thisN,trials_2.thisIndex,welcome.started,welcome.stopped,key_resp.keys,key_resp.rt,key_resp.started,key_resp.stopped,instruction_example.started,instruction_example.stopped,key_resp_3.keys,key_resp_3.rt,key_resp_3.started,key_resp_3.stopped,instruction_task.started,instruction_task.stopped,key_resp_2.keys,key_resp_2.rt,key_resp_2.started,key_resp_2.stopped,text_2.started,text_2.stopped,A1.started,A1.stopped,A2.started,A2.stopped,A3.started,A3.stopped,A4.started,A4.stopped,A5.started,A5.stopped,key_resp_4.keys,key_resp_4.corr,key_resp_4.rt,key_resp_4.started,key_resp_4.stopped,fb.started,fb.stopped,instruction_block.started,instruction_block.stopped,key_resp_8.keys,key_resp_8.rt,key_resp_8.started,key_resp_8.stopped,text_8.started,text_8.stopped,key_resp_9.keys,key_resp_9.corr,key_resp_9.rt,text_5.started,text_5.stopped,A11_3.started,A11_3.stopped,A22_2.started,A22_2.stopped,A33_2.started,A33_2.stopped,A44_2.started,A44_2.stopped,A55_2.started,A55_2.stopped,M1_3.started,M1_3.stopped,M2_2.started,M2_2.stopped,M3_2.started,M3_2.stopped,M4_2.started,M4_2.stopped,M5_2.started,M5_2.stopped,M6_2.started,M6_2.stopped,M7_2.started,M7_2.stopped,M8_2.started,M8_2.stopped,key_resp_9.started,key_resp_9.stopped,fixation.started,fixation.stopped,ET,fb_3.started,fb_3.stopped,text_9.started,text_9.stopped,fb_4.started,fb_4.stopped,text_7.started,text_7.stopped,endtext.started,endtext.stopped,fixation_ITI,CCC,Acc,participant,session,date,expName,psychopyVersion,frameRate,
,,,,,,,,,,,,,,,,,,,,,,,,,,,,,,10.998623399995267,None,space,2.273732499917969,10.998623399995267,None,,,,,,,,,,,,,,,,,,,,,,,,,,,,,,,,,,,,,,,,,,,,,,,,,,,,,,,,,,,,,,,,,,,,,,,,,,,,,,,,,,,,,,,,,11036,001,2024_Mar_10_1430,MFTM_A_new1021,2021.2.3,59.629829941413526,
,,,,,,,,,,,,,,,,,,,,,,,,,,,,,,,,,,,,13.301875500008464,None,space,2.7953977999277413,13.301875500008464,None,,,,,,,,,,,,,,,,,,,,,,,,,,,,,,,,,,,,,,,,,,,,,,,,,,,,,,,,,,,,,,,,,,,,,,,,,,,,,,,,,,,11036,001,2024_Mar_10_1430,MFTM_A_new1021,2021.2.3,59.629829941413526,
,,,,,,,,,,,,,,,,,,,,,,,,,,,,,,,,,,,,,,,,,,16.122955600032583,None,space,4.541762300068513,16.122955600032583,None,,,,,,,,,,,,,,,,,,,,,,,,,,,,,,,,,,,,,,,,,,,,,,,,,,,,,,,,,,,,,,,,,,,,,,,,,,,,,11036,001,2024_Mar_10_1430,MFTM_A_new1021,2021.2.3,59.629829941413526,
-0.6,-0.6,-0.6,0.6,0.6,left,3:2,L,,,,,,,,,,,0,0,0,1,,,,,,,,,,,,,,,,,,,,,,,,,,,20.69743339996785,None,20.69743339996785,None,20.69743339996785,None,20.69743339996785,None,20.69743339996785,None,20.69743339996785,None,left,1,2.1523013000842184,20.69743339996785,None,22.884096800116822,None,,,,,,,,,,,,,,,,,,,,,,,,,,,,,,,,,,,,,,,,,,,,,,,,,,,,,,,,,,11036,001,2024_Mar_10_1430,MFTM_A_new1021,2021.2.3,59.629829941413526,
0.6,0.6,0.6,-0.6,-0.6,right,3:2,R,,,,,,,,,,,0,1,1,0,,,,,,,,,,,,,,,,,,,,,,,,,,,23.63491249992512,None,23.63491249992512,None,23.63491249992512,None,23.63491249992512,None,23.63491249992512,None,23.63491249992512,None,right,1,3.495157200144604,23.63491249992512,None,27.156095700105652,None,,,,,,,,,,,,,,,,,,,,,,,,,,,,,,,,,,,,,,,,,,,,,,,,,,,,,,,,,,11036,001,2024_Mar_10_1430,MFTM_A_new1021,2021.2.3,59.629829941413526,
0.6,0.6,0.6,-0.6,-0.6,right,3:2,R,,,,,,,,,,,1,0,2,0,,,,,,,,,,,,,,,,,,,,,,,,,,,27.907363899983466,None,27.907363899983466,None,27.907363899983466,None,27.907363899983466,None,27.907363899983466,None,27.907363899983466,None,right,1,3.381723399972543,27.907363899983466,None,31.312197200022638,None,,,,,,,,,,,,,,,,,,,,,,,,,,,,,,,,,,,,,,,,,,,,,,,,,,,,,,,,,,11036,001,2024_Mar_10_1430,MFTM_A_new1021,2021.2.3,59.629829941413526,
-0.6,-0.6,-0.6,0.6,0.6,left,3:2,L,,,,,,,,,,,1,1,3,1,,,,,,,,,,,,,,,,,,,,,,,,,,,32.06438439991325,None,32.06438439991325,None,32.06438439991325,None,32.06438439991325,None,32.06438439991325,None,32.06438439991325,None,left,1,1.336773500079289,32.06438439991325,None,33.43221820006147,None,,,,,,,,,,,,,,,,,,,,,,,,,,,,,,,,,,,,,,,,,,,,,,,,,,,,,,,,,,11036,001,2024_Mar_10_1430,MFTM_A_new1021,2021.2.3,59.629829941413526,
,,,,,,,,stim/Instruction_mask.png,conditions/adaptive.xlsx,practice,-0.6,-0.6,-0.6,0.6,0.6,left,L,,,,,0,0,0,0,0,0,0,21,,,,,,,,,,,,,,,,,,,,,,,,,,,,,,,,,,,,,,34.383716700132936,None,space,32.45005410001613,34.383716700132936,None,66.93269090005197,None,left,1,1.5059628998860717,67.3679734999314,None,67.3679734999314,70.37209940003231,67.3679734999314,70.37209940003231,67.3679734999314,70.37209940003231,67.3679734999314,70.37209940003231,67.3679734999314,70.37209940003231,70.35475690010935,70.85722290002741,70.35475690010935,70.85722290002741,70.35475690010935,70.85722290002741,70.35475690010935,70.85722290002741,70.35475690010935,70.85722290002741,70.35475690010935,70.85722290002741,70.35475690010935,70.85722290002741,70.35475690010935,70.85722290002741,67.3679734999314,None,70.85722290002741,70.85722290002741,3,70.87255159998313,None,71.62325710011646,None,,,,,,,,,,11036,001,2024_Mar_10_1430,MFTM_A_new1021,2021.2.3,59.629829941413526,
,,,,,,,,stim/Instruction_mask.png,conditions/adaptive.xlsx,practice,0.6,0.6,0.6,-0.6,-0.6,right,R,,,,,0,0,0,0,0,1,1,50,,,,,,,,,,,,,,,,,,,,,,,,,,,,,,,,,,,,,,,,,,,,72.12464149994776,None,left,0,2.1296034001279622,72.62471479992382,74.62908470002003,72.62471479992382,74.12769330013543,72.62471479992382,74.12769330013543,72.62471479992382,74.12769330013543,72.62471479992382,74.12769330013543,72.62471479992382,74.12769330013543,74.11136410012841,74.6122395999264,74.11136410012841,74.6122395999264,74.11136410012841,74.6122395999264,74.11136410012841,74.6122395999264,74.11136410012841,74.6122395999264,74.11136410012841,74.6122395999264,74.11136410012841,74.6122395999264,74.11136410012841,74.6122395999264,72.62471479992382,None,74.6122395999264,76.11413370002992,1.5,76.12972970004193,None,76.8812458999455,None,,,,,,,,,,11036,001,2024_Mar_10_1430,MFTM_A_new1021,2021.2.3,59.629829941413526,
,,,,,,,,stim/Instruction_mask.png,conditions/adaptive.xlsx,practice,-0.6,-0.6,-0.6,0.6,0.6,left,L,,,,,0,0,0,0,0,2,2,67,,,,,,,,,,,,,,,,,,,,,,,,,,,,,,,,,,,,,,,,,,,,77.38264010008425,None,left,1,1.5038664999883622,77.88266390003264,79.1854721000418,77.88266390003264,78.6856575999409,77.88266390003264,78.6856575999409,77.88266390003264,78.6856575999409,77.88266390003264,78.6856575999409,77.88266390003264,78.6856575999409,78.667125799926,79.16803380008787,78.667125799926,79.16803380008787,78.667125799926,79.16803380008787,78.667125799926,79.16803380008787,78.667125799926,79.16803380008787,78.667125799926,79.16803380008787,78.667125799926,79.16803380008787,78.667125799926,79.16803380008787,77.88266390003264,None,79.16803380008787,81.37144490005448,0.8,81.38863619999029,None,82.14001580001786,None,,,,,,,,,,11036,001,2024_Mar_10_1430,MFTM_A_new1021,2021.2.3,59.629829941413526,
,,,,,,,,stim/Instruction_mask.png,conditions/adaptive.xlsx,practice,-0.6,-0.6,-0.6,0.6,0.6,left,L,,,,,0,0,0,0,0,3,3,43,,,,,,,,,,,,,,,,,,,,,,,,,,,,,,,,,,,,,,,,,,,,82.63984660012648,None,right,0,1.1729812000412494,83.14167240005918,83.89240429992788,83.14167240005918,83.3912730999291,83.14167240005918,83.3912730999291,83.14167240005918,83.3912730999291,83.14167240005918,83.3912730999291,83.14167240005918,83.3912730999291,83.37472250009887,83.8756598001346,83.37472250009887,83.8756598001346,83.37472250009887,83.8756598001346,83.37472250009887,83.8756598001346,83.37472250009887,83.8756598001346,83.37472250009887,83.8756598001346,83.37472250009887,83.8756598001346,83.37472250009887,83.8756598001346,83.14167240005918,None,83.8756598001346,86.63002449995838,3,86.64650460006669,None,87.39768450008705,None,,,,,,,,,,11036,001,2024_Mar_10_1430,MFTM_A_new1021,2021.2.3,59.629829941413526,
,,,,,,,,stim/Instruction_mask.png,conditions/adaptive.xlsx,practice,,,,,,,,,,,,0,0,0,0,,,,,,,,,,,,,,,,,,,,,,,,,,,,,,,,,,,,,,,,,,,,,,,,,,,,,,,,,,,,,,,,,,,,,,,,,,,,,,,,,,,,,,,,,,87.91461570002139,88.91663899994455,88.90014140005223,88.90014140005223,88.90014140005223,None,,,,11036,001,2024_Mar_10_1430,MFTM_A_new1021,2021.2.3,59.629829941413526,
,,,,,,,,stim/Instruction_adaptive.png,conditions/adaptive.xlsx,test,0.6,0.6,0.6,-0.6,-0.6,right,R,,,,,0,1,1,1,0,0,0,4,,,,,,,,,,,,,,,,,,,,,,,,,,,,,,,,,,,,,,92.02074289997108,None,space,18.023183800047264,92.02074289997108,None,110.0804864000529,None,right,1,1.9326444000471383,110.58283630013466,None,110.58283630013466,113.58664770005271,110.58283630013466,113.58664770005271,110.58283630013466,113.58664770005271,110.58283630013466,113.58664770005271,110.58283630013466,113.58664770005271,113.57014050008729,114.07060630014166,113.57014050008729,114.07060630014166,113.57014050008729,114.07060630014166,113.57014050008729,114.07060630014166,113.57014050008729,114.07060630014166,113.57014050008729,114.07060630014166,113.57014050008729,114.07060630014166,113.57014050008729,114.07060630014166,110.58283630013466,None,114.07060630014166,114.07060630014166,3,114.0874133000616,None,114.83874720009044,None,,,,,,,0,6.000000000000005,1.0,11036,001,2024_Mar_10_1430,MFTM_A_new1021,2021.2.3,59.629829941413526,
,,,,,,,,stim/Instruction_adaptive.png,conditions/adaptive.xlsx,test,-0.6,-0.6,-0.6,0.6,0.6,left,L,,,,,0,1,1,1,0,1,1,45,,,,,,,,,,,,,,,,,,,,,,,,,,,,,,,,,,,,,,,,,,,,115.33908990002237,None,right,0,0.9872956001199782,115.83985430002213,116.5916921000462,115.83985430002213,116.09012089995667,115.83985430002213,116.09012089995667,115.83985430002213,116.09012089995667,115.83985430002213,116.09012089995667,115.83985430002213,116.09012089995667,116.07344479998574,116.5755688000936,116.07344479998574,116.5755688000936,116.07344479998574,116.5755688000936,116.07344479998574,116.5755688000936,116.07344479998574,116.5755688000936,116.07344479998574,116.5755688000936,116.07344479998574,116.5755688000936,116.07344479998574,116.5755688000936,115.83985430002213,None,116.5755688000936,117.45892890007235,0.25,117.47566960006952,None,118.22692609997466,None,,,,,,,[0.875],2.570000000000002,0.5,11036,001,2024_Mar_10_1430,MFTM_A_new1021,2021.2.3,59.629829941413526,
,,,,,,,,stim/Instruction_adaptive.png,conditions/adaptive.xlsx,test,0.6,0.6,0.6,-0.6,-0.6,right,R,,,,,0,1,1,1,0,2,2,40,,,,,,,,,,,,,,,,,,,,,,,,,,,,,,,,,,,,,,,,,,,,118.72759589995258,None,left,0,1.6624228998553008,119.22926930012181,120.84837340004742,119.22926930012181,120.34754400001839,119.22926930012181,120.34754400001839,119.22926930012181,120.34754400001839,119.22926930012181,120.34754400001839,119.22926930012181,120.34754400001839,120.31355790002272,120.81474520009942,120.31355790002272,120.81474520009942,120.31355790002272,120.81474520009942,120.31355790002272,120.81474520009942,120.31355790002272,120.81474520009942,120.31355790002272,120.81474520009942,120.31355790002272,120.81474520009942,120.31355790002272,120.81474520009942,119.22926930012181,None,120.81474520009942,121.86635740008205,1.1100000000000008,121.89912740001455,None,122.65070220013149,None,,,,,,,[1.04666667],0.5800000000000001,0.3333333333333333,11036,001,2024_Mar_10_1430,MFTM_A_new1021,2021.2.3,59.629829941413526,
,,,,,,,,stim/Instruction_adaptive.png,conditions/adaptive.xlsx,test,0.6,0.6,0.6,-0.6,-0.6,right,R,,,,,0,1,1,1,0,3,3,52,,,,,,,,,,,,,,,,,,,,,,,,,,,,,,,,,,,,,,,,,,,,123.15168650005944,None,right,1,2.511327899992466,123.65244320011698,None,123.65244320011698,126.65622809994966,123.65244320011698,126.65622809994966,123.65244320011698,126.65622809994966,123.65244320011698,126.65622809994966,123.65244320011698,126.65622809994966,126.6398275999818,127.14035580004565,126.6398275999818,127.14035580004565,126.6398275999818,127.14035580004565,126.6398275999818,127.14035580004565,126.6398275999818,127.14035580004565,126.6398275999818,127.14035580004565,126.6398275999818,127.14035580004565,126.6398275999818,127.14035580004565,123.65244320011698,None,127.14035580004565,127.14035580004565,3.0000000000000027,127.15694219991565,None,127.91024360014126,None,,,,,,,0,1.660000000000001,0.5,11036,001,2024_Mar_10_1430,MFTM_A_new1021,2021.2.3,59.629829941413526,
,,,,,,,,stim/Instruction_adaptive.png,conditions/adaptive.xlsx,test,-0.6,-0.6,-0.6,0.6,0.6,left,L,,,,,0,1,1,1,0,4,4,83,,,,,,,,,,,,,,,,,,,,,,,,,,,,,,,,,,,,,,,,,,,,128.4090700999368,None,right,0,2.302198400022462,128.90956760011613,131.49766930006444,128.90956760011613,130.9962695001159,128.90956760011613,130.9962695001159,128.90956760011613,130.9962695001159,128.90956760011613,130.9962695001159,128.90956760011613,130.9962695001159,130.9626710000448,131.4641193000134,130.9626710000448,131.4641193000134,130.9626710000448,131.4641193000134,130.9626710000448,131.4641193000134,130.9626710000448,131.4641193000134,130.9626710000448,131.4641193000134,130.9626710000448,131.4641193000134,130.9626710000448,131.4641193000134,128.90956760011613,None,131.4641193000134,131.89870729995891,2.080000000000002,131.9140409999527,None,132.66573270014487,None,,,,,,,[[0.42]],0.5,0.4,11036,001,2024_Mar_10_1430,MFTM_A_new1021,2021.2.3,59.629829941413526,
,,,,,,,,stim/Instruction_adaptive.png,conditions/adaptive.xlsx,test,0.6,0.6,0.6,-0.6,-0.6,right,R,,,,,0,1,1,1,0,5,5,32,,,,,,,,,,,,,,,,,,,,,,,,,,,,,,,,,,,,,,,,,,,,133.1666107000783,None,right,1,1.5691650002263486,133.6671865999233,None,133.6671865999233,136.6717121999245,133.6671865999233,136.6717121999245,133.6671865999233,136.6717121999245,133.6671865999233,136.6717121999245,133.6671865999233,136.6717121999245,136.65467830002308,137.15572650008835,136.65467830002308,137.15572650008835,136.65467830002308,137.15572650008835,136.65467830002308,137.15572650008835,136.65467830002308,137.15572650008835,136.65467830002308,137.15572650008835,136.65467830002308,137.15572650008835,136.65467830002308,137.15572650008835,133.6671865999233,None,137.15572650008835,137.15572650008835,3.0000000000000027,137.17318530008197,None,137.92397439992055,None,,,,,,,0,0.9100000000000004,0.5,11036,001,2024_Mar_10_1430,MFTM_A_new1021,2021.2.3,59.629829941413526,
,,,,,,,,stim/Instruction_adaptive.png,conditions/adaptive.xlsx,test,0.6,0.6,0.6,-0.6,-0.6,right,R,,,,,0,1,1,1,0,6,6,68,,,,,,,,,,,,,,,,,,,,,,,,,,,,,,,,,,,,,,,,,,,,138.4242213999387,None,right,1,1.5278328999411315,138.92521380004473,None,138.92521380004473,141.93094839993864,138.92521380004473,141.93094839993864,138.92521380004473,141.93094839993864,138.92521380004473,141.93094839993864,138.92521380004473,141.93094839993864,141.91349359997548,142.41337869991548,141.91349359997548,142.41337869991548,141.91349359997548,142.41337869991548,141.91349359997548,142.41337869991548,141.91349359997548,142.41337869991548,141.91349359997548,142.41337869991548,141.91349359997548,142.41337869991548,141.91349359997548,142.41337869991548,138.92521380004473,None,142.41337869991548,142.41337869991548,3.0000000000000027,142.43074840004556,None,143.18131959997118,None,,,,,,,0,1.3500000000000008,0.5714285714285714,11036,001,2024_Mar_10_1430,MFTM_A_new1021,2021.2.3,59.629829941413526,
,,,,,,,,stim/Instruction_adaptive.png,conditions/adaptive.xlsx,test,0.6,0.6,0.6,-0.6,-0.6,right,R,,,,,0,1,1,1,0,7,7,6,,,,,,,,,,,,,,,,,,,,,,,,,,,,,,,,,,,,,,,,,,,,143.68187010008842,None,right,1,1.965980099979788,144.1827762001194,None,144.1827762001194,146.76991189992987,144.1827762001194,146.76991189992987,144.1827762001194,146.76991189992987,144.1827762001194,146.76991189992987,144.1827762001194,146.76991189992987,146.75322880013846,147.2538668999914,146.75322880013846,147.2538668999914,146.75322880013846,147.2538668999914,146.75322880013846,147.2538668999914,146.75322880013846,147.2538668999914,146.75322880013846,147.2538668999914,146.75322880013846,147.2538668999914,146.75322880013846,147.2538668999914,144.1827762001194,None,147.2538668999914,147.2538668999914,2.580000000000002,147.27152310009114,None,148.02192800003104,None,,,,,,,0,1.650000000000001,0.625,11036,001,2024_Mar_10_1430,MFTM_A_new1021,2021.2.3,59.629829941413526,
,,,,,,,,stim/Instruction_adaptive.png,conditions/adaptive.xlsx,test,-0.6,-0.6,-0.6,0.6,0.6,left,L,,,,,0,1,1,1,0,8,8,1,,,,,,,,,,,,,,,,,,,,,,,,,,,,,,,,,,,,,,,,,,,,148.52342520002276,None,left,1,1.93135069985874,149.0250864000991,151.62811900000088,149.0250864000991,151.1264409001451,149.0250864000991,151.1264409001451,149.0250864000991,151.1264409001451,149.0250864000991,151.1264409001451,149.0250864000991,151.1264409001451,151.10955079994164,151.61152909998782,151.10955079994164,151.61152909998782,151.10955079994164,151.61152909998782,151.10955079994164,151.61152909998782,151.10955079994164,151.61152909998782,151.10955079994164,151.61152909998782,151.10955079994164,151.61152909998782,151.10955079994164,151.61152909998782,149.0250864000991,None,151.61152909998782,151.87827689992264,2.1000000000000014,151.89416599995457,None,152.64606059994549,None,,,,,,,[0.26444444],1.8700000000000012,0.6666666666666666,11036,001,2024_Mar_10_1430,MFTM_A_new1021,2021.2.3,59.629829941413526,
,,,,,,,,stim/Instruction_adaptive.png,conditions/adaptive.xlsx,test,-0.6,-0.6,-0.6,0.6,0.6,left,L,,,,,0,1,1,1,0,9,9,35,,,,,,,,,,,,,,,,,,,,,,,,,,,,,,,,,,,,,,,,,,,,153.1472434999887,None,left,1,1.3243371001444757,153.6483062999323,155.9513072001282,153.6483062999323,155.45103260013275,153.6483062999323,155.45103260013275,153.6483062999323,155.45103260013275,153.6483062999323,155.45103260013275,153.6483062999323,155.45103260013275,155.43299010000192,155.93435740005225,155.43299010000192,155.93435740005225,155.43299010000192,155.93435740005225,155.43299010000192,155.93435740005225,155.43299010000192,155.93435740005225,155.43299010000192,155.93435740005225,155.43299010000192,155.93435740005225,155.43299010000192,155.93435740005225,153.6483062999323,None,155.93435740005225,156.25172850000672,1.8000000000000014,156.26758030010387,None,157.0187041000463,None,,,,,,,[0.308],2.0500000000000016,0.7,11036,001,2024_Mar_10_1430,MFTM_A_new1021,2021.2.3,59.629829941413526,
,,,,,,,,stim/Instruction_adaptive.png,conditions/adaptive.xlsx,test,0.6,0.6,0.6,-0.6,-0.6,right,R,,,,,0,1,1,1,0,10,10,20,,,,,,,,,,,,,,,,,,,,,,,,,,,,,,,,,,,,,,,,,,,,157.5202341999393,None,right,1,1.703557400032878,158.02091720001772,160.123474100139,158.02091720001772,159.62403440009803,158.02091720001772,159.62403440009803,158.02091720001772,159.62403440009803,158.02091720001772,159.62403440009803,158.02091720001772,159.62403440009803,159.58949150005355,160.08986410009675,159.58949150005355,160.08986410009675,159.58949150005355,160.08986410009675,159.58949150005355,160.08986410009675,159.58949150005355,160.08986410009675,159.58949150005355,160.08986410009675,159.58949150005355,160.08986410009675,159.58949150005355,160.08986410009675,158.02091720001772,None,160.08986410009675,160.45831719995476,1.5900000000000012,160.47325149993412,None,161.22505150013603,None,,,,,,,[0.36272727],2.2000000000000015,0.7272727272727273,11036,001,2024_Mar_10_1430,MFTM_A_new1021,2021.2.3,59.629829941413526,
,,,,,,,,stim/Instruction_adaptive.png,conditions/adaptive.xlsx,test,0.6,0.6,0.6,-0.6,-0.6,right,R,,,,,0,1,1,1,0,11,11,72,,,,,,,,,,,,,,,,,,,,,,,,,,,,,,,,,,,,,,,,,,,,161.7258288001176,None,right,1,1.2736589999403805,162.2268608000595,164.16362820006907,162.2268608000595,163.6620447000023,162.2268608000595,163.6620447000023,162.2268608000595,163.6620447000023,162.2268608000595,163.6620447000023,162.2268608000595,163.6620447000023,163.64530829992145,164.14602690003812,163.64530829992145,164.14602690003812,163.64530829992145,164.14602690003812,163.64530829992145,164.14602690003812,163.64530829992145,164.14602690003812,163.64530829992145,164.14602690003812,163.64530829992145,164.14602690003812,163.64530829992145,164.14602690003812,162.2268608000595,None,164.14602690003812,None,1.430000000000001,164.58034089999273,None,165.3311163999606,None,,,,,,,[0.42166667],2.3400000000000016,0.75,11036,001,2024_Mar_10_1430,MFTM_A_new1021,2021.2.3,59.629829941413526,
,,,,,,,,stim/Instruction_adaptive.png,conditions/adaptive.xlsx,test,0.6,0.6,0.6,-0.6,-0.6,right,R,,,,,0,1,1,1,0,12,12,60,,,,,,,,,,,,,,,,,,,,,,,,,,,,,,,,,,,,,,,,,,,,165.83218710008077,None,right,1,1.2952477999497205,166.33362399996258,168.13663069996983,166.33362399996258,167.63451150013134,166.33362399996258,167.63451150013134,166.33362399996258,167.63451150013134,166.33362399996258,167.63451150013134,166.33362399996258,167.63451150013134,167.61804819991812,168.11884659994394,167.61804819991812,168.11884659994394,167.61804819991812,168.11884659994394,167.61804819991812,168.11884659994394,167.61804819991812,168.11884659994394,167.61804819991812,168.11884659994394,167.61804819991812,168.11884659994394,167.61804819991812,168.11884659994394,166.33362399996258,None,168.11884659994394,168.6040384999942,1.300000000000001,168.6194615000859,None,169.3706195000559,None,,,,,,,[0.48153846],2.4600000000000017,0.7692307692307693,11036,001,2024_Mar_10_1430,MFTM_A_new1021,2021.2.3,59.629829941413526,
,,,,,,,,stim/Instruction_adaptive.png,conditions/adaptive.xlsx,test,-0.6,-0.6,-0.6,0.6,0.6,left,L,,,,,0,1,1,1,0,13,13,65,,,,,,,,,,,,,,,,,,,,,,,,,,,,,,,,,,,,,,,,,,,,169.87132890010253,None,left,1,1.2410510999616235,170.37200789991766,172.07469030003995,170.37200789991766,171.574815900065,170.37200789991766,171.574815900065,170.37200789991766,171.574815900065,170.37200789991766,171.574815900065,170.37200789991766,171.574815900065,171.55761200003326,172.0592555999756,171.55761200003326,172.0592555999756,171.55761200003326,172.0592555999756,171.55761200003326,172.0592555999756,171.55761200003326,172.0592555999756,171.55761200003326,172.0592555999756,171.55761200003326,172.0592555999756,171.55761200003326,172.0592555999756,170.37200789991766,None,172.0592555999756,172.6096701999195,1.2000000000000008,172.62570010009222,None,173.3772905000951,None,,,,,,,[0.54],2.570000000000002,0.7857142857142857,11036,001,2024_Mar_10_1430,MFTM_A_new1021,2021.2.3,59.629829941413526,
,,,,,,,,stim/Instruction_adaptive.png,conditions/adaptive.xlsx,test,0.6,0.6,0.6,-0.6,-0.6,right,R,,,,,0,1,1,1,0,14,14,30,,,,,,,,,,,,,,,,,,,,,,,,,,,,,,,,,,,,,,,,,,,,173.87728459993377,None,right,1,1.2748290000017732,174.3789385999553,175.9982293001376,174.3789385999553,175.496511900099,174.3789385999553,175.496511900099,174.3789385999553,175.496511900099,174.3789385999553,175.496511900099,174.3789385999553,175.496511900099,175.48087560012937,175.98148830002174,175.48087560012937,175.98148830002174,175.48087560012937,175.98148830002174,175.48087560012937,175.98148830002174,175.48087560012937,175.98148830002174,175.48087560012937,175.98148830002174,175.48087560012937,175.98148830002174,175.48087560012937,175.98148830002174,174.3789385999553,None,175.98148830002174,176.58217830001377,1.1100000000000008,176.59802139992826,None,177.35007450007834,None,,,,,,,[0.59666667],2.6700000000000017,0.8,11036,001,2024_Mar_10_1430,MFTM_A_new1021,2021.2.3,59.629829941413526,
,,,,,,,,stim/Instruction_adaptive.png,conditions/adaptive.xlsx,test,-0.6,-0.6,-0.6,0.6,0.6,left,L,,,,,0,1,1,1,0,15,15,27,,,,,,,,,,,,,,,,,,,,,,,,,,,,,,,,,,,,,,,,,,,,177.85014170012437,None,left,1,0.9178005999419838,178.3514872000087,179.88709520013072,178.3514872000087,179.38565730000846,178.3514872000087,179.38565730000846,178.3514872000087,179.38565730000846,178.3514872000087,179.38565730000846,178.3514872000087,179.38565730000846,179.36902480013669,179.87072020000778,179.36902480013669,179.87072020000778,179.36902480013669,179.87072020000778,179.36902480013669,179.87072020000778,179.36902480013669,179.87072020000778,179.36902480013669,179.87072020000778,179.36902480013669,179.87072020000778,179.36902480013669,179.87072020000778,178.3514872000087,None,179.87072020000778,180.52214020001702,1.0300000000000007,180.5373728000559,None,181.28875690000132,None,,,,,,,[0.65125],2.760000000000002,0.8125,11036,001,2024_Mar_10_1430,MFTM_A_new1021,2021.2.3,59.629829941413526,
,,,,,,,,stim/Instruction_adaptive.png,conditions/adaptive.xlsx,test,0.6,0.6,0.6,-0.6,-0.6,right,R,,,,,0,1,1,1,0,16,16,50,,,,,,,,,,,,,,,,,,,,,,,,,,,,,,,,,,,,,,,,,,,,181.78956820000894,None,right,1,1.2360084999818355,182.29011079994962,183.75911490013823,182.29011079994962,183.27479150006548,182.29011079994962,183.27479150006548,182.29011079994962,183.27479150006548,182.29011079994962,183.27479150006548,182.29011079994962,183.27479150006548,183.24141289992258,183.7427531001158,183.24141289992258,183.7427531001158,183.24141289992258,183.7427531001158,183.24141289992258,183.7427531001158,183.24141289992258,183.7427531001158,183.24141289992258,183.7427531001158,183.24141289992258,183.7427531001158,183.24141289992258,183.7427531001158,182.29011079994962,None,183.7427531001158,184.46118899993598,0.9700000000000006,184.47686629998498,None,185.22868439997546,None,,,,,,,[0.70294118],2.8500000000000023,0.8235294117647058,11036,001,2024_Mar_10_1430,MFTM_A_new1021,2021.2.3,59.629829941413526,
,,,,,,,,stim/Instruction_adaptive.png,conditions/adaptive.xlsx,test,0.6,0.6,0.6,-0.6,-0.6,right,R,,,,,0,1,1,1,0,17,17,80,,,,,,,,,,,,,,,,,,,,,,,,,,,,,,,,,,,,,,,,,,,,185.72859550011344,None,left,0,1.0956214999314398,186.2299222999718,187.6489053000696,186.2299222999718,187.14757609996013,186.2299222999718,187.14757609996013,186.2299222999718,187.14757609996013,186.2299222999718,187.14757609996013,186.2299222999718,187.14757609996013,187.11392279993743,187.61499970010482,187.11392279993743,187.61499970010482,187.11392279993743,187.61499970010482,187.11392279993743,187.61499970010482,187.11392279993743,187.61499970010482,187.11392279993743,187.61499970010482,187.11392279993743,187.61499970010482,187.11392279993743,187.61499970010482,186.2299222999718,None,187.61499970010482,188.36683290009387,0.9100000000000006,188.3992000001017,None,189.15043290005997,None,,,,,,,[0.75222222],2.610000000000002,0.7777777777777778,11036,001,2024_Mar_10_1430,MFTM_A_new1021,2021.2.3,59.629829941413526,
,,,,,,,,stim/Instruction_adaptive.png,conditions/adaptive.xlsx,test,0.6,0.6,0.6,-0.6,-0.6,right,R,,,,,0,1,1,1,0,18,18,86,,,,,,,,,,,,,,,,,,,,,,,,,,,,,,,,,,,,,,,,,,,,189.65217359992675,None,right,1,0.9417806998826563,190.15193350007758,191.73782099992968,190.15193350007758,191.23699220013805,190.15193350007758,191.23699220013805,190.15193350007758,191.23699220013805,190.15193350007758,191.23699220013805,190.15193350007758,191.23699220013805,191.2209849001374,191.72182710003108,191.2209849001374,191.72182710003108,191.2209849001374,191.72182710003108,191.2209849001374,191.72182710003108,191.2209849001374,191.72182710003108,191.2209849001374,191.72182710003108,191.2209849001374,191.72182710003108,191.2209849001374,191.72182710003108,190.15193350007758,None,191.72182710003108,None,1.0800000000000007,192.5224725001026,None,193.2742137000896,None,,,,,,,[0.78736842],2.700000000000002,0.7894736842105263,11036,001,2024_Mar_10_1430,MFTM_A_new1021,2021.2.3,59.629829941413526,
,,,,,,,,stim/Instruction_adaptive.png,conditions/adaptive.xlsx,test,0.6,0.6,0.6,-0.6,-0.6,right,R,,,,,0,1,1,1,0,19,19,74,,,,,,,,,,,,,,,,,,,,,,,,,,,,,,,,,,,,,,,,,,,,193.77413429995067,None,right,1,1.2352621001191437,194.27536590001546,195.79462189995684,194.27536590001546,195.29387110006064,194.27536590001546,195.29387110006064,194.27536590001546,195.29387110006064,194.27536590001546,195.29387110006064,194.27536590001546,195.29387110006064,195.25974010000937,195.76106559997424,195.25974010000937,195.76106559997424,195.25974010000937,195.76106559997424,195.25974010000937,195.76106559997424,195.25974010000937,195.76106559997424,195.25974010000937,195.76106559997424,195.25974010000937,195.76106559997424,195.25974010000937,195.76106559997424,194.27536590001546,None,195.76106559997424,196.59576430008747,1.0100000000000007,196.61170749994926,None,197.36294190003537,None,,,,,,,[0.8225],2.7700000000000022,0.8,11036,001,2024_Mar_10_1430,MFTM_A_new1021,2021.2.3,59.629829941413526,
,,,,,,,,stim/Instruction_adaptive.png,conditions/adaptive.xlsx,test,0.6,0.6,0.6,-0.6,-0.6,right,R,,,,,0,1,1,1,0,20,20,0,,,,,,,,,,,,,,,,,,,,,,,,,,,,,,,,,,,,,,,,,,,,197.86446840013377,None,right,1,1.209351799916476,198.36432759999298,199.8341987999156,198.36432759999298,199.33264070004225,198.36432759999298,199.33264070004225,198.36432759999298,199.33264070004225,198.36432759999298,199.33264070004225,198.36432759999298,199.33264070004225,199.31591090001166,199.8164764000103,199.31591090001166,199.8164764000103,199.31591090001166,199.8164764000103,199.31591090001166,199.8164764000103,199.31591090001166,199.8164764000103,199.31591090001166,199.8164764000103,199.31591090001166,199.8164764000103,199.31591090001166,199.8164764000103,198.36432759999298,None,199.8164764000103,None,0.9600000000000006,200.68462459999137,None,201.43564849998802,None,,,,,,,[0.85666667],2.8500000000000023,0.8095238095238095,11036,001,2024_Mar_10_1430,MFTM_A_new1021,2021.2.3,59.629829941413526,
,,,,,,,,stim/Instruction_adaptive.png,conditions/adaptive.xlsx,test,0.6,0.6,0.6,-0.6,-0.6,right,R,,,,,0,1,1,1,0,21,21,88,,,,,,,,,,,,,,,,,,,,,,,,,,,,,,,,,,,,,,,,,,,,201.93644620012492,None,right,1,1.272449400043115,202.43739970005117,203.85636930004694,202.43739970005117,203.35664579994045,202.43739970005117,203.35664579994045,202.43739970005117,203.35664579994045,202.43739970005117,203.35664579994045,202.43739970005117,203.35664579994045,203.33951420011,203.83969829999842,203.33951420011,203.83969829999842,203.33951420011,203.83969829999842,203.33951420011,203.83969829999842,203.33951420011,203.83969829999842,203.33951420011,203.83969829999842,203.33951420011,203.83969829999842,203.33951420011,203.83969829999842,202.43739970005117,None,203.83969829999842,None,0.9100000000000006,204.74091550009325,None,205.49226440000348,None,,,,,,,[0.89],2.920000000000002,0.8181818181818182,11036,001,2024_Mar_10_1430,MFTM_A_new1021,2021.2.3,59.629829941413526,
,,,,,,,,stim/Instruction_adaptive.png,conditions/adaptive.xlsx,test,-0.6,-0.6,-0.6,0.6,0.6,left,L,,,,,0,1,1,1,0,22,22,29,,,,,,,,,,,,,,,,,,,,,,,,,,,,,,,,,,,,,,,,,,,,205.99309660005383,None,left,1,0.8568345000967383,206.49353300011717,207.87923309998587,206.49353300011717,207.3781020999886,206.49353300011717,207.3781020999886,206.49353300011717,207.3781020999886,206.49353300011717,207.3781020999886,206.49353300011717,207.3781020999886,207.34470130014233,207.84556800010614,207.34470130014233,207.84556800010614,207.34470130014233,207.84556800010614,207.34470130014233,207.84556800010614,207.34470130014233,207.84556800010614,207.34470130014233,207.84556800010614,207.34470130014233,207.84556800010614,207.34470130014233,207.84556800010614,206.49353300011717,None,207.84556800010614,208.78070290014148,0.8700000000000006,208.7970032999292,None,209.54790000012144,None,,,,,,,[0.92217391],2.980000000000002,0.8260869565217391,11036,001,2024_Mar_10_1430,MFTM_A_new1021,2021.2.3,59.629829941413526,
,,,,,,,,stim/Instruction_adaptive.png,conditions/adaptive.xlsx,test,-0.6,-0.6,-0.6,0.6,0.6,left,L,,,,,0,1,1,1,0,23,23,61,,,,,,,,,,,,,,,,,,,,,,,,,,,,,,,,,,,,,,,,,,,,210.04931270005181,None,left,1,1.1289079000707716,210.54928179993294,211.8852695999667,210.54928179993294,211.38466640003026,210.54928179993294,211.38466640003026,210.54928179993294,211.38466640003026,210.54928179993294,211.38466640003026,210.54928179993294,211.38466640003026,211.36764690000564,211.86866930010729,211.36764690000564,211.86866930010729,211.36764690000564,211.86866930010729,211.36764690000564,211.86866930010729,211.36764690000564,211.86866930010729,211.36764690000564,211.86866930010729,211.36764690000564,211.86866930010729,211.36764690000564,211.86866930010729,210.54928179993294,None,211.86866930010729,None,0.8300000000000005,212.83700950001366,None,213.58800310012884,None,,,,,,,[0.95333333],3.0500000000000025,0.8333333333333334,11036,001,2024_Mar_10_1430,MFTM_A_new1021,2021.2.3,59.629829941413526,
,,,,,,,,stim/Instruction_adaptive.png,conditions/adaptive.xlsx,test,-0.6,-0.6,-0.6,0.6,0.6,left,L,,,,,0,1,1,1,0,24,24,79,,,,,,,,,,,,,,,,,,,,,,,,,,,,,,,,,,,,,,,,,,,,214.0891772999894,None,left,1,1.1123399001080543,214.58984649996273,215.89175139996223,214.58984649996273,215.39164829999208,214.58984649996273,215.39164829999208,214.58984649996273,215.39164829999208,214.58984649996273,215.39164829999208,214.58984649996273,215.39164829999208,215.35751600004733,215.85802570008673,215.35751600004733,215.85802570008673,215.35751600004733,215.85802570008673,215.35751600004733,215.85802570008673,215.35751600004733,215.85802570008673,215.35751600004733,215.85802570008673,215.35751600004733,215.85802570008673,215.35751600004733,215.85802570008673,214.58984649996273,None,215.85802570008673,216.84362119995058,0.7900000000000005,216.8755274999421,None,217.62702460004948,None,,,,,,,[0.9836],3.110000000000002,0.84,11036,001,2024_Mar_10_1430,MFTM_A_new1021,2021.2.3,59.629829941413526,
,,,,,,,,stim/Instruction_adaptive.png,conditions/adaptive.xlsx,test,-0.6,-0.6,-0.6,0.6,0.6,left,L,,,,,0,1,1,1,0,25,25,13,,,,,,,,,,,,,,,,,,,,,,,,,,,,,,,,,,,,,,,,,,,,218.1280795999337,None,left,1,0.72999870008789,218.62826950009912,219.89677310013212,218.62826950009912,219.39700300013646,218.62826950009912,219.39700300013646,218.62826950009912,219.39700300013646,218.62826950009912,219.39700300013646,218.62826950009912,219.39700300013646,219.36281899991445,219.86355050001293,219.36281899991445,219.86355050001293,219.36281899991445,219.86355050001293,219.36281899991445,219.86355050001293,219.36281899991445,219.86355050001293,219.36281899991445,219.86355050001293,219.36281899991445,219.86355050001293,219.36281899991445,219.86355050001293,218.62826950009912,None,219.86355050001293,220.88302540010773,0.7600000000000005,220.9152673999779,None,221.6661225000862,None,,,,,,,[1.01269231],3.1600000000000024,0.8461538461538461,11036,001,2024_Mar_10_1430,MFTM_A_new1021,2021.2.3,59.629829941413526,
,,,,,,,,stim/Instruction_adaptive.png,conditions/adaptive.xlsx,test,-0.6,-0.6,-0.6,0.6,0.6,left,L,,,,,0,1,1,1,0,26,26,93,,,,,,,,,,,,,,,,,,,,,,,,,,,,,,,,,,,,,,,,,,,,222.16742089996114,None,left,1,0.9536842000670731,222.66867220005952,223.9194972999394,222.66867220005952,223.42003610008396,222.66867220005952,223.42003610008396,222.66867220005952,223.42003610008396,222.66867220005952,223.42003610008396,222.66867220005952,223.42003610008396,223.3862827999983,223.88641569996253,223.3862827999983,223.88641569996253,223.3862827999983,223.88641569996253,223.3862827999983,223.88641569996253,223.3862827999983,223.88641569996253,223.3862827999983,223.88641569996253,223.3862827999983,223.88641569996253,223.3862827999983,223.88641569996253,222.66867220005952,None,223.88641569996253,224.93855500011705,0.7400000000000004,224.95445200009272,None,225.7061237001326,None,,,,,,,[1.04037037],3.2200000000000024,0.8518518518518519,11036,001,2024_Mar_10_1430,MFTM_A_new1021,2021.2.3,59.629829941413526,
,,,,,,,,stim/Instruction_adaptive.png,conditions/adaptive.xlsx,test,0.6,0.6,0.6,-0.6,-0.6,right,R,,,,,0,1,1,1,0,27,27,38,,,,,,,,,,,,,,,,,,,,,,,,,,,,,,,,,,,,,,,,,,,,226.20631049992517,None,right,1,0.9067374998703599,226.70804090006277,227.9264533999376,226.70804090006277,227.42490050010383,226.70804090006277,227.42490050010383,226.70804090006277,227.42490050010383,226.70804090006277,227.42490050010383,226.70804090006277,227.42490050010383,227.39214250002988,227.892482599942,227.39214250002988,227.892482599942,227.39214250002988,227.892482599942,227.39214250002988,227.892482599942,227.39214250002988,227.892482599942,227.39214250002988,227.892482599942,227.39214250002988,227.892482599942,227.39214250002988,227.892482599942,226.70804090006277,None,227.892482599942,228.9608859999571,0.7100000000000004,228.99405520013534,None,229.74545589997433,None,,,,,,,[1.06714286],3.2700000000000022,0.8571428571428571,11036,001,2024_Mar_10_1430,MFTM_A_new1021,2021.2.3,59.629829941413526,
,,,,,,,,stim/Instruction_adaptive.png,conditions/adaptive.xlsx,test,-0.6,-0.6,-0.6,0.6,0.6,left,L,,,,,0,1,1,1,0,28,28,69,,,,,,,,,,,,,,,,,,,,,,,,,,,,,,,,,,,,,,,,,,,,230.24641210003756,None,right,0,1.0602269999217242,230.7463388000615,231.93234950001352,230.7463388000615,231.43155659991316,230.7463388000615,231.43155659991316,230.7463388000615,231.43155659991316,230.7463388000615,231.43155659991316,230.7463388000615,231.43155659991316,231.41513630002737,231.91569150006399,231.41513630002737,231.91569150006399,231.41513630002737,231.91569150006399,231.41513630002737,231.91569150006399,231.41513630002737,231.91569150006399,231.41513630002737,231.91569150006399,231.41513630002737,231.91569150006399,231.41513630002737,231.91569150006399,230.7463388000615,None,231.91569150006399,233.01737589994445,0.6800000000000004,233.03273400012404,None,233.78446200001054,None,,,,,,,[1.09310345],3.1200000000000023,0.8275862068965517,11036,001,2024_Mar_10_1430,MFTM_A_new1021,2021.2.3,59.629829941413526,
,,,,,,,,stim/Instruction_adaptive.png,conditions/adaptive.xlsx,test,0.6,0.6,0.6,-0.6,-0.6,right,R,,,,,0,1,1,1,0,29,29,46,,,,,,,,,,,,,,,,,,,,,,,,,,,,,,,,,,,,,,,,,,,,234.28551580011845,None,right,1,1.1726763001643121,234.7863291001413,236.0554831000045,234.7863291001413,235.55367029993795,234.7863291001413,235.55367029993795,234.7863291001413,235.55367029993795,234.7863291001413,235.55367029993795,234.7863291001413,235.55367029993795,235.537037699949,236.03874769993126,235.537037699949,236.03874769993126,235.537037699949,236.03874769993126,235.537037699949,236.03874769993126,235.537037699949,236.03874769993126,235.537037699949,236.03874769993126,235.537037699949,236.03874769993126,235.537037699949,236.03874769993126,234.7863291001413,None,236.02177540003322,237.13978590001352,0.7600000000000005,237.17281739995815,None,237.9252719001379,None,,,,,,,[1.11466667],3.1800000000000024,0.8333333333333334,11036,001,2024_Mar_10_1430,MFTM_A_new1021,2021.2.3,59.629829941413526,
,,,,,,,,stim/Instruction_adaptive.png,conditions/adaptive.xlsx,test,-0.6,-0.6,-0.6,0.6,0.6,left,L,,,,,0,1,1,1,0,30,30,33,,,,,,,,,,,,,,,,,,,,,,,,,,,,,,,,,,,,,,,,,,,,238.42558220005594,None,left,1,0.7850609000306576,238.92633679998107,240.1608120999299,238.92633679998107,239.66049819998443,238.92633679998107,239.66049819998443,238.92633679998107,239.66049819998443,238.92633679998107,239.66049819998443,238.92633679998107,239.66049819998443,239.6268551000394,240.12740320013836,239.6268551000394,240.12740320013836,239.6268551000394,240.12740320013836,239.6268551000394,240.12740320013836,239.6268551000394,240.12740320013836,239.6268551000394,240.12740320013836,239.6268551000394,240.12740320013836,239.6268551000394,240.12740320013836,238.92633679998107,None,240.12740320013836,241.26239320007153,0.7300000000000004,241.29620320000686,None,242.048013899941,None,,,,,,,[1.13580645],3.2200000000000024,0.8387096774193549,11036,001,2024_Mar_10_1430,MFTM_A_new1021,2021.2.3,59.629829941413526,
,,,,,,,,stim/Instruction_adaptive.png,conditions/adaptive.xlsx,test,-0.6,-0.6,-0.6,0.6,0.6,left,L,,,,,0,1,1,1,0,31,31,85,,,,,,,,,,,,,,,,,,,,,,,,,,,,,,,,,,,,,,,,,,,,242.54830619995482,None,right,0,0.9195248000323772,243.04838429996744,244.2675088001415,243.04838429996744,243.76747229998,243.04838429996744,243.76747229998,243.04838429996744,243.76747229998,243.04838429996744,243.76747229998,243.04838429996744,243.76747229998,243.73368880013004,244.2345736999996,243.73368880013004,244.2345736999996,243.73368880013004,244.2345736999996,243.73368880013004,244.2345736999996,243.73368880013004,244.2345736999996,243.73368880013004,244.2345736999996,243.73368880013004,244.2345736999996,243.73368880013004,244.2345736999996,243.04838429996744,None,244.2345736999996,245.40293950005434,0.7100000000000004,245.417905600043,None,246.17078440007754,None,,,,,,,[1.15625],3.0800000000000023,0.8125,11036,001,2024_Mar_10_1430,MFTM_A_new1021,2021.2.3,59.629829941413526,
,,,,,,,,stim/Instruction_adaptive.png,conditions/adaptive.xlsx,test,-0.6,-0.6,-0.6,0.6,0.6,left,L,,,,,0,1,1,1,0,32,32,73,,,,,,,,,,,,,,,,,,,,,,,,,,,,,,,,,,,,,,,,,,,,246.67135790013708,None,left,1,0.7311509000137448,247.17169889993966,248.45666399993934,247.17169889993966,247.95660319994204,247.17169889993966,247.95660319994204,247.17169889993966,247.95660319994204,247.17169889993966,247.95660319994204,247.17169889993966,247.95660319994204,247.93907910003327,248.4405573999975,247.93907910003327,248.4405573999975,247.93907910003327,248.4405573999975,247.93907910003327,248.4405573999975,247.93907910003327,248.4405573999975,247.93907910003327,248.4405573999975,247.93907910003327,248.4405573999975,247.93907910003327,248.4405573999975,247.17169889993966,None,248.4405573999975,None,0.7800000000000005,249.6244425000623,None,250.3777089000214,None,,,,,,,[1.17333333],3.1300000000000026,0.8181818181818182,11036,001,2024_Mar_10_1430,MFTM_A_new1021,2021.2.3,59.629829941413526,
,,,,,,,,stim/Instruction_adaptive.png,conditions/adaptive.xlsx,test,-0.6,-0.6,-0.6,0.6,0.6,left,L,,,,,0,1,1,1,0,33,33,21,,,,,,,,,,,,,,,,,,,,,,,,,,,,,,,,,,,,,,,,,,,,250.8773789999541,None,left,1,0.9890383000019938,251.37809389992617,252.62949339998886,251.37809389992617,252.12889480008744,251.37809389992617,252.12889480008744,251.37809389992617,252.12889480008744,251.37809389992617,252.12889480008744,251.37809389992617,252.12889480008744,252.1127047999762,252.61282110004686,252.1127047999762,252.61282110004686,252.1127047999762,252.61282110004686,252.1127047999762,252.61282110004686,252.1127047999762,252.61282110004686,252.1127047999762,252.61282110004686,252.1127047999762,252.61282110004686,252.1127047999762,252.61282110004686,251.37809389992617,None,252.61282110004686,253.81508430000395,0.7500000000000004,253.83132250001654,None,254.58329860004596,None,,,,,,,[1.19029412],3.1800000000000024,0.8235294117647058,11036,001,2024_Mar_10_1430,MFTM_A_new1021,2021.2.3,59.629829941413526,
,,,,,,,,stim/Instruction_adaptive.png,conditions/adaptive.xlsx,test,-0.6,-0.6,-0.6,0.6,0.6,left,L,,,,,0,1,1,1,0,34,34,55,,,,,,,,,,,,,,,,,,,,,,,,,,,,,,,,,,,,,,,,,,,,255.08336169994436,None,right,0,1.0310546001419425,255.58472250006162,256.82034660014324,255.58472250006162,256.3182960001286,255.58472250006162,256.3182960001286,255.58472250006162,256.3182960001286,255.58472250006162,256.3182960001286,255.58472250006162,256.3182960001286,256.3012926999945,256.80245720013045,256.3012926999945,256.80245720013045,256.3012926999945,256.80245720013045,256.3012926999945,256.80245720013045,256.3012926999945,256.80245720013045,256.3012926999945,256.80245720013045,256.3012926999945,256.80245720013045,256.3012926999945,256.80245720013045,255.58472250006162,None,256.80245720013045,None,0.7300000000000004,258.0209347999189,None,258.7732677999884,None,,,,,,,[1.20685714],3.0500000000000025,0.8,11036,001,2024_Mar_10_1430,MFTM_A_new1021,2021.2.3,59.629829941413526,
,,,,,,,,stim/Instruction_adaptive.png,conditions/adaptive.xlsx,test,0.6,0.6,0.6,-0.6,-0.6,right,R,,,,,0,1,1,1,0,35,35,70,,,,,,,,,,,,,,,,,,,,,,,,,,,,,,,,,,,,,,,,,,,,259.2737161000259,None,left,0,1.1291972000617534,259.774141700007,261.0758883000817,259.774141700007,260.575631899992,259.774141700007,260.575631899992,259.774141700007,260.575631899992,259.774141700007,260.575631899992,259.774141700007,260.575631899992,260.5425136999693,261.0425672000274,260.5425136999693,261.0425672000274,260.5425136999693,261.0425672000274,260.5425136999693,261.0425672000274,260.5425136999693,261.0425672000274,260.5425136999693,261.0425672000274,260.5425136999693,261.0425672000274,260.5425136999693,261.0425672000274,259.774141700007,None,261.0425672000274,262.27744249999523,0.7900000000000005,262.2943971999921,None,263.04629889992066,None,,,,,,,[1.22083333],2.910000000000002,0.7777777777777778,11036,001,2024_Mar_10_1430,MFTM_A_new1021,2021.2.3,59.629829941413526,
,,,,,,,,stim/Instruction_adaptive.png,conditions/adaptive.xlsx,test,-0.6,-0.6,-0.6,0.6,0.6,left,L,,,,,0,1,1,1,0,36,36,41,,,,,,,,,,,,,,,,,,,,,,,,,,,,,,,,,,,,,,,,,,,,263.54582879994996,None,left,1,1.3286975000519305,264.0468363999389,265.4321131000761,264.0468363999389,264.93172620004043,264.0468363999389,264.93172620004043,264.0468363999389,264.93172620004043,264.0468363999389,264.93172620004043,264.0468363999389,264.93172620004043,264.91570060001686,265.4169038000982,264.91570060001686,265.4169038000982,264.91570060001686,265.4169038000982,264.91570060001686,265.4169038000982,264.91570060001686,265.4169038000982,264.91570060001686,265.4169038000982,264.91570060001686,265.4169038000982,264.91570060001686,265.4169038000982,264.0468363999389,None,265.4169038000982,266.65173440007493,0.8800000000000006,266.66693240008317,None,267.4184695999138,None,,,,,,,[1.23162162],2.960000000000002,0.7837837837837838,11036,001,2024_Mar_10_1430,MFTM_A_new1021,2021.2.3,59.629829941413526,
,,,,,,,,stim/Instruction_adaptive.png,conditions/adaptive.xlsx,test,-0.6,-0.6,-0.6,0.6,0.6,left,L,,,,,0,1,1,1,0,37,37,23,,,,,,,,,,,,,,,,,,,,,,,,,,,,,,,,,,,,,,,,,,,,267.919908199925,None,left,1,0.795737799955532,268.42021230002865,269.772761200089,268.42021230002865,269.27153749996796,268.42021230002865,269.27153749996796,268.42021230002865,269.27153749996796,268.42021230002865,269.27153749996796,268.42021230002865,269.27153749996796,269.2545888000168,269.7561073999386,269.2545888000168,269.7561073999386,269.2545888000168,269.7561073999386,269.2545888000168,269.7561073999386,269.2545888000168,269.7561073999386,269.2545888000168,269.7561073999386,269.2545888000168,269.7561073999386,269.2545888000168,269.7561073999386,268.42021230002865,None,269.7561073999386,271.0077633999754,0.8500000000000005,271.02394500002265,None,271.7750923000276,None,,,,,,,[1.24263158],3.000000000000002,0.7894736842105263,11036,001,2024_Mar_10_1430,MFTM_A_new1021,2021.2.3,59.629829941413526,
,,,,,,,,stim/Instruction_adaptive.png,conditions/adaptive.xlsx,test,0.6,0.6,0.6,-0.6,-0.6,right,R,,,,,0,1,1,1,0,38,38,42,,,,,,,,,,,,,,,,,,,,,,,,,,,,,,,,,,,,,,,,,,,,272.2763823000714,None,left,0,1.238278100034222,272.7771982999984,274.11192489997484,272.7771982999984,273.6120339999907,272.7771982999984,273.6120339999907,272.7771982999984,273.6120339999907,272.7771982999984,273.6120339999907,272.7771982999984,273.6120339999907,273.578798300121,274.0792708999943,273.578798300121,274.0792708999943,273.578798300121,274.0792708999943,273.578798300121,274.0792708999943,273.578798300121,274.0792708999943,273.578798300121,274.0792708999943,273.578798300121,274.0792708999943,273.578798300121,274.0792708999943,272.7771982999984,None,274.0792708999943,275.3471953999251,0.8200000000000005,275.3639561999589,None,276.1157498001121,None,,,,,,,[1.25384615],2.870000000000002,0.7692307692307693,11036,001,2024_Mar_10_1430,MFTM_A_new1021,2021.2.3,59.629829941413526,
,,,,,,,,stim/Instruction_adaptive.png,conditions/adaptive.xlsx,test,-0.6,-0.6,-0.6,0.6,0.6,left,L,,,,,0,1,1,1,0,39,39,31,,,,,,,,,,,,,,,,,,,,,,,,,,,,,,,,,,,,,,,,,,,,276.61591290007345,None,right,0,1.32288259989582,277.1173153000418,278.5199545000214,277.1173153000418,278.017955099931,277.1173153000418,278.017955099931,277.1173153000418,278.017955099931,277.1173153000418,278.017955099931,277.1173153000418,278.017955099931,278.00121170002967,278.50205520004965,278.00121170002967,278.50205520004965,278.00121170002967,278.50205520004965,278.00121170002967,278.50205520004965,278.00121170002967,278.50205520004965,278.00121170002967,278.50205520004965,278.00121170002967,278.50205520004965,278.00121170002967,278.50205520004965,277.1173153000418,None,278.50205520004965,279.77088760002516,0.9000000000000006,279.78762750001624,None,280.53882310003974,None,,,,,,,[1.2625],2.740000000000002,0.75,11036,001,2024_Mar_10_1430,MFTM_A_new1021,2021.2.3,59.629829941413526,
,,,,,,,,stim/Instruction_adaptive.png,conditions/adaptive.xlsx,test,0.6,0.6,0.6,-0.6,-0.6,right,R,,,,,0,1,1,1,0,40,40,14,,,,,,,,,,,,,,,,,,,,,,,,,,,,,,,,,,,,,,,,,,,,281.03941829991527,None,right,1,1.2766349001321942,281.5396857999731,283.0254017000552,281.5396857999731,282.5248155000154,281.5396857999731,282.5248155000154,281.5396857999731,282.5248155000154,281.5396857999731,282.5248155000154,281.5396857999731,282.5248155000154,282.5080138000194,283.00960869994015,282.5080138000194,283.00960869994015,282.5080138000194,283.00960869994015,282.5080138000194,283.00960869994015,282.5080138000194,283.00960869994015,282.5080138000194,283.00960869994015,282.5080138000194,283.00960869994015,282.5080138000194,283.00960869994015,281.5396857999731,None,283.00960869994015,None,0.9800000000000006,284.29379920009524,None,285.04597890004516,None,,,,,,,[1.26878049],2.780000000000002,0.7560975609756098,11036,001,2024_Mar_10_1430,MFTM_A_new1021,2021.2.3,59.629829941413526,
,,,,,,,,stim/Instruction_adaptive.png,conditions/adaptive.xlsx,test,0.6,0.6,0.6,-0.6,-0.6,right,R,,,,,0,1,1,1,0,41,41,34,,,,,,,,,,,,,,,,,,,,,,,,,,,,,,,,,,,,,,,,,,,,285.5466412999667,None,right,1,1.129756299778819,286.04662099992856,287.51637750002556,286.04662099992856,287.01481640012935,286.04662099992856,287.01481640012935,286.04662099992856,287.01481640012935,286.04662099992856,287.01481640012935,286.04662099992856,287.01481640012935,286.9979727999307,287.49910080013797,286.9979727999307,287.49910080013797,286.9979727999307,287.49910080013797,286.9979727999307,287.49910080013797,286.9979727999307,287.49910080013797,286.9979727999307,287.49910080013797,286.9979727999307,287.49910080013797,286.9979727999307,287.49910080013797,286.04662099992856,None,287.49910080013797,None,0.9600000000000006,288.78401409997605,None,289.5351911999751,None,,,,,,,[1.2752381],2.830000000000002,0.7619047619047619,11036,001,2024_Mar_10_1430,MFTM_A_new1021,2021.2.3,59.629829941413526,
,,,,,,,,stim/Instruction_adaptive.png,conditions/adaptive.xlsx,test,0.6,0.6,0.6,-0.6,-0.6,right,R,,,,,0,1,1,1,0,42,42,62,,,,,,,,,,,,,,,,,,,,,,,,,,,,,,,,,,,,,,,,,,,,290.0366346000228,None,left,0,1.0311202998273075,290.5373921999708,291.9730648000259,290.5373921999708,291.4727406001184,290.5373921999708,291.4727406001184,290.5373921999708,291.4727406001184,290.5373921999708,291.4727406001184,290.5373921999708,291.4727406001184,291.45487329992466,291.95541930012405,291.45487329992466,291.95541930012405,291.45487329992466,291.95541930012405,291.45487329992466,291.95541930012405,291.45487329992466,291.95541930012405,291.45487329992466,291.95541930012405,291.45487329992466,291.95541930012405,291.45487329992466,291.95541930012405,290.5373921999708,None,291.95541930012405,293.2415825999342,0.9300000000000006,293.2569935999345,None,294.0096215000376,None,,,,,,,[1.28209302],2.700000000000002,0.7441860465116279,11036,001,2024_Mar_10_1430,MFTM_A_new1021,2021.2.3,59.629829941413526,
,,,,,,,,stim/Instruction_adaptive.png,conditions/adaptive.xlsx,test,-0.6,-0.6,-0.6,0.6,0.6,left,L,,,,,0,1,1,1,0,43,43,43,,,,,,,,,,,,,,,,,,,,,,,,,,,,,,,,,,,,,,,,,,,,294.5095633000601,None,right,0,0.9582493999041617,295.0100603001192,296.52910839999095,295.0100603001192,296.0291160000488,295.0100603001192,296.0291160000488,295.0100603001192,296.0291160000488,295.0100603001192,296.0291160000488,295.0100603001192,296.0291160000488,296.01166169997305,296.5131103999447,296.01166169997305,296.5131103999447,296.01166169997305,296.5131103999447,296.01166169997305,296.5131103999447,296.01166169997305,296.5131103999447,296.01166169997305,296.5131103999447,296.01166169997305,296.5131103999447,296.01166169997305,296.5131103999447,295.0100603001192,None,296.5131103999447,None,1.0100000000000007,297.81508460012265,None,298.5663298999425,None,,,,,,,[1.28681818],2.560000000000002,0.7272727272727273,11036,001,2024_Mar_10_1430,MFTM_A_new1021,2021.2.3,59.629829941413526,
,,,,,,,,stim/Instruction_adaptive.png,conditions/adaptive.xlsx,test,-0.6,-0.6,-0.6,0.6,0.6,left,L,,,,,0,1,1,1,0,44,44,7,,,,,,,,,,,,,,,,,,,,,,,,,,,,,,,,,,,,,,,,,,,,299.06627309997566,None,right,0,1.2734338000882417,299.5670733000152,301.18703650007956,299.5670733000152,300.70194720011204,299.5670733000152,300.70194720011204,299.5670733000152,300.70194720011204,299.5670733000152,300.70194720011204,299.5670733000152,300.70194720011204,300.6686652000062,301.1701088999398,300.6686652000062,301.1701088999398,300.6686652000062,301.1701088999398,300.6686652000062,301.1701088999398,300.6686652000062,301.1701088999398,300.6686652000062,301.1701088999398,300.6686652000062,301.1701088999398,300.6686652000062,301.1701088999398,299.5670733000152,None,301.1701088999398,302.4720547001343,1.1200000000000008,302.4891993000638,None,303.2400869000703,None,,,,,,,[1.28888889],2.4200000000000017,0.7111111111111111,11036,001,2024_Mar_10_1430,MFTM_A_new1021,2021.2.3,59.629829941413526,
,,,,,,,,stim/Instruction_adaptive.png,conditions/adaptive.xlsx,test,-0.6,-0.6,-0.6,0.6,0.6,left,L,,,,,0,1,1,1,0,45,45,59,,,,,,,,,,,,,,,,,,,,,,,,,,,,,,,,,,,,,,,,,,,,303.7406770000234,None,right,0,1.823438299819827,304.24138169991784,305.9766673000995,304.24138169991784,305.47602370008826,304.24138169991784,305.47602370008826,304.24138169991784,305.47602370008826,304.24138169991784,305.47602370008826,304.24138169991784,305.47602370008826,305.45940289995633,305.96012630010955,305.45940289995633,305.96012630010955,305.45940289995633,305.96012630010955,305.45940289995633,305.96012630010955,305.45940289995633,305.96012630010955,305.45940289995633,305.96012630010955,305.45940289995633,305.96012630010955,305.45940289995633,305.96012630010955,304.24138169991784,None,305.96012630010955,307.2294902000576,1.2300000000000009,307.2453362001106,None,307.99699270003475,None,,,,,,,[[1.27]],2.2600000000000016,0.6956521739130435,11036,001,2024_Mar_10_1430,MFTM_A_new1021,2021.2.3,59.629829941413526,
,,,,,,,,stim/Instruction_adaptive.png,conditions/adaptive.xlsx,test,-0.6,-0.6,-0.6,0.6,0.6,left,L,,,,,0,1,1,1,0,46,46,91,,,,,,,,,,,,,,,,,,,,,,,,,,,,,,,,,,,,,,,,,,,,308.4979451999534,None,left,1,1.1707931000273675,308.99781570001505,310.8682657999452,308.99781570001505,310.3674624999985,308.99781570001505,310.3674624999985,308.99781570001505,310.3674624999985,308.99781570001505,310.3674624999985,308.99781570001505,310.3674624999985,310.35145430010743,310.8516047000885,310.35145430010743,310.8516047000885,310.35145430010743,310.8516047000885,310.35145430010743,310.8516047000885,310.35145430010743,310.8516047000885,310.35145430010743,310.8516047000885,310.35145430010743,310.8516047000885,310.35145430010743,310.8516047000885,308.99781570001505,None,310.8516047000885,311.98659530002624,1.370000000000001,312.00227640010417,None,312.75506539992057,None,,,,,,,[[1.13]],2.3200000000000016,0.7021276595744681,11036,001,2024_Mar_10_1430,MFTM_A_new1021,2021.2.3,59.629829941413526,
,,,,,,,,stim/Instruction_adaptive.png,conditions/adaptive.xlsx,test,-0.6,-0.6,-0.6,0.6,0.6,left,L,,,,,0,1,1,1,0,47,47,53,,,,,,,,,,,,,,,,,,,,,,,,,,,,,,,,,,,,,,,,,,,,313.25503650004975,None,left,1,0.877773999935016,313.7551172999665,315.57448199996725,313.7551172999665,315.0907946000807,313.7551172999665,315.0907946000807,313.7551172999665,315.0907946000807,313.7551172999665,315.0907946000807,313.7551172999665,315.0907946000807,315.0571127999574,315.557824900141,315.0571127999574,315.557824900141,315.0571127999574,315.557824900141,315.0571127999574,315.557824900141,315.0571127999574,315.557824900141,315.0571127999574,315.557824900141,315.0571127999574,315.557824900141,315.0571127999574,315.557824900141,313.7551172999665,None,315.557824900141,316.74368100007996,1.320000000000001,316.7603166999761,None,317.5119853001088,None,,,,,,,[[1.18]],2.370000000000002,0.7083333333333334,11036,001,2024_Mar_10_1430,MFTM_A_new1021,2021.2.3,59.629829941413526,
,,,,,,,,stim/Instruction_adaptive.png,conditions/adaptive.xlsx,test,0.6,0.6,0.6,-0.6,-0.6,right,R,,,,,0,1,1,1,0,48,48,48,,,,,,,,,,,,,,,,,,,,,,,,,,,,,,,,,,,,,,,,,,,,318.0123843001202,None,left,0,1.1124844001606107,318.5122728999704,320.2826366999652,318.5122728999704,319.7975687000435,318.5122728999704,319.7975687000435,318.5122728999704,319.7975687000435,318.5122728999704,319.7975687000435,318.5122728999704,319.7975687000435,319.7640780999791,320.264920799993,319.7640780999791,320.264920799993,319.7640780999791,320.264920799993,319.7640780999791,320.264920799993,319.7640780999791,320.264920799993,319.7640780999791,320.264920799993,319.7640780999791,320.264920799993,319.7640780999791,320.264920799993,318.5122728999704,None,320.264920799993,321.4998759999871,1.270000000000001,321.51647270005196,None,322.2689890000038,None,,,,,,,[[1.23]],2.2200000000000015,0.6938775510204082,11036,001,2024_Mar_10_1430,MFTM_A_new1021,2021.2.3,59.629829941413526,
,,,,,,,,stim/Instruction_adaptive.png,conditions/adaptive.xlsx,test,0.6,0.6,0.6,-0.6,-0.6,right,R,,,,,0,1,1,1,0,49,49,94,,,,,,,,,,,,,,,,,,,,,,,,,,,,,,,,,,,,,,,,,,,,322.7693972000852,None,right,1,1.1000490000005811,323.26980559993535,325.1888111999724,323.26980559993535,324.68819399992935,323.26980559993535,324.68819399992935,323.26980559993535,324.68819399992935,323.26980559993535,324.68819399992935,323.26980559993535,324.68819399992935,324.65479109995067,325.1557074999437,324.65479109995067,325.1557074999437,324.65479109995067,325.1557074999437,324.65479109995067,325.1557074999437,324.65479109995067,325.1557074999437,324.65479109995067,325.1557074999437,324.65479109995067,325.1557074999437,324.65479109995067,325.1557074999437,323.26980559993535,None,325.1557074999437,326.2580812999513,1.410000000000001,326.2739780000411,None,327.02508389996365,None,,,,,,,[[1.09]],2.2700000000000014,0.7,11036,001,2024_Mar_10_1430,MFTM_A_new1021,2021.2.3,59.629829941413526,
,,,,,,,,stim/Instruction_adaptive.png,conditions/adaptive.xlsx,test,-0.6,-0.6,-0.6,0.6,0.6,left,L,,,,,0,1,1,1,0,50,50,75,,,,,,,,,,,,,,,,,,,,,,,,,,,,,,,,,,,,,,,,,,,,327.5258987999987,None,left,1,1.3668617000803351,328.0265422000084,329.8967747001443,328.0265422000084,329.395103600109,328.0265422000084,329.395103600109,328.0265422000084,329.395103600109,328.0265422000084,329.395103600109,328.0265422000084,329.395103600109,329.3793806999456,329.8800574000925,329.3793806999456,329.8800574000925,329.3793806999456,329.8800574000925,329.3793806999456,329.8800574000925,329.3793806999456,329.8800574000925,329.3793806999456,329.8800574000925,329.3793806999456,329.8800574000925,329.3793806999456,329.8800574000925,328.0265422000084,None,329.8800574000925,None,1.360000000000001,331.03161210007966,None,331.78202920011245,None,,,,,,,[[1.14]],2.3200000000000016,0.7058823529411765,11036,001,2024_Mar_10_1430,MFTM_A_new1021,2021.2.3,59.629829941413526,
,,,,,,,,stim/Instruction_adaptive.png,conditions/adaptive.xlsx,test,0.6,0.6,0.6,-0.6,-0.6,right,R,,,,,0,1,1,1,0,51,51,98,,,,,,,,,,,,,,,,,,,,,,,,,,,,,,,,,,,,,,,,,,,,332.2840191000141,None,right,1,1.4657111999113113,332.7839772000443,334.60377270006575,332.7839772000443,334.1028525000438,332.7839772000443,334.1028525000438,332.7839772000443,334.1028525000438,332.7839772000443,334.1028525000438,332.7839772000443,334.1028525000438,334.0866998001002,334.587427200051,334.0866998001002,334.587427200051,334.0866998001002,334.587427200051,334.0866998001002,334.587427200051,334.0866998001002,334.587427200051,334.0866998001002,334.587427200051,334.0866998001002,334.587427200051,334.0866998001002,334.587427200051,332.7839772000443,None,334.587427200051,335.77228519995697,1.320000000000001,335.7891691001132,None,336.5401673000306,None,,,,,,,[[1.18]],2.370000000000002,0.7115384615384616,11036,001,2024_Mar_10_1430,MFTM_A_new1021,2021.2.3,59.629829941413526,
,,,,,,,,stim/Instruction_adaptive.png,conditions/adaptive.xlsx,test,0.6,0.6,0.6,-0.6,-0.6,right,R,,,,,0,1,1,1,0,52,52,66,,,,,,,,,,,,,,,,,,,,,,,,,,,,,,,,,,,,,,,,,,,,337.04054620000534,None,right,1,1.468861100031063,337.5410957999993,339.3104602000676,337.5410957999993,338.8262869999744,337.5410957999993,338.8262869999744,337.5410957999993,338.8262869999744,337.5410957999993,338.8262869999744,337.5410957999993,338.8262869999744,338.79281649994664,339.29424570011906,338.79281649994664,339.29424570011906,338.79281649994664,339.29424570011906,338.79281649994664,339.29424570011906,338.79281649994664,339.29424570011906,338.79281649994664,339.29424570011906,338.79281649994664,339.29424570011906,338.79281649994664,339.29424570011906,337.5410957999993,None,339.29424570011906,340.528819500003,1.270000000000001,340.5452680999879,None,341.2972969999537,None,,,,,,,[[1.23]],2.410000000000002,0.7169811320754716,11036,001,2024_Mar_10_1430,MFTM_A_new1021,2021.2.3,59.629829941413526,
,,,,,,,,stim/Instruction_adaptive.png,conditions/adaptive.xlsx,test,0.6,0.6,0.6,-0.6,-0.6,right,R,,,,,0,1,1,1,0,53,53,28,,,,,,,,,,,,,,,,,,,,,,,,,,,,,,,,,,,,,,,,,,,,341.79804349993356,None,right,1,1.2306270999833941,342.29930529999547,344.05212290002964,342.29930529999547,343.5498915000353,342.29930529999547,343.5498915000353,342.29930529999547,343.5498915000353,342.29930529999547,343.5498915000353,342.29930529999547,343.5498915000353,343.5165810000617,344.01729109999724,343.5165810000617,344.01729109999724,343.5165810000617,344.01729109999724,343.5165810000617,344.01729109999724,343.5165810000617,344.01729109999724,343.5165810000617,344.01729109999724,343.5165810000617,344.01729109999724,343.5165810000617,344.01729109999724,342.29930529999547,None,344.01729109999724,345.2869405001402,1.2400000000000009,345.3029893001076,None,346.05449900007807,None,,,,,,,[[1.26]],2.4600000000000017,0.7222222222222222,11036,001,2024_Mar_10_1430,MFTM_A_new1021,2021.2.3,59.629829941413526,
,,,,,,,,stim/Instruction_adaptive.png,conditions/adaptive.xlsx,test,0.6,0.6,0.6,-0.6,-0.6,right,R,,,,,0,1,1,1,0,54,54,36,,,,,,,,,,,,,,,,,,,,,,,,,,,,,,,,,,,,,,,,,,,,346.55447080009617,None,left,0,1.2509920001029968,347.0551662000362,348.75782119994983,347.0551662000362,348.2572520999238,347.0551662000362,348.2572520999238,347.0551662000362,348.2572520999238,347.0551662000362,348.2572520999238,347.0551662000362,348.2572520999238,348.24083369993605,348.7417999000754,348.24083369993605,348.7417999000754,348.24083369993605,348.7417999000754,348.24083369993605,348.7417999000754,348.24083369993605,348.7417999000754,348.24083369993605,348.7417999000754,348.24083369993605,348.7417999000754,348.24083369993605,348.7417999000754,347.0551662000362,None,348.7417999000754,None,1.2000000000000008,350.0257409999613,None,350.77761989994906,None,,,,,,,[1.27290909],2.330000000000002,0.7090909090909091,11036,001,2024_Mar_10_1430,MFTM_A_new1021,2021.2.3,59.629829941413526,
,,,,,,,,stim/Instruction_adaptive.png,conditions/adaptive.xlsx,test,0.6,0.6,0.6,-0.6,-0.6,right,R,,,,,0,1,1,1,0,55,55,56,,,,,,,,,,,,,,,,,,,,,,,,,,,,,,,,,,,,,,,,,,,,351.27821970009245,None,right,1,1.4953236998990178,351.77893740008585,353.5990033999551,351.77893740008585,353.098973599961,351.77893740008585,353.098973599961,351.77893740008585,353.098973599961,351.77893740008585,353.098973599961,351.77893740008585,353.098973599961,353.0821235999465,353.581800899934,353.0821235999465,353.581800899934,353.0821235999465,353.581800899934,353.0821235999465,353.581800899934,353.0821235999465,353.581800899934,353.0821235999465,353.581800899934,353.0821235999465,353.581800899934,353.0821235999465,353.581800899934,351.77893740008585,None,353.56551480013877,354.76806439994834,1.310000000000001,354.78293010010384,None,355.5353115000762,None,,,,,,,[[1.19]],2.3800000000000017,0.7142857142857143,11036,001,2024_Mar_10_1430,MFTM_A_new1021,2021.2.3,59.629829941413526,
,,,,,,,,stim/Instruction_adaptive.png,conditions/adaptive.xlsx,test,-0.6,-0.6,-0.6,0.6,0.6,left,L,,,,,0,1,1,1,0,56,56,3,,,,,,,,,,,,,,,,,,,,,,,,,,,,,,,,,,,,,,,,,,,,356.0356157999486,None,left,1,1.4567941999994218,356.5371071000118,358.3061019999441,356.5371071000118,357.8049065999221,356.5371071000118,357.8049065999221,356.5371071000118,357.8049065999221,356.5371071000118,357.8049065999221,356.5371071000118,357.8049065999221,357.7714869999327,358.2734717000276,357.7714869999327,358.2734717000276,357.7714869999327,358.2734717000276,357.7714869999327,358.2734717000276,357.7714869999327,358.2734717000276,357.7714869999327,358.2734717000276,357.7714869999327,358.2734717000276,357.7714869999327,358.2734717000276,356.5371071000118,None,358.2734717000276,359.52525310008787,1.260000000000001,359.54082400002517,None,360.2920103999786,None,,,,,,,[[1.24]],2.4200000000000017,0.7192982456140351,11036,001,2024_Mar_10_1430,MFTM_A_new1021,2021.2.3,59.629829941413526,
,,,,,,,,stim/Instruction_adaptive.png,conditions/adaptive.xlsx,test,0.6,0.6,0.6,-0.6,-0.6,right,R,,,,,0,1,1,1,0,57,57,96,,,,,,,,,,,,,,,,,,,,,,,,,,,,,,,,,,,,,,,,,,,,360.79246539995074,None,left,0,1.5164826000109315,361.29367160005495,363.02927029994316,361.29367160005495,362.5286024999805,361.29367160005495,362.5286024999805,361.29367160005495,362.5286024999805,361.29367160005495,362.5286024999805,361.29367160005495,362.5286024999805,362.51197370002046,363.01254809997045,362.51197370002046,363.01254809997045,362.51197370002046,363.01254809997045,362.51197370002046,363.01254809997045,362.51197370002046,363.01254809997045,362.51197370002046,363.01254809997045,362.51197370002046,363.01254809997045,362.51197370002046,363.01254809997045,361.29367160005495,None,363.01254809997045,None,1.2300000000000009,364.29787279991433,None,365.049165799981,None,,,,,,,[[1.27]],2.3000000000000016,0.7068965517241379,11036,001,2024_Mar_10_1430,MFTM_A_new1021,2021.2.3,59.629829941413526,
,,,,,,,,stim/Instruction_adaptive.png,conditions/adaptive.xlsx,test,0.6,0.6,0.6,-0.6,-0.6,right,R,,,,,0,1,1,1,0,58,58,16,,,,,,,,,,,,,,,,,,,,,,,,,,,,,,,,,,,,,,,,,,,,365.54967040009797,None,right,1,0.9517581998370588,366.05048119998537,367.90374669991434,366.05048119998537,367.4027678000275,366.05048119998537,367.4027678000275,366.05048119998537,367.4027678000275,366.05048119998537,367.4027678000275,366.05048119998537,367.4027678000275,367.36966959992424,367.87040390004404,367.36966959992424,367.87040390004404,367.36966959992424,367.87040390004404,367.36966959992424,367.87040390004404,367.36966959992424,367.87040390004404,367.36966959992424,367.87040390004404,367.36966959992424,367.87040390004404,367.36966959992424,367.87040390004404,366.05048119998537,None,367.87040390004404,369.03827090002596,1.340000000000001,369.05499879992567,None,369.8075032001361,None,,,,,,,[[1.16]],2.3400000000000016,0.711864406779661,11036,001,2024_Mar_10_1430,MFTM_A_new1021,2021.2.3,59.629829941413526,
,,,,,,,,stim/Instruction_adaptive.png,conditions/adaptive.xlsx,test,0.6,0.6,0.6,-0.6,-0.6,right,R,,,,,0,1,1,1,0,59,59,82,,,,,,,,,,,,,,,,,,,,,,,,,,,,,,,,,,,,,,,,,,,,370.3079296001233,None,right,1,1.3543538998346776,370.80784479994327,372.61153890006244,370.80784479994327,372.11094120005146,370.80784479994327,372.11094120005146,370.80784479994327,372.11094120005146,370.80784479994327,372.11094120005146,370.80784479994327,372.11094120005146,372.09291970008053,372.59383190004155,372.09291970008053,372.59383190004155,372.09291970008053,372.59383190004155,372.09291970008053,372.59383190004155,372.09291970008053,372.59383190004155,372.09291970008053,372.59383190004155,372.09291970008053,372.59383190004155,372.09291970008053,372.59383190004155,370.80784479994327,None,372.59383190004155,373.7964725000784,1.300000000000001,373.81220960011706,None,374.5644144001417,None,,,,,,,[[1.2]],2.3800000000000017,0.7166666666666667,11036,001,2024_Mar_10_1430,MFTM_A_new1021,2021.2.3,59.629829941413526,
,,,,,,,,stim/Instruction_adaptive.png,conditions/adaptive.xlsx,test,0.6,0.6,0.6,-0.6,-0.6,right,R,,,,,0,1,1,1,0,60,60,2,,,,,,,,,,,,,,,,,,,,,,,,,,,,,,,,,,,,,,,,,,,,375.065035100095,None,left,0,1.6616718000732362,375.56496370001696,377.3348952999804,375.56496370001696,376.83441010001116,375.56496370001696,376.83441010001116,375.56496370001696,376.83441010001116,375.56496370001696,376.83441010001116,375.56496370001696,376.83441010001116,376.8001093000639,377.3015582000371,376.8001093000639,377.3015582000371,376.8001093000639,377.3015582000371,376.8001093000639,377.3015582000371,376.8001093000639,377.3015582000371,376.8001093000639,377.3015582000371,376.8001093000639,377.3015582000371,376.8001093000639,377.3015582000371,375.56496370001696,None,377.3015582000371,378.55361520010047,1.260000000000001,378.5693077999167,None,379.32149010011926,None,,,,,,,[[1.24]],2.2600000000000016,0.7049180327868853,11036,001,2024_Mar_10_1430,MFTM_A_new1021,2021.2.3,59.629829941413526,
,,,,,,,,stim/Instruction_adaptive.png,conditions/adaptive.xlsx,test,0.6,0.6,0.6,-0.6,-0.6,right,R,,,,,0,1,1,1,0,61,61,90,,,,,,,,,,,,,,,,,,,,,,,,,,,,,,,,,,,,,,,,,,,,379.8219240999315,None,right,1,1.2004152000881732,380.3221927001141,382.19172020000406,380.3221927001141,381.70888589997776,380.3221927001141,381.70888589997776,380.3221927001141,381.70888589997776,380.3221927001141,381.70888589997776,380.3221927001141,381.70888589997776,381.67410740000196,382.17559639993124,381.67410740000196,382.17559639993124,381.67410740000196,382.17559639993124,381.67410740000196,382.17559639993124,381.67410740000196,382.17559639993124,381.67410740000196,382.17559639993124,381.67410740000196,382.17559639993124,381.67410740000196,382.17559639993124,380.3221927001141,None,382.17559639993124,383.3112741999794,1.370000000000001,383.3260131001007,None,384.0776663001161,None,,,,,,,[[1.13]],2.3000000000000016,0.7096774193548387,11036,001,2024_Mar_10_1430,MFTM_A_new1021,2021.2.3,59.629829941413526,
,,,,,,,,stim/Instruction_adaptive.png,conditions/adaptive.xlsx,test,-0.6,-0.6,-0.6,0.6,0.6,left,L,,,,,0,1,1,1,0,62,62,47,,,,,,,,,,,,,,,,,,,,,,,,,,,,,,,,,,,,,,,,,,,,384.5786141999997,None,left,1,1.5149387998972088,385.0800191999879,386.93244410003535,385.0800191999879,386.4325061000418,385.0800191999879,386.4325061000418,385.0800191999879,386.4325061000418,385.0800191999879,386.4325061000418,385.0800191999879,386.4325061000418,386.3980034000706,386.89867589995265,386.3980034000706,386.89867589995265,386.3980034000706,386.89867589995265,386.3980034000706,386.89867589995265,386.3980034000706,386.89867589995265,386.3980034000706,386.89867589995265,386.3980034000706,386.89867589995265,386.3980034000706,386.89867589995265,385.0800191999879,None,386.89867589995265,388.06794480001554,1.340000000000001,388.08437309996225,None,388.83487579994835,None,,,,,,,[[1.16]],2.3400000000000016,0.7142857142857143,11036,001,2024_Mar_10_1430,MFTM_A_new1021,2021.2.3,59.629829941413526,
,,,,,,,,stim/Instruction_adaptive.png,conditions/adaptive.xlsx,test,-0.6,-0.6,-0.6,0.6,0.6,left,L,,,,,0,1,1,1,0,63,63,49,,,,,,,,,,,,,,,,,,,,,,,,,,,,,,,,,,,,,,,,,,,,389.3357943999581,None,left,1,0.7744096999522299,389.8365222001448,391.6391962999478,389.8365222001448,391.1387414999772,389.8365222001448,391.1387414999772,389.8365222001448,391.1387414999772,389.8365222001448,391.1387414999772,389.8365222001448,391.1387414999772,391.1216826001182,391.6228825999424,391.1216826001182,391.6228825999424,391.1216826001182,391.6228825999424,391.1216826001182,391.6228825999424,391.1216826001182,391.6228825999424,391.1216826001182,391.6228825999424,391.1216826001182,391.6228825999424,391.1216826001182,391.6228825999424,389.8365222001448,None,391.6228825999424,392.82441519992426,1.300000000000001,392.84097749996,None,393.5920708000194,None,,,,,,,[[1.2]],2.3800000000000017,0.71875,11036,001,2024_Mar_10_1430,MFTM_A_new1021,2021.2.3,59.629829941413526,
,,,,,,,,stim/Instruction_adaptive.png,conditions/adaptive.xlsx,test,-0.6,-0.6,-0.6,0.6,0.6,left,L,,,,,0,1,1,1,0,64,64,71,,,,,,,,,,,,,,,,,,,,,,,,,,,,,,,,,,,,,,,,,,,,394.09334060014226,None,left,1,0.8407757000532001,394.5943432999775,396.3628098999616,394.5943432999775,395.8621400000993,394.5943432999775,395.8621400000993,394.5943432999775,395.8621400000993,394.5943432999775,395.8621400000993,394.5943432999775,395.8621400000993,395.8288199000526,396.33002549991943,395.8288199000526,396.33002549991943,395.8288199000526,396.33002549991943,395.8288199000526,396.33002549991943,395.8288199000526,396.33002549991943,395.8288199000526,396.33002549991943,395.8288199000526,396.33002549991943,395.8288199000526,396.33002549991943,394.5943432999775,None,396.33002549991943,397.58221790008247,1.260000000000001,397.59817950008437,None,398.35039369994774,None,,,,,,,[[1.24]],2.410000000000002,0.7230769230769231,11036,001,2024_Mar_10_1430,MFTM_A_new1021,2021.2.3,59.629829941413526,
,,,,,,,,stim/Instruction_adaptive.png,conditions/adaptive.xlsx,test,0.6,0.6,0.6,-0.6,-0.6,right,R,,,,,0,1,1,1,0,65,65,12,,,,,,,,,,,,,,,,,,,,,,,,,,,,,,,,,,,,,,,,,,,,398.85002729995176,None,right,1,1.1083536001387984,399.35079830000177,401.1039359001443,399.35079830000177,400.60361200012267,399.35079830000177,400.60361200012267,399.35079830000177,400.60361200012267,399.35079830000177,400.60361200012267,399.35079830000177,400.60361200012267,400.56920449994504,401.0707978999708,400.56920449994504,401.0707978999708,400.56920449994504,401.0707978999708,400.56920449994504,401.0707978999708,400.56920449994504,401.0707978999708,400.56920449994504,401.0707978999708,400.56920449994504,401.0707978999708,400.56920449994504,401.0707978999708,399.35079830000177,None,401.0707978999708,402.339444299927,1.2400000000000009,402.3553542001173,None,403.10721820010804,None,,,,,,,[[1.26]],2.450000000000002,0.7272727272727273,11036,001,2024_Mar_10_1430,MFTM_A_new1021,2021.2.3,59.629829941413526,
,,,,,,,,stim/Instruction_adaptive.png,conditions/adaptive.xlsx,test,0.6,0.6,0.6,-0.6,-0.6,right,R,,,,,0,1,1,1,0,66,66,54,,,,,,,,,,,,,,,,,,,,,,,,,,,,,,,,,,,,,,,,,,,,403.60710939997807,None,right,1,1.391224900027737,404.10799850011244,405.81072110007517,404.10799850011244,405.30991409998387,404.10799850011244,405.30991409998387,404.10799850011244,405.30991409998387,404.10799850011244,405.30991409998387,404.10799850011244,405.30991409998387,405.29392600012943,405.7945656001102,405.29392600012943,405.7945656001102,405.29392600012943,405.7945656001102,405.29392600012943,405.7945656001102,405.29392600012943,405.7945656001102,405.29392600012943,405.7945656001102,405.29392600012943,405.7945656001102,405.29392600012943,405.7945656001102,404.10799850011244,None,405.7945656001102,407.06275189993903,1.2000000000000008,407.0797969000414,None,407.83048809994943,None,,,,,,,[1.26268657],2.4800000000000018,0.7313432835820896,11036,001,2024_Mar_10_1430,MFTM_A_new1021,2021.2.3,59.629829941413526,
,,,,,,,,stim/Instruction_adaptive.png,conditions/adaptive.xlsx,test,-0.6,-0.6,-0.6,0.6,0.6,left,L,,,,,0,1,1,1,0,67,67,37,,,,,,,,,,,,,,,,,,,,,,,,,,,,,,,,,,,,,,,,,,,,408.3311817001086,None,left,1,0.908339099958539,408.83147500013,410.51750820013694,408.83147500013,410.01716100005433,408.83147500013,410.01716100005433,408.83147500013,410.01716100005433,408.83147500013,410.01716100005433,408.83147500013,410.01716100005433,410.0000533000566,410.50090750004165,410.0000533000566,410.50090750004165,410.0000533000566,410.50090750004165,410.0000533000566,410.50090750004165,410.0000533000566,410.50090750004165,410.0000533000566,410.50090750004165,410.0000533000566,410.50090750004165,410.0000533000566,410.50090750004165,408.83147500013,None,410.50090750004165,411.77026479993947,1.1800000000000008,411.7861568001099,None,412.5387037000619,None,,,,,,,[1.26352941],2.5100000000000016,0.7352941176470589,11036,001,2024_Mar_10_1430,MFTM_A_new1021,2021.2.3,59.629829941413526,
,,,,,,,,stim/Instruction_adaptive.png,conditions/adaptive.xlsx,test,-0.6,-0.6,-0.6,0.6,0.6,left,L,,,,,0,1,1,1,0,68,68,25,,,,,,,,,,,,,,,,,,,,,,,,,,,,,,,,,,,,,,,,,,,,413.0380005999468,None,left,1,0.8247897000983357,413.5389254000038,415.1913264999166,413.5389254000038,414.69062300003134,413.5389254000038,414.69062300003134,413.5389254000038,414.69062300003134,413.5389254000038,414.69062300003134,413.5389254000038,414.69062300003134,414.67520730011165,415.17580879991874,414.67520730011165,415.17580879991874,414.67520730011165,415.17580879991874,414.67520730011165,415.17580879991874,414.67520730011165,415.17580879991874,414.67520730011165,415.17580879991874,414.67520730011165,415.17580879991874,414.67520730011165,415.17580879991874,413.5389254000038,None,415.17580879991874,416.44356829999015,1.1500000000000008,416.4605165999383,None,417.21161859994754,None,,,,,,,[1.26478261],2.540000000000002,0.7391304347826086,11036,001,2024_Mar_10_1430,MFTM_A_new1021,2021.2.3,59.629829941413526,
,,,,,,,,stim/Instruction_adaptive.png,conditions/adaptive.xlsx,test,-0.6,-0.6,-0.6,0.6,0.6,left,L,,,,,0,1,1,1,0,69,69,95,,,,,,,,,,,,,,,,,,,,,,,,,,,,,,,,,,,,,,,,,,,,417.7125144000165,None,left,1,1.02321120002307,418.2125474999193,419.8481463000644,418.2125474999193,419.3477306999266,418.2125474999193,419.3477306999266,418.2125474999193,419.3477306999266,418.2125474999193,419.3477306999266,418.2125474999193,419.3477306999266,419.33202570001595,419.8317050000187,419.33202570001595,419.8317050000187,419.33202570001595,419.8317050000187,419.33202570001595,419.8317050000187,419.33202570001595,419.8317050000187,419.33202570001595,419.8317050000187,419.33202570001595,419.8317050000187,419.33202570001595,419.8317050000187,418.2125474999193,None,419.8317050000187,421.10033860011026,1.1300000000000008,421.1168082000222,None,421.86804249999113,None,,,,,,,[1.26628571],2.570000000000002,0.7428571428571429,11036,001,2024_Mar_10_1430,MFTM_A_new1021,2021.2.3,59.629829941413526,
,,,,,,,,stim/Instruction_adaptive.png,conditions/adaptive.xlsx,test,-0.6,-0.6,-0.6,0.6,0.6,left,L,,,,,0,1,1,1,0,70,70,81,,,,,,,,,,,,,,,,,,,,,,,,,,,,,,,,,,,,,,,,,,,,422.37046240014024,None,right,0,1.0778452998492867,422.87059090007097,424.49000450014137,422.87059090007097,423.9879727999214,422.87059090007097,423.9879727999214,422.87059090007097,423.9879727999214,422.87059090007097,423.9879727999214,422.87059090007097,423.9879727999214,423.9546199000906,424.45623450004496,423.9546199000906,424.45623450004496,423.9546199000906,424.45623450004496,423.9546199000906,424.45623450004496,423.9546199000906,424.45623450004496,423.9546199000906,424.45623450004496,423.9546199000906,424.45623450004496,423.9546199000906,424.45623450004496,422.87059090007097,None,424.45623450004496,425.72459940006956,1.1100000000000008,425.7572439000942,None,426.5091043000575,None,,,,,,,[1.26802817],2.490000000000002,0.7323943661971831,11036,001,2024_Mar_10_1430,MFTM_A_new1021,2021.2.3,59.629829941413526,
,,,,,,,,stim/Instruction_adaptive.png,conditions/adaptive.xlsx,test,-0.6,-0.6,-0.6,0.6,0.6,left,L,,,,,0,1,1,1,0,71,71,5,,,,,,,,,,,,,,,,,,,,,,,,,,,,,,,,,,,,,,,,,,,,427.0101274999324,None,right,0,1.5253322999924421,427.5107921001036,429.18022940005176,427.5107921001036,428.69593930011615,427.5107921001036,428.69593930011615,427.5107921001036,428.69593930011615,427.5107921001036,428.69593930011615,427.5107921001036,428.69593930011615,428.6626357000787,429.16355139994994,428.6626357000787,429.16355139994994,428.6626357000787,429.16355139994994,428.6626357000787,429.16355139994994,428.6626357000787,429.16355139994994,428.6626357000787,429.16355139994994,428.6626357000787,429.16355139994994,428.6626357000787,429.16355139994994,427.5107921001036,None,429.16355139994994,430.4316563999746,1.1700000000000008,430.4642883001361,None,431.2166939000599,None,,,,,,,[1.26888889],2.4000000000000017,0.7222222222222222,11036,001,2024_Mar_10_1430,MFTM_A_new1021,2021.2.3,59.629829941413526,
,,,,,,,,stim/Instruction_adaptive.png,conditions/adaptive.xlsx,test,0.6,0.6,0.6,-0.6,-0.6,right,R,,,,,0,1,1,1,0,72,72,78,,,,,,,,,,,,,,,,,,,,,,,,,,,,,,,,,,,,,,,,,,,,431.71655500005,None,right,1,1.3062102999538183,432.2180139000993,433.9708312000148,432.2180139000993,433.46962180011906,432.2180139000993,433.46962180011906,432.2180139000993,433.46962180011906,432.2180139000993,433.46962180011906,432.2180139000993,433.46962180011906,433.45327290007845,433.953549799975,433.45327290007845,433.953549799975,433.45327290007845,433.953549799975,433.45327290007845,433.953549799975,433.45327290007845,433.953549799975,433.45327290007845,433.953549799975,433.45327290007845,433.953549799975,433.45327290007845,433.953549799975,432.2180139000993,None,433.953549799975,435.205961199943,1.2500000000000009,435.22156299999915,None,435.9738630000502,None,,,,,,,[[1.25]],2.4300000000000015,0.726027397260274,11036,001,2024_Mar_10_1430,MFTM_A_new1021,2021.2.3,59.629829941413526,
,,,,,,,,stim/Instruction_adaptive.png,conditions/adaptive.xlsx,test,-0.6,-0.6,-0.6,0.6,0.6,left,L,,,,,0,1,1,1,0,73,73,63,,,,,,,,,,,,,,,,,,,,,,,,,,,,,,,,,,,,,,,,,,,,436.4741062000394,None,right,0,1.0539230001159012,436.9741965001449,438.6935535001103,436.9741965001449,438.2095914001111,436.9741965001449,438.2095914001111,436.9741965001449,438.2095914001111,436.9741965001449,438.2095914001111,436.9741965001449,438.2095914001111,438.1757829999551,438.67678679991513,438.1757829999551,438.67678679991513,438.1757829999551,438.67678679991513,438.1757829999551,438.67678679991513,438.1757829999551,438.67678679991513,438.1757829999551,438.67678679991513,438.1757829999551,438.67678679991513,438.1757829999551,438.67678679991513,436.9741965001449,None,438.67678679991513,439.94528890005313,1.2200000000000009,439.9621606001165,None,440.71379870013334,None,,,,,,,[1.26878378],2.3400000000000016,0.7162162162162162,11036,001,2024_Mar_10_1430,MFTM_A_new1021,2021.2.3,59.629829941413526,
,,,,,,,,stim/Instruction_adaptive.png,conditions/adaptive.xlsx,test,0.6,0.6,0.6,-0.6,-0.6,right,R,,,,,0,1,1,1,0,74,74,24,,,,,,,,,,,,,,,,,,,,,,,,,,,,,,,,,,,,,,,,,,,,441.2138825999573,None,right,1,1.2895319000817835,441.7146992001217,443.51869980013,441.7146992001217,443.01682880008593,441.7146992001217,443.01682880008593,441.7146992001217,443.01682880008593,441.7146992001217,443.01682880008593,441.7146992001217,443.01682880008593,443.00008110003546,443.50166109995916,443.00008110003546,443.50166109995916,443.00008110003546,443.50166109995916,443.00008110003546,443.50166109995916,443.00008110003546,443.50166109995916,443.00008110003546,443.50166109995916,443.00008110003546,443.50166109995916,443.00008110003546,443.50166109995916,441.7146992001217,None,443.50166109995916,444.7025439001154,1.300000000000001,444.7192746999208,None,445.4703768999316,None,,,,,,,[[1.2]],2.370000000000002,0.72,11036,001,2024_Mar_10_1430,MFTM_A_new1021,2021.2.3,59.629829941413526,
,,,,,,,,stim/Instruction_adaptive.png,conditions/adaptive.xlsx,test,0.6,0.6,0.6,-0.6,-0.6,right,R,,,,,0,1,1,1,0,75,75,76,,,,,,,,,,,,,,,,,,,,,,,,,,,,,,,,,,,,,,,,,,,,445.97121890005656,None,right,1,1.50912950001657,446.4718349999748,448.2413319000043,446.4718349999748,447.7416660999879,446.4718349999748,447.7416660999879,446.4718349999748,447.7416660999879,446.4718349999748,447.7416660999879,446.4718349999748,447.7416660999879,447.7250115000643,448.2250640001148,447.7250115000643,448.2250640001148,447.7250115000643,448.2250640001148,447.7250115000643,448.2250640001148,447.7250115000643,448.2250640001148,447.7250115000643,448.2250640001148,447.7250115000643,448.2250640001148,447.7250115000643,448.2250640001148,446.4718349999748,None,448.2250640001148,449.4603202000726,1.270000000000001,449.47645219997503,None,450.22806270001456,None,,,,,,,[[1.23]],2.4000000000000017,0.7236842105263158,11036,001,2024_Mar_10_1430,MFTM_A_new1021,2021.2.3,59.629829941413526,
,,,,,,,,stim/Instruction_adaptive.png,conditions/adaptive.xlsx,test,-0.6,-0.6,-0.6,0.6,0.6,left,L,,,,,0,1,1,1,0,76,76,99,,,,,,,,,,,,,,,,,,,,,,,,,,,,,,,,,,,,,,,,,,,,450.72957580001093,None,left,1,1.0312796998769045,451.2296949001029,452.9842316999566,451.2296949001029,452.4808678999543,451.2296949001029,452.4808678999543,451.2296949001029,452.4808678999543,451.2296949001029,452.4808678999543,451.2296949001029,452.4808678999543,452.464957700111,452.9649517000653,452.464957700111,452.9649517000653,452.464957700111,452.9649517000653,452.464957700111,452.9649517000653,452.464957700111,452.9649517000653,452.464957700111,452.9649517000653,452.464957700111,452.9649517000653,452.464957700111,452.9649517000653,451.2296949001029,None,452.9649517000653,454.2176207001321,1.2500000000000009,454.23369110003114,None,454.98536990000866,None,,,,,,,[[1.25]],2.4300000000000015,0.7272727272727273,11036,001,2024_Mar_10_1430,MFTM_A_new1021,2021.2.3,59.629829941413526,
,,,,,,,,stim/Instruction_adaptive.png,conditions/adaptive.xlsx,test,-0.6,-0.6,-0.6,0.6,0.6,left,L,,,,,0,1,1,1,0,77,77,15,,,,,,,,,,,,,,,,,,,,,,,,,,,,,,,,,,,,,,,,,,,,455.4856352999341,None,right,0,1.7711877999827266,455.98615389992483,457.7056802001316,455.98615389992483,457.22152650007047,455.98615389992483,457.22152650007047,455.98615389992483,457.22152650007047,455.98615389992483,457.22152650007047,455.98615389992483,457.22152650007047,457.1883595001418,457.690127100097,457.1883595001418,457.690127100097,457.1883595001418,457.690127100097,457.1883595001418,457.690127100097,457.1883595001418,457.690127100097,457.1883595001418,457.690127100097,457.1883595001418,457.690127100097,457.1883595001418,457.690127100097,455.98615389992483,None,457.690127100097,458.9572714001406,1.2200000000000009,458.97423249995336,None,459.72584359999746,None,,,,,,,[1.26730769],2.3400000000000016,0.717948717948718,11036,001,2024_Mar_10_1430,MFTM_A_new1021,2021.2.3,59.629829941413526,
,,,,,,,,stim/Instruction_adaptive.png,conditions/adaptive.xlsx,test,0.6,0.6,0.6,-0.6,-0.6,right,R,,,,,0,1,1,1,0,78,78,22,,,,,,,,,,,,,,,,,,,,,,,,,,,,,,,,,,,,,,,,,,,,460.22647080011666,None,right,1,0.7418523000087589,460.7274971001316,462.53028970002197,460.7274971001316,462.02850220003165,460.7274971001316,462.02850220003165,460.7274971001316,462.02850220003165,460.7274971001316,462.02850220003165,460.7274971001316,462.02850220003165,462.0123817999847,462.51275609992445,462.0123817999847,462.51275609992445,462.0123817999847,462.51275609992445,462.0123817999847,462.51275609992445,462.0123817999847,462.51275609992445,462.0123817999847,462.51275609992445,462.0123817999847,462.51275609992445,462.0123817999847,462.51275609992445,460.7274971001316,None,462.51275609992445,463.71560889994726,1.300000000000001,463.730607500067,None,464.4831902999431,None,,,,,,,[[1.2]],2.370000000000002,0.7215189873417721,11036,001,2024_Mar_10_1430,MFTM_A_new1021,2021.2.3,59.629829941413526,
,,,,,,,,stim/Instruction_adaptive.png,conditions/adaptive.xlsx,test,-0.6,-0.6,-0.6,0.6,0.6,left,L,,,,,0,1,1,1,0,79,79,39,,,,,,,,,,,,,,,,,,,,,,,,,,,,,,,,,,,,,,,,,,,,464.9828981999308,None,left,1,1.56821330008097,465.4849700999912,467.2704537999816,465.4849700999912,466.7691087999847,465.4849700999912,466.7691087999847,465.4849700999912,466.7691087999847,465.4849700999912,466.7691087999847,465.4849700999912,466.7691087999847,466.735899399966,467.23647990007885,466.735899399966,467.23647990007885,466.735899399966,467.23647990007885,466.735899399966,467.23647990007885,466.735899399966,467.23647990007885,466.735899399966,467.23647990007885,466.735899399966,467.23647990007885,466.735899399966,467.23647990007885,465.4849700999912,None,467.23647990007885,468.47168969991617,1.270000000000001,468.48843690007925,None,469.2399466999341,None,,,,,,,[[1.23]],2.4000000000000017,0.725,11036,001,2024_Mar_10_1430,MFTM_A_new1021,2021.2.3,59.629829941413526,
,,,,,,,,stim/Instruction_adaptive.png,conditions/adaptive.xlsx,test,-0.6,-0.6,-0.6,0.6,0.6,left,L,,,,,0,1,1,1,0,80,80,87,,,,,,,,,,,,,,,,,,,,,,,,,,,,,,,,,,,,,,,,,,,,469.7411849000491,None,left,1,1.338561899960041,470.2424852999393,471.99500440014526,470.2424852999393,471.493870300008,470.2424852999393,471.493870300008,470.2424852999393,471.493870300008,470.2424852999393,471.493870300008,470.2424852999393,471.493870300008,471.4775539000984,471.97822519997135,471.4775539000984,471.97822519997135,471.4775539000984,471.97822519997135,471.4775539000984,471.97822519997135,471.4775539000984,471.97822519997135,471.4775539000984,471.97822519997135,471.4775539000984,471.97822519997135,471.4775539000984,471.97822519997135,470.2424852999393,None,471.97822519997135,473.22887130011804,1.2500000000000009,473.2462731001433,None,473.9972477001138,None,,,,,,,[[1.25]],2.4300000000000015,0.7283950617283951,11036,001,2024_Mar_10_1430,MFTM_A_new1021,2021.2.3,59.629829941413526,
,,,,,,,,stim/Instruction_adaptive.png,conditions/adaptive.xlsx,test,-0.6,-0.6,-0.6,0.6,0.6,left,L,,,,,0,1,1,1,0,81,81,17,,,,,,,,,,,,,,,,,,,,,,,,,,,,,,,,,,,,,,,,,,,,474.49763230001554,None,left,1,0.8221217999234796,474.99955020006746,476.7346534000244,474.99955020006746,476.23417700012214,474.99955020006746,476.23417700012214,474.99955020006746,476.23417700012214,474.99955020006746,476.23417700012214,474.99955020006746,476.23417700012214,476.20017069997266,476.7006324001122,476.20017069997266,476.7006324001122,476.20017069997266,476.7006324001122,476.20017069997266,476.7006324001122,476.20017069997266,476.7006324001122,476.20017069997266,476.7006324001122,476.20017069997266,476.7006324001122,476.20017069997266,476.7006324001122,474.99955020006746,None,476.7006324001122,477.969192000106,1.2200000000000009,477.9853328000754,None,478.73809250001796,None,,,,,,,[1.26597561],2.4600000000000017,0.7317073170731707,11036,001,2024_Mar_10_1430,MFTM_A_new1021,2021.2.3,59.629829941413526,
,,,,,,,,stim/Instruction_adaptive.png,conditions/adaptive.xlsx,test,-0.6,-0.6,-0.6,0.6,0.6,left,L,,,,,0,1,1,1,0,82,82,57,,,,,,,,,,,,,,,,,,,,,,,,,,,,,,,,,,,,,,,,,,,,479.2387888999656,None,left,1,1.2990113999694586,479.739119600039,481.44201750005595,479.739119600039,480.94096009992063,479.739119600039,480.94096009992063,479.739119600039,480.94096009992063,479.739119600039,480.94096009992063,479.739119600039,480.94096009992063,480.92458810005337,481.42464939993806,480.92458810005337,481.42464939993806,480.92458810005337,481.42464939993806,480.92458810005337,481.42464939993806,480.92458810005337,481.42464939993806,480.92458810005337,481.42464939993806,480.92458810005337,481.42464939993806,480.92458810005337,481.42464939993806,479.739119600039,None,481.42464939993806,482.6939322000835,1.2000000000000008,482.7099713999778,None,483.4618255000096,None,,,,,,,[1.26638554],2.4800000000000018,0.7349397590361446,11036,001,2024_Mar_10_1430,MFTM_A_new1021,2021.2.3,59.629829941413526,
,,,,,,,,stim/Instruction_adaptive.png,conditions/adaptive.xlsx,test,0.6,0.6,0.6,-0.6,-0.6,right,R,,,,,0,1,1,1,0,83,83,64,,,,,,,,,,,,,,,,,,,,,,,,,,,,,,,,,,,,,,,,,,,,483.96183459996246,None,right,1,1.0862439998891205,484.46322660008445,486.14843460009433,484.46322660008445,485.6485792999156,484.46322660008445,485.6485792999156,484.46322660008445,485.6485792999156,484.46322660008445,485.6485792999156,484.46322660008445,485.6485792999156,485.6320219999179,486.1316468999721,485.6320219999179,486.1316468999721,485.6320219999179,486.1316468999721,485.6320219999179,486.1316468999721,485.6320219999179,486.1316468999721,485.6320219999179,486.1316468999721,485.6320219999179,486.1316468999721,485.6320219999179,486.1316468999721,484.46322660008445,None,486.1316468999721,487.4014409999363,1.1800000000000008,487.41690189996734,None,488.16882760007866,None,,,,,,,[1.26702381],2.5100000000000016,0.7380952380952381,11036,001,2024_Mar_10_1430,MFTM_A_new1021,2021.2.3,59.629829941413526,
,,,,,,,,stim/Instruction_adaptive.png,conditions/adaptive.xlsx,test,-0.6,-0.6,-0.6,0.6,0.6,left,L,,,,,0,1,1,1,0,84,84,89,,,,,,,,,,,,,,,,,,,,,,,,,,,,,,,,,,,,,,,,,,,,488.669588400051,None,left,1,1.0442349000368267,489.1694640000351,490.8219274999574,489.1694640000351,490.32153870002367,489.1694640000351,490.32153870002367,489.1694640000351,490.32153870002367,489.1694640000351,490.32153870002367,489.1694640000351,490.32153870002367,490.30480769998394,490.8053564999718,490.30480769998394,490.8053564999718,490.30480769998394,490.8053564999718,490.30480769998394,490.8053564999718,490.30480769998394,490.8053564999718,490.30480769998394,490.8053564999718,490.30480769998394,490.8053564999718,490.30480769998394,490.8053564999718,489.1694640000351,None,490.8053564999718,492.07397700008005,1.1500000000000008,492.0906692999415,None,492.84271270013414,None,,,,,,,[1.268],2.530000000000002,0.7411764705882353,11036,001,2024_Mar_10_1430,MFTM_A_new1021,2021.2.3,59.629829941413526,
,,,,,,,,stim/Instruction_adaptive.png,conditions/adaptive.xlsx,test,0.6,0.6,0.6,-0.6,-0.6,right,R,,,,,0,1,1,1,0,85,85,26,,,,,,,,,,,,,,,,,,,,,,,,,,,,,,,,,,,,,,,,,,,,493.34361180011183,None,right,1,1.5224887998774648,493.84334030002356,495.49631999991834,493.84334030002356,494.995147800073,493.84334030002356,494.995147800073,493.84334030002356,494.995147800073,493.84334030002356,494.995147800073,493.84334030002356,494.995147800073,494.96178420004435,495.46251270012,494.96178420004435,495.46251270012,494.96178420004435,495.46251270012,494.96178420004435,495.46251270012,494.96178420004435,495.46251270012,494.96178420004435,495.46251270012,494.96178420004435,495.46251270012,494.96178420004435,495.46251270012,493.84334030002356,None,495.46251270012,496.7311446000822,1.1400000000000008,496.7645219999831,None,497.5159120000899,None,,,,,,,[1.26906977],2.5500000000000016,0.7441860465116279,11036,001,2024_Mar_10_1430,MFTM_A_new1021,2021.2.3,59.629829941413526,
,,,,,,,,stim/Instruction_adaptive.png,conditions/adaptive.xlsx,test,-0.6,-0.6,-0.6,0.6,0.6,left,L,,,,,0,1,1,1,0,86,86,67,,,,,,,,,,,,,,,,,,,,,,,,,,,,,,,,,,,,,,,,,,,,498.01615060004406,None,left,1,1.2579246000386775,498.51681679999456,500.1370481001213,498.51681679999456,499.63644360005856,498.51681679999456,499.63644360005856,498.51681679999456,499.63644360005856,498.51681679999456,499.63644360005856,498.51681679999456,499.63644360005856,499.6197077999823,500.1194382000249,499.6197077999823,500.1194382000249,499.6197077999823,500.1194382000249,499.6197077999823,500.1194382000249,499.6197077999823,500.1194382000249,499.6197077999823,500.1194382000249,499.6197077999823,500.1194382000249,499.6197077999823,500.1194382000249,498.51681679999456,None,500.1194382000249,501.38850750005804,1.1200000000000008,501.42142580007203,None,502.17269350006245,None,,,,,,,[1.27034483],2.580000000000002,0.7471264367816092,11036,001,2024_Mar_10_1430,MFTM_A_new1021,2021.2.3,59.629829941413526,
,,,,,,,,stim/Instruction_adaptive.png,conditions/adaptive.xlsx,test,0.6,0.6,0.6,-0.6,-0.6,right,R,,,,,0,1,1,1,0,87,87,44,,,,,,,,,,,,,,,,,,,,,,,,,,,,,,,,,,,,,,,,,,,,502.67392500001006,None,right,1,1.5501230999361724,503.17722350009717,504.77729400014505,503.17722350009717,504.29238190012984,503.17722350009717,504.29238190012984,503.17722350009717,504.29238190012984,503.17722350009717,504.29238190012984,503.17722350009717,504.29238190012984,504.25900790002197,504.7595250001177,504.25900790002197,504.7595250001177,504.25900790002197,504.7595250001177,504.25900790002197,504.7595250001177,504.25900790002197,504.7595250001177,504.25900790002197,504.7595250001177,504.25900790002197,504.7595250001177,504.25900790002197,504.7595250001177,503.17722350009717,None,504.7595250001177,506.0454575999174,1.1000000000000008,506.06156349997036,None,506.81390159996226,None,,,,,,,[1.27181818],2.600000000000002,0.75,11036,001,2024_Mar_10_1430,MFTM_A_new1021,2021.2.3,59.629829941413526,
,,,,,,,,stim/Instruction_adaptive.png,conditions/adaptive.xlsx,test,-0.6,-0.6,-0.6,0.6,0.6,left,L,,,,,0,1,1,1,0,88,88,11,,,,,,,,,,,,,,,,,,,,,,,,,,,,,,,,,,,,,,,,,,,,507.31461090012453,None,left,1,1.1686845999211073,507.81453120009974,509.41809409996495,507.81453120009974,508.91619709995575,507.81453120009974,508.91619709995575,507.81453120009974,508.91619709995575,507.81453120009974,508.91619709995575,507.81453120009974,508.91619709995575,508.8833119000774,509.3834099001251,508.8833119000774,509.3834099001251,508.8833119000774,509.3834099001251,508.8833119000774,509.3834099001251,508.8833119000774,509.3834099001251,508.8833119000774,509.3834099001251,508.8833119000774,509.3834099001251,508.8833119000774,509.3834099001251,507.81453120009974,None,509.3834099001251,510.66936599998735,1.0900000000000007,510.6865054999944,None,511.4375050000381,None,,,,,,,[1.27337079],2.620000000000002,0.7528089887640449,11036,001,2024_Mar_10_1430,MFTM_A_new1021,2021.2.3,59.629829941413526,
,,,,,,,,stim/Instruction_adaptive.png,conditions/adaptive.xlsx,test,0.6,0.6,0.6,-0.6,-0.6,right,R,,,,,0,1,1,1,0,89,89,58,,,,,,,,,,,,,,,,,,,,,,,,,,,,,,,,,,,,,,,,,,,,511.9375386000611,None,right,1,1.2477458000648767,512.4387114001438,514.0245612000581,512.4387114001438,513.5231236000545,512.4387114001438,513.5231236000545,512.4387114001438,513.5231236000545,512.4387114001438,513.5231236000545,512.4387114001438,513.5231236000545,513.4903218001127,513.9905556000303,513.4903218001127,513.9905556000303,513.4903218001127,513.9905556000303,513.4903218001127,513.9905556000303,513.4903218001127,513.9905556000303,513.4903218001127,513.9905556000303,513.4903218001127,513.9905556000303,513.4903218001127,513.9905556000303,512.4387114001438,None,513.9905556000303,515.2766289999709,1.0700000000000007,515.2923419999424,None,516.0441936000716,None,,,,,,,[1.27511111],2.640000000000002,0.7555555555555555,11036,001,2024_Mar_10_1430,MFTM_A_new1021,2021.2.3,59.629829941413526,
,,,,,,,,stim/Instruction_adaptive.png,conditions/adaptive.xlsx,test,0.6,0.6,0.6,-0.6,-0.6,right,R,,,,,0,1,1,1,0,90,90,10,,,,,,,,,,,,,,,,,,,,,,,,,,,,,,,,,,,,,,,,,,,,516.5455372999422,None,right,1,1.336287499871105,517.0458221000154,518.6140731999185,517.0458221000154,518.1134419001173,517.0458221000154,518.1134419001173,517.0458221000154,518.1134419001173,517.0458221000154,518.1134419001173,517.0458221000154,518.1134419001173,518.0966461999342,518.5979069001041,518.0966461999342,518.5979069001041,518.0966461999342,518.5979069001041,518.0966461999342,518.5979069001041,518.0966461999342,518.5979069001041,518.0966461999342,518.5979069001041,518.0966461999342,518.5979069001041,518.0966461999342,518.5979069001041,517.0458221000154,None,518.5979069001041,None,1.0600000000000007,519.8826880000997,None,520.6337286001071,None,,,,,,,[1.27692308],2.660000000000002,0.7582417582417582,11036,001,2024_Mar_10_1430,MFTM_A_new1021,2021.2.3,59.629829941413526,
,,,,,,,,stim/Instruction_adaptive.png,conditions/adaptive.xlsx,test,-0.6,-0.6,-0.6,0.6,0.6,left,L,,,,,0,1,1,1,0,91,91,51,,,,,,,,,,,,,,,,,,,,,,,,,,,,,,,,,,,,,,,,,,,,521.1347577001434,None,left,1,1.1951538000721484,521.6354897001293,523.1875946000218,521.6354897001293,522.686945799971,521.6354897001293,522.686945799971,521.6354897001293,522.686945799971,521.6354897001293,522.686945799971,521.6354897001293,522.686945799971,522.6534921999555,523.1541979000904,522.6534921999555,523.1541979000904,522.6534921999555,523.1541979000904,522.6534921999555,523.1541979000904,522.6534921999555,523.1541979000904,522.6534921999555,523.1541979000904,522.6534921999555,523.1541979000904,522.6534921999555,523.1541979000904,521.6354897001293,None,523.1541979000904,524.4409841999877,1.0400000000000007,524.4559462999459,None,525.207415800076,None,,,,,,,[1.27891304],2.680000000000002,0.7608695652173914,11036,001,2024_Mar_10_1430,MFTM_A_new1021,2021.2.3,59.629829941413526,
,,,,,,,,stim/Instruction_adaptive.png,conditions/adaptive.xlsx,test,0.6,0.6,0.6,-0.6,-0.6,right,R,,,,,0,1,1,1,0,92,92,84,,,,,,,,,,,,,,,,,,,,,,,,,,,,,,,,,,,,,,,,,,,,525.7090676000807,None,left,0,1.190388600109145,526.2085243000183,527.7454168000259,526.2085243000183,527.2436746999156,526.2085243000183,527.2436746999156,526.2085243000183,527.2436746999156,526.2085243000183,527.2436746999156,526.2085243000183,527.2436746999156,527.22732429998,527.7278211999219,527.22732429998,527.7278211999219,527.22732429998,527.7278211999219,527.22732429998,527.7278211999219,527.22732429998,527.7278211999219,527.22732429998,527.7278211999219,527.22732429998,527.7278211999219,527.22732429998,527.7278211999219,526.2085243000183,None,527.7278211999219,529.0130890000146,1.0300000000000007,529.0298427999951,None,529.7812713000458,None,,,,,,,[1.28096774],2.620000000000002,0.7526881720430108,11036,001,2024_Mar_10_1430,MFTM_A_new1021,2021.2.3,59.629829941413526,
,,,,,,,,stim/Instruction_adaptive.png,conditions/adaptive.xlsx,test,-0.6,-0.6,-0.6,0.6,0.6,left,L,,,,,0,1,1,1,0,93,93,77,,,,,,,,,,,,,,,,,,,,,,,,,,,,,,,,,,,,,,,,,,,,530.2824774000328,None,left,1,1.207642899826169,530.7832178000826,532.3680001001339,530.7832178000826,531.8673684000969,530.7832178000826,531.8673684000969,530.7832178000826,531.8673684000969,530.7832178000826,531.8673684000969,530.7832178000826,531.8673684000969,531.8345437999815,532.335400900105,531.8345437999815,532.335400900105,531.8345437999815,532.335400900105,531.8345437999815,532.335400900105,531.8345437999815,532.335400900105,531.8345437999815,532.335400900105,531.8345437999815,532.335400900105,531.8345437999815,532.335400900105,530.7832178000826,None,532.335400900105,533.6207529001404,1.0700000000000007,533.6366349000018,None,534.3882961000782,None,,,,,,,[1.28255319],2.640000000000002,0.7553191489361702,11036,001,2024_Mar_10_1430,MFTM_A_new1021,2021.2.3,59.629829941413526,
