arrwidth1,arrwidth2,arrwidth3,arrwidth4,arrwidth5,keyb,type,orientation,instruction_image,block_filename,block_type,arrow11,arrow22,arrow33,arrow44,arrow55,keyb_3,orientation3,trials.thisRepN,trials.thisTrialN,trials.thisN,trials.thisIndex,trials_3.thisRepN,trials_3.thisTrialN,trials_3.thisN,trials_3.thisIndex,trials_2.thisRepN,trials_2.thisTrialN,trials_2.thisN,trials_2.thisIndex,welcome.started,welcome.stopped,key_resp.keys,key_resp.rt,key_resp.started,key_resp.stopped,instruction_example.started,instruction_example.stopped,key_resp_3.keys,key_resp_3.rt,key_resp_3.started,key_resp_3.stopped,instruction_task.started,instruction_task.stopped,key_resp_2.keys,key_resp_2.rt,key_resp_2.started,key_resp_2.stopped,text_2.started,text_2.stopped,A1.started,A1.stopped,A2.started,A2.stopped,A3.started,A3.stopped,A4.started,A4.stopped,A5.started,A5.stopped,key_resp_4.keys,key_resp_4.corr,key_resp_4.rt,key_resp_4.started,key_resp_4.stopped,fb.started,fb.stopped,instruction_block.started,instruction_block.stopped,key_resp_8.keys,key_resp_8.rt,key_resp_8.started,key_resp_8.stopped,text_8.started,text_8.stopped,key_resp_9.keys,key_resp_9.corr,key_resp_9.rt,text_5.started,text_5.stopped,A11_3.started,A11_3.stopped,A22_2.started,A22_2.stopped,A33_2.started,A33_2.stopped,A44_2.started,A44_2.stopped,A55_2.started,A55_2.stopped,M1_3.started,M1_3.stopped,M2_2.started,M2_2.stopped,M3_2.started,M3_2.stopped,M4_2.started,M4_2.stopped,M5_2.started,M5_2.stopped,M6_2.started,M6_2.stopped,M7_2.started,M7_2.stopped,M8_2.started,M8_2.stopped,key_resp_9.started,key_resp_9.stopped,fixation.started,fixation.stopped,ET,fb_3.started,fb_3.stopped,text_9.started,text_9.stopped,fb_4.started,fb_4.stopped,text_7.started,text_7.stopped,endtext.started,endtext.stopped,fixation_ITI,CCC,Acc,participant,session,date,expName,psychopyVersion,frameRate,
,,,,,,,,,,,,,,,,,,,,,,,,,,,,,,14.786999700125307,None,space,5.833024499937892,14.786999700125307,None,,,,,,,,,,,,,,,,,,,,,,,,,,,,,,,,,,,,,,,,,,,,,,,,,,,,,,,,,,,,,,,,,,,,,,,,,,,,,,,,,,,,,,,,,11036,002,2024_Mar_11_1236,MFTM_A_new1021,2021.2.3,59.821671645703866,
,,,,,,,,,,,,,,,,,,,,,,,,,,,,,,,,,,,,20.645659900037572,None,space,4.30253169988282,20.645659900037572,None,,,,,,,,,,,,,,,,,,,,,,,,,,,,,,,,,,,,,,,,,,,,,,,,,,,,,,,,,,,,,,,,,,,,,,,,,,,,,,,,,,,11036,002,2024_Mar_11_1236,MFTM_A_new1021,2021.2.3,59.821671645703866,
,,,,,,,,,,,,,,,,,,,,,,,,,,,,,,,,,,,,,,,,,,24.968986199935898,None,space,0.6192221001256257,24.968986199935898,None,,,,,,,,,,,,,,,,,,,,,,,,,,,,,,,,,,,,,,,,,,,,,,,,,,,,,,,,,,,,,,,,,,,,,,,,,,,,,11036,002,2024_Mar_11_1236,MFTM_A_new1021,2021.2.3,59.821671645703866,
0.6,0.6,0.6,-0.6,-0.6,right,3:2,R,,,,,,,,,,,0,0,0,0,,,,,,,,,,,,,,,,,,,,,,,,,,,25.636836300138384,None,25.636836300138384,None,25.636836300138384,None,25.636836300138384,None,25.636836300138384,None,25.636836300138384,None,right,1,2.455139699857682,25.636836300138384,None,28.141022900119424,None,,,,,,,,,,,,,,,,,,,,,,,,,,,,,,,,,,,,,,,,,,,,,,,,,,,,,,,,,,11036,002,2024_Mar_11_1236,MFTM_A_new1021,2021.2.3,59.821671645703866,
-0.6,-0.6,-0.6,0.6,0.6,left,3:2,L,,,,,,,,,,,0,1,1,1,,,,,,,,,,,,,,,,,,,,,,,,,,,28.891404299996793,None,28.891404299996793,None,28.891404299996793,None,28.891404299996793,None,28.891404299996793,None,28.891404299996793,None,right,0,3.4008542001247406,28.891404299996793,None,32.313352999975905,None,,,,,,,,,,,,,,,,,,,,,,,,,,,,,,,,,,,,,,,,,,,,,,,,,,,,,,,,,,11036,002,2024_Mar_11_1236,MFTM_A_new1021,2021.2.3,59.821671645703866,
0.6,0.6,0.6,-0.6,-0.6,right,3:2,R,,,,,,,,,,,1,0,2,0,,,,,,,,,,,,,,,,,,,,,,,,,,,33.064823399996385,None,33.064823399996385,None,33.064823399996385,None,33.064823399996385,None,33.064823399996385,None,33.064823399996385,None,right,1,1.5559094999916852,33.064823399996385,None,34.65009870007634,None,,,,,,,,,,,,,,,,,,,,,,,,,,,,,,,,,,,,,,,,,,,,,,,,,,,,,,,,,,11036,002,2024_Mar_11_1236,MFTM_A_new1021,2021.2.3,59.821671645703866,
-0.6,-0.6,-0.6,0.6,0.6,left,3:2,L,,,,,,,,,,,1,1,3,1,,,,,,,,,,,,,,,,,,,,,,,,,,,35.401327200001106,None,35.401327200001106,None,35.401327200001106,None,35.401327200001106,None,35.401327200001106,None,35.401327200001106,None,left,1,2.003723599947989,35.401327200001106,None,37.421602700138465,None,,,,,,,,,,,,,,,,,,,,,,,,,,,,,,,,,,,,,,,,,,,,,,,,,,,,,,,,,,11036,002,2024_Mar_11_1236,MFTM_A_new1021,2021.2.3,59.821671645703866,
,,,,,,,,stim/Instruction_mask.png,conditions/adaptive.xlsx,practice,0.6,0.6,0.6,-0.6,-0.6,right,R,,,,,0,0,0,0,0,0,0,2,,,,,,,,,,,,,,,,,,,,,,,,,,,,,,,,,,,,,,38.42254290007986,None,space,2.910185399930924,38.42254290007986,None,41.44397130003199,None,right,1,1.1350173999089748,41.87814799998887,None,41.87814799998887,44.882187800016254,41.87814799998887,44.882187800016254,41.87814799998887,44.882187800016254,41.87814799998887,44.882187800016254,41.87814799998887,44.882187800016254,44.865472099976614,45.36639850004576,44.865472099976614,45.36639850004576,44.865472099976614,45.36639850004576,44.865472099976614,45.36639850004576,44.865472099976614,45.36639850004576,44.865472099976614,45.36639850004576,44.865472099976614,45.36639850004576,44.865472099976614,45.36639850004576,41.87814799998887,None,45.36639850004576,45.36639850004576,3,45.38280230015516,None,46.13395239994861,None,,,,,,,,,,11036,002,2024_Mar_11_1236,MFTM_A_new1021,2021.2.3,59.821671645703866,
,,,,,,,,stim/Instruction_mask.png,conditions/adaptive.xlsx,practice,-0.6,-0.6,-0.6,0.6,0.6,left,L,,,,,0,0,0,0,0,1,1,77,,,,,,,,,,,,,,,,,,,,,,,,,,,,,,,,,,,,,,,,,,,,46.63524870015681,None,left,1,1.0206158000510186,47.135954699944705,49.13881450006738,47.135954699944705,48.63835810008459,47.135954699944705,48.63835810008459,47.135954699944705,48.63835810008459,47.135954699944705,48.63835810008459,47.135954699944705,48.63835810008459,48.621185099938884,49.121876399964094,48.621185099938884,49.121876399964094,48.621185099938884,49.121876399964094,48.621185099938884,49.121876399964094,48.621185099938884,49.121876399964094,48.621185099938884,49.121876399964094,48.621185099938884,49.121876399964094,48.621185099938884,49.121876399964094,47.135954699944705,None,49.121876399964094,50.62425719993189,1.5,50.640976400114596,None,51.39225660008378,None,,,,,,,,,,11036,002,2024_Mar_11_1236,MFTM_A_new1021,2021.2.3,59.821671645703866,
,,,,,,,,stim/Instruction_mask.png,conditions/adaptive.xlsx,practice,0.6,0.6,0.6,-0.6,-0.6,right,R,,,,,0,0,0,0,0,2,2,60,,,,,,,,,,,,,,,,,,,,,,,,,,,,,,,,,,,,,,,,,,,,51.893048600060865,None,left,0,1.2355504999868572,52.39349599997513,53.69573669997044,52.39349599997513,53.194957999978215,52.39349599997513,53.194957999978215,52.39349599997513,53.194957999978215,52.39349599997513,53.194957999978215,52.39349599997513,53.194957999978215,53.1781886999961,53.67949470016174,53.1781886999961,53.67949470016174,53.1781886999961,53.67949470016174,53.1781886999961,53.67949470016174,53.1781886999961,53.67949470016174,53.1781886999961,53.67949470016174,53.1781886999961,53.67949470016174,53.1781886999961,53.67949470016174,52.39349599997513,None,53.67949470016174,55.88228949997574,0.8,55.898866900010034,None,56.65019530011341,None,,,,,,,,,,11036,002,2024_Mar_11_1236,MFTM_A_new1021,2021.2.3,59.821671645703866,
,,,,,,,,stim/Instruction_mask.png,conditions/adaptive.xlsx,practice,0.6,0.6,0.6,-0.6,-0.6,right,R,,,,,0,0,0,0,0,3,3,74,,,,,,,,,,,,,,,,,,,,,,,,,,,,,,,,,,,,,,,,,,,,57.15088690002449,None,right,1,1.306018800009042,57.65162859996781,58.40271960012615,57.65162859996781,57.90179769997485,57.65162859996781,57.90179769997485,57.65162859996781,57.90179769997485,57.65162859996781,57.90179769997485,57.65162859996781,57.90179769997485,57.88511120015755,58.386310999980196,57.88511120015755,58.386310999980196,57.88511120015755,58.386310999980196,57.88511120015755,58.386310999980196,57.88511120015755,58.386310999980196,57.88511120015755,58.386310999980196,57.88511120015755,58.386310999980196,57.88511120015755,58.386310999980196,57.65162859996781,None,58.386310999980196,61.14012310001999,3,61.15719339996576,None,61.90784700005315,None,,,,,,,,,,11036,002,2024_Mar_11_1236,MFTM_A_new1021,2021.2.3,59.821671645703866,
,,,,,,,,stim/Instruction_mask.png,conditions/adaptive.xlsx,practice,,,,,,,,,,,,0,0,0,0,,,,,,,,,,,,,,,,,,,,,,,,,,,,,,,,,,,,,,,,,,,,,,,,,,,,,,,,,,,,,,,,,,,,,,,,,,,,,,,,,,,,,,,,,,62.4245386000257,63.42802460002713,63.410344999982044,63.410344999982044,63.410344999982044,None,,,,11036,002,2024_Mar_11_1236,MFTM_A_new1021,2021.2.3,59.821671645703866,
,,,,,,,,stim/Instruction_adaptive.png,conditions/adaptive.xlsx,test,-0.6,-0.6,-0.6,0.6,0.6,left,L,,,,,0,1,1,1,0,0,0,51,,,,,,,,,,,,,,,,,,,,,,,,,,,,,,,,,,,,,,66.56495200004429,None,space,5.848683400079608,66.56495200004429,None,72.45739879994653,None,left,1,1.3832584999036044,72.9586434001103,None,72.9586434001103,75.96252109995112,72.9586434001103,75.96252109995112,72.9586434001103,75.96252109995112,72.9586434001103,75.96252109995112,72.9586434001103,75.96252109995112,75.94618139998056,76.4468394999858,75.94618139998056,76.4468394999858,75.94618139998056,76.4468394999858,75.94618139998056,76.4468394999858,75.94618139998056,76.4468394999858,75.94618139998056,76.4468394999858,75.94618139998056,76.4468394999858,75.94618139998056,76.4468394999858,72.9586434001103,None,76.4468394999858,76.4468394999858,3,76.46322680008598,None,77.21498430008069,None,,,,,,,0,6.000000000000005,1.0,11036,002,2024_Mar_11_1236,MFTM_A_new1021,2021.2.3,59.821671645703866,
,,,,,,,,stim/Instruction_adaptive.png,conditions/adaptive.xlsx,test,-0.6,-0.6,-0.6,0.6,0.6,left,L,,,,,0,1,1,1,0,1,1,27,,,,,,,,,,,,,,,,,,,,,,,,,,,,,,,,,,,,,,,,,,,,77.71570440009236,None,right,0,0.6539808998350054,78.21576449996792,78.96701860008761,78.21576449996792,78.46639379998669,78.21576449996792,78.46639379998669,78.21576449996792,78.46639379998669,78.21576449996792,78.46639379998669,78.21576449996792,78.46639379998669,78.4497559000738,78.95027590007521,78.4497559000738,78.95027590007521,78.4497559000738,78.95027590007521,78.4497559000738,78.95027590007521,78.4497559000738,78.95027590007521,78.4497559000738,78.95027590007521,78.4497559000738,78.95027590007521,78.4497559000738,78.95027590007521,78.21576449996792,None,78.95027590007521,79.83504860009998,0.25,79.85151710011996,None,80.60283620003611,None,,,,,,,[0.875],2.570000000000002,0.5,11036,002,2024_Mar_11_1236,MFTM_A_new1021,2021.2.3,59.821671645703866,
,,,,,,,,stim/Instruction_adaptive.png,conditions/adaptive.xlsx,test,-0.6,-0.6,-0.6,0.6,0.6,left,L,,,,,0,1,1,1,0,2,2,85,,,,,,,,,,,,,,,,,,,,,,,,,,,,,,,,,,,,,,,,,,,,81.10364390001632,None,left,1,0.9766973000951111,81.60486920014955,83.22332950006239,81.60486920014955,82.72364320000634,81.60486920014955,82.72364320000634,81.60486920014955,82.72364320000634,81.60486920014955,82.72364320000634,81.60486920014955,82.72364320000634,82.68939019995742,83.19103939994238,82.68939019995742,83.19103939994238,82.68939019995742,83.19103939994238,82.68939019995742,83.19103939994238,82.68939019995742,83.19103939994238,82.68939019995742,83.19103939994238,82.68939019995742,83.19103939994238,82.68939019995742,83.19103939994238,81.60486920014955,None,83.19103939994238,84.24253490008414,1.1100000000000008,84.27547390013933,None,85.02710710000247,None,,,,,,,[1.04666667],3.3800000000000026,0.6666666666666666,11036,002,2024_Mar_11_1236,MFTM_A_new1021,2021.2.3,59.821671645703866,
,,,,,,,,stim/Instruction_adaptive.png,conditions/adaptive.xlsx,test,0.6,0.6,0.6,-0.6,-0.6,right,R,,,,,0,1,1,1,0,3,3,66,,,,,,,,,,,,,,,,,,,,,,,,,,,,,,,,,,,,,,,,,,,,85.52831099997275,None,right,1,1.003183800028637,86.02769690006971,87.1627487000078,86.02769690006971,86.66296950005926,86.02769690006971,86.66296950005926,86.02769690006971,86.66296950005926,86.02769690006971,86.66296950005926,86.02769690006971,86.66296950005926,86.64524520002306,87.14677340001799,86.64524520002306,87.14677340001799,86.64524520002306,87.14677340001799,86.64524520002306,87.14677340001799,86.64524520002306,87.14677340001799,86.64524520002306,87.14677340001799,86.64524520002306,87.14677340001799,86.64524520002306,87.14677340001799,86.02769690006971,None,87.14677340001799,88.39866850012913,0.6300000000000003,88.41462230007164,None,89.16643330012448,None,,,,,,,[1.2525],3.940000000000003,0.75,11036,002,2024_Mar_11_1236,MFTM_A_new1021,2021.2.3,59.821671645703866,
,,,,,,,,stim/Instruction_adaptive.png,conditions/adaptive.xlsx,test,-0.6,-0.6,-0.6,0.6,0.6,left,L,,,,,0,1,1,1,0,4,4,3,,,,,,,,,,,,,,,,,,,,,,,,,,,,,,,,,,,,,,,,,,,,89.66638740012422,None,left,1,1.1503477001097053,90.16736820014194,91.10275420011021,90.16736820014194,90.60128500009887,90.16736820014194,90.60128500009887,90.16736820014194,90.60128500009887,90.16736820014194,90.60128500009887,90.16736820014194,90.60128500009887,90.58443320007063,91.08658819994889,90.58443320007063,91.08658819994889,90.58443320007063,91.08658819994889,90.58443320007063,91.08658819994889,90.58443320007063,91.08658819994889,90.58443320007063,91.08658819994889,90.58443320007063,91.08658819994889,90.58443320007063,91.08658819994889,90.16736820014194,None,91.08658819994889,92.50413920008577,0.43000000000000016,92.52070749993436,None,93.27287770016119,None,,,,,,,[1.416],4.370000000000004,0.8,11036,002,2024_Mar_11_1236,MFTM_A_new1021,2021.2.3,59.821671645703866,
,,,,,,,,stim/Instruction_adaptive.png,conditions/adaptive.xlsx,test,-0.6,-0.6,-0.6,0.6,0.6,left,L,,,,,0,1,1,1,0,5,5,53,,,,,,,,,,,,,,,,,,,,,,,,,,,,,,,,,,,,,,,,,,,,93.77331160008907,None,right,0,1.1799425000790507,94.27399040013552,95.10913260001689,94.27399040013552,94.60808000015095,94.27399040013552,94.60808000015095,94.27399040013552,94.60808000015095,94.27399040013552,94.60808000015095,94.27399040013552,94.60808000015095,94.5748348000925,95.07553400006145,94.5748348000925,95.07553400006145,94.5748348000925,95.07553400006145,94.5748348000925,95.07553400006145,94.5748348000925,95.07553400006145,94.5748348000925,95.07553400006145,94.5748348000925,95.07553400006145,94.5748348000925,95.07553400006145,94.27399040013552,None,95.07553400006145,96.62766019999981,0.32000000000000006,96.64364479994401,None,97.39527480001561,None,,,,,,,[1.54333333],3.5400000000000027,0.6666666666666666,11036,002,2024_Mar_11_1236,MFTM_A_new1021,2021.2.3,59.821671645703866,
,,,,,,,,stim/Instruction_adaptive.png,conditions/adaptive.xlsx,test,0.6,0.6,0.6,-0.6,-0.6,right,R,,,,,0,1,1,1,0,6,6,30,,,,,,,,,,,,,,,,,,,,,,,,,,,,,,,,,,,,,,,,,,,,97.89635269995779,None,right,1,0.8814826000016183,98.397121099988,99.48119550012052,98.397121099988,98.98111220006831,98.397121099988,98.98111220006831,98.397121099988,98.98111220006831,98.397121099988,98.98111220006831,98.397121099988,98.98111220006831,98.9471249000635,99.44799840007909,98.9471249000635,99.44799840007909,98.9471249000635,99.44799840007909,98.9471249000635,99.44799840007909,98.9471249000635,99.44799840007909,98.9471249000635,99.44799840007909,98.9471249000635,99.44799840007909,98.9471249000635,99.44799840007909,98.397121099988,None,99.44799840007909,101.05219590011984,0.5700000000000003,101.0668888001237,None,101.81876079994254,None,,,,,,,[1.59857143],3.8700000000000028,0.7142857142857143,11036,002,2024_Mar_11_1236,MFTM_A_new1021,2021.2.3,59.821671645703866,
,,,,,,,,stim/Instruction_adaptive.png,conditions/adaptive.xlsx,test,0.6,0.6,0.6,-0.6,-0.6,right,R,,,,,0,1,1,1,0,7,7,22,,,,,,,,,,,,,,,,,,,,,,,,,,,,,,,,,,,,,,,,,,,,102.31981350015849,None,left,0,1.1070681000128388,102.81967959995382,103.77208940009587,102.81967959995382,103.27038719994016,102.81967959995382,103.27038719994016,102.81967959995382,103.27038719994016,102.81967959995382,103.27038719994016,102.81967959995382,103.27038719994016,103.25371930003166,103.75452210009098,103.25371930003166,103.75452210009098,103.25371930003166,103.75452210009098,103.25371930003166,103.75452210009098,103.25371930003166,103.75452210009098,103.25371930003166,103.75452210009098,103.25371930003166,103.75452210009098,103.25371930003166,103.75452210009098,102.81967959995382,None,103.75452210009098,None,0.4500000000000002,105.42311850003898,None,106.17467870004475,None,,,,,,,[1.655],3.1600000000000024,0.625,11036,002,2024_Mar_11_1236,MFTM_A_new1021,2021.2.3,59.821671645703866,
,,,,,,,,stim/Instruction_adaptive.png,conditions/adaptive.xlsx,test,0.6,0.6,0.6,-0.6,-0.6,right,R,,,,,0,1,1,1,0,8,8,12,,,,,,,,,,,,,,,,,,,,,,,,,,,,,,,,,,,,,,,,,,,,106.67532779998146,None,right,1,1.3654891999904066,107.1772462001536,108.42896770010702,107.1772462001536,107.92860430013388,107.1772462001536,107.92860430013388,107.1772462001536,107.92860430013388,107.1772462001536,107.92860430013388,107.1772462001536,107.92860430013388,107.8948415000923,108.39474010001868,107.8948415000923,108.39474010001868,107.8948415000923,108.39474010001868,107.8948415000923,108.39474010001868,107.8948415000923,108.39474010001868,107.8948415000923,108.39474010001868,107.8948415000923,108.39474010001868,107.8948415000923,108.39474010001868,107.1772462001536,None,108.39474010001868,110.06440130015835,0.7400000000000004,110.09737530001439,None,110.84909450006671,None,,,,,,,[1.66666667],3.450000000000003,0.6666666666666666,11036,002,2024_Mar_11_1236,MFTM_A_new1021,2021.2.3,59.821671645703866,
,,,,,,,,stim/Instruction_adaptive.png,conditions/adaptive.xlsx,test,-0.6,-0.6,-0.6,0.6,0.6,left,L,,,,,0,1,1,1,0,9,9,79,,,,,,,,,,,,,,,,,,,,,,,,,,,,,,,,,,,,,,,,,,,,111.34997420012951,None,right,0,1.08526899991557,111.85024080006406,112.95199079997838,111.85024080006406,112.45085410005413,111.85024080006406,112.45085410005413,111.85024080006406,112.45085410005413,111.85024080006406,112.45085410005413,111.85024080006406,112.45085410005413,112.43410840001889,112.93521449994296,112.43410840001889,112.93521449994296,112.43410840001889,112.93521449994296,112.43410840001889,112.93521449994296,112.43410840001889,112.93521449994296,112.43410840001889,112.93521449994296,112.43410840001889,112.93521449994296,112.43410840001889,112.93521449994296,111.85024080006406,None,112.93521449994296,114.63752049999312,0.6000000000000003,114.65416739997454,None,115.40540280006826,None,,,,,,,[1.69],2.790000000000002,0.6,11036,002,2024_Mar_11_1236,MFTM_A_new1021,2021.2.3,59.821671645703866,
,,,,,,,,stim/Instruction_adaptive.png,conditions/adaptive.xlsx,test,0.6,0.6,0.6,-0.6,-0.6,right,R,,,,,0,1,1,1,0,10,10,68,,,,,,,,,,,,,,,,,,,,,,,,,,,,,,,,,,,,,,,,,,,,115.90617069997825,None,right,1,1.6557738999836147,116.40694370004348,117.8590339999646,116.40694370004348,117.35918040014803,116.40694370004348,117.35918040014803,116.40694370004348,117.35918040014803,116.40694370004348,117.35918040014803,116.40694370004348,117.35918040014803,117.34152500005439,117.84316030004993,117.34152500005439,117.84316030004993,117.34152500005439,117.84316030004993,117.34152500005439,117.84316030004993,117.34152500005439,117.84316030004993,117.34152500005439,117.84316030004993,117.34152500005439,117.84316030004993,117.34152500005439,117.84316030004993,116.40694370004348,None,117.84316030004993,119.39545090007596,0.9500000000000006,119.41134630003944,None,120.1633184000384,None,,,,,,,[[1.55]],3.0600000000000023,0.6363636363636364,11036,002,2024_Mar_11_1236,MFTM_A_new1021,2021.2.3,59.821671645703866,
,,,,,,,,stim/Instruction_adaptive.png,conditions/adaptive.xlsx,test,-0.6,-0.6,-0.6,0.6,0.6,left,L,,,,,0,1,1,1,0,11,11,39,,,,,,,,,,,,,,,,,,,,,,,,,,,,,,,,,,,,,,,,,,,,120.66323750000447,None,left,1,0.8416890001390129,121.16496039996855,122.46580370003358,121.16496039996855,121.96519140014425,121.16496039996855,121.96519140014425,121.16496039996855,121.96519140014425,121.16496039996855,121.96519140014425,121.16496039996855,121.96519140014425,121.93273929995485,122.43330299993977,121.93273929995485,122.43330299993977,121.93273929995485,122.43330299993977,121.93273929995485,122.43330299993977,121.93273929995485,122.43330299993977,121.93273929995485,122.43330299993977,121.93273929995485,122.43330299993977,121.93273929995485,122.43330299993977,121.16496039996855,None,122.43330299993977,124.11959669995122,0.7900000000000005,124.13455420010723,None,124.88637030008249,None,,,,,,,[1.68],3.2700000000000022,0.6666666666666666,11036,002,2024_Mar_11_1236,MFTM_A_new1021,2021.2.3,59.821671645703866,
,,,,,,,,stim/Instruction_adaptive.png,conditions/adaptive.xlsx,test,0.6,0.6,0.6,-0.6,-0.6,right,R,,,,,0,1,1,1,0,12,12,28,,,,,,,,,,,,,,,,,,,,,,,,,,,,,,,,,,,,,,,,,,,,125.3879595999606,None,right,1,1.0301788998767734,125.88911150000058,127.07292319997214,125.88911150000058,126.57328200014308,125.88911150000058,126.57328200014308,125.88911150000058,126.57328200014308,125.88911150000058,126.57328200014308,125.88911150000058,126.57328200014308,126.55546090006828,127.05615160008892,126.55546090006828,127.05615160008892,126.55546090006828,127.05615160008892,126.55546090006828,127.05615160008892,126.55546090006828,127.05615160008892,126.55546090006828,127.05615160008892,126.55546090006828,127.05615160008892,126.55546090006828,127.05615160008892,125.88911150000058,None,127.05615160008892,128.75997330015525,0.6800000000000004,128.77552319993265,None,129.52754570008256,None,,,,,,,[1.69076923],3.4400000000000026,0.6923076923076923,11036,002,2024_Mar_11_1236,MFTM_A_new1021,2021.2.3,59.821671645703866,
,,,,,,,,stim/Instruction_adaptive.png,conditions/adaptive.xlsx,test,-0.6,-0.6,-0.6,0.6,0.6,left,L,,,,,0,1,1,1,0,13,13,45,,,,,,,,,,,,,,,,,,,,,,,,,,,,,,,,,,,,,,,,,,,,130.0281130000949,None,left,1,1.0152840001974255,130.52807640004903,131.64664179994725,130.52807640004903,131.14577980013564,130.52807640004903,131.14577980013564,130.52807640004903,131.14577980013564,130.52807640004903,131.14577980013564,130.52807640004903,131.14577980013564,131.1290633000899,131.6298607001081,131.1290633000899,131.6298607001081,131.1290633000899,131.6298607001081,131.1290633000899,131.6298607001081,131.1290633000899,131.6298607001081,131.1290633000899,131.6298607001081,131.1290633000899,131.6298607001081,131.1290633000899,131.6298607001081,130.52807640004903,None,131.6298607001081,None,0.6100000000000003,133.34898949996568,None,134.10053439997137,None,,,,,,,[1.705],3.5900000000000025,0.7142857142857143,11036,002,2024_Mar_11_1236,MFTM_A_new1021,2021.2.3,59.821671645703866,
,,,,,,,,stim/Instruction_adaptive.png,conditions/adaptive.xlsx,test,-0.6,-0.6,-0.6,0.6,0.6,left,L,,,,,0,1,1,1,0,14,14,73,,,,,,,,,,,,,,,,,,,,,,,,,,,,,,,,,,,,,,,,,,,,134.60089870006777,None,right,0,1.2086088000796735,135.10259880009107,136.15413659997284,135.10259880009107,135.65254119993187,135.10259880009107,135.65254119993187,135.10259880009107,135.65254119993187,135.10259880009107,135.65254119993187,135.10259880009107,135.65254119993187,135.63603419996798,136.13669269997627,135.63603419996798,136.13669269997627,135.63603419996798,136.13669269997627,135.63603419996798,136.13669269997627,135.63603419996798,136.13669269997627,135.63603419996798,136.13669269997627,135.63603419996798,136.13669269997627,135.63603419996798,136.13669269997627,135.10259880009107,None,136.13669269997627,137.8731345999986,0.5500000000000003,137.8891935001593,None,138.640817000065,None,,,,,,,[1.72133333],3.2000000000000024,0.6666666666666666,11036,002,2024_Mar_11_1236,MFTM_A_new1021,2021.2.3,59.821671645703866,
,,,,,,,,stim/Instruction_adaptive.png,conditions/adaptive.xlsx,test,-0.6,-0.6,-0.6,0.6,0.6,left,L,,,,,0,1,1,1,0,15,15,11,,,,,,,,,,,,,,,,,,,,,,,,,,,,,,,,,,,,,,,,,,,,139.14116560015827,None,left,1,0.710196299944073,139.64184450008906,140.87722739996389,139.64184450008906,140.37611060007475,139.64184450008906,140.37611060007475,139.64184450008906,140.37611060007475,139.64184450008906,140.37611060007475,139.64184450008906,140.37611060007475,140.34365530009381,140.84389739995822,140.34365530009381,140.84389739995822,140.34365530009381,140.84389739995822,140.34365530009381,140.84389739995822,140.34365530009381,140.84389739995822,140.34365530009381,140.84389739995822,140.34365530009381,140.84389739995822,140.34365530009381,140.84389739995822,139.64184450008906,None,140.84389739995822,142.57942610001191,0.7200000000000004,142.59618400014006,None,143.34838480013423,None,,,,,,,[1.725],3.3500000000000023,0.6875,11036,002,2024_Mar_11_1236,MFTM_A_new1021,2021.2.3,59.821671645703866,
,,,,,,,,stim/Instruction_adaptive.png,conditions/adaptive.xlsx,test,0.6,0.6,0.6,-0.6,-0.6,right,R,,,,,0,1,1,1,0,16,16,96,,,,,,,,,,,,,,,,,,,,,,,,,,,,,,,,,,,,,,,,,,,,143.8489725999534,None,right,1,0.9698958999942988,144.34961979999207,145.5009868000634,144.34961979999207,145.00006280001253,144.34961979999207,145.00006280001253,144.34961979999207,145.00006280001253,144.34961979999207,145.00006280001253,144.34961979999207,145.00006280001253,144.98422880005091,145.48468470014632,144.98422880005091,145.48468470014632,144.98422880005091,145.48468470014632,144.98422880005091,145.48468470014632,144.98422880005091,145.48468470014632,144.98422880005091,145.48468470014632,144.98422880005091,145.48468470014632,144.98422880005091,145.48468470014632,144.34961979999207,None,145.48468470014632,147.22078140010126,0.6500000000000004,147.2380216999445,None,147.98857609997503,None,,,,,,,[1.73235294],3.4800000000000026,0.7058823529411765,11036,002,2024_Mar_11_1236,MFTM_A_new1021,2021.2.3,59.821671645703866,
,,,,,,,,stim/Instruction_adaptive.png,conditions/adaptive.xlsx,test,-0.6,-0.6,-0.6,0.6,0.6,left,L,,,,,0,1,1,1,0,17,17,59,,,,,,,,,,,,,,,,,,,,,,,,,,,,,,,,,,,,,,,,,,,,148.4884329000488,None,left,1,0.7290699000004679,149.00654730014503,150.1084904000163,149.00654730014503,149.6068593999371,149.00654730014503,149.6068593999371,149.00654730014503,149.6068593999371,149.00654730014503,149.6068593999371,149.00654730014503,149.6068593999371,149.55674499995075,150.058290499961,149.55674499995075,150.058290499961,149.55674499995075,150.058290499961,149.55674499995075,150.058290499961,149.55674499995075,150.058290499961,149.55674499995075,150.058290499961,149.55674499995075,150.058290499961,149.55674499995075,150.058290499961,149.00654730014503,None,150.058290499961,151.81029059994034,0.5900000000000003,151.84356960002333,None,152.59514220012352,None,,,,,,,[1.74222222],3.5900000000000025,0.7222222222222222,11036,002,2024_Mar_11_1236,MFTM_A_new1021,2021.2.3,59.821671645703866,
,,,,,,,,stim/Instruction_adaptive.png,conditions/adaptive.xlsx,test,-0.6,-0.6,-0.6,0.6,0.6,left,L,,,,,0,1,1,1,0,18,18,23,,,,,,,,,,,,,,,,,,,,,,,,,,,,,,,,,,,,,,,,,,,,153.0968939999584,None,left,1,0.8362094000913203,153.59605340007693,154.64796540001407,153.59605340007693,154.147067300044,153.59605340007693,154.147067300044,153.59605340007693,154.147067300044,153.59605340007693,154.147067300044,153.59605340007693,154.147067300044,154.13052870007232,154.63121740007773,154.13052870007232,154.63121740007773,154.13052870007232,154.63121740007773,154.13052870007232,154.63121740007773,154.13052870007232,154.63121740007773,154.13052870007232,154.63121740007773,154.13052870007232,154.63121740007773,154.13052870007232,154.63121740007773,153.59605340007693,None,154.63121740007773,156.3847876000218,0.5500000000000003,156.40048660011962,None,157.15128140011802,None,,,,,,,[1.75315789],3.690000000000003,0.7368421052631579,11036,002,2024_Mar_11_1236,MFTM_A_new1021,2021.2.3,59.821671645703866,
,,,,,,,,stim/Instruction_adaptive.png,conditions/adaptive.xlsx,test,0.6,0.6,0.6,-0.6,-0.6,right,R,,,,,0,1,1,1,0,19,19,82,,,,,,,,,,,,,,,,,,,,,,,,,,,,,,,,,,,,,,,,,,,,157.65232560015284,None,right,1,0.8389056001324207,158.15309779997915,159.17157969996333,158.15309779997915,158.67143939994276,158.15309779997915,158.67143939994276,158.15309779997915,158.67143939994276,158.15309779997915,158.67143939994276,158.15309779997915,158.67143939994276,158.65468359994702,159.15553009998985,158.65468359994702,159.15553009998985,158.65468359994702,159.15553009998985,158.65468359994702,159.15553009998985,158.65468359994702,159.15553009998985,158.65468359994702,159.15553009998985,158.65468359994702,159.15553009998985,158.65468359994702,159.15553009998985,158.15309779997915,None,159.15553009998985,160.9238835000433,0.5100000000000002,160.9405358999502,None,161.6923493000213,None,,,,,,,[1.765],3.780000000000003,0.75,11036,002,2024_Mar_11_1236,MFTM_A_new1021,2021.2.3,59.821671645703866,
,,,,,,,,stim/Instruction_adaptive.png,conditions/adaptive.xlsx,test,0.6,0.6,0.6,-0.6,-0.6,right,R,,,,,0,1,1,1,0,20,20,38,,,,,,,,,,,,,,,,,,,,,,,,,,,,,,,,,,,,,,,,,,,,162.19322290015407,None,left,0,0.7626646000426263,162.6933176999446,163.67808580002747,162.6933176999446,163.1784922000952,162.6933176999446,163.1784922000952,162.6933176999446,163.1784922000952,162.6933176999446,163.1784922000952,162.6933176999446,163.1784922000952,163.16187559999526,163.6620583999902,163.16187559999526,163.6620583999902,163.16187559999526,163.6620583999902,163.16187559999526,163.6620583999902,163.16187559999526,163.6620583999902,163.16187559999526,163.6620583999902,163.16187559999526,163.6620583999902,163.16187559999526,163.6620583999902,162.6933176999446,None,163.6620583999902,165.44738420005888,0.4800000000000002,165.46380560006946,None,166.2159013999626,None,,,,,,,[1.77714286],3.530000000000003,0.7142857142857143,11036,002,2024_Mar_11_1236,MFTM_A_new1021,2021.2.3,59.821671645703866,
,,,,,,,,stim/Instruction_adaptive.png,conditions/adaptive.xlsx,test,0.6,0.6,0.6,-0.6,-0.6,right,R,,,,,0,1,1,1,0,21,21,14,,,,,,,,,,,,,,,,,,,,,,,,,,,,,,,,,,,,,,,,,,,,166.71594340004958,None,left,0,1.023320899810642,167.21685079997405,168.3025911001023,167.21685079997405,167.80192780005746,167.21685079997405,167.80192780005746,167.21685079997405,167.80192780005746,167.21685079997405,167.80192780005746,167.21685079997405,167.80192780005746,167.76782310009003,168.26906510000117,167.76782310009003,168.26906510000117,167.76782310009003,168.26906510000117,167.76782310009003,168.26906510000117,167.76782310009003,168.26906510000117,167.76782310009003,168.26906510000117,167.76782310009003,168.26906510000117,167.76782310009003,168.26906510000117,167.21685079997405,None,168.26906510000117,170.05514990002848,0.5700000000000003,170.0710698000621,None,170.822114800103,None,,,,,,,[1.78409091],3.2500000000000027,0.6818181818181818,11036,002,2024_Mar_11_1236,MFTM_A_new1021,2021.2.3,59.821671645703866,
,,,,,,,,stim/Instruction_adaptive.png,conditions/adaptive.xlsx,test,0.6,0.6,0.6,-0.6,-0.6,right,R,,,,,0,1,1,1,0,22,22,4,,,,,,,,,,,,,,,,,,,,,,,,,,,,,,,,,,,,,,,,,,,,171.32400190015323,None,right,1,1.1605577999725938,171.82391309994273,173.02548260008916,171.82391309994273,172.5257681000512,171.82391309994273,172.5257681000512,171.82391309994273,172.5257681000512,171.82391309994273,172.5257681000512,171.82391309994273,172.5257681000512,172.49242820008658,172.9920199001208,172.49242820008658,172.9920199001208,172.49242820008658,172.9920199001208,172.49242820008658,172.9920199001208,172.49242820008658,172.9920199001208,172.49242820008658,172.9920199001208,172.49242820008658,172.9920199001208,172.49242820008658,172.9920199001208,171.82391309994273,None,172.9920199001208,174.7788547000382,0.6900000000000004,174.81140520004556,None,175.56281220004894,None,,,,,,,[1.78521739],3.3500000000000023,0.6956521739130435,11036,002,2024_Mar_11_1236,MFTM_A_new1021,2021.2.3,59.821671645703866,
,,,,,,,,stim/Instruction_adaptive.png,conditions/adaptive.xlsx,test,-0.6,-0.6,-0.6,0.6,0.6,left,L,,,,,0,1,1,1,0,23,23,63,,,,,,,,,,,,,,,,,,,,,,,,,,,,,,,,,,,,,,,,,,,,176.0641243001446,None,left,1,1.196181199979037,176.5641841001343,177.71585920010693,176.5641841001343,177.2153134001419,176.5641841001343,177.2153134001419,176.5641841001343,177.2153134001419,176.5641841001343,177.2153134001419,176.5641841001343,177.2153134001419,177.19865570007823,177.69913630001247,177.19865570007823,177.69913630001247,177.19865570007823,177.69913630001247,177.19865570007823,177.69913630001247,177.19865570007823,177.69913630001247,177.19865570007823,177.69913630001247,177.19865570007823,177.69913630001247,177.19865570007823,177.69913630001247,176.5641841001343,None,177.69913630001247,None,0.6500000000000004,179.50188939995132,None,180.2534551001154,None,,,,,,,[1.78791667],3.450000000000003,0.7083333333333334,11036,002,2024_Mar_11_1236,MFTM_A_new1021,2021.2.3,59.821671645703866,
,,,,,,,,stim/Instruction_adaptive.png,conditions/adaptive.xlsx,test,-0.6,-0.6,-0.6,0.6,0.6,left,L,,,,,0,1,1,1,0,24,24,65,,,,,,,,,,,,,,,,,,,,,,,,,,,,,,,,,,,,,,,,,,,,180.75414480012842,None,right,0,1.2099927000235766,181.25457140011713,182.3570473000873,181.25457140011713,181.85537729994394,181.25457140011713,181.85537729994394,181.25457140011713,181.85537729994394,181.25457140011713,181.85537729994394,181.25457140011713,181.85537729994394,181.83873550011776,182.34100020001642,181.83873550011776,182.34100020001642,181.83873550011776,182.34100020001642,181.83873550011776,182.34100020001642,181.83873550011776,182.34100020001642,181.83873550011776,182.34100020001642,181.83873550011776,182.34100020001642,181.83873550011776,182.34100020001642,181.25457140011713,None,182.34100020001642,184.14280240004882,0.6000000000000003,184.15840960014611,None,184.91087020002306,None,,,,,,,[1.7924],3.2000000000000024,0.68,11036,002,2024_Mar_11_1236,MFTM_A_new1021,2021.2.3,59.821671645703866,
,,,,,,,,stim/Instruction_adaptive.png,conditions/adaptive.xlsx,test,0.6,0.6,0.6,-0.6,-0.6,right,R,,,,,0,1,1,1,0,25,25,74,,,,,,,,,,,,,,,,,,,,,,,,,,,,,,,,,,,,,,,,,,,,185.41143919993192,None,right,1,1.1845255000516772,185.91270480002277,187.1488316000905,185.91270480002277,186.6460768999532,185.91270480002277,186.6460768999532,185.91270480002277,186.6460768999532,185.91270480002277,186.6460768999532,185.91270480002277,186.6460768999532,186.61262300005183,187.1143151000142,186.61262300005183,187.1143151000142,186.61262300005183,187.1143151000142,186.61262300005183,187.1143151000142,186.61262300005183,187.1143151000142,186.61262300005183,187.1143151000142,186.61262300005183,187.1143151000142,186.61262300005183,187.1143151000142,185.91270480002277,None,187.1143151000142,188.89954610005952,0.7200000000000004,188.91631440003403,None,189.66799400001764,None,,,,,,,[[1.78]],3.2900000000000027,0.6923076923076923,11036,002,2024_Mar_11_1236,MFTM_A_new1021,2021.2.3,59.821671645703866,
,,,,,,,,stim/Instruction_adaptive.png,conditions/adaptive.xlsx,test,-0.6,-0.6,-0.6,0.6,0.6,left,L,,,,,0,1,1,1,0,26,26,33,,,,,,,,,,,,,,,,,,,,,,,,,,,,,,,,,,,,,,,,,,,,190.16886229999363,None,right,0,1.2749025002121925,190.66968900011852,191.8539317001123,190.66968900011852,191.3538363999687,190.66968900011852,191.3538363999687,190.66968900011852,191.3538363999687,190.66968900011852,191.3538363999687,190.66968900011852,191.3538363999687,191.32071630004793,191.8215365000069,191.32071630004793,191.8215365000069,191.32071630004793,191.8215365000069,191.32071630004793,191.8215365000069,191.32071630004793,191.8215365000069,191.32071630004793,191.8215365000069,191.32071630004793,191.8215365000069,191.32071630004793,191.8215365000069,190.66968900011852,None,191.8215365000069,193.62429490010254,0.6700000000000004,193.6583162001334,None,194.4094877000898,None,,,,,,,[1.79333333],3.030000000000002,0.6666666666666666,11036,002,2024_Mar_11_1236,MFTM_A_new1021,2021.2.3,59.821671645703866,
,,,,,,,,stim/Instruction_adaptive.png,conditions/adaptive.xlsx,test,-0.6,-0.6,-0.6,0.6,0.6,left,L,,,,,0,1,1,1,0,27,27,49,,,,,,,,,,,,,,,,,,,,,,,,,,,,,,,,,,,,,,,,,,,,194.90857760002837,None,right,0,0.9829092998988926,195.4101136000827,196.72890849993564,195.4101136000827,196.22727299993858,195.4101136000827,196.22727299993858,195.4101136000827,196.22727299993858,195.4101136000827,196.22727299993858,195.4101136000827,196.22727299993858,196.19395460002124,196.6954177999869,196.19395460002124,196.6954177999869,196.19395460002124,196.6954177999869,196.19395460002124,196.6954177999869,196.19395460002124,196.6954177999869,196.19395460002124,196.6954177999869,196.19395460002124,196.6954177999869,196.19395460002124,196.6954177999869,195.4101136000827,None,196.6954177999869,198.39830210013315,0.8100000000000005,198.4136851001531,None,199.16498810006306,None,,,,,,,[[1.69]],2.740000000000002,0.6428571428571429,11036,002,2024_Mar_11_1236,MFTM_A_new1021,2021.2.3,59.821671645703866,
,,,,,,,,stim/Instruction_adaptive.png,conditions/adaptive.xlsx,test,0.6,0.6,0.6,-0.6,-0.6,right,R,,,,,0,1,1,1,0,28,28,86,,,,,,,,,,,,,,,,,,,,,,,,,,,,,,,,,,,,,,,,,,,,199.6657547999639,None,left,0,1.4427394000813365,200.1667226999998,201.6523118999321,200.1667226999998,201.15173660009168,200.1667226999998,201.15173660009168,200.1667226999998,201.15173660009168,200.1667226999998,201.15173660009168,200.1667226999998,201.15173660009168,201.13456650008447,201.63539159996435,201.13456650008447,201.63539159996435,201.13456650008447,201.63539159996435,201.13456650008447,201.63539159996435,201.13456650008447,201.63539159996435,201.13456650008447,201.63539159996435,201.13456650008447,201.63539159996435,201.13456650008447,201.63539159996435,200.1667226999998,None,201.63539159996435,203.15559540013783,0.9800000000000006,203.17123580002226,None,203.92222980014049,None,,,,,,,[[1.52]],2.3900000000000015,0.6206896551724138,11036,002,2024_Mar_11_1236,MFTM_A_new1021,2021.2.3,59.821671645703866,
,,,,,,,,stim/Instruction_adaptive.png,conditions/adaptive.xlsx,test,0.6,0.6,0.6,-0.6,-0.6,right,R,,,,,0,1,1,1,0,29,29,10,,,,,,,,,,,,,,,,,,,,,,,,,,,,,,,,,,,,,,,,,,,,204.42366890003905,None,right,1,1.2048937000799924,204.92454229993746,206.6935159000568,204.92454229993746,206.19233340001665,204.92454229993746,206.19233340001665,204.92454229993746,206.19233340001665,204.92454229993746,206.19233340001665,204.92454229993746,206.19233340001665,206.15964950015768,206.6608929000795,206.15964950015768,206.6608929000795,206.15964950015768,206.6608929000795,206.15964950015768,206.6608929000795,206.15964950015768,206.6608929000795,206.15964950015768,206.6608929000795,206.15964950015768,206.6608929000795,206.15964950015768,206.6608929000795,204.92454229993746,None,206.6608929000795,207.91239690012299,1.260000000000001,207.9287974999752,None,208.68003330007195,None,,,,,,,[[1.24]],2.520000000000002,0.6333333333333333,11036,002,2024_Mar_11_1236,MFTM_A_new1021,2021.2.3,59.821671645703866,
,,,,,,,,stim/Instruction_adaptive.png,conditions/adaptive.xlsx,test,-0.6,-0.6,-0.6,0.6,0.6,left,L,,,,,0,1,1,1,0,30,30,37,,,,,,,,,,,,,,,,,,,,,,,,,,,,,,,,,,,,,,,,,,,,209.1808344000019,None,left,1,1.712416599970311,209.68089130008593,211.33510689996183,209.68089130008593,210.83245490002446,209.68089130008593,210.83245490002446,209.68089130008593,210.83245490002446,209.68089130008593,210.83245490002446,209.68089130008593,210.83245490002446,210.81592050008476,211.31663920008577,210.81592050008476,211.31663920008577,210.81592050008476,211.31663920008577,210.81592050008476,211.31663920008577,210.81592050008476,211.31663920008577,210.81592050008476,211.31663920008577,210.81592050008476,211.31663920008577,210.81592050008476,211.31663920008577,209.68089130008593,None,211.31663920008577,212.66850730008446,1.1500000000000008,212.6853327001445,None,213.43641580012627,None,,,,,,,[[1.35]],2.640000000000002,0.6451612903225806,11036,002,2024_Mar_11_1236,MFTM_A_new1021,2021.2.3,59.821671645703866,
,,,,,,,,stim/Instruction_adaptive.png,conditions/adaptive.xlsx,test,0.6,0.6,0.6,-0.6,-0.6,right,R,,,,,0,1,1,1,0,31,31,56,,,,,,,,,,,,,,,,,,,,,,,,,,,,,,,,,,,,,,,,,,,,213.93707710015588,None,right,1,0.9165469999425113,214.43801290006377,216.00770419999026,214.43801290006377,215.5065268999897,214.43801290006377,215.5065268999897,214.43801290006377,215.5065268999897,214.43801290006377,215.5065268999897,214.43801290006377,215.5065268999897,215.47297720005736,215.97446990013123,215.47297720005736,215.97446990013123,215.47297720005736,215.97446990013123,215.47297720005736,215.97446990013123,215.47297720005736,215.97446990013123,215.47297720005736,215.97446990013123,215.47297720005736,215.97446990013123,215.47297720005736,215.97446990013123,214.43801290006377,None,215.97446990013123,217.42658700002357,1.0600000000000007,217.44329520012252,None,218.19368809997104,None,,,,,,,[[1.44]],2.740000000000002,0.65625,11036,002,2024_Mar_11_1236,MFTM_A_new1021,2021.2.3,59.821671645703866,
,,,,,,,,stim/Instruction_adaptive.png,conditions/adaptive.xlsx,test,0.6,0.6,0.6,-0.6,-0.6,right,R,,,,,0,1,1,1,0,32,32,64,,,,,,,,,,,,,,,,,,,,,,,,,,,,,,,,,,,,,,,,,,,,218.6951457001269,None,right,1,1.334808100014925,219.19522879994474,220.68125120014884,219.19522879994474,220.18089840002358,219.19522879994474,220.18089840002358,219.19522879994474,220.18089840002358,219.19522879994474,220.18089840002358,219.19522879994474,220.18089840002358,220.1632985000033,220.66415870003402,220.1632985000033,220.66415870003402,220.1632985000033,220.66415870003402,220.1632985000033,220.66415870003402,220.1632985000033,220.66415870003402,220.1632985000033,220.66415870003402,220.1632985000033,220.66415870003402,220.1632985000033,220.66415870003402,219.19522879994474,None,220.66415870003402,222.18365989997983,0.9800000000000006,222.1997287000995,None,222.95176380011253,None,,,,,,,[[1.52]],2.830000000000002,0.6666666666666666,11036,002,2024_Mar_11_1236,MFTM_A_new1021,2021.2.3,59.821671645703866,
,,,,,,,,stim/Instruction_adaptive.png,conditions/adaptive.xlsx,test,-0.6,-0.6,-0.6,0.6,0.6,left,L,,,,,0,1,1,1,0,33,33,89,,,,,,,,,,,,,,,,,,,,,,,,,,,,,,,,,,,,,,,,,,,,223.4527797999326,None,left,1,0.8013456999324262,223.95260980003513,225.38773950003088,223.95260980003513,224.8870812000241,223.95260980003513,224.8870812000241,223.95260980003513,224.8870812000241,223.95260980003513,224.8870812000241,223.95260980003513,224.8870812000241,224.87140440009534,225.3710062999744,224.87140440009534,225.3710062999744,224.87140440009534,225.3710062999744,224.87140440009534,225.3710062999744,224.87140440009534,225.3710062999744,224.87140440009534,225.3710062999744,224.87140440009534,225.3710062999744,224.87140440009534,225.3710062999744,223.95260980003513,None,225.3710062999744,226.94083660002798,0.9300000000000006,226.95712599996477,None,227.70799700007774,None,,,,,,,[[1.57]],2.910000000000002,0.6764705882352942,11036,002,2024_Mar_11_1236,MFTM_A_new1021,2021.2.3,59.821671645703866,
,,,,,,,,stim/Instruction_adaptive.png,conditions/adaptive.xlsx,test,-0.6,-0.6,-0.6,0.6,0.6,left,L,,,,,0,1,1,1,0,34,34,29,,,,,,,,,,,,,,,,,,,,,,,,,,,,,,,,,,,,,,,,,,,,228.20922120008618,None,right,0,0.9566221002023667,228.70953480014578,230.0958064000588,228.70953480014578,229.59440700011328,228.70953480014578,229.59440700011328,228.70953480014578,229.59440700011328,228.70953480014578,229.59440700011328,228.70953480014578,229.59440700011328,229.57742010010406,230.07909340015613,229.57742010010406,230.07909340015613,229.57742010010406,230.07909340015613,229.57742010010406,230.07909340015613,229.57742010010406,230.07909340015613,229.57742010010406,230.07909340015613,229.57742010010406,230.07909340015613,229.57742010010406,230.07909340015613,228.70953480014578,None,230.07909340015613,None,0.8800000000000006,231.71492610010318,None,232.46619329997338,None,,,,,,,[[1.62]],2.680000000000002,0.6571428571428571,11036,002,2024_Mar_11_1236,MFTM_A_new1021,2021.2.3,59.821671645703866,
,,,,,,,,stim/Instruction_adaptive.png,conditions/adaptive.xlsx,test,-0.6,-0.6,-0.6,0.6,0.6,left,L,,,,,0,1,1,1,0,35,35,97,,,,,,,,,,,,,,,,,,,,,,,,,,,,,,,,,,,,,,,,,,,,232.96595300012268,None,left,1,0.9589625000953674,233.46671640011482,235.0035574999638,233.46671640011482,234.50149819999933,233.46671640011482,234.50149819999933,233.46671640011482,234.50149819999933,233.46671640011482,234.50149819999933,233.46671640011482,234.50149819999933,234.48570830002427,234.9865447001066,234.48570830002427,234.9865447001066,234.48570830002427,234.9865447001066,234.48570830002427,234.9865447001066,234.48570830002427,234.9865447001066,234.48570830002427,234.9865447001066,234.48570830002427,234.9865447001066,234.48570830002427,234.9865447001066,233.46671640011482,None,234.9865447001066,None,1.0300000000000007,236.47122090007178,None,237.222414100077,None,,,,,,,[[1.47]],2.760000000000002,0.6666666666666666,11036,002,2024_Mar_11_1236,MFTM_A_new1021,2021.2.3,59.821671645703866,
,,,,,,,,stim/Instruction_adaptive.png,conditions/adaptive.xlsx,test,0.6,0.6,0.6,-0.6,-0.6,right,R,,,,,0,1,1,1,0,36,36,46,,,,,,,,,,,,,,,,,,,,,,,,,,,,,,,,,,,,,,,,,,,,237.72399289999157,None,left,0,0.8423070998396724,238.22376339999028,239.7102250000462,238.22376339999028,239.20880650007166,238.22376339999028,239.20880650007166,238.22376339999028,239.20880650007166,238.22376339999028,239.20880650007166,238.22376339999028,239.20880650007166,239.17543180007488,239.67605100013316,239.17543180007488,239.67605100013316,239.17543180007488,239.67605100013316,239.17543180007488,239.67605100013316,239.17543180007488,239.67605100013316,239.17543180007488,239.67605100013316,239.17543180007488,239.67605100013316,239.17543180007488,239.67605100013316,238.22376339999028,None,239.67605100013316,241.21213759994134,0.9700000000000006,241.22773459996097,None,241.9796442000661,None,,,,,,,[[1.53]],2.530000000000002,0.6486486486486487,11036,002,2024_Mar_11_1236,MFTM_A_new1021,2021.2.3,59.821671645703866,
,,,,,,,,stim/Instruction_adaptive.png,conditions/adaptive.xlsx,test,-0.6,-0.6,-0.6,0.6,0.6,left,L,,,,,0,1,1,1,0,37,37,93,,,,,,,,,,,,,,,,,,,,,,,,,,,,,,,,,,,,,,,,,,,,242.4813500000164,None,right,0,2.1402024999260902,242.98221289995126,244.63461140007712,242.98221289995126,244.13300410006195,242.98221289995126,244.13300410006195,242.98221289995126,244.13300410006195,242.98221289995126,244.13300410006195,242.98221289995126,244.13300410006195,244.10006860014983,244.6009200999979,244.10006860014983,244.6009200999979,244.10006860014983,244.6009200999979,244.10006860014983,244.6009200999979,244.10006860014983,244.6009200999979,244.10006860014983,244.6009200999979,244.10006860014983,244.6009200999979,244.10006860014983,244.6009200999979,242.98221289995126,None,244.6009200999979,245.9697209999431,1.1400000000000008,245.98601699993014,None,246.73674000008032,None,,,,,,,[[1.36]],2.2600000000000016,0.631578947368421,11036,002,2024_Mar_11_1236,MFTM_A_new1021,2021.2.3,59.821671645703866,
,,,,,,,,stim/Instruction_adaptive.png,conditions/adaptive.xlsx,test,0.6,0.6,0.6,-0.6,-0.6,right,R,,,,,0,1,1,1,0,38,38,34,,,,,,,,,,,,,,,,,,,,,,,,,,,,,,,,,,,,,,,,,,,,247.2374883000739,None,right,1,1.032389699947089,247.73816630011424,249.60767449997365,247.73816630011424,249.10796319996007,247.73816630011424,249.10796319996007,247.73816630011424,249.10796319996007,247.73816630011424,249.10796319996007,247.73816630011424,249.10796319996007,249.09140320005827,249.59216760005802,249.09140320005827,249.59216760005802,249.09140320005827,249.59216760005802,249.09140320005827,249.59216760005802,249.09140320005827,249.59216760005802,249.09140320005827,249.59216760005802,249.09140320005827,249.59216760005802,249.09140320005827,249.59216760005802,247.73816630011424,None,249.59216760005802,250.72588469996117,1.370000000000001,250.74268650007434,None,251.49423930002376,None,,,,,,,[[1.13]],2.3600000000000017,0.6410256410256411,11036,002,2024_Mar_11_1236,MFTM_A_new1021,2021.2.3,59.821671645703866,
,,,,,,,,stim/Instruction_adaptive.png,conditions/adaptive.xlsx,test,0.6,0.6,0.6,-0.6,-0.6,right,R,,,,,0,1,1,1,0,39,39,62,,,,,,,,,,,,,,,,,,,,,,,,,,,,,,,,,,,,,,,,,,,,251.9949575001374,None,right,1,0.819599499925971,252.49524580012076,254.28231930010952,252.49524580012076,253.78079989994876,252.49524580012076,253.78079989994876,252.49524580012076,253.78079989994876,252.49524580012076,253.78079989994876,252.49524580012076,253.78079989994876,253.76478550001048,254.26569229993038,253.76478550001048,254.26569229993038,253.76478550001048,254.26569229993038,253.76478550001048,254.26569229993038,253.76478550001048,254.26569229993038,253.76478550001048,254.26569229993038,253.76478550001048,254.26569229993038,253.76478550001048,254.26569229993038,252.49524580012076,None,254.26569229993038,None,1.280000000000001,255.49993199994788,None,256.2511384000536,None,,,,,,,[[1.22]],2.450000000000002,0.65,11036,002,2024_Mar_11_1236,MFTM_A_new1021,2021.2.3,59.821671645703866,
,,,,,,,,stim/Instruction_adaptive.png,conditions/adaptive.xlsx,test,-0.6,-0.6,-0.6,0.6,0.6,left,L,,,,,0,1,1,1,0,40,40,1,,,,,,,,,,,,,,,,,,,,,,,,,,,,,,,,,,,,,,,,,,,,256.751726699993,None,left,1,1.1342657001223415,257.2525899000466,258.9560764001217,257.2525899000466,258.4544323000591,257.2525899000466,258.4544323000591,257.2525899000466,258.4544323000591,257.2525899000466,258.4544323000591,257.2525899000466,258.4544323000591,258.4376525999978,258.93903540004976,258.4376525999978,258.93903540004976,258.4376525999978,258.93903540004976,258.4376525999978,258.93903540004976,258.4376525999978,258.93903540004976,258.4376525999978,258.93903540004976,258.4376525999978,258.93903540004976,258.4376525999978,258.93903540004976,257.2525899000466,None,258.93903540004976,260.24185879994184,1.2000000000000008,260.2570289000869,None,261.00856840005144,None,,,,,,,[[1.3]],2.530000000000002,0.6585365853658537,11036,002,2024_Mar_11_1236,MFTM_A_new1021,2021.2.3,59.821671645703866,
,,,,,,,,stim/Instruction_adaptive.png,conditions/adaptive.xlsx,test,-0.6,-0.6,-0.6,0.6,0.6,left,L,,,,,0,1,1,1,0,41,41,77,,,,,,,,,,,,,,,,,,,,,,,,,,,,,,,,,,,,,,,,,,,,261.50936170015484,None,left,1,1.1210836002137512,262.0096039001364,263.6629677999299,262.0096039001364,263.1615542001091,262.0096039001364,263.1615542001091,262.0096039001364,263.1615542001091,262.0096039001364,263.1615542001091,262.0096039001364,263.1615542001091,263.1280948999338,263.6291887999978,263.1280948999338,263.6291887999978,263.1280948999338,263.6291887999978,263.1280948999338,263.6291887999978,263.1280948999338,263.6291887999978,263.1280948999338,263.6291887999978,263.1280948999338,263.6291887999978,263.1280948999338,263.6291887999978,262.0096039001364,None,263.6291887999978,264.99816580000333,1.1400000000000008,265.0143864999991,None,265.76619260013103,None,,,,,,,[[1.36]],2.600000000000002,0.6666666666666666,11036,002,2024_Mar_11_1236,MFTM_A_new1021,2021.2.3,59.821671645703866,
,,,,,,,,stim/Instruction_adaptive.png,conditions/adaptive.xlsx,test,-0.6,-0.6,-0.6,0.6,0.6,left,L,,,,,0,1,1,1,0,42,42,75,,,,,,,,,,,,,,,,,,,,,,,,,,,,,,,,,,,,,,,,,,,,266.2661417000927,None,left,1,0.9322281000204384,266.76672370010056,268.36923549999483,266.76672370010056,267.8683518001344,266.76672370010056,267.8683518001344,266.76672370010056,267.8683518001344,266.76672370010056,267.8683518001344,266.76672370010056,267.8683518001344,267.83531030011363,268.33628830011,267.83531030011363,268.33628830011,267.83531030011363,268.33628830011,267.83531030011363,268.33628830011,267.83531030011363,268.33628830011,267.83531030011363,268.33628830011,267.83531030011363,268.33628830011,267.83531030011363,268.33628830011,266.76672370010056,None,268.33628830011,269.75490120006725,1.0900000000000007,269.77274710009806,None,270.52259730012156,None,,,,,,,[[1.41]],2.6700000000000017,0.6744186046511628,11036,002,2024_Mar_11_1236,MFTM_A_new1021,2021.2.3,59.821671645703866,
,,,,,,,,stim/Instruction_adaptive.png,conditions/adaptive.xlsx,test,0.6,0.6,0.6,-0.6,-0.6,right,R,,,,,0,1,1,1,0,43,43,58,,,,,,,,,,,,,,,,,,,,,,,,,,,,,,,,,,,,,,,,,,,,271.02424390008673,None,left,0,1.206771899946034,271.52472280012444,273.06086209998466,271.52472280012444,272.5594695999753,271.52472280012444,272.5594695999753,271.52472280012444,272.5594695999753,271.52472280012444,272.5594695999753,271.52472280012444,272.5594695999753,272.5434857001528,273.04403050011024,272.5434857001528,273.04403050011024,272.5434857001528,273.04403050011024,272.5434857001528,273.04403050011024,272.5434857001528,273.04403050011024,272.5434857001528,273.04403050011024,272.5434857001528,273.04403050011024,272.5434857001528,273.04403050011024,271.52472280012444,None,273.04403050011024,None,1.0300000000000007,274.52852059993893,None,275.2796734001022,None,,,,,,,[[1.47]],2.4800000000000018,0.6590909090909091,11036,002,2024_Mar_11_1236,MFTM_A_new1021,2021.2.3,59.821671645703866,
,,,,,,,,stim/Instruction_adaptive.png,conditions/adaptive.xlsx,test,0.6,0.6,0.6,-0.6,-0.6,right,R,,,,,0,1,1,1,0,44,44,84,,,,,,,,,,,,,,,,,,,,,,,,,,,,,,,,,,,,,,,,,,,,275.78030340000987,None,right,1,1.0816619999241084,276.28134720004164,277.96715250005946,276.28134720004164,277.46654159994796,276.28134720004164,277.46654159994796,276.28134720004164,277.46654159994796,276.28134720004164,277.46654159994796,276.28134720004164,277.46654159994796,277.4501456001308,277.95104290009476,277.4501456001308,277.95104290009476,277.4501456001308,277.95104290009476,277.4501456001308,277.95104290009476,277.4501456001308,277.95104290009476,277.4501456001308,277.95104290009476,277.4501456001308,277.95104290009476,277.4501456001308,277.95104290009476,276.28134720004164,None,277.95104290009476,None,1.1800000000000008,279.285811400041,None,280.036847300129,None,,,,,,,[[1.32]],2.5500000000000016,0.6666666666666666,11036,002,2024_Mar_11_1236,MFTM_A_new1021,2021.2.3,59.821671645703866,
,,,,,,,,stim/Instruction_adaptive.png,conditions/adaptive.xlsx,test,0.6,0.6,0.6,-0.6,-0.6,right,R,,,,,0,1,1,1,0,45,45,92,,,,,,,,,,,,,,,,,,,,,,,,,,,,,,,,,,,,,,,,,,,,280.5375827001408,None,right,1,0.6045285000000149,281.0385686000809,282.67480359994806,281.0385686000809,282.17342979996465,281.0385686000809,282.17342979996465,281.0385686000809,282.17342979996465,281.0385686000809,282.17342979996465,281.0385686000809,282.17342979996465,282.1401210001204,282.64087689993903,282.1401210001204,282.64087689993903,282.1401210001204,282.64087689993903,282.1401210001204,282.64087689993903,282.1401210001204,282.64087689993903,282.1401210001204,282.64087689993903,282.1401210001204,282.64087689993903,282.1401210001204,282.64087689993903,281.0385686000809,None,282.64087689993903,284.02715580002405,1.1200000000000008,284.043178900145,None,284.7942113999743,None,,,,,,,[[1.38]],2.610000000000002,0.6739130434782609,11036,002,2024_Mar_11_1236,MFTM_A_new1021,2021.2.3,59.821671645703866,
,,,,,,,,stim/Instruction_adaptive.png,conditions/adaptive.xlsx,test,0.6,0.6,0.6,-0.6,-0.6,right,R,,,,,0,1,1,1,0,46,46,26,,,,,,,,,,,,,,,,,,,,,,,,,,,,,,,,,,,,,,,,,,,,285.295576200122,None,right,1,0.8243249000515789,285.7957917000167,287.3816377001349,285.7957917000167,286.8814648000989,285.7957917000167,286.8814648000989,285.7957917000167,286.8814648000989,285.7957917000167,286.8814648000989,285.7957917000167,286.8814648000989,286.86477120011114,287.3656975000631,286.86477120011114,287.3656975000631,286.86477120011114,287.3656975000631,286.86477120011114,287.3656975000631,286.86477120011114,287.3656975000631,286.86477120011114,287.3656975000631,286.86477120011114,287.3656975000631,286.86477120011114,287.3656975000631,285.7957917000167,None,287.3656975000631,None,1.0800000000000007,288.7999691001605,None,289.5513325999491,None,,,,,,,[[1.42]],2.6700000000000017,0.6808510638297872,11036,002,2024_Mar_11_1236,MFTM_A_new1021,2021.2.3,59.821671645703866,
,,,,,,,,stim/Instruction_adaptive.png,conditions/adaptive.xlsx,test,-0.6,-0.6,-0.6,0.6,0.6,left,L,,,,,0,1,1,1,0,47,47,47,,,,,,,,,,,,,,,,,,,,,,,,,,,,,,,,,,,,,,,,,,,,290.05350090004504,None,left,1,0.9381723999977112,290.55289539997466,292.08964140014723,290.55289539997466,291.5877456001472,290.55289539997466,291.5877456001472,290.55289539997466,291.5877456001472,290.55289539997466,291.5877456001472,290.55289539997466,291.5877456001472,291.57075479999185,292.0724003999494,291.57075479999185,292.0724003999494,291.57075479999185,292.0724003999494,291.57075479999185,292.0724003999494,291.57075479999185,292.0724003999494,291.57075479999185,292.0724003999494,291.57075479999185,292.0724003999494,291.57075479999185,292.0724003999494,290.55289539997466,None,292.0724003999494,None,1.0300000000000007,293.5572228000965,None,294.3084037001245,None,,,,,,,[[1.47]],2.730000000000002,0.6875,11036,002,2024_Mar_11_1236,MFTM_A_new1021,2021.2.3,59.821671645703866,
,,,,,,,,stim/Instruction_adaptive.png,conditions/adaptive.xlsx,test,0.6,0.6,0.6,-0.6,-0.6,right,R,,,,,0,1,1,1,0,48,48,60,,,,,,,,,,,,,,,,,,,,,,,,,,,,,,,,,,,,,,,,,,,,294.8092354000546,None,right,1,0.677689400035888,295.3100085000042,296.81221370003186,295.3100085000042,296.3112155001145,295.3100085000042,296.3112155001145,295.3100085000042,296.3112155001145,295.3100085000042,296.3112155001145,295.3100085000042,296.3112155001145,296.27817600010894,296.7788379001431,296.27817600010894,296.7788379001431,296.27817600010894,296.7788379001431,296.27817600010894,296.7788379001431,296.27817600010894,296.7788379001431,296.27817600010894,296.7788379001431,296.27817600010894,296.7788379001431,296.27817600010894,296.7788379001431,295.3100085000042,None,296.7788379001431,298.29775919998065,0.9900000000000007,298.3144861999899,None,299.0660031000152,None,,,,,,,[[1.51]],2.780000000000002,0.6938775510204082,11036,002,2024_Mar_11_1236,MFTM_A_new1021,2021.2.3,59.821671645703866,
,,,,,,,,stim/Instruction_adaptive.png,conditions/adaptive.xlsx,test,-0.6,-0.6,-0.6,0.6,0.6,left,L,,,,,0,1,1,1,0,49,49,67,,,,,,,,,,,,,,,,,,,,,,,,,,,,,,,,,,,,,,,,,,,,299.56706620007753,None,left,1,1.127796299988404,300.06797319999896,301.5370237000752,300.06797319999896,301.03531970013864,300.06797319999896,301.03531970013864,300.06797319999896,301.03531970013864,300.06797319999896,301.03531970013864,300.06797319999896,301.03531970013864,301.0019068000838,301.50254909996875,301.0019068000838,301.50254909996875,301.0019068000838,301.50254909996875,301.0019068000838,301.50254909996875,301.0019068000838,301.50254909996875,301.0019068000838,301.50254909996875,301.0019068000838,301.50254909996875,301.0019068000838,301.50254909996875,300.06797319999896,None,301.50254909996875,303.0550387999974,0.9600000000000006,303.0729593001306,None,303.8228558001574,None,,,,,,,[[1.54]],2.830000000000002,0.7,11036,002,2024_Mar_11_1236,MFTM_A_new1021,2021.2.3,59.821671645703866,
,,,,,,,,stim/Instruction_adaptive.png,conditions/adaptive.xlsx,test,0.6,0.6,0.6,-0.6,-0.6,right,R,,,,,0,1,1,1,0,50,50,16,,,,,,,,,,,,,,,,,,,,,,,,,,,,,,,,,,,,,,,,,,,,304.32454359997064,None,right,1,1.0836877000983804,304.82440180005506,306.259920099983,304.82440180005506,305.76001910003833,304.82440180005506,305.76001910003833,304.82440180005506,305.76001910003833,304.82440180005506,305.76001910003833,304.82440180005506,305.76001910003833,305.7423700999934,306.24311730009504,305.7423700999934,306.24311730009504,305.7423700999934,306.24311730009504,305.7423700999934,306.24311730009504,305.7423700999934,306.24311730009504,305.7423700999934,306.24311730009504,305.7423700999934,306.24311730009504,305.7423700999934,306.24311730009504,304.82440180005506,None,306.24311730009504,307.81231850013137,0.9300000000000006,307.8288489000406,None,308.57997810002416,None,,,,,,,[[1.57]],2.870000000000002,0.7058823529411765,11036,002,2024_Mar_11_1236,MFTM_A_new1021,2021.2.3,59.821671645703866,
,,,,,,,,stim/Instruction_adaptive.png,conditions/adaptive.xlsx,test,-0.6,-0.6,-0.6,0.6,0.6,left,L,,,,,0,1,1,1,0,51,51,83,,,,,,,,,,,,,,,,,,,,,,,,,,,,,,,,,,,,,,,,,,,,309.080791400047,None,left,1,1.2318986998870969,309.58134469995275,310.9834533999674,309.58134469995275,310.4836838999763,309.58134469995275,310.4836838999763,309.58134469995275,310.4836838999763,309.58134469995275,310.4836838999763,309.58134469995275,310.4836838999763,310.46730930008925,310.9675849999767,310.46730930008925,310.9675849999767,310.46730930008925,310.9675849999767,310.46730930008925,310.9675849999767,310.46730930008925,310.9675849999767,310.46730930008925,310.9675849999767,310.46730930008925,310.9675849999767,310.46730930008925,310.9675849999767,309.58134469995275,None,310.9675849999767,312.56949120014906,0.9000000000000006,312.58540570014156,None,313.3371671999339,None,,,,,,,[[1.6]],2.910000000000002,0.7115384615384616,11036,002,2024_Mar_11_1236,MFTM_A_new1021,2021.2.3,59.821671645703866,
,,,,,,,,stim/Instruction_adaptive.png,conditions/adaptive.xlsx,test,0.6,0.6,0.6,-0.6,-0.6,right,R,,,,,0,1,1,1,0,52,52,20,,,,,,,,,,,,,,,,,,,,,,,,,,,,,,,,,,,,,,,,,,,,313.83791200001724,None,right,1,0.9456354000139982,314.3385960001033,315.72527580009773,314.3385960001033,315.22343769995496,314.3385960001033,315.22343769995496,314.3385960001033,315.22343769995496,314.3385960001033,315.22343769995496,314.3385960001033,315.22343769995496,315.2065161000937,315.70822439994663,315.2065161000937,315.70822439994663,315.2065161000937,315.70822439994663,315.2065161000937,315.70822439994663,315.2065161000937,315.70822439994663,315.2065161000937,315.70822439994663,315.2065161000937,315.70822439994663,315.2065161000937,315.70822439994663,314.3385960001033,None,315.70822439994663,None,0.8800000000000006,317.34397990000434,None,318.0947811999358,None,,,,,,,[[1.62]],2.960000000000002,0.7169811320754716,11036,002,2024_Mar_11_1236,MFTM_A_new1021,2021.2.3,59.821671645703866,
,,,,,,,,stim/Instruction_adaptive.png,conditions/adaptive.xlsx,test,-0.6,-0.6,-0.6,0.6,0.6,left,L,,,,,0,1,1,1,0,53,53,31,,,,,,,,,,,,,,,,,,,,,,,,,,,,,,,,,,,,,,,,,,,,318.59506860002875,None,right,0,0.7410005999263376,319.09579050005414,320.44859850010835,319.09579050005414,319.9484222000465,319.09579050005414,319.9484222000465,319.09579050005414,319.9484222000465,319.09579050005414,319.9484222000465,319.09579050005414,319.9484222000465,319.93123250012286,320.43244180013426,319.93123250012286,320.43244180013426,319.93123250012286,320.43244180013426,319.93123250012286,320.43244180013426,319.93123250012286,320.43244180013426,319.93123250012286,320.43244180013426,319.93123250012286,320.43244180013426,319.93123250012286,320.43244180013426,319.09579050005414,None,320.43244180013426,322.0669361001346,0.8500000000000005,322.08361249999143,None,322.8353742000181,None,,,,,,,[1.62407407],2.840000000000002,0.7037037037037037,11036,002,2024_Mar_11_1236,MFTM_A_new1021,2021.2.3,59.821671645703866,
,,,,,,,,stim/Instruction_adaptive.png,conditions/adaptive.xlsx,test,0.6,0.6,0.6,-0.6,-0.6,right,R,,,,,0,1,1,1,0,54,54,2,,,,,,,,,,,,,,,,,,,,,,,,,,,,,,,,,,,,,,,,,,,,323.3357156000566,None,left,0,1.2073214000556618,323.8374489999842,325.27289070002735,323.8374489999842,324.77207960002124,323.8374489999842,324.77207960002124,323.8374489999842,324.77207960002124,323.8374489999842,324.77207960002124,323.8374489999842,324.77207960002124,324.73771070013754,325.2384453001432,324.73771070013754,325.2384453001432,324.73771070013754,325.2384453001432,324.73771070013754,325.2384453001432,324.73771070013754,325.2384453001432,324.73771070013754,325.2384453001432,324.73771070013754,325.2384453001432,324.73771070013754,325.2384453001432,323.8374489999842,None,325.2384453001432,326.82428489997983,0.9200000000000006,326.84158529993147,None,327.59286530013196,None,,,,,,,[[1.58]],2.7100000000000017,0.6909090909090909,11036,002,2024_Mar_11_1236,MFTM_A_new1021,2021.2.3,59.821671645703866,
,,,,,,,,stim/Instruction_adaptive.png,conditions/adaptive.xlsx,test,0.6,0.6,0.6,-0.6,-0.6,right,R,,,,,0,1,1,1,0,55,55,90,,,,,,,,,,,,,,,,,,,,,,,,,,,,,,,,,,,,,,,,,,,,328.09276390005834,None,right,1,1.2177738000173122,328.59488570014946,330.11394730000757,328.59488570014946,329.6122262000572,328.59488570014946,329.6122262000572,328.59488570014946,329.6122262000572,328.59488570014946,329.6122262000572,328.59488570014946,329.6122262000572,329.5783911999315,330.07918260013685,329.5783911999315,330.07918260013685,329.5783911999315,330.07918260013685,329.5783911999315,330.07918260013685,329.5783911999315,330.07918260013685,329.5783911999315,330.07918260013685,329.5783911999315,330.07918260013685,329.5783911999315,330.07918260013685,328.59488570014946,None,330.07918260013685,331.581717699999,1.0100000000000007,331.59801140008494,None,332.3500284999609,None,,,,,,,[[1.49]],2.7500000000000018,0.6964285714285714,11036,002,2024_Mar_11_1236,MFTM_A_new1021,2021.2.3,59.821671645703866,
,,,,,,,,stim/Instruction_adaptive.png,conditions/adaptive.xlsx,test,-0.6,-0.6,-0.6,0.6,0.6,left,L,,,,,0,1,1,1,0,56,56,15,,,,,,,,,,,,,,,,,,,,,,,,,,,,,,,,,,,,,,,,,,,,332.850375500042,None,left,1,0.9420239999890327,333.35084190010093,334.8372096000239,333.35084190010093,334.3353774000425,333.35084190010093,334.3353774000425,333.35084190010093,334.3353774000425,333.35084190010093,334.3353774000425,333.35084190010093,334.3353774000425,334.31991109997034,334.81959420000203,334.31991109997034,334.81959420000203,334.31991109997034,334.81959420000203,334.31991109997034,334.81959420000203,334.31991109997034,334.81959420000203,334.31991109997034,334.81959420000203,334.31991109997034,334.81959420000203,334.31991109997034,334.81959420000203,333.35084190010093,None,334.81959420000203,336.3392300000414,0.9800000000000006,336.35492610000074,None,337.1063386001624,None,,,,,,,[[1.52]],2.800000000000002,0.7017543859649122,11036,002,2024_Mar_11_1236,MFTM_A_new1021,2021.2.3,59.821671645703866,
,,,,,,,,stim/Instruction_adaptive.png,conditions/adaptive.xlsx,test,0.6,0.6,0.6,-0.6,-0.6,right,R,,,,,0,1,1,1,0,57,57,8,,,,,,,,,,,,,,,,,,,,,,,,,,,,,,,,,,,,,,,,,,,,337.60724200005643,None,right,1,1.0021704998798668,338.1079679999966,339.5606836001389,338.1079679999966,339.0602806999814,338.1079679999966,339.0602806999814,338.1079679999966,339.0602806999814,338.1079679999966,339.0602806999814,338.1079679999966,339.0602806999814,339.0267616000492,339.5266597000882,339.0267616000492,339.5266597000882,339.0267616000492,339.5266597000882,339.0267616000492,339.5266597000882,339.0267616000492,339.5266597000882,339.0267616000492,339.5266597000882,339.0267616000492,339.5266597000882,339.0267616000492,339.5266597000882,338.1079679999966,None,339.5266597000882,341.09691490000114,0.9400000000000006,341.11296729999594,None,341.8648117000703,None,,,,,,,[[1.56]],2.840000000000002,0.7068965517241379,11036,002,2024_Mar_11_1236,MFTM_A_new1021,2021.2.3,59.821671645703866,
,,,,,,,,stim/Instruction_adaptive.png,conditions/adaptive.xlsx,test,-0.6,-0.6,-0.6,0.6,0.6,left,L,,,,,0,1,1,1,0,58,58,7,,,,,,,,,,,,,,,,,,,,,,,,,,,,,,,,,,,,,,,,,,,,342.3642512001097,None,right,0,0.8756556999869645,342.8651064999867,344.3009353999514,342.8651064999867,343.79984590015374,342.8651064999867,343.79984590015374,342.8651064999867,343.79984590015374,342.8651064999867,343.79984590015374,342.8651064999867,343.79984590015374,343.7665450000204,344.2672139001079,343.7665450000204,344.2672139001079,343.7665450000204,344.2672139001079,343.7665450000204,344.2672139001079,343.7665450000204,344.2672139001079,343.7665450000204,344.2672139001079,343.7665450000204,344.2672139001079,343.7665450000204,344.2672139001079,342.8651064999867,None,344.2672139001079,345.85369120002724,0.9200000000000006,345.8689115999732,None,346.6205383001361,None,,,,,,,[[1.58]],2.720000000000002,0.6949152542372882,11036,002,2024_Mar_11_1236,MFTM_A_new1021,2021.2.3,59.821671645703866,
,,,,,,,,stim/Instruction_adaptive.png,conditions/adaptive.xlsx,test,0.6,0.6,0.6,-0.6,-0.6,right,R,,,,,0,1,1,1,0,59,59,94,,,,,,,,,,,,,,,,,,,,,,,,,,,,,,,,,,,,,,,,,,,,347.12164080003276,None,right,1,1.11137709999457,347.62217510002665,349.12443560012616,347.62217510002665,348.62378489994444,347.62217510002665,348.62378489994444,347.62217510002665,348.62378489994444,347.62217510002665,348.62378489994444,347.62217510002665,348.62378489994444,348.60786660015583,349.1081385000143,348.60786660015583,349.1081385000143,348.60786660015583,349.1081385000143,348.60786660015583,349.1081385000143,348.60786660015583,349.1081385000143,348.60786660015583,349.1081385000143,348.60786660015583,349.1081385000143,348.60786660015583,349.1081385000143,347.62217510002665,None,349.1081385000143,350.61086590006016,1.0000000000000007,350.626565300161,None,351.37796119996347,None,,,,,,,[[1.5]],2.760000000000002,0.7,11036,002,2024_Mar_11_1236,MFTM_A_new1021,2021.2.3,59.821671645703866,
,,,,,,,,stim/Instruction_adaptive.png,conditions/adaptive.xlsx,test,-0.6,-0.6,-0.6,0.6,0.6,left,L,,,,,0,1,1,1,0,60,60,41,,,,,,,,,,,,,,,,,,,,,,,,,,,,,,,,,,,,,,,,,,,,351.8795507000759,None,left,1,0.913882999913767,352.3794909999706,353.8649474000558,352.3794909999706,353.3641397000756,352.3794909999706,353.3641397000756,352.3794909999706,353.3641397000756,352.3794909999706,353.3641397000756,352.3794909999706,353.3641397000756,353.3309428000357,353.8314597001299,353.3309428000357,353.8314597001299,353.3309428000357,353.8314597001299,353.3309428000357,353.8314597001299,353.3309428000357,353.8314597001299,353.3309428000357,353.8314597001299,353.3309428000357,353.8314597001299,353.3309428000357,353.8314597001299,352.3794909999706,None,353.8314597001299,355.3680484001525,0.9700000000000006,355.38368920003995,None,356.1349168999586,None,,,,,,,[[1.53]],2.800000000000002,0.7049180327868853,11036,002,2024_Mar_11_1236,MFTM_A_new1021,2021.2.3,59.821671645703866,
,,,,,,,,stim/Instruction_adaptive.png,conditions/adaptive.xlsx,test,-0.6,-0.6,-0.6,0.6,0.6,left,L,,,,,0,1,1,1,0,61,61,21,,,,,,,,,,,,,,,,,,,,,,,,,,,,,,,,,,,,,,,,,,,,356.6366584999487,None,right,0,1.364448299864307,357.13706360012293,358.58932249993086,357.13706360012293,358.0886550000869,357.13706360012293,358.0886550000869,357.13706360012293,358.0886550000869,357.13706360012293,358.0886550000869,357.13706360012293,358.0886550000869,358.0551185000222,358.55612360010855,358.0551185000222,358.55612360010855,358.0551185000222,358.55612360010855,358.0551185000222,358.55612360010855,358.0551185000222,358.55612360010855,358.0551185000222,358.55612360010855,358.0551185000222,358.55612360010855,358.0551185000222,358.55612360010855,357.13706360012293,None,358.55612360010855,360.12515670014545,0.9400000000000006,360.14077339996584,None,360.8930095001124,None,,,,,,,[[1.56]],2.690000000000002,0.6935483870967742,11036,002,2024_Mar_11_1236,MFTM_A_new1021,2021.2.3,59.821671645703866,
,,,,,,,,stim/Instruction_adaptive.png,conditions/adaptive.xlsx,test,0.6,0.6,0.6,-0.6,-0.6,right,R,,,,,0,1,1,1,0,62,62,52,,,,,,,,,,,,,,,,,,,,,,,,,,,,,,,,,,,,,,,,,,,,361.39387549995445,None,left,0,1.2003041000571102,361.89397020009346,363.4132437000517,361.89397020009346,362.9283903001342,361.89397020009346,362.9283903001342,361.89397020009346,362.9283903001342,361.89397020009346,362.9283903001342,361.89397020009346,362.9283903001342,362.8951835001353,363.39665809995495,362.8951835001353,363.39665809995495,362.8951835001353,363.39665809995495,362.8951835001353,363.39665809995495,362.8951835001353,363.39665809995495,362.8951835001353,363.39665809995495,362.8951835001353,363.39665809995495,362.8951835001353,363.39665809995495,361.89397020009346,None,363.39665809995495,364.8823975000996,1.0200000000000007,364.89910260005854,None,365.6494474001229,None,,,,,,,[[1.48]],2.570000000000002,0.6825396825396826,11036,002,2024_Mar_11_1236,MFTM_A_new1021,2021.2.3,59.821671645703866,
,,,,,,,,stim/Instruction_adaptive.png,conditions/adaptive.xlsx,test,-0.6,-0.6,-0.6,0.6,0.6,left,L,,,,,0,1,1,1,0,63,63,17,,,,,,,,,,,,,,,,,,,,,,,,,,,,,,,,,,,,,,,,,,,,366.15022550011054,None,left,1,0.7787546999752522,366.65099460002966,368.26989000011235,366.65099460002966,367.76938650012016,366.65099460002966,367.76938650012016,366.65099460002966,367.76938650012016,366.65099460002966,367.76938650012016,366.65099460002966,367.76938650012016,367.7534704999998,368.2539920001291,367.7534704999998,368.2539920001291,367.7534704999998,368.2539920001291,367.7534704999998,368.2539920001291,367.7534704999998,368.2539920001291,367.7534704999998,368.2539920001291,367.7534704999998,368.2539920001291,367.7534704999998,368.2539920001291,366.65099460002966,None,368.2376115000807,369.6397391001228,1.1100000000000008,369.65502350009046,None,370.40719810011797,None,,,,,,,[[1.39]],2.610000000000002,0.6875,11036,002,2024_Mar_11_1236,MFTM_A_new1021,2021.2.3,59.821671645703866,
,,,,,,,,stim/Instruction_adaptive.png,conditions/adaptive.xlsx,test,0.6,0.6,0.6,-0.6,-0.6,right,R,,,,,0,1,1,1,0,64,64,42,,,,,,,,,,,,,,,,,,,,,,,,,,,,,,,,,,,,,,,,,,,,370.9076169000473,None,right,1,1.0697727999649942,371.40779009996913,372.994401599979,371.40779009996913,372.4930465000216,371.40779009996913,372.4930465000216,371.40779009996913,372.4930465000216,371.40779009996913,372.4930465000216,371.40779009996913,372.4930465000216,372.4769242000766,372.97724979999475,372.4769242000766,372.97724979999475,372.4769242000766,372.97724979999475,372.4769242000766,372.97724979999475,372.4769242000766,372.97724979999475,372.4769242000766,372.97724979999475,372.4769242000766,372.97724979999475,372.4769242000766,372.97724979999475,371.40779009996913,None,372.97724979999475,374.3968935001176,1.0800000000000007,374.4125508000143,None,375.1641184000764,None,,,,,,,[[1.42]],2.650000000000002,0.6923076923076923,11036,002,2024_Mar_11_1236,MFTM_A_new1021,2021.2.3,59.821671645703866,
,,,,,,,,stim/Instruction_adaptive.png,conditions/adaptive.xlsx,test,-0.6,-0.6,-0.6,0.6,0.6,left,L,,,,,0,1,1,1,0,65,65,61,,,,,,,,,,,,,,,,,,,,,,,,,,,,,,,,,,,,,,,,,,,,375.6645146999508,None,left,1,1.832574299769476,376.16521500004455,377.7180310001131,376.16521500004455,377.21690639993176,376.16521500004455,377.21690639993176,376.16521500004455,377.21690639993176,376.16521500004455,377.21690639993176,376.16521500004455,377.21690639993176,377.20006439997815,377.70096009992994,377.20006439997815,377.70096009992994,377.20006439997815,377.70096009992994,377.20006439997815,377.70096009992994,377.20006439997815,377.70096009992994,377.20006439997815,377.70096009992994,377.20006439997815,377.70096009992994,377.20006439997815,377.70096009992994,376.16521500004455,None,377.70096009992994,379.1530349000823,1.0500000000000007,379.1698676000815,None,379.9214540999383,None,,,,,,,[[1.45]],2.690000000000002,0.696969696969697,11036,002,2024_Mar_11_1236,MFTM_A_new1021,2021.2.3,59.821671645703866,
,,,,,,,,stim/Instruction_adaptive.png,conditions/adaptive.xlsx,test,-0.6,-0.6,-0.6,0.6,0.6,left,L,,,,,0,1,1,1,0,66,66,99,,,,,,,,,,,,,,,,,,,,,,,,,,,,,,,,,,,,,,,,,,,,380.4217835001182,None,left,1,0.9712769000325352,380.92272739997134,382.44218669994734,380.92272739997134,381.95804820000194,380.92272739997134,381.95804820000194,380.92272739997134,381.95804820000194,380.92272739997134,381.95804820000194,380.92272739997134,381.95804820000194,381.923985700123,382.4252375001088,381.923985700123,382.4252375001088,381.923985700123,382.4252375001088,381.923985700123,382.4252375001088,381.923985700123,382.4252375001088,381.923985700123,382.4252375001088,381.923985700123,382.4252375001088,381.923985700123,382.4252375001088,380.92272739997134,None,382.4252375001088,383.91019730013795,1.0200000000000007,383.92706959997304,None,384.67993970005773,None,,,,,,,[[1.48]],2.720000000000002,0.7014925373134329,11036,002,2024_Mar_11_1236,MFTM_A_new1021,2021.2.3,59.821671645703866,
,,,,,,,,stim/Instruction_adaptive.png,conditions/adaptive.xlsx,test,-0.6,-0.6,-0.6,0.6,0.6,left,L,,,,,0,1,1,1,0,67,67,87,,,,,,,,,,,,,,,,,,,,,,,,,,,,,,,,,,,,,,,,,,,,385.1796850000974,None,right,0,1.0544783999212086,385.67962529999204,387.18219830002636,385.67962529999204,386.68184700002894,385.67962529999204,386.68184700002894,385.67962529999204,386.68184700002894,385.67962529999204,386.68184700002894,385.67962529999204,386.68184700002894,386.6655166000128,387.1650288000237,386.6655166000128,387.1650288000237,386.6655166000128,387.1650288000237,386.6655166000128,387.1650288000237,386.6655166000128,387.1650288000237,386.6655166000128,387.1650288000237,386.6655166000128,387.1650288000237,386.6655166000128,387.1650288000237,385.67962529999204,None,387.1650288000237,388.6686136999633,1.0000000000000007,388.6837107001338,None,389.43542520003393,None,,,,,,,[[1.5]],2.620000000000002,0.6911764705882353,11036,002,2024_Mar_11_1236,MFTM_A_new1021,2021.2.3,59.821671645703866,
,,,,,,,,stim/Instruction_adaptive.png,conditions/adaptive.xlsx,test,-0.6,-0.6,-0.6,0.6,0.6,left,L,,,,,0,1,1,1,0,68,68,43,,,,,,,,,,,,,,,,,,,,,,,,,,,,,,,,,,,,,,,,,,,,389.93644870002754,None,right,0,1.3606951001565903,390.4375875000842,392.02266310015693,390.4375875000842,391.522244800115,390.4375875000842,391.522244800115,390.4375875000842,391.522244800115,390.4375875000842,391.522244800115,390.4375875000842,391.522244800115,391.48829070013016,391.9897876000032,391.48829070013016,391.9897876000032,391.48829070013016,391.9897876000032,391.48829070013016,391.9897876000032,391.48829070013016,391.9897876000032,391.48829070013016,391.9897876000032,391.48829070013016,391.9897876000032,391.48829070013016,391.9897876000032,390.4375875000842,None,391.9897876000032,393.4245160999708,1.0700000000000007,393.44181980006397,None,394.1930516001303,None,,,,,,,[[1.43]],2.5000000000000018,0.6811594202898551,11036,002,2024_Mar_11_1236,MFTM_A_new1021,2021.2.3,59.821671645703866,
,,,,,,,,stim/Instruction_adaptive.png,conditions/adaptive.xlsx,test,0.6,0.6,0.6,-0.6,-0.6,right,R,,,,,0,1,1,1,0,69,69,72,,,,,,,,,,,,,,,,,,,,,,,,,,,,,,,,,,,,,,,,,,,,394.6944615000393,None,left,0,0.7883212000597268,395.19401150010526,396.8633781000972,395.19401150010526,396.3630071999505,395.19401150010526,396.3630071999505,395.19401150010526,396.3630071999505,395.19401150010526,396.3630071999505,395.19401150010526,396.3630071999505,396.3300365000032,396.83052380010486,396.3300365000032,396.83052380010486,396.3300365000032,396.83052380010486,396.3300365000032,396.83052380010486,396.3300365000032,396.83052380010486,396.3300365000032,396.83052380010486,396.3300365000032,396.83052380010486,396.3300365000032,396.83052380010486,395.19401150010526,None,396.83052380010486,398.1827042000368,1.1600000000000008,398.1984095000662,None,398.9504593999591,None,,,,,,,[[1.34]],2.3800000000000017,0.6714285714285714,11036,002,2024_Mar_11_1236,MFTM_A_new1021,2021.2.3,59.821671645703866,
,,,,,,,,stim/Instruction_adaptive.png,conditions/adaptive.xlsx,test,0.6,0.6,0.6,-0.6,-0.6,right,R,,,,,0,1,1,1,0,70,70,18,,,,,,,,,,,,,,,,,,,,,,,,,,,,,,,,,,,,,,,,,,,,399.4506699000485,None,right,1,0.9436305998824537,399.9509849001188,401.72072370001115,399.9509849001188,401.2196532001253,399.9509849001188,401.2196532001253,399.9509849001188,401.2196532001253,399.9509849001188,401.2196532001253,399.9509849001188,401.2196532001253,401.2036619000137,401.7044425001368,401.2036619000137,401.7044425001368,401.2036619000137,401.7044425001368,401.2036619000137,401.7044425001368,401.2036619000137,401.7044425001368,401.2036619000137,401.7044425001368,401.2036619000137,401.7044425001368,401.2036619000137,401.7044425001368,399.9509849001188,None,401.7044425001368,None,1.260000000000001,402.95567880012095,None,403.7075348999351,None,,,,,,,[[1.24]],2.4200000000000017,0.676056338028169,11036,002,2024_Mar_11_1236,MFTM_A_new1021,2021.2.3,59.821671645703866,
,,,,,,,,stim/Instruction_adaptive.png,conditions/adaptive.xlsx,test,0.6,0.6,0.6,-0.6,-0.6,right,R,,,,,0,1,1,1,0,71,71,54,,,,,,,,,,,,,,,,,,,,,,,,,,,,,,,,,,,,,,,,,,,,404.2086036000401,None,None,0,0,404.7082239999436,406.44458410004154,404.7082239999436,405.94355510012247,404.7082239999436,405.94355510012247,404.7082239999436,405.94355510012247,404.7082239999436,405.94355510012247,404.7082239999436,405.94355510012247,405.92679410008714,406.42790809995495,405.92679410008714,406.42790809995495,405.92679410008714,406.42790809995495,405.92679410008714,406.42790809995495,405.92679410008714,406.42790809995495,405.92679410008714,406.42790809995495,405.92679410008714,406.42790809995495,405.92679410008714,406.42790809995495,404.7082239999436,None,406.42790809995495,None,1.2300000000000009,408.2131342999637,None,408.96474870014936,None,,,,,,,[[1.77]],2.3000000000000016,0.6666666666666666,11036,002,2024_Mar_11_1236,MFTM_A_new1021,2021.2.3,59.821671645703866,
,,,,,,,,stim/Instruction_adaptive.png,conditions/adaptive.xlsx,test,0.6,0.6,0.6,-0.6,-0.6,right,R,,,,,0,1,1,1,0,72,72,48,,,,,,,,,,,,,,,,,,,,,,,,,,,,,,,,,,,,,,,,,,,,409.4654179001227,None,right,1,0.6957366999704391,409.9673011000268,411.81900350004435,409.9673011000268,411.318167099962,409.9673011000268,411.318167099962,409.9673011000268,411.318167099962,409.9673011000268,411.318167099962,409.9673011000268,411.318167099962,411.2859539000783,411.78568790014833,411.2859539000783,411.78568790014833,411.2859539000783,411.78568790014833,411.2859539000783,411.78568790014833,411.2859539000783,411.78568790014833,411.2859539000783,411.78568790014833,411.2859539000783,411.78568790014833,411.2859539000783,411.78568790014833,409.9673011000268,None,411.78568790014833,412.95435620006174,1.340000000000001,412.97050449997187,None,413.7227334000636,None,,,,,,,[[1.16]],2.3400000000000016,0.6712328767123288,11036,002,2024_Mar_11_1236,MFTM_A_new1021,2021.2.3,59.821671645703866,
,,,,,,,,stim/Instruction_adaptive.png,conditions/adaptive.xlsx,test,-0.6,-0.6,-0.6,0.6,0.6,left,L,,,,,0,1,1,1,0,73,73,57,,,,,,,,,,,,,,,,,,,,,,,,,,,,,,,,,,,,,,,,,,,,414.22338830004446,None,left,1,1.5394655000418425,414.7234531000722,416.5269405001309,414.7234531000722,416.02553980005905,414.7234531000722,416.02553980005905,414.7234531000722,416.02553980005905,414.7234531000722,416.02553980005905,414.7234531000722,416.02553980005905,416.00885400013067,416.50989540014416,416.00885400013067,416.50989540014416,416.00885400013067,416.50989540014416,416.00885400013067,416.50989540014416,416.00885400013067,416.50989540014416,416.00885400013067,416.50989540014416,416.00885400013067,416.50989540014416,416.00885400013067,416.50989540014416,414.7234531000722,None,416.50989540014416,417.7120008999482,1.300000000000001,417.7278067001607,None,418.47889170004055,None,,,,,,,[[1.2]],2.3800000000000017,0.6756756756756757,11036,002,2024_Mar_11_1236,MFTM_A_new1021,2021.2.3,59.821671645703866,
,,,,,,,,stim/Instruction_adaptive.png,conditions/adaptive.xlsx,test,-0.6,-0.6,-0.6,0.6,0.6,left,L,,,,,0,1,1,1,0,74,74,13,,,,,,,,,,,,,,,,,,,,,,,,,,,,,,,,,,,,,,,,,,,,418.9799141001422,None,None,0,0,419.48057730006985,421.2500601001084,419.48057730006985,420.7493468001485,419.48057730006985,420.7493468001485,419.48057730006985,420.7493468001485,419.48057730006985,420.7493468001485,419.48057730006985,420.7493468001485,420.7330815999303,421.2341311001219,420.7330815999303,421.2341311001219,420.7330815999303,421.2341311001219,420.7330815999303,421.2341311001219,420.7330815999303,421.2341311001219,420.7330815999303,421.2341311001219,420.7330815999303,421.2341311001219,420.7330815999303,421.2341311001219,419.48057730006985,None,421.2341311001219,None,1.260000000000001,422.9852078000549,None,423.73776119994,None,,,,,,,[[1.74]],2.2600000000000016,0.6666666666666666,11036,002,2024_Mar_11_1236,MFTM_A_new1021,2021.2.3,59.821671645703866,
,,,,,,,,stim/Instruction_adaptive.png,conditions/adaptive.xlsx,test,0.6,0.6,0.6,-0.6,-0.6,right,R,,,,,0,1,1,1,0,75,75,50,,,,,,,,,,,,,,,,,,,,,,,,,,,,,,,,,,,,,,,,,,,,424.23844030010514,None,right,1,1.4933715001679957,424.7384226999711,426.6080853000749,424.7384226999711,426.1241731001064,424.7384226999711,426.1241731001064,424.7384226999711,426.1241731001064,424.7384226999711,426.1241731001064,424.7384226999711,426.1241731001064,426.090618400136,426.59126919996925,426.090618400136,426.59126919996925,426.090618400136,426.59126919996925,426.090618400136,426.59126919996925,426.090618400136,426.59126919996925,426.090618400136,426.59126919996925,426.090618400136,426.59126919996925,426.090618400136,426.59126919996925,424.7384226999711,None,426.59126919996925,427.72652900009416,1.370000000000001,427.74307430000044,None,428.4947635999415,None,,,,,,,[[1.13]],2.3000000000000016,0.6710526315789473,11036,002,2024_Mar_11_1236,MFTM_A_new1021,2021.2.3,59.821671645703866,
,,,,,,,,stim/Instruction_adaptive.png,conditions/adaptive.xlsx,test,-0.6,-0.6,-0.6,0.6,0.6,left,L,,,,,0,1,1,1,0,76,76,81,,,,,,,,,,,,,,,,,,,,,,,,,,,,,,,,,,,,,,,,,,,,428.99490890000015,None,left,1,1.0715914000757039,429.49567710002884,431.34841209999286,429.49567710002884,430.8482356001623,429.49567710002884,430.8482356001623,429.49567710002884,430.8482356001623,429.49567710002884,430.8482356001623,429.49567710002884,430.8482356001623,430.8153183001559,431.3149189001415,430.8153183001559,431.3149189001415,430.8153183001559,431.3149189001415,430.8153183001559,431.3149189001415,430.8153183001559,431.3149189001415,430.8153183001559,431.3149189001415,430.8153183001559,431.3149189001415,430.8153183001559,431.3149189001415,429.49567710002884,None,431.3149189001415,432.48386880010366,1.340000000000001,432.500158400042,None,433.2513640001416,None,,,,,,,[[1.16]],2.3400000000000016,0.6753246753246753,11036,002,2024_Mar_11_1236,MFTM_A_new1021,2021.2.3,59.821671645703866,
,,,,,,,,stim/Instruction_adaptive.png,conditions/adaptive.xlsx,test,-0.6,-0.6,-0.6,0.6,0.6,left,L,,,,,0,1,1,1,0,77,77,19,,,,,,,,,,,,,,,,,,,,,,,,,,,,,,,,,,,,,,,,,,,,433.7524854999501,None,left,1,1.0584132000803947,434.25282489997335,436.05632560001686,434.25282489997335,435.5548151000403,434.25282489997335,435.5548151000403,434.25282489997335,435.5548151000403,434.25282489997335,435.5548151000403,434.25282489997335,435.5548151000403,435.5393559001386,436.0398047999479,435.5393559001386,436.0398047999479,435.5393559001386,436.0398047999479,435.5393559001386,436.0398047999479,435.5393559001386,436.0398047999479,435.5393559001386,436.0398047999479,435.5393559001386,436.0398047999479,435.5393559001386,436.0398047999479,434.25282489997335,None,436.0398047999479,437.2406373000704,1.300000000000001,437.2573611999396,None,438.00920590013266,None,,,,,,,[[1.2]],2.3800000000000017,0.6794871794871795,11036,002,2024_Mar_11_1236,MFTM_A_new1021,2021.2.3,59.821671645703866,
,,,,,,,,stim/Instruction_adaptive.png,conditions/adaptive.xlsx,test,0.6,0.6,0.6,-0.6,-0.6,right,R,,,,,0,1,1,1,0,78,78,88,,,,,,,,,,,,,,,,,,,,,,,,,,,,,,,,,,,,,,,,,,,,438.50938910013065,None,right,1,1.2542820000089705,439.0098077999428,440.7794003000017,439.0098077999428,440.2787838000804,439.0098077999428,440.2787838000804,439.0098077999428,440.2787838000804,439.0098077999428,440.2787838000804,439.0098077999428,440.2787838000804,440.2453453000635,440.74609700008295,440.2453453000635,440.74609700008295,440.2453453000635,440.74609700008295,440.2453453000635,440.74609700008295,440.2453453000635,440.74609700008295,440.2453453000635,440.74609700008295,440.2453453000635,440.74609700008295,440.2453453000635,440.74609700008295,439.0098077999428,None,440.7631564999465,None,1.260000000000001,442.014505200088,None,442.7666625001002,None,,,,,,,[[1.24]],2.4200000000000017,0.6835443037974683,11036,002,2024_Mar_11_1236,MFTM_A_new1021,2021.2.3,59.821671645703866,
,,,,,,,,stim/Instruction_adaptive.png,conditions/adaptive.xlsx,test,-0.6,-0.6,-0.6,0.6,0.6,left,L,,,,,0,1,1,1,0,79,79,25,,,,,,,,,,,,,,,,,,,,,,,,,,,,,,,,,,,,,,,,,,,,443.26647579995915,None,left,1,0.791793700074777,443.768093300052,445.50312250014395,443.768093300052,445.00234599993564,443.768093300052,445.00234599993564,443.768093300052,445.00234599993564,443.768093300052,445.00234599993564,443.768093300052,445.00234599993564,444.9858767001424,445.4876262000762,444.9858767001424,445.4876262000762,444.9858767001424,445.4876262000762,444.9858767001424,445.4876262000762,444.9858767001424,445.4876262000762,444.9858767001424,445.4876262000762,444.9858767001424,445.4876262000762,444.9858767001424,445.4876262000762,443.768093300052,None,445.4876262000762,None,1.2300000000000009,446.771844800096,None,447.5252948999405,None,,,,,,,[[1.27]],2.4600000000000017,0.6875,11036,002,2024_Mar_11_1236,MFTM_A_new1021,2021.2.3,59.821671645703866,
,,,,,,,,stim/Instruction_adaptive.png,conditions/adaptive.xlsx,test,-0.6,-0.6,-0.6,0.6,0.6,left,L,,,,,0,1,1,1,0,80,80,5,,,,,,,,,,,,,,,,,,,,,,,,,,,,,,,,,,,,,,,,,,,,448.02488699997775,None,left,1,0.6349172999616712,448.52468829997815,450.22780240001157,448.52468829997815,449.72689589997754,448.52468829997815,449.72689589997754,448.52468829997815,449.72689589997754,448.52468829997815,449.72689589997754,448.52468829997815,449.72689589997754,449.7107554001268,450.2101869999897,449.7107554001268,450.2101869999897,449.7107554001268,450.2101869999897,449.7107554001268,450.2101869999897,449.7107554001268,450.2101869999897,449.7107554001268,450.2101869999897,449.7107554001268,450.2101869999897,449.7107554001268,450.2101869999897,448.52468829997815,None,450.2101869999897,451.5121739001479,1.2000000000000008,451.528913800139,None,452.281114500016,None,,,,,,,[[1.3]],2.490000000000002,0.691358024691358,11036,002,2024_Mar_11_1236,MFTM_A_new1021,2021.2.3,59.821671645703866,
,,,,,,,,stim/Instruction_adaptive.png,conditions/adaptive.xlsx,test,-0.6,-0.6,-0.6,0.6,0.6,left,L,,,,,0,1,1,1,0,81,81,9,,,,,,,,,,,,,,,,,,,,,,,,,,,,,,,,,,,,,,,,,,,,452.78060039994307,None,left,1,0.7336693000979722,453.2823300999589,454.96716130012646,453.2823300999589,454.46664800005965,453.2823300999589,454.46664800005965,453.2823300999589,454.46664800005965,453.2823300999589,454.46664800005965,453.2823300999589,454.46664800005965,454.43325350014493,454.93401750014164,454.43325350014493,454.93401750014164,454.43325350014493,454.93401750014164,454.43325350014493,454.93401750014164,454.43325350014493,454.93401750014164,454.43325350014493,454.93401750014164,454.43325350014493,454.93401750014164,454.43325350014493,454.93401750014164,453.2823300999589,None,454.93401750014164,456.26924369996414,1.1700000000000008,456.2860475999769,None,457.03813820006326,None,,,,,,,[[1.33]],2.520000000000002,0.6951219512195121,11036,002,2024_Mar_11_1236,MFTM_A_new1021,2021.2.3,59.821671645703866,
,,,,,,,,stim/Instruction_adaptive.png,conditions/adaptive.xlsx,test,0.6,0.6,0.6,-0.6,-0.6,right,R,,,,,0,1,1,1,0,82,82,24,,,,,,,,,,,,,,,,,,,,,,,,,,,,,,,,,,,,,,,,,,,,457.53892259998247,None,left,0,1.297153600025922,458.0392827000469,459.6923506001476,458.0392827000469,459.190335100051,458.0392827000469,459.190335100051,458.0392827000469,459.190335100051,458.0392827000469,459.190335100051,458.0392827000469,459.190335100051,459.1738887000829,459.6748840000946,459.1738887000829,459.6748840000946,459.1738887000829,459.6748840000946,459.1738887000829,459.6748840000946,459.1738887000829,459.6748840000946,459.1738887000829,459.6748840000946,459.1738887000829,459.6748840000946,459.1738887000829,459.6748840000946,458.0392827000469,None,459.6748840000946,461.028827900067,1.1500000000000008,461.04252850008197,None,461.795485700015,None,,,,,,,[[1.35]],2.4300000000000015,0.6867469879518072,11036,002,2024_Mar_11_1236,MFTM_A_new1021,2021.2.3,59.821671645703866,
,,,,,,,,stim/Instruction_adaptive.png,conditions/adaptive.xlsx,test,0.6,0.6,0.6,-0.6,-0.6,right,R,,,,,0,1,1,1,0,83,83,36,,,,,,,,,,,,,,,,,,,,,,,,,,,,,,,,,,,,,,,,,,,,462.29533130000345,None,left,0,1.3563713000621647,462.79593940009363,464.51493620011024,462.79593940009363,464.01558020012453,462.79593940009363,464.01558020012453,462.79593940009363,464.01558020012453,462.79593940009363,464.01558020012453,462.79593940009363,464.01558020012453,463.99855899997056,464.49834690010175,463.99855899997056,464.49834690010175,463.99855899997056,464.49834690010175,463.99855899997056,464.49834690010175,463.99855899997056,464.49834690010175,463.99855899997056,464.49834690010175,463.99855899997056,464.49834690010175,463.99855899997056,464.49834690010175,462.79593940009363,None,464.49834690010175,465.78450650000013,1.2200000000000009,465.80141220008954,None,466.55241240002215,None,,,,,,,[[1.28]],2.330000000000002,0.6785714285714286,11036,002,2024_Mar_11_1236,MFTM_A_new1021,2021.2.3,59.821671645703866,
,,,,,,,,stim/Instruction_adaptive.png,conditions/adaptive.xlsx,test,0.6,0.6,0.6,-0.6,-0.6,right,R,,,,,0,1,1,1,0,84,84,80,,,,,,,,,,,,,,,,,,,,,,,,,,,,,,,,,,,,,,,,,,,,467.0530155999586,None,right,1,0.6711556001100689,467.5530326999724,469.37258880003355,467.5530326999724,468.87228170013987,467.5530326999724,468.87228170013987,467.5530326999724,468.87228170013987,467.5530326999724,468.87228170013987,467.5530326999724,468.87228170013987,468.8550993001554,469.35650740005076,468.8550993001554,469.35650740005076,468.8550993001554,469.35650740005076,468.8550993001554,469.35650740005076,468.8550993001554,469.35650740005076,468.8550993001554,469.35650740005076,468.8550993001554,469.35650740005076,468.8550993001554,469.35650740005076,467.5530326999724,None,469.35650740005076,None,1.310000000000001,470.55743349995464,None,471.30927229998633,None,,,,,,,[[1.19]],2.3600000000000017,0.6823529411764706,11036,002,2024_Mar_11_1236,MFTM_A_new1021,2021.2.3,59.821671645703866,
,,,,,,,,stim/Instruction_adaptive.png,conditions/adaptive.xlsx,test,0.6,0.6,0.6,-0.6,-0.6,right,R,,,,,0,1,1,1,0,85,85,78,,,,,,,,,,,,,,,,,,,,,,,,,,,,,,,,,,,,,,,,,,,,471.80955090001225,None,left,0,0.7946133001241833,472.3101806000341,474.0973511999473,472.3101806000341,473.5960860000923,472.3101806000341,473.5960860000923,472.3101806000341,473.5960860000923,472.3101806000341,473.5960860000923,472.3101806000341,473.5960860000923,473.5787921999581,474.0795269999653,473.5787921999581,474.0795269999653,473.5787921999581,474.0795269999653,473.5787921999581,474.0795269999653,473.5787921999581,474.0795269999653,473.5787921999581,474.0795269999653,473.5787921999581,474.0795269999653,473.5787921999581,474.0795269999653,472.3101806000341,None,474.06378259998746,475.2981469000224,1.280000000000001,475.31462380010635,None,476.0658347001299,None,,,,,,,[[1.22]],2.2600000000000016,0.6744186046511628,11036,002,2024_Mar_11_1236,MFTM_A_new1021,2021.2.3,59.821671645703866,
,,,,,,,,stim/Instruction_adaptive.png,conditions/adaptive.xlsx,test,-0.6,-0.6,-0.6,0.6,0.6,left,L,,,,,0,1,1,1,0,86,86,69,,,,,,,,,,,,,,,,,,,,,,,,,,,,,,,,,,,,,,,,,,,,476.56665759999305,None,left,1,1.3498641999904066,477.0674259001389,478.93766729999334,477.0674259001389,478.45306980004534,477.0674259001389,478.45306980004534,477.0674259001389,478.45306980004534,477.0674259001389,478.45306980004534,477.0674259001389,478.45306980004534,478.4194480001461,478.9210405999329,478.4194480001461,478.9210405999329,478.4194480001461,478.9210405999329,478.4194480001461,478.9210405999329,478.4194480001461,478.9210405999329,478.4194480001461,478.9210405999329,478.4194480001461,478.9210405999329,478.4194480001461,478.9210405999329,477.0674259001389,None,478.9210405999329,480.05526000005193,1.370000000000001,480.07202180009335,None,480.82305900007486,None,,,,,,,[[1.13]],2.290000000000002,0.6781609195402298,11036,002,2024_Mar_11_1236,MFTM_A_new1021,2021.2.3,59.821671645703866,
,,,,,,,,stim/Instruction_adaptive.png,conditions/adaptive.xlsx,test,0.6,0.6,0.6,-0.6,-0.6,right,R,,,,,0,1,1,1,0,87,87,0,,,,,,,,,,,,,,,,,,,,,,,,,,,,,,,,,,,,,,,,,,,,481.32482400001027,None,right,1,0.9435934999492019,481.8252908999566,483.6774449001532,481.8252908999566,483.1773080001585,481.8252908999566,483.1773080001585,481.8252908999566,483.1773080001585,481.8252908999566,483.1773080001585,481.8252908999566,483.1773080001585,483.16054990002885,483.66112950001843,483.16054990002885,483.66112950001843,483.16054990002885,483.66112950001843,483.16054990002885,483.66112950001843,483.16054990002885,483.66112950001843,483.16054990002885,483.66112950001843,483.16054990002885,483.66112950001843,483.16054990002885,483.66112950001843,481.8252908999566,None,483.66112950001843,484.8125318000093,1.350000000000001,484.8291720999405,None,485.5805796000641,None,,,,,,,[[1.15]],2.330000000000002,0.6818181818181818,11036,002,2024_Mar_11_1236,MFTM_A_new1021,2021.2.3,59.821671645703866,
,,,,,,,,stim/Instruction_adaptive.png,conditions/adaptive.xlsx,test,0.6,0.6,0.6,-0.6,-0.6,right,R,,,,,0,1,1,1,0,88,88,40,,,,,,,,,,,,,,,,,,,,,,,,,,,,,,,,,,,,,,,,,,,,486.0817232001573,None,right,1,0.93990009999834,486.58244050014764,488.4023780999705,486.58244050014764,487.90043010003865,486.58244050014764,487.90043010003865,486.58244050014764,487.90043010003865,486.58244050014764,487.90043010003865,486.58244050014764,487.90043010003865,487.8838631999679,488.3852113999892,487.8838631999679,488.3852113999892,487.8838631999679,488.3852113999892,487.8838631999679,488.3852113999892,487.8838631999679,488.3852113999892,487.8838631999679,488.3852113999892,487.8838631999679,488.3852113999892,487.8838631999679,488.3852113999892,486.58244050014764,None,488.3852113999892,None,1.310000000000001,489.5869249999523,None,490.33814510004595,None,,,,,,,[[1.19]],2.3600000000000017,0.6853932584269663,11036,002,2024_Mar_11_1236,MFTM_A_new1021,2021.2.3,59.821671645703866,
,,,,,,,,stim/Instruction_adaptive.png,conditions/adaptive.xlsx,test,-0.6,-0.6,-0.6,0.6,0.6,left,L,,,,,0,1,1,1,0,89,89,71,,,,,,,,,,,,,,,,,,,,,,,,,,,,,,,,,,,,,,,,,,,,490.83808120014146,None,left,1,1.1500409999862313,491.3388521000743,493.1248957000207,491.3388521000743,492.62428779993206,491.3388521000743,492.62428779993206,491.3388521000743,492.62428779993206,491.3388521000743,492.62428779993206,491.3388521000743,492.62428779993206,492.6086059999652,493.10906960000284,492.6086059999652,493.10906960000284,492.6086059999652,493.10906960000284,492.6086059999652,493.10906960000284,492.6086059999652,493.10906960000284,492.6086059999652,493.10906960000284,492.6086059999652,493.10906960000284,492.6086059999652,493.10906960000284,491.3388521000743,None,493.10906960000284,None,1.280000000000001,494.34433380002156,None,495.0946398000233,None,,,,,,,[[1.22]],2.3900000000000015,0.6888888888888889,11036,002,2024_Mar_11_1236,MFTM_A_new1021,2021.2.3,59.821671645703866,
,,,,,,,,stim/Instruction_adaptive.png,conditions/adaptive.xlsx,test,0.6,0.6,0.6,-0.6,-0.6,right,R,,,,,0,1,1,1,0,90,90,98,,,,,,,,,,,,,,,,,,,,,,,,,,,,,,,,,,,,,,,,,,,,495.59542390005663,None,right,1,0.7293467000126839,496.0959890000522,497.8657226001378,496.0959890000522,497.3648828000296,496.0959890000522,497.3648828000296,496.0959890000522,497.3648828000296,496.0959890000522,497.3648828000296,496.0959890000522,497.3648828000296,497.33125940011814,497.8323645000346,497.33125940011814,497.8323645000346,497.33125940011814,497.8323645000346,497.33125940011814,497.8323645000346,497.33125940011814,497.8323645000346,497.33125940011814,497.8323645000346,497.33125940011814,497.8323645000346,497.33125940011814,497.8323645000346,496.0959890000522,None,497.8323645000346,499.0839164000936,1.260000000000001,499.10068679996766,None,499.85303770005703,None,,,,,,,[[1.24]],2.4200000000000017,0.6923076923076923,11036,002,2024_Mar_11_1236,MFTM_A_new1021,2021.2.3,59.821671645703866,
,,,,,,,,stim/Instruction_adaptive.png,conditions/adaptive.xlsx,test,-0.6,-0.6,-0.6,0.6,0.6,left,L,,,,,0,1,1,1,0,91,91,95,,,,,,,,,,,,,,,,,,,,,,,,,,,,,,,,,,,,,,,,,,,,500.35337759996764,None,left,1,1.2924928998108953,500.8531856001355,502.58931740000844,500.8531856001355,502.0894568001386,500.8531856001355,502.0894568001386,500.8531856001355,502.0894568001386,500.8531856001355,502.0894568001386,500.8531856001355,502.0894568001386,502.0719018999953,502.5734781001229,502.0719018999953,502.5734781001229,502.0719018999953,502.5734781001229,502.0719018999953,502.5734781001229,502.0719018999953,502.5734781001229,502.0719018999953,502.5734781001229,502.0719018999953,502.5734781001229,502.0719018999953,502.5734781001229,500.8531856001355,None,502.5559666000772,503.8413521000184,1.2300000000000009,503.85804089996964,None,504.6093297000043,None,,,,,,,[[1.27]],2.450000000000002,0.6956521739130435,11036,002,2024_Mar_11_1236,MFTM_A_new1021,2021.2.3,59.821671645703866,
,,,,,,,,stim/Instruction_adaptive.png,conditions/adaptive.xlsx,test,0.6,0.6,0.6,-0.6,-0.6,right,R,,,,,0,1,1,1,0,92,92,32,,,,,,,,,,,,,,,,,,,,,,,,,,,,,,,,,,,,,,,,,,,,505.1097085000947,None,left,0,1.0313446000218391,505.6103245001286,507.3133903001435,505.6103245001286,506.81218970008194,505.6103245001286,506.81218970008194,505.6103245001286,506.81218970008194,505.6103245001286,506.81218970008194,505.6103245001286,506.81218970008194,506.79560040007345,507.2962955001276,506.79560040007345,507.2962955001276,506.79560040007345,507.2962955001276,506.79560040007345,507.2962955001276,506.79560040007345,507.2962955001276,506.79560040007345,507.2962955001276,506.79560040007345,507.2962955001276,506.79560040007345,507.2962955001276,505.6103245001286,None,507.2962955001276,508.5985268999357,1.2000000000000008,508.6144600000698,None,509.3669172001537,None,,,,,,,[[1.3]],2.370000000000002,0.6881720430107527,11036,002,2024_Mar_11_1236,MFTM_A_new1021,2021.2.3,59.821671645703866,
