arrwidth1,arrwidth2,arrwidth3,arrwidth4,arrwidth5,keyb,type,orientation,instruction_image,block_filename,block_type,arrow11,arrow22,arrow33,arrow44,arrow55,keyb_3,orientation3,trials.thisRepN,trials.thisTrialN,trials.thisN,trials.thisIndex,trials_3.thisRepN,trials_3.thisTrialN,trials_3.thisN,trials_3.thisIndex,trials_2.thisRepN,trials_2.thisTrialN,trials_2.thisN,trials_2.thisIndex,welcome.started,welcome.stopped,key_resp.keys,key_resp.rt,key_resp.started,key_resp.stopped,instruction_example.started,instruction_example.stopped,key_resp_3.keys,key_resp_3.rt,key_resp_3.started,key_resp_3.stopped,instruction_task.started,instruction_task.stopped,key_resp_2.keys,key_resp_2.rt,key_resp_2.started,key_resp_2.stopped,text_2.started,text_2.stopped,A1.started,A1.stopped,A2.started,A2.stopped,A3.started,A3.stopped,A4.started,A4.stopped,A5.started,A5.stopped,key_resp_4.keys,key_resp_4.corr,key_resp_4.rt,key_resp_4.started,key_resp_4.stopped,fb.started,fb.stopped,instruction_block.started,instruction_block.stopped,key_resp_8.keys,key_resp_8.rt,key_resp_8.started,key_resp_8.stopped,text_8.started,text_8.stopped,key_resp_9.keys,key_resp_9.corr,key_resp_9.rt,text_5.started,text_5.stopped,A11_3.started,A11_3.stopped,A22_2.started,A22_2.stopped,A33_2.started,A33_2.stopped,A44_2.started,A44_2.stopped,A55_2.started,A55_2.stopped,M1_3.started,M1_3.stopped,M2_2.started,M2_2.stopped,M3_2.started,M3_2.stopped,M4_2.started,M4_2.stopped,M5_2.started,M5_2.stopped,M6_2.started,M6_2.stopped,M7_2.started,M7_2.stopped,M8_2.started,M8_2.stopped,key_resp_9.started,key_resp_9.stopped,fixation.started,fixation.stopped,ET,fb_3.started,fb_3.stopped,text_9.started,text_9.stopped,fb_4.started,fb_4.stopped,text_7.started,text_7.stopped,endtext.started,endtext.stopped,fixation_ITI,CCC,Acc,participant,session,date,expName,psychopyVersion,frameRate,
,,,,,,,,,,,,,,,,,,,,,,,,,,,,,,62.6103235000046,None,space,6.32787529999041,62.6103235000046,None,,,,,,,,,,,,,,,,,,,,,,,,,,,,,,,,,,,,,,,,,,,,,,,,,,,,,,,,,,,,,,,,,,,,,,,,,,,,,,,,,,,,,,,,,11034,002,2024_Jan_16_1303,MFTM_A_new1021,2021.2.3,59.93076796945095,
,,,,,,,,,,,,,,,,,,,,,,,,,,,,,,,,,,,,68.96962069999427,None,space,1.7844547999848146,68.96962069999427,None,,,,,,,,,,,,,,,,,,,,,,,,,,,,,,,,,,,,,,,,,,,,,,,,,,,,,,,,,,,,,,,,,,,,,,,,,,,,,,,,,,,11034,002,2024_Jan_16_1303,MFTM_A_new1021,2021.2.3,59.93076796945095,
,,,,,,,,,,,,,,,,,,,,,,,,,,,,,,,,,,,,,,,,,,70.77203809999628,None,space,1.8304232000082266,70.77203809999628,None,,,,,,,,,,,,,,,,,,,,,,,,,,,,,,,,,,,,,,,,,,,,,,,,,,,,,,,,,,,,,,,,,,,,,,,,,,,,,11034,002,2024_Jan_16_1303,MFTM_A_new1021,2021.2.3,59.93076796945095,
-0.6,-0.6,-0.6,0.6,0.6,left,3:2,L,,,,,,,,,,,0,0,0,1,,,,,,,,,,,,,,,,,,,,,,,,,,,72.64169829999446,None,72.64169829999446,None,72.64169829999446,None,72.64169829999446,None,72.64169829999446,None,72.64169829999446,None,left,1,1.5291743999987375,72.64169829999446,None,74.21198829999776,None,,,,,,,,,,,,,,,,,,,,,,,,,,,,,,,,,,,,,,,,,,,,,,,,,,,,,,,,,,11034,002,2024_Jan_16_1303,MFTM_A_new1021,2021.2.3,59.93076796945095,
0.6,0.6,0.6,-0.6,-0.6,right,3:2,R,,,,,,,,,,,0,1,1,0,,,,,,,,,,,,,,,,,,,,,,,,,,,74.96208120000665,None,74.96208120000665,None,74.96208120000665,None,74.96208120000665,None,74.96208120000665,None,74.96208120000665,None,right,1,1.3048239999916404,74.96208120000665,None,76.29736739999498,None,,,,,,,,,,,,,,,,,,,,,,,,,,,,,,,,,,,,,,,,,,,,,,,,,,,,,,,,,,11034,002,2024_Jan_16_1303,MFTM_A_new1021,2021.2.3,59.93076796945095,
-0.6,-0.6,-0.6,0.6,0.6,left,3:2,L,,,,,,,,,,,1,0,2,1,,,,,,,,,,,,,,,,,,,,,,,,,,,77.04841600000509,None,77.04841600000509,None,77.04841600000509,None,77.04841600000509,None,77.04841600000509,None,77.04841600000509,None,left,1,1.1783139000181109,77.04841600000509,None,78.25014769998961,None,,,,,,,,,,,,,,,,,,,,,,,,,,,,,,,,,,,,,,,,,,,,,,,,,,,,,,,,,,11034,002,2024_Jan_16_1303,MFTM_A_new1021,2021.2.3,59.93076796945095,
0.6,0.6,0.6,-0.6,-0.6,right,3:2,R,,,,,,,,,,,1,1,3,0,,,,,,,,,,,,,,,,,,,,,,,,,,,79.00127040001098,None,79.00127040001098,None,79.00127040001098,None,79.00127040001098,None,79.00127040001098,None,79.00127040001098,None,right,1,0.9776298000069801,79.00127040001098,None,80.00274860000354,None,,,,,,,,,,,,,,,,,,,,,,,,,,,,,,,,,,,,,,,,,,,,,,,,,,,,,,,,,,11034,002,2024_Jan_16_1303,MFTM_A_new1021,2021.2.3,59.93076796945095,
,,,,,,,,stim/Instruction_mask.png,conditions/adaptive.xlsx,practice,0.6,0.6,0.6,-0.6,-0.6,right,R,,,,,0,0,0,0,0,0,0,16,,,,,,,,,,,,,,,,,,,,,,,,,,,,,,,,,,,,,,81.00437330000568,None,space,3.4060895000002347,81.00437330000568,None,84.51063269999577,None,right,1,0.8114552999904845,84.94373560001259,None,84.94373560001259,87.94830200000433,84.94373560001259,87.94830200000433,84.94373560001259,87.94830200000433,84.94373560001259,87.94830200000433,84.94373560001259,87.94830200000433,87.93150229999446,88.43234060000395,87.93150229999446,88.43234060000395,87.93150229999446,88.43234060000395,87.93150229999446,88.43234060000395,87.93150229999446,88.43234060000395,87.93150229999446,88.43234060000395,87.93150229999446,88.43234060000395,87.93150229999446,88.43234060000395,84.94373560001259,None,88.43234060000395,88.43234060000395,3,88.44911330001196,None,89.20018680000794,None,,,,,,,,,,11034,002,2024_Jan_16_1303,MFTM_A_new1021,2021.2.3,59.93076796945095,
,,,,,,,,stim/Instruction_mask.png,conditions/adaptive.xlsx,practice,-0.6,-0.6,-0.6,0.6,0.6,left,L,,,,,0,0,0,0,0,1,1,99,,,,,,,,,,,,,,,,,,,,,,,,,,,,,,,,,,,,,,,,,,,,89.70160249999026,None,left,1,0.9777064000081737,90.20164710000972,92.20550060001551,90.20164710000972,91.70444460000726,90.20164710000972,91.70444460000726,90.20164710000972,91.70444460000726,90.20164710000972,91.70444460000726,90.20164710000972,91.70444460000726,91.68786080001155,92.18799490001402,91.68786080001155,92.18799490001402,91.68786080001155,92.18799490001402,91.68786080001155,92.18799490001402,91.68786080001155,92.18799490001402,91.68786080001155,92.18799490001402,91.68786080001155,92.18799490001402,91.68786080001155,92.18799490001402,90.20164710000972,None,92.18799490001402,93.69106909999391,1.5,93.706906300009,None,94.45806219999213,None,,,,,,,,,,11034,002,2024_Jan_16_1303,MFTM_A_new1021,2021.2.3,59.93076796945095,
,,,,,,,,stim/Instruction_mask.png,conditions/adaptive.xlsx,practice,-0.6,-0.6,-0.6,0.6,0.6,left,L,,,,,0,0,0,0,0,2,2,33,,,,,,,,,,,,,,,,,,,,,,,,,,,,,,,,,,,,,,,,,,,,94.95862459999626,None,right,0,0.9995530000014696,95.46028289999231,96.7613743999973,95.46028289999231,96.26066709999577,95.46028289999231,96.26066709999577,95.46028289999231,96.26066709999577,95.46028289999231,96.26066709999577,95.46028289999231,96.26066709999577,96.24418229999719,96.74484810000286,96.24418229999719,96.74484810000286,96.24418229999719,96.74484810000286,96.24418229999719,96.74484810000286,96.24418229999719,96.74484810000286,96.24418229999719,96.74484810000286,96.24418229999719,96.74484810000286,96.24418229999719,96.74484810000286,95.46028289999231,None,96.74484810000286,98.95075970000471,0.8,98.96478080001543,None,99.7166908000072,None,,,,,,,,,,11034,002,2024_Jan_16_1303,MFTM_A_new1021,2021.2.3,59.93076796945095,
,,,,,,,,stim/Instruction_mask.png,conditions/adaptive.xlsx,practice,0.6,0.6,0.6,-0.6,-0.6,right,R,,,,,0,0,0,0,0,3,3,46,,,,,,,,,,,,,,,,,,,,,,,,,,,,,,,,,,,,,,,,,,,,100.21734559998731,None,left,0,0.7985285999893676,100.71742880000966,101.46864040000946,100.71742880000966,100.96781510001165,100.71742880000966,100.96781510001165,100.71742880000966,100.96781510001165,100.71742880000966,100.96781510001165,100.71742880000966,100.96781510001165,100.95113490000949,101.45300219999626,100.95113490000949,101.45300219999626,100.95113490000949,101.45300219999626,100.95113490000949,101.45300219999626,100.95113490000949,101.45300219999626,100.95113490000949,101.45300219999626,100.95113490000949,101.45300219999626,100.95113490000949,101.45300219999626,100.71742880000966,None,101.45300219999626,104.2062067000079,3,104.22275660000741,None,104.97469309999724,None,,,,,,,,,,11034,002,2024_Jan_16_1303,MFTM_A_new1021,2021.2.3,59.93076796945095,
,,,,,,,,stim/Instruction_mask.png,conditions/adaptive.xlsx,practice,,,,,,,,,,,,0,0,0,0,,,,,,,,,,,,,,,,,,,,,,,,,,,,,,,,,,,,,,,,,,,,,,,,,,,,,,,,,,,,,,,,,,,,,,,,,,,,,,,,,,,,,,,,,,105.49145900001167,106.49305680001271,106.4769392000162,106.4769392000162,106.4769392000162,None,,,,11034,002,2024_Jan_16_1303,MFTM_A_new1021,2021.2.3,59.93076796945095,
,,,,,,,,stim/Instruction_adaptive.png,conditions/adaptive.xlsx,test,0.6,0.6,0.6,-0.6,-0.6,right,R,,,,,0,1,1,1,0,0,0,68,,,,,,,,,,,,,,,,,,,,,,,,,,,,,,,,,,,,,,109.66435549999005,None,space,3.2598584000079427,109.66435549999005,None,112.9874082999886,None,left,0,3.1573090000019874,113.47056809999049,None,113.47056809999049,116.4748724999954,113.47056809999049,116.4748724999954,113.47056809999049,116.4748724999954,113.47056809999049,116.4748724999954,113.47056809999049,116.4748724999954,116.45806189998984,116.95872830000008,116.45806189998984,116.95872830000008,116.45806189998984,116.95872830000008,116.45806189998984,116.95872830000008,116.45806189998984,116.95872830000008,116.45806189998984,116.95872830000008,116.45806189998984,116.95872830000008,116.45806189998984,116.95872830000008,113.47056809999049,None,116.95872830000008,116.95872830000008,3,116.97541760001332,None,117.72715150000295,None,,,,,,,0,0.5,0.0,11034,002,2024_Jan_16_1303,MFTM_A_new1021,2021.2.3,59.93076796945095,
,,,,,,,,stim/Instruction_adaptive.png,conditions/adaptive.xlsx,test,-0.6,-0.6,-0.6,0.6,0.6,left,L,,,,,0,1,1,1,0,1,1,7,,,,,,,,,,,,,,,,,,,,,,,,,,,,,,,,,,,,,,,,,,,,118.22734519999358,None,left,1,2.292164299986325,118.72804399998859,None,118.72804399998859,121.73265449999599,118.72804399998859,121.73265449999599,118.72804399998859,121.73265449999599,118.72804399998859,121.73265449999599,118.72804399998859,121.73265449999599,121.71649170000455,122.21658579999348,121.71649170000455,122.21658579999348,121.71649170000455,122.21658579999348,121.71649170000455,122.21658579999348,121.71649170000455,122.21658579999348,121.71649170000455,122.21658579999348,121.71649170000455,122.21658579999348,121.71649170000455,122.21658579999348,118.72804399998859,None,122.21658579999348,122.21658579999348,3.0000000000000027,122.23325250000926,None,122.98446149998927,None,,,,,,,0,0.5,0.5,11034,002,2024_Jan_16_1303,MFTM_A_new1021,2021.2.3,59.93076796945095,
,,,,,,,,stim/Instruction_adaptive.png,conditions/adaptive.xlsx,test,0.6,0.6,0.6,-0.6,-0.6,right,R,,,,,0,1,1,1,0,2,2,38,,,,,,,,,,,,,,,,,,,,,,,,,,,,,,,,,,,,,,,,,,,,123.48581400001422,None,right,1,3.347427600005176,123.98598960001254,None,123.98598960001254,126.99041659999057,123.98598960001254,126.99041659999057,123.98598960001254,126.99041659999057,123.98598960001254,126.99041659999057,123.98598960001254,126.99041659999057,126.97374580000178,127.47448249999434,126.97374580000178,127.47448249999434,126.97374580000178,127.47448249999434,126.97374580000178,127.47448249999434,126.97374580000178,127.47448249999434,126.97374580000178,127.47448249999434,126.97374580000178,127.47448249999434,126.97374580000178,127.47448249999434,123.98598960001254,None,127.47448249999434,127.47448249999434,3.0000000000000027,127.49136529999669,None,128.24248519999674,None,,,,,,,0,0.5,0.6666666666666666,11034,002,2024_Jan_16_1303,MFTM_A_new1021,2021.2.3,59.93076796945095,
,,,,,,,,stim/Instruction_adaptive.png,conditions/adaptive.xlsx,test,-0.6,-0.6,-0.6,0.6,0.6,left,L,,,,,0,1,1,1,0,3,3,79,,,,,,,,,,,,,,,,,,,,,,,,,,,,,,,,,,,,,,,,,,,,128.74395520001417,None,right,0,2.6400663999957033,129.24469490000047,None,129.24469490000047,132.2483757000009,129.24469490000047,132.2483757000009,129.24469490000047,132.2483757000009,129.24469490000047,132.2483757000009,129.24469490000047,132.2483757000009,132.23159770001075,132.7324961000122,132.23159770001075,132.7324961000122,132.23159770001075,132.7324961000122,132.23159770001075,132.7324961000122,132.23159770001075,132.7324961000122,132.23159770001075,132.7324961000122,132.23159770001075,132.7324961000122,132.23159770001075,132.7324961000122,129.24469490000047,None,132.71584419999272,132.71584419999272,3.0000000000000027,132.7489213999943,None,133.50102860000334,None,,,,,,,0,0.5,0.5,11034,002,2024_Jan_16_1303,MFTM_A_new1021,2021.2.3,59.93076796945095,
,,,,,,,,stim/Instruction_adaptive.png,conditions/adaptive.xlsx,test,0.6,0.6,0.6,-0.6,-0.6,right,R,,,,,0,1,1,1,0,4,4,70,,,,,,,,,,,,,,,,,,,,,,,,,,,,,,,,,,,,,,,,,,,,134.00186960000428,None,right,1,1.526683200005209,134.50191449999693,None,134.50191449999693,137.5063855999906,134.50191449999693,137.5063855999906,134.50191449999693,137.5063855999906,134.50191449999693,137.5063855999906,134.50191449999693,137.5063855999906,137.4911146000086,137.99091290001525,137.4911146000086,137.99091290001525,137.4911146000086,137.99091290001525,137.4911146000086,137.99091290001525,137.4911146000086,137.99091290001525,137.4911146000086,137.99091290001525,137.4911146000086,137.99091290001525,137.4911146000086,137.99091290001525,134.50191449999693,None,137.99091290001525,137.99091290001525,3.0000000000000027,138.0074081000057,None,138.75892160000512,None,,,,,,,0,0.5,0.6,11034,002,2024_Jan_16_1303,MFTM_A_new1021,2021.2.3,59.93076796945095,
,,,,,,,,stim/Instruction_adaptive.png,conditions/adaptive.xlsx,test,0.6,0.6,0.6,-0.6,-0.6,right,R,,,,,0,1,1,1,0,5,5,96,,,,,,,,,,,,,,,,,,,,,,,,,,,,,,,,,,,,,,,,,,,,139.25908109999727,None,right,1,1.3961616000160575,139.76062439999077,None,139.76062439999077,142.76459000000614,139.76062439999077,142.76459000000614,139.76062439999077,142.76459000000614,139.76062439999077,142.76459000000614,139.76062439999077,142.76459000000614,142.74773760000244,143.24821439999505,142.74773760000244,143.24821439999505,142.74773760000244,143.24821439999505,142.74773760000244,143.24821439999505,142.74773760000244,143.24821439999505,142.74773760000244,143.24821439999505,142.74773760000244,143.24821439999505,142.74773760000244,143.24821439999505,139.76062439999077,None,143.24821439999505,143.24821439999505,3.0000000000000027,143.26584740000544,None,144.01637749999645,None,,,,,,,0,0.5,0.6666666666666666,11034,002,2024_Jan_16_1303,MFTM_A_new1021,2021.2.3,59.93076796945095,
,,,,,,,,stim/Instruction_adaptive.png,conditions/adaptive.xlsx,test,-0.6,-0.6,-0.6,0.6,0.6,left,L,,,,,0,1,1,1,0,6,6,61,,,,,,,,,,,,,,,,,,,,,,,,,,,,,,,,,,,,,,,,,,,,144.5179177999962,None,left,1,2.794271499995375,145.01844909999636,None,145.01844909999636,148.02286240001558,145.01844909999636,148.02286240001558,145.01844909999636,148.02286240001558,145.01844909999636,148.02286240001558,145.01844909999636,148.02286240001558,148.0064190000121,148.50701520001167,148.0064190000121,148.50701520001167,148.0064190000121,148.50701520001167,148.0064190000121,148.50701520001167,148.0064190000121,148.50701520001167,148.0064190000121,148.50701520001167,148.0064190000121,148.50701520001167,148.0064190000121,148.50701520001167,145.01844909999636,None,148.50701520001167,148.50701520001167,3.0000000000000027,148.52344620000804,None,149.2745930000092,None,,,,,,,0,0.8200000000000003,0.7142857142857143,11034,002,2024_Jan_16_1303,MFTM_A_new1021,2021.2.3,59.93076796945095,
,,,,,,,,stim/Instruction_adaptive.png,conditions/adaptive.xlsx,test,0.6,0.6,0.6,-0.6,-0.6,right,R,,,,,0,1,1,1,0,7,7,24,,,,,,,,,,,,,,,,,,,,,,,,,,,,,,,,,,,,,,,,,,,,149.77611020000768,None,left,0,2.937194800004363,150.27593229999184,None,150.27593229999184,153.28026160001173,150.27593229999184,153.28026160001173,150.27593229999184,153.28026160001173,150.27593229999184,153.28026160001173,150.27593229999184,153.28026160001173,153.26465240001562,153.76439540000865,153.26465240001562,153.76439540000865,153.26465240001562,153.76439540000865,153.26465240001562,153.76439540000865,153.26465240001562,153.76439540000865,153.26465240001562,153.76439540000865,153.26465240001562,153.76439540000865,153.26465240001562,153.76439540000865,150.27593229999184,None,153.76439540000865,153.76439540000865,3.0000000000000027,153.78088110001408,None,154.53266440000152,None,,,,,,,0,0.5,0.625,11034,002,2024_Jan_16_1303,MFTM_A_new1021,2021.2.3,59.93076796945095,
,,,,,,,,stim/Instruction_adaptive.png,conditions/adaptive.xlsx,test,0.6,0.6,0.6,-0.6,-0.6,right,R,,,,,0,1,1,1,0,8,8,48,,,,,,,,,,,,,,,,,,,,,,,,,,,,,,,,,,,,,,,,,,,,155.03314220000175,None,right,1,1.0003292000037618,155.53355200000806,None,155.53355200000806,158.53816200001165,155.53355200000806,158.53816200001165,155.53355200000806,158.53816200001165,155.53355200000806,158.53816200001165,155.53355200000806,158.53816200001165,158.52137460000813,159.0221903999918,158.52137460000813,159.0221903999918,158.52137460000813,159.0221903999918,158.52137460000813,159.0221903999918,158.52137460000813,159.0221903999918,158.52137460000813,159.0221903999918,158.52137460000813,159.0221903999918,158.52137460000813,159.0221903999918,155.53355200000806,None,159.0221903999918,159.0221903999918,3.0000000000000027,159.03875040001003,None,159.79069289998733,None,,,,,,,0,0.5,0.6666666666666666,11034,002,2024_Jan_16_1303,MFTM_A_new1021,2021.2.3,59.93076796945095,
,,,,,,,,stim/Instruction_adaptive.png,conditions/adaptive.xlsx,test,0.6,0.6,0.6,-0.6,-0.6,right,R,,,,,0,1,1,1,0,9,9,26,,,,,,,,,,,,,,,,,,,,,,,,,,,,,,,,,,,,,,,,,,,,160.29109509999398,None,right,1,1.4368324999813922,160.79228490000241,None,160.79228490000241,163.79718719999073,160.79228490000241,163.79718719999073,160.79228490000241,163.79718719999073,160.79228490000241,163.79718719999073,160.79228490000241,163.79718719999073,163.77932470000815,164.2815896999964,163.77932470000815,164.2815896999964,163.77932470000815,164.2815896999964,163.77932470000815,164.2815896999964,163.77932470000815,164.2815896999964,163.77932470000815,164.2815896999964,163.77932470000815,164.2815896999964,163.77932470000815,164.2815896999964,160.79228490000241,None,164.2815896999964,164.2815896999964,3.0000000000000027,164.29730229999404,None,165.04954209999414,None,,,,,,,0,0.6900000000000002,0.7,11034,002,2024_Jan_16_1303,MFTM_A_new1021,2021.2.3,59.93076796945095,
,,,,,,,,stim/Instruction_adaptive.png,conditions/adaptive.xlsx,test,0.6,0.6,0.6,-0.6,-0.6,right,R,,,,,0,1,1,1,0,10,10,58,,,,,,,,,,,,,,,,,,,,,,,,,,,,,,,,,,,,,,,,,,,,165.54884920001496,None,right,1,2.7324075999786146,166.0495530999906,None,166.0495530999906,169.05416999998852,166.0495530999906,169.05416999998852,166.0495530999906,169.05416999998852,166.0495530999906,169.05416999998852,166.0495530999906,169.05416999998852,169.0375694000104,169.5383795000089,169.0375694000104,169.5383795000089,169.0375694000104,169.5383795000089,169.0375694000104,169.5383795000089,169.0375694000104,169.5383795000089,169.0375694000104,169.5383795000089,169.0375694000104,169.5383795000089,169.0375694000104,169.5383795000089,166.0495530999906,None,169.5383795000089,169.5383795000089,3.0000000000000027,169.55460750000202,None,170.30767589999596,None,,,,,,,0,0.9400000000000004,0.7272727272727273,11034,002,2024_Jan_16_1303,MFTM_A_new1021,2021.2.3,59.93076796945095,
,,,,,,,,stim/Instruction_adaptive.png,conditions/adaptive.xlsx,test,0.6,0.6,0.6,-0.6,-0.6,right,R,,,,,0,1,1,1,0,11,11,32,,,,,,,,,,,,,,,,,,,,,,,,,,,,,,,,,,,,,,,,,,,,170.8065576000081,None,right,1,3.4099067999923136,171.30814129998907,None,171.30814129998907,174.31197489998885,171.30814129998907,174.31197489998885,171.30814129998907,174.31197489998885,171.30814129998907,174.31197489998885,171.30814129998907,174.31197489998885,174.2951968999987,174.79686209998908,174.2951968999987,174.79686209998908,174.2951968999987,174.79686209998908,174.2951968999987,174.79686209998908,174.2951968999987,174.79686209998908,174.2951968999987,174.79686209998908,174.2951968999987,174.79686209998908,174.2951968999987,174.79686209998908,171.30814129998907,None,174.79686209998908,174.79686209998908,3.0000000000000027,174.81277930000215,None,175.5643543000042,None,,,,,,,0,1.1300000000000006,0.75,11034,002,2024_Jan_16_1303,MFTM_A_new1021,2021.2.3,59.93076796945095,
,,,,,,,,stim/Instruction_adaptive.png,conditions/adaptive.xlsx,test,-0.6,-0.6,-0.6,0.6,0.6,left,L,,,,,0,1,1,1,0,12,12,99,,,,,,,,,,,,,,,,,,,,,,,,,,,,,,,,,,,,,,,,,,,,176.0648199999996,None,left,1,1.575768100010464,176.56595739998738,None,176.56595739998738,179.5701834000065,176.56595739998738,179.5701834000065,176.56595739998738,179.5701834000065,176.56595739998738,179.5701834000065,176.56595739998738,179.5701834000065,179.55421030000434,180.05483639999875,179.55421030000434,180.05483639999875,179.55421030000434,180.05483639999875,179.55421030000434,180.05483639999875,179.55421030000434,180.05483639999875,179.55421030000434,180.05483639999875,179.55421030000434,180.05483639999875,179.55421030000434,180.05483639999875,176.56595739998738,None,180.05483639999875,180.05483639999875,3.0000000000000027,180.07059200000367,None,180.8215399000037,None,,,,,,,0,1.2900000000000007,0.7692307692307693,11034,002,2024_Jan_16_1303,MFTM_A_new1021,2021.2.3,59.93076796945095,
,,,,,,,,stim/Instruction_adaptive.png,conditions/adaptive.xlsx,test,-0.6,-0.6,-0.6,0.6,0.6,left,L,,,,,0,1,1,1,0,13,13,37,,,,,,,,,,,,,,,,,,,,,,,,,,,,,,,,,,,,,,,,,,,,181.32267409999622,None,left,1,1.3748174000065774,181.823252400005,None,181.823252400005,184.52750560001004,181.823252400005,184.52750560001004,181.823252400005,184.52750560001004,181.823252400005,184.52750560001004,181.823252400005,184.52750560001004,184.49416050000582,184.99588560001575,184.49416050000582,184.99588560001575,184.49416050000582,184.99588560001575,184.49416050000582,184.99588560001575,184.49416050000582,184.99588560001575,184.49416050000582,184.99588560001575,184.49416050000582,184.99588560001575,184.49416050000582,184.99588560001575,181.823252400005,None,184.99588560001575,184.99588560001575,2.690000000000002,185.0114054000005,None,185.7633300999878,None,,,,,,,0,1.4200000000000008,0.7857142857142857,11034,002,2024_Jan_16_1303,MFTM_A_new1021,2021.2.3,59.93076796945095,
,,,,,,,,stim/Instruction_adaptive.png,conditions/adaptive.xlsx,test,-0.6,-0.6,-0.6,0.6,0.6,left,L,,,,,0,1,1,1,0,14,14,21,,,,,,,,,,,,,,,,,,,,,,,,,,,,,,,,,,,,,,,,,,,,186.26337060000515,None,left,1,1.1377716999850236,186.76411600000574,None,186.76411600000574,189.2356623999949,186.76411600000574,189.2356623999949,186.76411600000574,189.2356623999949,186.76411600000574,189.2356623999949,186.76411600000574,189.2356623999949,189.20112360001076,189.70175539999036,189.20112360001076,189.70175539999036,189.20112360001076,189.70175539999036,189.20112360001076,189.70175539999036,189.20112360001076,189.70175539999036,189.20112360001076,189.70175539999036,189.20112360001076,189.70175539999036,189.20112360001076,189.70175539999036,186.76411600000574,None,189.70175539999036,189.70175539999036,2.4600000000000017,189.7351886999968,None,190.49123790001613,None,,,,,,,0,1.540000000000001,0.8,11034,002,2024_Jan_16_1303,MFTM_A_new1021,2021.2.3,59.93076796945095,
,,,,,,,,stim/Instruction_adaptive.png,conditions/adaptive.xlsx,test,-0.6,-0.6,-0.6,0.6,0.6,left,L,,,,,0,1,1,1,0,15,15,9,,,,,,,,,,,,,,,,,,,,,,,,,,,,,,,,,,,,,,,,,,,,191.00588640000205,None,left,1,2.0617141999828164,191.50463810001384,None,191.50463810001384,193.7746741999872,191.50463810001384,193.7746741999872,191.50463810001384,193.7746741999872,191.50463810001384,193.7746741999872,191.50463810001384,193.7746741999872,193.7411696999916,194.24213540001074,193.7411696999916,194.24213540001074,193.7411696999916,194.24213540001074,193.7411696999916,194.24213540001074,193.7411696999916,194.24213540001074,193.7411696999916,194.24213540001074,193.7411696999916,194.24213540001074,193.7411696999916,194.24213540001074,191.50463810001384,None,194.24213540001074,194.24213540001074,2.2600000000000016,194.27552210001159,None,195.0267184000113,None,,,,,,,0,1.640000000000001,0.8125,11034,002,2024_Jan_16_1303,MFTM_A_new1021,2021.2.3,59.93076796945095,
,,,,,,,,stim/Instruction_adaptive.png,conditions/adaptive.xlsx,test,-0.6,-0.6,-0.6,0.6,0.6,left,L,,,,,0,1,1,1,0,16,16,85,,,,,,,,,,,,,,,,,,,,,,,,,,,,,,,,,,,,,,,,,,,,195.52910039998824,None,left,1,1.7136959999916144,196.028736200009,None,196.028736200009,198.14788530001533,196.028736200009,198.14788530001533,196.028736200009,198.14788530001533,196.028736200009,198.14788530001533,196.028736200009,198.14788530001533,198.11467619999894,198.61524819998886,198.11467619999894,198.61524819998886,198.11467619999894,198.61524819998886,198.11467619999894,198.61524819998886,198.11467619999894,198.61524819998886,198.11467619999894,198.61524819998886,198.11467619999894,198.61524819998886,198.11467619999894,198.61524819998886,196.028736200009,None,198.61524819998886,198.61524819998886,2.1100000000000017,198.64857680001296,None,199.39998409998952,None,,,,,,,0,1.730000000000001,0.8235294117647058,11034,002,2024_Jan_16_1303,MFTM_A_new1021,2021.2.3,59.93076796945095,
,,,,,,,,stim/Instruction_adaptive.png,conditions/adaptive.xlsx,test,0.6,0.6,0.6,-0.6,-0.6,right,R,,,,,0,1,1,1,0,17,17,34,,,,,,,,,,,,,,,,,,,,,,,,,,,,,,,,,,,,,,,,,,,,199.90056589999585,None,right,1,1.7164150000025984,200.40207710000686,None,200.40207710000686,202.38767080000252,200.40207710000686,202.38767080000252,200.40207710000686,202.38767080000252,200.40207710000686,202.38767080000252,200.40207710000686,202.38767080000252,202.37096010000096,202.87237190001179,202.37096010000096,202.87237190001179,202.37096010000096,202.87237190001179,202.37096010000096,202.87237190001179,202.37096010000096,202.87237190001179,202.37096010000096,202.87237190001179,202.37096010000096,202.87237190001179,202.37096010000096,202.87237190001179,200.40207710000686,None,202.8550113000092,202.8550113000092,1.9800000000000015,202.88828390001436,None,203.63958839999395,None,,,,,,,0,1.8200000000000012,0.8333333333333334,11034,002,2024_Jan_16_1303,MFTM_A_new1021,2021.2.3,59.93076796945095,
,,,,,,,,stim/Instruction_adaptive.png,conditions/adaptive.xlsx,test,-0.6,-0.6,-0.6,0.6,0.6,left,L,,,,,0,1,1,1,0,18,18,23,,,,,,,,,,,,,,,,,,,,,,,,,,,,,,,,,,,,,,,,,,,,204.14037619999726,None,right,0,1.8776386000099592,204.64105100001325,None,204.64105100001325,206.5105140999949,204.64105100001325,206.5105140999949,204.64105100001325,206.5105140999949,204.64105100001325,206.5105140999949,204.64105100001325,206.5105140999949,206.4772704000061,206.97791710001184,206.4772704000061,206.97791710001184,206.4772704000061,206.97791710001184,206.4772704000061,206.97791710001184,206.4772704000061,206.97791710001184,206.4772704000061,206.97791710001184,206.4772704000061,206.97791710001184,206.4772704000061,206.97791710001184,204.64105100001325,None,206.97791710001184,206.97791710001184,1.8600000000000014,207.01137680001557,None,207.7631926999893,None,,,,,,,0,1.580000000000001,0.7894736842105263,11034,002,2024_Jan_16_1303,MFTM_A_new1021,2021.2.3,59.93076796945095,
,,,,,,,,stim/Instruction_adaptive.png,conditions/adaptive.xlsx,test,0.6,0.6,0.6,-0.6,-0.6,right,R,,,,,0,1,1,1,0,19,19,64,,,,,,,,,,,,,,,,,,,,,,,,,,,,,,,,,,,,,,,,,,,,208.2640636000142,None,right,1,1.4429126999748405,208.76418610001565,None,208.76418610001565,210.9674564000161,208.76418610001565,210.9674564000161,208.76418610001565,210.9674564000161,208.76418610001565,210.9674564000161,208.76418610001565,210.9674564000161,210.9511790999968,211.45114019999164,210.9511790999968,211.45114019999164,210.9511790999968,211.45114019999164,210.9511790999968,211.45114019999164,210.9511790999968,211.45114019999164,210.9511790999968,211.45114019999164,210.9511790999968,211.45114019999164,210.9511790999968,211.45114019999164,208.76418610001565,None,211.45114019999164,211.45114019999164,2.200000000000002,211.46808160000364,None,212.22006670001429,None,,,,,,,0,1.670000000000001,0.8,11034,002,2024_Jan_16_1303,MFTM_A_new1021,2021.2.3,59.93076796945095,
,,,,,,,,stim/Instruction_adaptive.png,conditions/adaptive.xlsx,test,0.6,0.6,0.6,-0.6,-0.6,right,R,,,,,0,1,1,1,0,20,20,16,,,,,,,,,,,,,,,,,,,,,,,,,,,,,,,,,,,,,,,,,,,,212.7197879999876,None,right,1,0.6981378000054974,213.2206831999938,None,213.2206831999938,215.2904004000011,213.2206831999938,215.2904004000011,213.2206831999938,215.2904004000011,213.2206831999938,215.2904004000011,213.2206831999938,215.2904004000011,215.27390170001308,215.77461120000225,215.27390170001308,215.77461120000225,215.27390170001308,215.77461120000225,215.27390170001308,215.77461120000225,215.27390170001308,215.77461120000225,215.27390170001308,215.77461120000225,215.27390170001308,215.77461120000225,215.27390170001308,215.77461120000225,213.2206831999938,None,215.77461120000225,215.77461120000225,2.0700000000000016,215.79123999999138,None,216.54281310000806,None,,,,,,,0,1.750000000000001,0.8095238095238095,11034,002,2024_Jan_16_1303,MFTM_A_new1021,2021.2.3,59.93076796945095,
,,,,,,,,stim/Instruction_adaptive.png,conditions/adaptive.xlsx,test,-0.6,-0.6,-0.6,0.6,0.6,left,L,,,,,0,1,1,1,0,21,21,41,,,,,,,,,,,,,,,,,,,,,,,,,,,,,,,,,,,,,,,,,,,,217.04311289999168,None,left,1,1.903798299987102,217.54389460000675,None,217.54389460000675,219.51376880001044,217.54389460000675,219.51376880001044,217.54389460000675,219.51376880001044,217.54389460000675,219.51376880001044,217.54389460000675,219.51376880001044,219.48022200001287,219.98089090001304,219.48022200001287,219.98089090001304,219.48022200001287,219.98089090001304,219.48022200001287,219.98089090001304,219.48022200001287,219.98089090001304,219.48022200001287,219.98089090001304,219.48022200001287,219.98089090001304,219.48022200001287,219.98089090001304,217.54389460000675,None,219.98089090001304,219.98089090001304,1.9600000000000015,220.01437439999427,None,220.76585669998894,None,,,,,,,0,1.8200000000000012,0.8181818181818182,11034,002,2024_Jan_16_1303,MFTM_A_new1021,2021.2.3,59.93076796945095,
,,,,,,,,stim/Instruction_adaptive.png,conditions/adaptive.xlsx,test,0.6,0.6,0.6,-0.6,-0.6,right,R,,,,,0,1,1,1,0,22,22,92,,,,,,,,,,,,,,,,,,,,,,,,,,,,,,,,,,,,,,,,,,,,221.2661473999906,None,right,1,0.9440803999896161,221.767075700016,None,221.767075700016,223.63716909999494,221.767075700016,223.63716909999494,221.767075700016,223.63716909999494,221.767075700016,223.63716909999494,221.767075700016,223.63716909999494,223.60420430000522,224.10446339999908,223.60420430000522,224.10446339999908,223.60420430000522,224.10446339999908,223.60420430000522,224.10446339999908,223.60420430000522,224.10446339999908,223.60420430000522,224.10446339999908,223.60420430000522,224.10446339999908,223.60420430000522,224.10446339999908,221.767075700016,None,224.10446339999908,224.10446339999908,1.8600000000000014,224.1370237999945,None,224.8887168999936,None,,,,,,,0,1.8800000000000012,0.8260869565217391,11034,002,2024_Jan_16_1303,MFTM_A_new1021,2021.2.3,59.93076796945095,
,,,,,,,,stim/Instruction_adaptive.png,conditions/adaptive.xlsx,test,0.6,0.6,0.6,-0.6,-0.6,right,R,,,,,0,1,1,1,0,23,23,52,,,,,,,,,,,,,,,,,,,,,,,,,,,,,,,,,,,,,,,,,,,,225.38936570001533,None,right,1,1.0616198999923654,225.88996040000347,None,225.88996040000347,227.6925435999874,225.88996040000347,227.6925435999874,225.88996040000347,227.6925435999874,225.88996040000347,227.6925435999874,225.88996040000347,227.6925435999874,227.65920900000492,228.16028310000547,227.65920900000492,228.16028310000547,227.65920900000492,228.16028310000547,227.65920900000492,228.16028310000547,227.65920900000492,228.16028310000547,227.65920900000492,228.16028310000547,227.65920900000492,228.16028310000547,227.65920900000492,228.16028310000547,225.88996040000347,None,228.16028310000547,228.16028310000547,1.7900000000000014,228.19320660000085,None,228.94432929999311,None,,,,,,,0,1.9500000000000013,0.8333333333333334,11034,002,2024_Jan_16_1303,MFTM_A_new1021,2021.2.3,59.93076796945095,
,,,,,,,,stim/Instruction_adaptive.png,conditions/adaptive.xlsx,test,-0.6,-0.6,-0.6,0.6,0.6,left,L,,,,,0,1,1,1,0,24,24,5,,,,,,,,,,,,,,,,,,,,,,,,,,,,,,,,,,,,,,,,,,,,229.4456019999925,None,left,1,1.325080499984324,229.94609219999984,None,229.94609219999984,231.64844439999433,229.94609219999984,231.64844439999433,229.94609219999984,231.64844439999433,229.94609219999984,231.64844439999433,229.94609219999984,231.64844439999433,231.632013800001,232.1324939999904,231.632013800001,232.1324939999904,231.632013800001,232.1324939999904,231.632013800001,232.1324939999904,231.632013800001,232.1324939999904,231.632013800001,232.1324939999904,231.632013800001,232.1324939999904,231.632013800001,232.1324939999904,229.94609219999984,None,232.1324939999904,232.1324939999904,1.7000000000000013,232.14920630000415,None,232.90042910000193,None,,,,,,,0,2.0000000000000013,0.84,11034,002,2024_Jan_16_1303,MFTM_A_new1021,2021.2.3,59.93076796945095,
,,,,,,,,stim/Instruction_adaptive.png,conditions/adaptive.xlsx,test,-0.6,-0.6,-0.6,0.6,0.6,left,L,,,,,0,1,1,1,0,25,25,35,,,,,,,,,,,,,,,,,,,,,,,,,,,,,,,,,,,,,,,,,,,,233.40157580000232,None,left,1,1.0659171000006609,233.9018922999967,None,233.9018922999967,235.56211020000046,233.9018922999967,235.56211020000046,233.9018922999967,235.56211020000046,233.9018922999967,235.56211020000046,233.9018922999967,235.56211020000046,235.52102869999362,236.02173209999455,235.52102869999362,236.02173209999455,235.52102869999362,236.02173209999455,235.52102869999362,236.02173209999455,235.52102869999362,236.02173209999455,235.52102869999362,236.02173209999455,235.52102869999362,236.02173209999455,235.52102869999362,236.02173209999455,233.9018922999967,None,236.02173209999455,236.02173209999455,1.6400000000000012,236.05658279999625,None,236.80758719998994,None,,,,,,,0,2.0600000000000014,0.8461538461538461,11034,002,2024_Jan_16_1303,MFTM_A_new1021,2021.2.3,59.93076796945095,
,,,,,,,,stim/Instruction_adaptive.png,conditions/adaptive.xlsx,test,0.6,0.6,0.6,-0.6,-0.6,right,R,,,,,0,1,1,1,0,26,26,84,,,,,,,,,,,,,,,,,,,,,,,,,,,,,,,,,,,,,,,,,,,,237.30751959999907,None,right,1,1.9026392000087071,237.80880659999093,239.89535639999667,237.80880659999093,239.39416960001108,237.80880659999093,239.39416960001108,237.80880659999093,239.39416960001108,237.80880659999093,239.39416960001108,237.80880659999093,239.39416960001108,239.37695900001563,239.87757790001342,239.37695900001563,239.87757790001342,239.37695900001563,239.87757790001342,239.37695900001563,239.87757790001342,239.37695900001563,239.87757790001342,239.37695900001563,239.87757790001342,239.37695900001563,239.87757790001342,239.37695900001563,239.87757790001342,237.80880659999093,None,239.87757790001342,239.89535639999667,1.5800000000000012,239.91087310001603,None,240.6627668000001,None,,,,,,,[0.01259259],2.110000000000001,0.8518518518518519,11034,002,2024_Jan_16_1303,MFTM_A_new1021,2021.2.3,59.93076796945095,
,,,,,,,,stim/Instruction_adaptive.png,conditions/adaptive.xlsx,test,0.6,0.6,0.6,-0.6,-0.6,right,R,,,,,0,1,1,1,0,27,27,60,,,,,,,,,,,,,,,,,,,,,,,,,,,,,,,,,,,,,,,,,,,,241.1626402999973,None,left,0,1.3842189999995753,241.66370169998845,243.6833358000149,241.66370169998845,243.1825947999896,241.66370169998845,243.1825947999896,241.66370169998845,243.1825947999896,241.66370169998845,243.1825947999896,241.66370169998845,243.1825947999896,243.16682559999754,243.6694514999981,243.16682559999754,243.6694514999981,243.16682559999754,243.6694514999981,243.16682559999754,243.6694514999981,243.16682559999754,243.6694514999981,243.16682559999754,243.6694514999981,243.16682559999754,243.6694514999981,243.16682559999754,243.6694514999981,241.66370169998845,None,243.6694514999981,243.71673419998842,1.5200000000000011,243.73337430000538,None,244.4854403999925,None,,,,,,,[0.04714286],1.9600000000000013,0.8214285714285714,11034,002,2024_Jan_16_1303,MFTM_A_new1021,2021.2.3,59.93076796945095,
,,,,,,,,stim/Instruction_adaptive.png,conditions/adaptive.xlsx,test,-0.6,-0.6,-0.6,0.6,0.6,left,L,,,,,0,1,1,1,0,28,28,13,,,,,,,,,,,,,,,,,,,,,,,,,,,,,,,,,,,,,,,,,,,,244.9854164000135,None,left,1,1.7608926999964751,245.48680459999014,247.6895332999993,245.48680459999014,247.18998359999387,245.48680459999014,247.18998359999387,245.48680459999014,247.18998359999387,245.48680459999014,247.18998359999387,245.48680459999014,247.18998359999387,247.15570239999215,247.65612470000633,247.15570239999215,247.65612470000633,247.15570239999215,247.65612470000633,247.15570239999215,247.65612470000633,247.15570239999215,247.65612470000633,247.15570239999215,247.65612470000633,247.15570239999215,247.65612470000633,247.15570239999215,247.65612470000633,245.48680459999014,None,247.65612470000633,247.7395370999875,1.6900000000000013,247.7561693000025,None,248.5080808000057,None,,,,,,,[0.07344828],2.0200000000000014,0.8275862068965517,11034,002,2024_Jan_16_1303,MFTM_A_new1021,2021.2.3,59.93076796945095,
,,,,,,,,stim/Instruction_adaptive.png,conditions/adaptive.xlsx,test,-0.6,-0.6,-0.6,0.6,0.6,left,L,,,,,0,1,1,1,0,29,29,63,,,,,,,,,,,,,,,,,,,,,,,,,,,,,,,,,,,,,,,,,,,,249.00859990000026,None,left,1,1.3781773000082467,249.50972900001216,251.64621599999373,249.50972900001216,251.14464990000124,249.50972900001216,251.14464990000124,249.50972900001216,251.14464990000124,249.50972900001216,251.14464990000124,249.50972900001216,251.14464990000124,251.11138640000718,251.61196040001232,251.11138640000718,251.61196040001232,251.11138640000718,251.61196040001232,251.11138640000718,251.61196040001232,251.11138640000718,251.61196040001232,251.11138640000718,251.61196040001232,251.11138640000718,251.61196040001232,251.11138640000718,251.61196040001232,249.50972900001216,None,251.61196040001232,251.71267080001417,1.6200000000000012,251.72885000001406,None,252.48043570001028,None,,,,,,,[0.10033333],2.070000000000001,0.8333333333333334,11034,002,2024_Jan_16_1303,MFTM_A_new1021,2021.2.3,59.93076796945095,
,,,,,,,,stim/Instruction_adaptive.png,conditions/adaptive.xlsx,test,-0.6,-0.6,-0.6,0.6,0.6,left,L,,,,,0,1,1,1,0,30,30,97,,,,,,,,,,,,,,,,,,,,,,,,,,,,,,,,,,,,,,,,,,,,252.9816770000034,None,left,1,1.0061838999972679,253.48224499999196,255.55170899999212,253.48224499999196,255.0684881999914,253.48224499999196,255.0684881999914,253.48224499999196,255.0684881999914,253.48224499999196,255.0684881999914,253.48224499999196,255.0684881999914,255.0340308000159,255.53479520001565,255.0340308000159,255.53479520001565,255.0340308000159,255.53479520001565,255.0340308000159,255.53479520001565,255.0340308000159,255.53479520001565,255.0340308000159,255.53479520001565,255.0340308000159,255.53479520001565,255.0340308000159,255.53479520001565,253.48224499999196,None,255.53479520001565,255.66798050000216,1.5700000000000012,255.6856526999909,None,256.43602490000194,None,,,,,,,[0.12709677],2.110000000000001,0.8387096774193549,11034,002,2024_Jan_16_1303,MFTM_A_new1021,2021.2.3,59.93076796945095,
,,,,,,,,stim/Instruction_adaptive.png,conditions/adaptive.xlsx,test,0.6,0.6,0.6,-0.6,-0.6,right,R,,,,,0,1,1,1,0,31,31,86,,,,,,,,,,,,,,,,,,,,,,,,,,,,,,,,,,,,,,,,,,,,256.9373217000102,None,right,1,1.427046099997824,257.437548899994,259.4572015000158,257.437548899994,258.9572263000009,257.437548899994,258.9572263000009,257.437548899994,258.9572263000009,257.437548899994,258.9572263000009,257.437548899994,258.9572263000009,258.9406828999927,259.4414688000106,258.9406828999927,259.4414688000106,258.9406828999927,259.4414688000106,258.9406828999927,259.4414688000106,258.9406828999927,259.4414688000106,258.9406828999927,259.4414688000106,258.9406828999927,259.4414688000106,258.9406828999927,259.4414688000106,257.437548899994,None,259.4414688000106,259.6078567999939,1.5200000000000011,259.6240295000025,None,260.3752941999992,None,,,,,,,[0.15375],2.1600000000000015,0.84375,11034,002,2024_Jan_16_1303,MFTM_A_new1021,2021.2.3,59.93076796945095,
,,,,,,,,stim/Instruction_adaptive.png,conditions/adaptive.xlsx,test,-0.6,-0.6,-0.6,0.6,0.6,left,L,,,,,0,1,1,1,0,32,32,95,,,,,,,,,,,,,,,,,,,,,,,,,,,,,,,,,,,,,,,,,,,,260.87616459999117,None,left,1,1.0639015999913681,261.3768124000053,263.34675520000746,261.3768124000053,262.8623121000128,261.3768124000053,262.8623121000128,261.3768124000053,262.8623121000128,261.3768124000053,262.8623121000128,261.3768124000053,262.8623121000128,262.8288678000099,263.3305343000102,262.8288678000099,263.3305343000102,262.8288678000099,263.3305343000102,262.8288678000099,263.3305343000102,262.8288678000099,263.3305343000102,262.8288678000099,263.3305343000102,262.8288678000099,263.3305343000102,262.8288678000099,263.3305343000102,261.3768124000053,None,263.3305343000102,263.5139426999958,1.470000000000001,263.5304790000082,None,264.281143900007,None,,,,,,,[0.18030303],2.2000000000000015,0.8484848484848485,11034,002,2024_Jan_16_1303,MFTM_A_new1021,2021.2.3,59.93076796945095,
,,,,,,,,stim/Instruction_adaptive.png,conditions/adaptive.xlsx,test,-0.6,-0.6,-0.6,0.6,0.6,left,L,,,,,0,1,1,1,0,33,33,27,,,,,,,,,,,,,,,,,,,,,,,,,,,,,,,,,,,,,,,,,,,,264.7819701000117,None,left,1,1.0460061999910977,265.28262400001404,267.2187455999956,265.28262400001404,266.71834699998726,265.28262400001404,266.71834699998726,265.28262400001404,266.71834699998726,265.28262400001404,266.71834699998726,265.28262400001404,266.71834699998726,266.70264780000434,267.20210260001477,266.70264780000434,267.20210260001477,266.70264780000434,267.20210260001477,266.70264780000434,267.20210260001477,266.70264780000434,267.20210260001477,266.70264780000434,267.20210260001477,266.70264780000434,267.20210260001477,266.70264780000434,267.20210260001477,265.28262400001404,None,267.20210260001477,None,1.430000000000001,267.4192441999912,None,268.1705345000082,None,,,,,,,[0.20647059],2.2400000000000015,0.8529411764705882,11034,002,2024_Jan_16_1303,MFTM_A_new1021,2021.2.3,59.93076796945095,
,,,,,,,,stim/Instruction_adaptive.png,conditions/adaptive.xlsx,test,-0.6,-0.6,-0.6,0.6,0.6,left,L,,,,,0,1,1,1,0,34,34,1,,,,,,,,,,,,,,,,,,,,,,,,,,,,,,,,,,,,,,,,,,,,268.67120609999984,None,left,1,1.043849500012584,269.1727006000001,271.07554250000976,269.1727006000001,270.5740969000035,269.1727006000001,270.5740969000035,269.1727006000001,270.5740969000035,269.1727006000001,270.5740969000035,269.1727006000001,270.5740969000035,270.5405558999919,271.0422319000063,270.5405558999919,271.0422319000063,270.5405558999919,271.0422319000063,270.5405558999919,271.0422319000063,270.5405558999919,271.0422319000063,270.5405558999919,271.0422319000063,270.5405558999919,271.0422319000063,270.5405558999919,271.0422319000063,269.1727006000001,None,271.0422319000063,271.27627870001015,1.390000000000001,271.3091290000011,None,272.059551000013,None,,,,,,,[0.23228571],2.2800000000000016,0.8571428571428571,11034,002,2024_Jan_16_1303,MFTM_A_new1021,2021.2.3,59.93076796945095,
,,,,,,,,stim/Instruction_adaptive.png,conditions/adaptive.xlsx,test,0.6,0.6,0.6,-0.6,-0.6,right,R,,,,,0,1,1,1,0,35,35,72,,,,,,,,,,,,,,,,,,,,,,,,,,,,,,,,,,,,,,,,,,,,272.5603996000136,None,right,1,1.4116509000014048,273.0611631000065,274.9139920999878,273.0611631000065,274.4130976999877,273.0611631000065,274.4130976999877,273.0611631000065,274.4130976999877,273.0611631000065,274.4130976999877,273.0611631000065,274.4130976999877,274.39641879999544,274.8973449000041,274.39641879999544,274.8973449000041,274.39641879999544,274.8973449000041,274.39641879999544,274.8973449000041,274.39641879999544,274.8973449000041,274.39641879999544,274.8973449000041,274.39641879999544,274.8973449000041,274.39641879999544,274.8973449000041,273.0611631000065,None,274.8973449000041,275.16609829998924,1.350000000000001,275.18086150000454,None,275.93206200000714,None,,,,,,,[0.25777778],2.3200000000000016,0.8611111111111112,11034,002,2024_Jan_16_1303,MFTM_A_new1021,2021.2.3,59.93076796945095,
,,,,,,,,stim/Instruction_adaptive.png,conditions/adaptive.xlsx,test,-0.6,-0.6,-0.6,0.6,0.6,left,L,,,,,0,1,1,1,0,36,36,71,,,,,,,,,,,,,,,,,,,,,,,,,,,,,,,,,,,,,,,,,,,,276.4329756000079,None,right,0,1.3940895000123419,276.9343338999897,278.7692963000154,276.9343338999897,278.2691163000127,276.9343338999897,278.2691163000127,276.9343338999897,278.2691163000127,276.9343338999897,278.2691163000127,276.9343338999897,278.2691163000127,278.2353335999942,278.73622739998973,278.2353335999942,278.73622739998973,278.2353335999942,278.73622739998973,278.2353335999942,278.73622739998973,278.2353335999942,278.73622739998973,278.2353335999942,278.73622739998973,278.2353335999942,278.73622739998973,278.2353335999942,278.73622739998973,276.9343338999897,None,278.73622739998973,279.0200285000028,1.320000000000001,279.0367242000066,None,279.7880026999919,None,,,,,,,[0.2827027],2.2100000000000017,0.8378378378378378,11034,002,2024_Jan_16_1303,MFTM_A_new1021,2021.2.3,59.93076796945095,
,,,,,,,,stim/Instruction_adaptive.png,conditions/adaptive.xlsx,test,0.6,0.6,0.6,-0.6,-0.6,right,R,,,,,0,1,1,1,0,37,37,50,,,,,,,,,,,,,,,,,,,,,,,,,,,,,,,,,,,,,,,,,,,,280.2886310000031,None,right,1,1.3797533999895677,280.789100199996,282.70895940001355,280.789100199996,282.2082667000068,280.789100199996,282.2082667000068,280.789100199996,282.2082667000068,280.789100199996,282.2082667000068,280.789100199996,282.2082667000068,282.1916300000157,282.6922157999943,282.1916300000157,282.6922157999943,282.1916300000157,282.6922157999943,282.1916300000157,282.6922157999943,282.1916300000157,282.6922157999943,282.1916300000157,282.6922157999943,282.1916300000157,282.6922157999943,282.1916300000157,282.6922157999943,280.789100199996,None,282.6922157999943,283.00960019999184,1.420000000000001,283.02609780000057,None,283.7773595000035,None,,,,,,,[0.30368421],2.2500000000000018,0.8421052631578947,11034,002,2024_Jan_16_1303,MFTM_A_new1021,2021.2.3,59.93076796945095,
,,,,,,,,stim/Instruction_adaptive.png,conditions/adaptive.xlsx,test,0.6,0.6,0.6,-0.6,-0.6,right,R,,,,,0,1,1,1,0,38,38,44,,,,,,,,,,,,,,,,,,,,,,,,,,,,,,,,,,,,,,,,,,,,284.27843179999036,None,right,1,1.0935559999779798,284.7792493000161,286.66471539999475,284.7792493000161,286.16416409998783,284.7792493000161,286.16416409998783,284.7792493000161,286.16416409998783,284.7792493000161,286.16416409998783,284.7792493000161,286.16416409998783,286.14756620000117,286.64816340000834,286.14756620000117,286.64816340000834,286.14756620000117,286.64816340000834,286.14756620000117,286.64816340000834,286.14756620000117,286.64816340000834,286.14756620000117,286.64816340000834,286.14756620000117,286.64816340000834,286.14756620000117,286.64816340000834,284.7792493000161,None,286.64816340000834,286.98196380000445,1.380000000000001,286.99879700000747,None,287.74981899998966,None,,,,,,,[0.32461538],2.290000000000002,0.8461538461538461,11034,002,2024_Jan_16_1303,MFTM_A_new1021,2021.2.3,59.93076796945095,
,,,,,,,,stim/Instruction_adaptive.png,conditions/adaptive.xlsx,test,-0.6,-0.6,-0.6,0.6,0.6,left,L,,,,,0,1,1,1,0,39,39,67,,,,,,,,,,,,,,,,,,,,,,,,,,,,,,,,,,,,,,,,,,,,288.25074779998977,None,left,1,1.3776403999945614,288.75125960001606,290.6042553000152,288.75125960001606,290.1036730000051,288.75125960001606,290.1036730000051,288.75125960001606,290.1036730000051,288.75125960001606,290.1036730000051,288.75125960001606,290.1036730000051,290.08683509999537,290.5875325000088,290.08683509999537,290.5875325000088,290.08683509999537,290.5875325000088,290.08683509999537,290.5875325000088,290.08683509999537,290.5875325000088,290.08683509999537,290.5875325000088,290.08683509999537,290.5875325000088,290.08683509999537,290.5875325000088,288.75125960001606,None,290.5875325000088,290.93802040000446,1.350000000000001,290.95472350000637,None,291.70591779999086,None,,,,,,,[0.34525],2.3200000000000016,0.85,11034,002,2024_Jan_16_1303,MFTM_A_new1021,2021.2.3,59.93076796945095,
,,,,,,,,stim/Instruction_adaptive.png,conditions/adaptive.xlsx,test,0.6,0.6,0.6,-0.6,-0.6,right,R,,,,,0,1,1,1,0,40,40,66,,,,,,,,,,,,,,,,,,,,,,,,,,,,,,,,,,,,,,,,,,,,292.20663970001624,None,right,1,0.7578988000168465,292.70733850001125,294.5267534000159,292.70733850001125,294.04262709998875,292.70733850001125,294.04262709998875,292.70733850001125,294.04262709998875,292.70733850001125,294.04262709998875,292.70733850001125,294.04262709998875,294.009301699989,294.51016010000603,294.009301699989,294.51016010000603,294.009301699989,294.51016010000603,294.009301699989,294.51016010000603,294.009301699989,294.51016010000603,294.009301699989,294.51016010000603,294.009301699989,294.51016010000603,294.009301699989,294.51016010000603,292.70733850001125,None,294.51016010000603,294.8775267000019,1.320000000000001,294.89402199999313,None,295.6450107000128,None,,,,,,,[0.36560976],2.3600000000000017,0.8536585365853658,11034,002,2024_Jan_16_1303,MFTM_A_new1021,2021.2.3,59.93076796945095,
,,,,,,,,stim/Instruction_adaptive.png,conditions/adaptive.xlsx,test,-0.6,-0.6,-0.6,0.6,0.6,left,L,,,,,0,1,1,1,0,41,41,73,,,,,,,,,,,,,,,,,,,,,,,,,,,,,,,,,,,,,,,,,,,,296.14608870001393,None,right,0,0.6748500000103377,296.64670109999133,298.43361999999615,296.64670109999133,297.9323593000008,296.64670109999133,297.9323593000008,296.64670109999133,297.9323593000008,296.64670109999133,297.9323593000008,296.64670109999133,297.9323593000008,297.9154744000116,298.41625889998977,297.9154744000116,298.41625889998977,297.9154744000116,298.41625889998977,297.9154744000116,298.41625889998977,297.9154744000116,298.41625889998977,297.9154744000116,298.41625889998977,297.9154744000116,298.41625889998977,297.9154744000116,298.41625889998977,296.64670109999133,None,298.41625889998977,None,1.280000000000001,298.8164013999922,None,299.5679388999997,None,,,,,,,[0.38595238],2.2600000000000016,0.8333333333333334,11034,002,2024_Jan_16_1303,MFTM_A_new1021,2021.2.3,59.93076796945095,
,,,,,,,,stim/Instruction_adaptive.png,conditions/adaptive.xlsx,test,0.6,0.6,0.6,-0.6,-0.6,right,R,,,,,0,1,1,1,0,42,42,42,,,,,,,,,,,,,,,,,,,,,,,,,,,,,,,,,,,,,,,,,,,,300.0682855999912,None,left,0,0.968302199995378,300.56949610001175,302.43955519999145,300.56949610001175,301.95474499999546,300.56949610001175,301.95474499999546,300.56949610001175,301.95474499999546,300.56949610001175,301.95474499999546,300.56949610001175,301.95474499999546,301.9214215000102,302.4220985000138,301.9214215000102,302.4220985000138,301.9214215000102,302.4220985000138,301.9214215000102,302.4220985000138,301.9214215000102,302.4220985000138,301.9214215000102,302.4220985000138,301.9214215000102,302.4220985000138,301.9214215000102,302.4220985000138,300.56949610001175,None,302.4220985000138,302.83937709999736,1.370000000000001,302.8561533000029,None,303.60733170001185,None,,,,,,,[0.40325581],2.1500000000000012,0.813953488372093,11034,002,2024_Jan_16_1303,MFTM_A_new1021,2021.2.3,59.93076796945095,
,,,,,,,,stim/Instruction_adaptive.png,conditions/adaptive.xlsx,test,-0.6,-0.6,-0.6,0.6,0.6,left,L,,,,,0,1,1,1,0,43,43,59,,,,,,,,,,,,,,,,,,,,,,,,,,,,,,,,,,,,,,,,,,,,304.1088347999903,None,right,0,0.7762990000192076,304.6092966000142,306.5957638999971,304.6092966000142,306.0943896000099,304.6092966000142,306.0943896000099,304.6092966000142,306.0943896000099,304.6092966000142,306.0943896000099,304.6092966000142,306.0943896000099,306.0779368999938,306.5791420000023,306.0779368999938,306.5791420000023,306.0779368999938,306.5791420000023,306.0779368999938,306.5791420000023,306.0779368999938,306.5791420000023,306.0779368999938,306.5791420000023,306.0779368999938,306.5791420000023,306.0779368999938,306.5791420000023,304.6092966000142,None,306.5791420000023,306.9958112000022,1.480000000000001,307.01228110000375,None,307.764590900013,None,,,,,,,[0.41727273],2.0500000000000016,0.7954545454545454,11034,002,2024_Jan_16_1303,MFTM_A_new1021,2021.2.3,59.93076796945095,
,,,,,,,,stim/Instruction_adaptive.png,conditions/adaptive.xlsx,test,-0.6,-0.6,-0.6,0.6,0.6,left,L,,,,,0,1,1,1,0,44,44,77,,,,,,,,,,,,,,,,,,,,,,,,,,,,,,,,,,,,,,,,,,,,308.2643277999887,None,right,0,1.2691597000230104,308.76495109999087,310.8687484000111,308.76495109999087,310.36753690001206,308.76495109999087,310.36753690001206,308.76495109999087,310.36753690001206,308.76495109999087,310.36753690001206,308.76495109999087,310.36753690001206,310.3340018999879,310.8351199000026,310.3340018999879,310.8351199000026,310.3340018999879,310.8351199000026,310.3340018999879,310.8351199000026,310.3340018999879,310.8351199000026,310.3340018999879,310.8351199000026,310.3340018999879,310.8351199000026,310.3340018999879,310.8351199000026,308.76495109999087,None,310.8351199000026,311.27111609998974,1.5900000000000012,311.2851927000156,None,312.03648810001323,None,,,,,,,[0.42822222],1.9300000000000013,0.7777777777777778,11034,002,2024_Jan_16_1303,MFTM_A_new1021,2021.2.3,59.93076796945095,
,,,,,,,,stim/Instruction_adaptive.png,conditions/adaptive.xlsx,test,0.6,0.6,0.6,-0.6,-0.6,right,R,,,,,0,1,1,1,0,45,45,8,,,,,,,,,,,,,,,,,,,,,,,,,,,,,,,,,,,,,,,,,,,,312.53726859999006,None,right,1,1.8039127000083681,313.0381878000044,315.2755723000155,313.0381878000044,314.77427620001254,313.0381878000044,314.77427620001254,313.0381878000044,314.77427620001254,313.0381878000044,314.77427620001254,313.0381878000044,314.77427620001254,314.75725510000484,315.25878309999825,314.75725510000484,315.25878309999825,314.75725510000484,315.25878309999825,314.75725510000484,315.25878309999825,314.75725510000484,315.25878309999825,314.75725510000484,315.25878309999825,314.75725510000484,315.25878309999825,314.75725510000484,315.25878309999825,313.0381878000044,None,315.25878309999825,None,1.7300000000000013,315.7088184999884,None,316.460685500002,None,,,,,,,[0.43565217],1.9700000000000013,0.782608695652174,11034,002,2024_Jan_16_1303,MFTM_A_new1021,2021.2.3,59.93076796945095,
,,,,,,,,stim/Instruction_adaptive.png,conditions/adaptive.xlsx,test,-0.6,-0.6,-0.6,0.6,0.6,left,L,,,,,0,1,1,1,0,46,46,65,,,,,,,,,,,,,,,,,,,,,,,,,,,,,,,,,,,,,,,,,,,,316.9609855999879,None,left,1,1.979829299991252,317.4621848000097,319.6488013000053,317.4621848000097,319.14746770000784,317.4621848000097,319.14746770000784,317.4621848000097,319.14746770000784,317.4621848000097,319.14746770000784,317.4621848000097,319.14746770000784,319.1304039999959,319.6323360000097,319.1304039999959,319.6323360000097,319.1304039999959,319.6323360000097,319.1304039999959,319.6323360000097,319.1304039999959,319.6323360000097,319.1304039999959,319.6323360000097,319.1304039999959,319.6323360000097,319.1304039999959,319.6323360000097,317.4621848000097,None,319.6323360000097,320.083329599991,1.6800000000000013,320.09870400000364,None,320.85001719999127,None,,,,,,,[0.44382979],2.0100000000000016,0.7872340425531915,11034,002,2024_Jan_16_1303,MFTM_A_new1021,2021.2.3,59.93076796945095,
,,,,,,,,stim/Instruction_adaptive.png,conditions/adaptive.xlsx,test,-0.6,-0.6,-0.6,0.6,0.6,left,L,,,,,0,1,1,1,0,47,47,57,,,,,,,,,,,,,,,,,,,,,,,,,,,,,,,,,,,,,,,,,,,,321.3508398999984,None,left,1,1.550495300005423,321.8515267999901,323.98797809999087,321.8515267999901,323.48806559998775,321.8515267999901,323.48806559998775,321.8515267999901,323.48806559998775,321.8515267999901,323.48806559998775,321.8515267999901,323.48806559998775,323.4712145999947,323.9713936999906,323.4712145999947,323.9713936999906,323.4712145999947,323.9713936999906,323.4712145999947,323.9713936999906,323.4712145999947,323.9713936999906,323.4712145999947,323.9713936999906,323.4712145999947,323.9713936999906,323.4712145999947,323.9713936999906,321.8515267999901,None,323.9713936999906,None,1.6300000000000012,324.4402185000072,None,325.1911318000057,None,,,,,,,[0.45270833],2.0500000000000016,0.7916666666666666,11034,002,2024_Jan_16_1303,MFTM_A_new1021,2021.2.3,59.93076796945095,
,,,,,,,,stim/Instruction_adaptive.png,conditions/adaptive.xlsx,test,-0.6,-0.6,-0.6,0.6,0.6,left,L,,,,,0,1,1,1,0,48,48,55,,,,,,,,,,,,,,,,,,,,,,,,,,,,,,,,,,,,,,,,,,,,325.6909317999962,None,right,0,1.1070126999984495,326.1913499000075,328.2943617000128,326.1913499000075,327.79437920000055,326.1913499000075,327.79437920000055,326.1913499000075,327.79437920000055,326.1913499000075,327.79437920000055,326.1913499000075,327.79437920000055,327.7604701000091,328.26119059999473,327.7604701000091,328.26119059999473,327.7604701000091,328.26119059999473,327.7604701000091,328.26119059999473,327.7604701000091,328.26119059999473,327.7604701000091,328.26119059999473,327.7604701000091,328.26119059999473,327.7604701000091,328.26119059999473,326.1913499000075,None,328.26119059999473,328.728958599997,1.5900000000000012,328.74474439999904,None,329.496730200015,None,,,,,,,[0.46204082],1.9400000000000013,0.7755102040816326,11034,002,2024_Jan_16_1303,MFTM_A_new1021,2021.2.3,59.93076796945095,
,,,,,,,,stim/Instruction_adaptive.png,conditions/adaptive.xlsx,test,0.6,0.6,0.6,-0.6,-0.6,right,R,,,,,0,1,1,1,0,49,49,22,,,,,,,,,,,,,,,,,,,,,,,,,,,,,,,,,,,,,,,,,,,,329.9972823999997,None,right,1,1.3363121000002138,330.49772980000125,332.71760420000646,330.49772980000125,332.2175028999918,330.49772980000125,332.2175028999918,330.49772980000125,332.2175028999918,330.49772980000125,332.2175028999918,330.49772980000125,332.2175028999918,332.18446530000074,332.684299799992,332.18446530000074,332.684299799992,332.18446530000074,332.684299799992,332.18446530000074,332.684299799992,332.18446530000074,332.684299799992,332.18446530000074,332.684299799992,332.18446530000074,332.684299799992,332.18446530000074,332.684299799992,330.49772980000125,None,332.684299799992,333.1688692999887,1.7100000000000013,333.184565500007,None,333.9363588000124,None,,,,,,,[0.4686],1.9800000000000013,0.78,11034,002,2024_Jan_16_1303,MFTM_A_new1021,2021.2.3,59.93076796945095,
,,,,,,,,stim/Instruction_adaptive.png,conditions/adaptive.xlsx,test,0.6,0.6,0.6,-0.6,-0.6,right,R,,,,,0,1,1,1,0,50,50,90,,,,,,,,,,,,,,,,,,,,,,,,,,,,,,,,,,,,,,,,,,,,334.437748700002,None,left,0,2.5847811000130605,334.9380513000069,337.1077870000154,334.9380513000069,336.624037600006,334.9380513000069,336.624037600006,334.9380513000069,336.624037600006,334.9380513000069,336.624037600006,334.9380513000069,336.624037600006,336.5902204000158,337.0913309000025,336.5902204000158,337.0913309000025,336.5902204000158,337.0913309000025,336.5902204000158,337.0913309000025,336.5902204000158,337.0913309000025,336.5902204000158,337.0913309000025,336.5902204000158,337.0913309000025,336.5902204000158,337.0913309000025,334.9380513000069,None,337.0913309000025,337.5754479999887,1.6700000000000013,337.59178950000205,None,338.34352270001546,None,,,,,,,[0.47568627],1.8700000000000012,0.7647058823529411,11034,002,2024_Jan_16_1303,MFTM_A_new1021,2021.2.3,59.93076796945095,
,,,,,,,,stim/Instruction_adaptive.png,conditions/adaptive.xlsx,test,0.6,0.6,0.6,-0.6,-0.6,right,R,,,,,0,1,1,1,0,51,51,30,,,,,,,,,,,,,,,,,,,,,,,,,,,,,,,,,,,,,,,,,,,,338.84400879999157,None,right,1,0.7611140999943018,339.345475500013,341.64876440001535,339.345475500013,341.1471933000139,339.345475500013,341.1471933000139,339.345475500013,341.1471933000139,339.345475500013,341.1471933000139,339.345475500013,341.1471933000139,341.13035369999125,341.6319686000061,341.13035369999125,341.6319686000061,341.13035369999125,341.6319686000061,341.13035369999125,341.6319686000061,341.13035369999125,341.6319686000061,341.13035369999125,341.6319686000061,341.13035369999125,341.6319686000061,341.13035369999125,341.6319686000061,339.345475500013,None,341.6319686000061,342.1152127000096,1.8000000000000014,342.13192000001436,None,342.8835506000032,None,,,,,,,[0.48],1.9100000000000013,0.7692307692307693,11034,002,2024_Jan_16_1303,MFTM_A_new1021,2021.2.3,59.93076796945095,
,,,,,,,,stim/Instruction_adaptive.png,conditions/adaptive.xlsx,test,0.6,0.6,0.6,-0.6,-0.6,right,R,,,,,0,1,1,1,0,52,52,88,,,,,,,,,,,,,,,,,,,,,,,,,,,,,,,,,,,,,,,,,,,,343.38549740001326,None,right,1,2.03001280000899,343.8846498999919,346.1379228000005,343.8846498999919,345.6373081000056,343.8846498999919,345.6373081000056,343.8846498999919,345.6373081000056,343.8846498999919,345.6373081000056,343.8846498999919,345.6373081000056,345.6207626000105,346.12136399999144,345.6207626000105,346.12136399999144,345.6207626000105,346.12136399999144,345.6207626000105,346.12136399999144,345.6207626000105,346.12136399999144,345.6207626000105,346.12136399999144,345.6207626000105,346.12136399999144,345.6207626000105,346.12136399999144,343.8846498999919,None,346.12136399999144,346.60570970000117,1.7500000000000013,346.62214690001565,None,347.37318160000723,None,,,,,,,[0.48509434],1.9400000000000013,0.7735849056603774,11034,002,2024_Jan_16_1303,MFTM_A_new1021,2021.2.3,59.93076796945095,
,,,,,,,,stim/Instruction_adaptive.png,conditions/adaptive.xlsx,test,0.6,0.6,0.6,-0.6,-0.6,right,R,,,,,0,1,1,1,0,53,53,62,,,,,,,,,,,,,,,,,,,,,,,,,,,,,,,,,,,,,,,,,,,,347.8748101000092,None,right,1,1.7473917000170331,348.37583549998817,350.595398400008,348.37583549998817,350.09411080001155,348.37583549998817,350.09411080001155,348.37583549998817,350.09411080001155,348.37583549998817,350.09411080001155,348.37583549998817,350.09411080001155,350.0615417000081,350.5623195999942,350.0615417000081,350.5623195999942,350.0615417000081,350.5623195999942,350.0615417000081,350.5623195999942,350.0615417000081,350.5623195999942,350.0615417000081,350.5623195999942,350.0615417000081,350.5623195999942,350.0615417000081,350.5623195999942,348.37583549998817,None,350.5623195999942,351.06213040000875,1.7100000000000013,351.07868760000565,None,351.8300476000004,None,,,,,,,[0.49074074],1.9800000000000013,0.7777777777777778,11034,002,2024_Jan_16_1303,MFTM_A_new1021,2021.2.3,59.93076796945095,
,,,,,,,,stim/Instruction_adaptive.png,conditions/adaptive.xlsx,test,-0.6,-0.6,-0.6,0.6,0.6,left,L,,,,,0,1,1,1,0,54,54,69,,,,,,,,,,,,,,,,,,,,,,,,,,,,,,,,,,,,,,,,,,,,352.3305939999991,None,left,1,0.8834867999830749,352.83154290000675,355.00206220001564,352.83154290000675,354.50081689999206,352.83154290000675,354.50081689999206,352.83154290000675,354.50081689999206,352.83154290000675,354.50081689999206,352.83154290000675,354.50081689999206,354.48409340000944,354.98527239999385,354.48409340000944,354.98527239999385,354.48409340000944,354.98527239999385,354.48409340000944,354.98527239999385,354.48409340000944,354.98527239999385,354.48409340000944,354.98527239999385,354.48409340000944,354.98527239999385,354.48409340000944,354.98527239999385,352.83154290000675,None,354.98527239999385,355.48764700000174,1.6700000000000013,355.50212889999966,None,356.25332499999786,None,,,,,,,[0.49690909],2.0100000000000016,0.7818181818181819,11034,002,2024_Jan_16_1303,MFTM_A_new1021,2021.2.3,59.93076796945095,
,,,,,,,,stim/Instruction_adaptive.png,conditions/adaptive.xlsx,test,-0.6,-0.6,-0.6,0.6,0.6,left,L,,,,,0,1,1,1,0,55,55,15,,,,,,,,,,,,,,,,,,,,,,,,,,,,,,,,,,,,,,,,,,,,356.754974600015,None,left,1,1.6921406000037678,357.254866400006,359.39148439999553,357.254866400006,358.89082900001085,357.254866400006,358.89082900001085,357.254866400006,358.89082900001085,357.254866400006,358.89082900001085,357.254866400006,358.89082900001085,358.8739831999992,359.37582210000255,358.8739831999992,359.37582210000255,358.8739831999992,359.37582210000255,358.8739831999992,359.37582210000255,358.8739831999992,359.37582210000255,358.8739831999992,359.37582210000255,358.8739831999992,359.37582210000255,358.8739831999992,359.37582210000255,357.254866400006,None,359.37582210000255,None,1.6300000000000012,359.8922997000045,None,360.6434056000144,None,,,,,,,[0.50357143],2.0400000000000014,0.7857142857142857,11034,002,2024_Jan_16_1303,MFTM_A_new1021,2021.2.3,59.93076796945095,
,,,,,,,,stim/Instruction_adaptive.png,conditions/adaptive.xlsx,test,-0.6,-0.6,-0.6,0.6,0.6,left,L,,,,,0,1,1,1,0,56,56,91,,,,,,,,,,,,,,,,,,,,,,,,,,,,,,,,,,,,,,,,,,,,361.1440614000021,None,left,1,1.1583324999955948,361.6448722000059,363.7480007999984,361.6448722000059,363.247202700004,361.6448722000059,363.247202700004,361.6448722000059,363.247202700004,361.6448722000059,363.247202700004,361.6448722000059,363.247202700004,363.2305282000161,363.731199700007,363.2305282000161,363.731199700007,363.2305282000161,363.731199700007,363.2305282000161,363.731199700007,363.2305282000161,363.731199700007,363.2305282000161,363.731199700007,363.2305282000161,363.731199700007,363.2305282000161,363.731199700007,361.6448722000059,None,363.731199700007,364.24859830000787,1.6000000000000012,364.26535239999066,None,365.01697749999585,None,,,,,,,[0.51052632],2.070000000000001,0.7894736842105263,11034,002,2024_Jan_16_1303,MFTM_A_new1021,2021.2.3,59.93076796945095,
,,,,,,,,stim/Instruction_adaptive.png,conditions/adaptive.xlsx,test,-0.6,-0.6,-0.6,0.6,0.6,left,L,,,,,0,1,1,1,0,57,57,49,,,,,,,,,,,,,,,,,,,,,,,,,,,,,,,,,,,,,,,,,,,,365.5175964999944,None,left,1,1.0734774000011384,366.0180875000078,368.08904099999927,366.0180875000078,367.58722119999584,366.0180875000078,367.58722119999584,366.0180875000078,367.58722119999584,366.0180875000078,367.58722119999584,366.0180875000078,367.58722119999584,367.5718441999925,368.07126140000764,367.5718441999925,368.07126140000764,367.5718441999925,368.07126140000764,367.5718441999925,368.07126140000764,367.5718441999925,368.07126140000764,367.5718441999925,368.07126140000764,367.5718441999925,368.07126140000764,367.5718441999925,368.07126140000764,366.0180875000078,None,368.07126140000764,368.58857640001224,1.5700000000000012,368.60568149999017,None,369.3567852000124,None,,,,,,,[0.51775862],2.1000000000000014,0.7931034482758621,11034,002,2024_Jan_16_1303,MFTM_A_new1021,2021.2.3,59.93076796945095,
,,,,,,,,stim/Instruction_adaptive.png,conditions/adaptive.xlsx,test,0.6,0.6,0.6,-0.6,-0.6,right,R,,,,,0,1,1,1,0,58,58,82,,,,,,,,,,,,,,,,,,,,,,,,,,,,,,,,,,,,,,,,,,,,369.8572264999966,None,left,0,1.2208953000081237,370.3582371000084,372.39439010000206,370.3582371000084,371.8942667999945,370.3582371000084,371.8942667999945,370.3582371000084,371.8942667999945,370.3582371000084,371.8942667999945,370.3582371000084,371.8942667999945,371.87702310000896,372.3778028000088,371.87702310000896,372.3778028000088,371.87702310000896,372.3778028000088,371.87702310000896,372.3778028000088,371.87702310000896,372.3778028000088,371.87702310000896,372.3778028000088,371.87702310000896,372.3778028000088,371.87702310000896,372.3778028000088,370.3582371000084,None,372.3778028000088,372.91177780000726,1.5300000000000011,372.92805970000336,None,373.6805345999892,None,,,,,,,[0.52542373],2.0200000000000014,0.7796610169491526,11034,002,2024_Jan_16_1303,MFTM_A_new1021,2021.2.3,59.93076796945095,
,,,,,,,,stim/Instruction_adaptive.png,conditions/adaptive.xlsx,test,-0.6,-0.6,-0.6,0.6,0.6,left,L,,,,,0,1,1,1,0,59,59,33,,,,,,,,,,,,,,,,,,,,,,,,,,,,,,,,,,,,,,,,,,,,374.18041279999306,None,right,0,1.2249844999751076,374.6826039000007,376.8177258000069,374.6826039000007,376.30033200001344,374.6826039000007,376.30033200001344,374.6826039000007,376.30033200001344,374.6826039000007,376.30033200001344,374.6826039000007,376.30033200001344,376.285134500009,376.78428829999757,376.285134500009,376.78428829999757,376.285134500009,376.78428829999757,376.285134500009,376.78428829999757,376.285134500009,376.78428829999757,376.285134500009,376.78428829999757,376.285134500009,376.78428829999757,376.285134500009,376.78428829999757,374.6826039000007,None,376.78428829999757,377.31873160001123,1.6200000000000012,377.3353097999934,None,378.08660800001235,None,,,,,,,[0.53133333],1.9300000000000013,0.7666666666666667,11034,002,2024_Jan_16_1303,MFTM_A_new1021,2021.2.3,59.93076796945095,
,,,,,,,,stim/Instruction_adaptive.png,conditions/adaptive.xlsx,test,-0.6,-0.6,-0.6,0.6,0.6,left,L,,,,,0,1,1,1,0,60,60,45,,,,,,,,,,,,,,,,,,,,,,,,,,,,,,,,,,,,,,,,,,,,378.58834069999284,None,left,1,1.5162751999741886,379.08785609999904,381.324446899991,379.08785609999904,380.82391229999484,379.08785609999904,380.82391229999484,379.08785609999904,380.82391229999484,379.08785609999904,380.82391229999484,379.08785609999904,380.82391229999484,380.807121299993,381.3088118000014,380.807121299993,381.3088118000014,380.807121299993,381.3088118000014,380.807121299993,381.3088118000014,380.807121299993,381.3088118000014,380.807121299993,381.3088118000014,380.807121299993,381.3088118000014,380.807121299993,381.3088118000014,379.08785609999904,None,381.3088118000014,None,1.7300000000000013,381.85851250000997,None,382.6096713000152,None,,,,,,,[0.5352459],1.9600000000000013,0.7704918032786885,11034,002,2024_Jan_16_1303,MFTM_A_new1021,2021.2.3,59.93076796945095,
,,,,,,,,stim/Instruction_adaptive.png,conditions/adaptive.xlsx,test,-0.6,-0.6,-0.6,0.6,0.6,left,L,,,,,0,1,1,1,0,61,61,29,,,,,,,,,,,,,,,,,,,,,,,,,,,,,,,,,,,,,,,,,,,,383.1106296000071,None,left,1,0.7847779000003356,383.61131070001284,385.81462429999374,383.61131070001284,385.31514769999194,383.61131070001284,385.31514769999194,383.61131070001284,385.31514769999194,383.61131070001284,385.31514769999194,383.61131070001284,385.31514769999194,385.2804937000037,385.7814994000073,385.2804937000037,385.7814994000073,385.2804937000037,385.7814994000073,385.2804937000037,385.7814994000073,385.2804937000037,385.7814994000073,385.2804937000037,385.7814994000073,385.2804937000037,385.7814994000073,385.2804937000037,385.7814994000073,383.61131070001284,None,385.7814994000073,386.3322504000098,1.6900000000000013,386.34880300000077,None,387.10029229999054,None,,,,,,,[0.53967742],1.9900000000000013,0.7741935483870968,11034,002,2024_Jan_16_1303,MFTM_A_new1021,2021.2.3,59.93076796945095,
,,,,,,,,stim/Instruction_adaptive.png,conditions/adaptive.xlsx,test,-0.6,-0.6,-0.6,0.6,0.6,left,L,,,,,0,1,1,1,0,62,62,81,,,,,,,,,,,,,,,,,,,,,,,,,,,,,,,,,,,,,,,,,,,,387.6008812999935,None,left,1,1.1809740999888163,388.1030197000073,390.2714721999946,388.1030197000073,389.7705289000005,388.1030197000073,389.7705289000005,388.1030197000073,389.7705289000005,388.1030197000073,389.7705289000005,388.1030197000073,389.7705289000005,389.73715000000084,390.2380847999884,389.73715000000084,390.2380847999884,389.73715000000084,390.2380847999884,389.73715000000084,390.2380847999884,389.73715000000084,390.2380847999884,389.73715000000084,390.2380847999884,389.73715000000084,390.2380847999884,389.73715000000084,390.2380847999884,388.1030197000073,None,390.2380847999884,390.78888899998856,1.6600000000000013,390.82257340001524,None,391.57335839999723,None,,,,,,,[0.54444444],2.0200000000000014,0.7777777777777778,11034,002,2024_Jan_16_1303,MFTM_A_new1021,2021.2.3,59.93076796945095,
,,,,,,,,stim/Instruction_adaptive.png,conditions/adaptive.xlsx,test,-0.6,-0.6,-0.6,0.6,0.6,left,L,,,,,0,1,1,1,0,63,63,93,,,,,,,,,,,,,,,,,,,,,,,,,,,,,,,,,,,,,,,,,,,,392.0741892000078,None,left,1,1.197280899999896,392.57486520000384,394.6953790000116,392.57486520000384,394.21071049998864,392.57486520000384,394.21071049998864,392.57486520000384,394.21071049998864,392.57486520000384,394.21071049998864,392.57486520000384,394.21071049998864,394.17713399999775,394.67810419999296,394.17713399999775,394.67810419999296,394.17713399999775,394.67810419999296,394.17713399999775,394.67810419999296,394.17713399999775,394.67810419999296,394.17713399999775,394.67810419999296,394.17713399999775,394.67810419999296,394.17713399999775,394.67810419999296,392.57486520000384,None,394.67810419999296,395.22887900000205,1.6200000000000012,395.2454202999943,None,395.9967431999976,None,,,,,,,[0.5496875],2.0400000000000014,0.78125,11034,002,2024_Jan_16_1303,MFTM_A_new1021,2021.2.3,59.93076796945095,
,,,,,,,,stim/Instruction_adaptive.png,conditions/adaptive.xlsx,test,0.6,0.6,0.6,-0.6,-0.6,right,R,,,,,0,1,1,1,0,64,64,74,,,,,,,,,,,,,,,,,,,,,,,,,,,,,,,,,,,,,,,,,,,,396.4972243999946,None,left,0,1.2378539999772329,396.9982764000015,399.102432100015,396.9982764000015,398.600643999991,396.9982764000015,398.600643999991,396.9982764000015,398.600643999991,396.9982764000015,398.600643999991,396.9982764000015,398.600643999991,398.58430449999287,399.0847165999876,398.58430449999287,399.0847165999876,398.58430449999287,399.0847165999876,398.58430449999287,399.0847165999876,398.58430449999287,399.0847165999876,398.58430449999287,399.0847165999876,398.58430449999287,399.0847165999876,398.58430449999287,399.0847165999876,396.9982764000015,None,399.0847165999876,399.65208619998884,1.6000000000000012,399.66863999998895,None,400.42011740000453,None,,,,,,,[0.55507692],1.9600000000000013,0.7692307692307693,11034,002,2024_Jan_16_1303,MFTM_A_new1021,2021.2.3,59.93076796945095,
,,,,,,,,stim/Instruction_adaptive.png,conditions/adaptive.xlsx,test,-0.6,-0.6,-0.6,0.6,0.6,left,L,,,,,0,1,1,1,0,65,65,51,,,,,,,,,,,,,,,,,,,,,,,,,,,,,,,,,,,,,,,,,,,,400.9213527000102,None,left,1,2.3823630000115372,401.4215500999999,403.6252730000124,401.4215500999999,403.1245346000069,401.4215500999999,403.1245346000069,401.4215500999999,403.1245346000069,401.4215500999999,403.1245346000069,401.4215500999999,403.1245346000069,403.0908504000108,403.5913625000103,403.0908504000108,403.5913625000103,403.0908504000108,403.5913625000103,403.0908504000108,403.5913625000103,403.0908504000108,403.5913625000103,403.0908504000108,403.5913625000103,403.0908504000108,403.5913625000103,403.0908504000108,403.5913625000103,401.4215500999999,None,403.5913625000103,404.1590417000116,1.6900000000000013,404.17575450000004,None,404.9278992000036,None,,,,,,,[0.55893939],1.9900000000000013,0.7727272727272727,11034,002,2024_Jan_16_1303,MFTM_A_new1021,2021.2.3,59.93076796945095,
,,,,,,,,stim/Instruction_adaptive.png,conditions/adaptive.xlsx,test,-0.6,-0.6,-0.6,0.6,0.6,left,L,,,,,0,1,1,1,0,66,66,17,,,,,,,,,,,,,,,,,,,,,,,,,,,,,,,,,,,,,,,,,,,,405.42776630001026,None,right,0,1.532039600017015,405.92860250000376,408.0982205999899,405.92860250000376,407.5976694000128,405.92860250000376,407.5976694000128,405.92860250000376,407.5976694000128,405.92860250000376,407.5976694000128,405.92860250000376,407.5976694000128,407.56416939999326,408.06493369999225,407.56416939999326,408.06493369999225,407.56416939999326,408.06493369999225,407.56416939999326,408.06493369999225,407.56416939999326,408.06493369999225,407.56416939999326,408.06493369999225,407.56416939999326,408.06493369999225,407.56416939999326,408.06493369999225,405.92860250000376,None,408.06493369999225,408.6321781000006,1.6600000000000013,408.6657445000019,None,409.41690579999704,None,,,,,,,[0.56313433],1.9100000000000013,0.7611940298507462,11034,002,2024_Jan_16_1303,MFTM_A_new1021,2021.2.3,59.93076796945095,
,,,,,,,,stim/Instruction_adaptive.png,conditions/adaptive.xlsx,test,-0.6,-0.6,-0.6,0.6,0.6,left,L,,,,,0,1,1,1,0,67,67,83,,,,,,,,,,,,,,,,,,,,,,,,,,,,,,,,,,,,,,,,,,,,409.91761800000677,None,left,1,0.9868828000035137,410.41864340001484,412.67172429998755,410.41864340001484,412.1714548000018,410.41864340001484,412.1714548000018,410.41864340001484,412.1714548000018,410.41864340001484,412.1714548000018,410.41864340001484,412.1714548000018,412.15507159999106,412.6550908999925,412.15507159999106,412.6550908999925,412.15507159999106,412.6550908999925,412.15507159999106,412.6550908999925,412.15507159999106,412.6550908999925,412.15507159999106,412.6550908999925,412.15507159999106,412.6550908999925,412.15507159999106,412.6550908999925,410.41864340001484,None,412.6550908999925,413.22390340000857,1.7500000000000013,413.23909449999337,None,413.99154210000415,None,,,,,,,[0.56588235],1.9400000000000013,0.7647058823529411,11034,002,2024_Jan_16_1303,MFTM_A_new1021,2021.2.3,59.93076796945095,
,,,,,,,,stim/Instruction_adaptive.png,conditions/adaptive.xlsx,test,-0.6,-0.6,-0.6,0.6,0.6,left,L,,,,,0,1,1,1,0,68,68,19,,,,,,,,,,,,,,,,,,,,,,,,,,,,,,,,,,,,,,,,,,,,414.49209680000786,None,left,1,1.052797600015765,414.9921195000061,417.21210969999083,414.9921195000061,416.71123799998895,414.9921195000061,416.71123799998895,414.9921195000061,416.71123799998895,414.9921195000061,416.71123799998895,414.9921195000061,416.71123799998895,416.6786151000124,417.1787580999953,416.6786151000124,417.1787580999953,416.6786151000124,417.1787580999953,416.6786151000124,417.1787580999953,416.6786151000124,417.1787580999953,416.6786151000124,417.1787580999953,416.6786151000124,417.1787580999953,416.6786151000124,417.1787580999953,414.9921195000061,None,417.1787580999953,417.76296359999105,1.7100000000000013,417.7796417000063,None,418.5307449999964,None,,,,,,,[0.56913043],1.9600000000000013,0.7681159420289855,11034,002,2024_Jan_16_1303,MFTM_A_new1021,2021.2.3,59.93076796945095,
,,,,,,,,stim/Instruction_adaptive.png,conditions/adaptive.xlsx,test,0.6,0.6,0.6,-0.6,-0.6,right,R,,,,,0,1,1,1,0,69,69,2,,,,,,,,,,,,,,,,,,,,,,,,,,,,,,,,,,,,,,,,,,,,419.03198339999653,None,right,1,1.9443169999867678,419.5324375999917,421.7362798000104,419.5324375999917,421.23488770000404,419.5324375999917,421.23488770000404,419.5324375999917,421.23488770000404,419.5324375999917,421.23488770000404,419.5324375999917,421.23488770000404,421.2013977000024,421.7021318000043,421.2013977000024,421.7021318000043,421.2013977000024,421.7021318000043,421.2013977000024,421.7021318000043,421.2013977000024,421.7021318000043,421.2013977000024,421.7021318000043,421.2013977000024,421.7021318000043,421.2013977000024,421.7021318000043,419.5324375999917,None,421.7021318000043,422.28634829999646,1.6900000000000013,422.3029558999988,None,423.0542758000083,None,,,,,,,[0.57257143],1.9900000000000013,0.7714285714285715,11034,002,2024_Jan_16_1303,MFTM_A_new1021,2021.2.3,59.93076796945095,
,,,,,,,,stim/Instruction_adaptive.png,conditions/adaptive.xlsx,test,0.6,0.6,0.6,-0.6,-0.6,right,R,,,,,0,1,1,1,0,70,70,14,,,,,,,,,,,,,,,,,,,,,,,,,,,,,,,,,,,,,,,,,,,,423.5548686000111,None,right,1,1.4699160999734886,424.05551350000314,426.2257488000032,424.05551350000314,425.72491660001106,424.05551350000314,425.72491660001106,424.05551350000314,425.72491660001106,424.05551350000314,425.72491660001106,424.05551350000314,425.72491660001106,425.70853589999024,426.2090479999897,425.70853589999024,426.2090479999897,425.70853589999024,426.2090479999897,425.70853589999024,426.2090479999897,425.70853589999024,426.2090479999897,425.70853589999024,426.2090479999897,425.70853589999024,426.2090479999897,425.70853589999024,426.2090479999897,424.05551350000314,None,426.2090479999897,None,1.6600000000000013,426.79250680000405,None,427.5449927000154,None,,,,,,,[0.57633803],2.0200000000000014,0.7746478873239436,11034,002,2024_Jan_16_1303,MFTM_A_new1021,2021.2.3,59.93076796945095,
,,,,,,,,stim/Instruction_adaptive.png,conditions/adaptive.xlsx,test,0.6,0.6,0.6,-0.6,-0.6,right,R,,,,,0,1,1,1,0,71,71,12,,,,,,,,,,,,,,,,,,,,,,,,,,,,,,,,,,,,,,,,,,,,428.0452985999873,None,right,1,1.5389928999939002,428.54583170000114,430.66646800001035,428.54583170000114,430.16488820000086,428.54583170000114,430.16488820000086,428.54583170000114,430.16488820000086,428.54583170000114,430.16488820000086,428.54583170000114,430.16488820000086,430.14824310000404,430.649043500016,430.14824310000404,430.649043500016,430.14824310000404,430.649043500016,430.14824310000404,430.649043500016,430.14824310000404,430.649043500016,430.14824310000404,430.649043500016,430.14824310000404,430.649043500016,430.14824310000404,430.649043500016,428.54583170000114,None,430.649043500016,431.2333434000029,1.6200000000000012,431.2498465999961,None,432.00190249999287,None,,,,,,,[0.58055556],2.0400000000000014,0.7777777777777778,11034,002,2024_Jan_16_1303,MFTM_A_new1021,2021.2.3,59.93076796945095,
,,,,,,,,stim/Instruction_adaptive.png,conditions/adaptive.xlsx,test,-0.6,-0.6,-0.6,0.6,0.6,left,L,,,,,0,1,1,1,0,72,72,47,,,,,,,,,,,,,,,,,,,,,,,,,,,,,,,,,,,,,,,,,,,,432.5018979999877,None,left,1,1.8427672999969218,433.00269789999584,435.1057019,433.00269789999584,434.60531519999495,433.00269789999584,434.60531519999495,433.00269789999584,434.60531519999495,433.00269789999584,434.60531519999495,433.00269789999584,434.60531519999495,434.5882827999885,435.08906769999885,434.5882827999885,435.08906769999885,434.5882827999885,435.08906769999885,434.5882827999885,435.08906769999885,434.5882827999885,435.08906769999885,434.5882827999885,435.08906769999885,434.5882827999885,435.08906769999885,434.5882827999885,435.08906769999885,433.00269789999584,None,435.08906769999885,435.67337209999096,1.6000000000000012,435.6899253000156,None,436.44111760001397,None,,,,,,,[0.58493151],2.070000000000001,0.7808219178082192,11034,002,2024_Jan_16_1303,MFTM_A_new1021,2021.2.3,59.93076796945095,
,,,,,,,,stim/Instruction_adaptive.png,conditions/adaptive.xlsx,test,0.6,0.6,0.6,-0.6,-0.6,right,R,,,,,0,1,1,1,0,73,73,4,,,,,,,,,,,,,,,,,,,,,,,,,,,,,,,,,,,,,,,,,,,,436.9418413999956,None,right,1,1.1784146999998484,437.442790400004,439.512506900006,437.442790400004,439.02842069999315,437.442790400004,439.02842069999315,437.442790400004,439.02842069999315,437.442790400004,439.02842069999315,437.442790400004,439.02842069999315,438.99499870001455,439.4966471999942,438.99499870001455,439.4966471999942,438.99499870001455,439.4966471999942,438.99499870001455,439.4966471999942,438.99499870001455,439.4966471999942,438.99499870001455,439.4966471999942,438.99499870001455,439.4966471999942,438.99499870001455,439.4966471999942,437.442790400004,None,439.4966471999942,440.0966069000133,1.5700000000000012,440.11357499999576,None,440.8648108000052,None,,,,,,,[0.58959459],2.0900000000000016,0.7837837837837838,11034,002,2024_Jan_16_1303,MFTM_A_new1021,2021.2.3,59.93076796945095,
,,,,,,,,stim/Instruction_adaptive.png,conditions/adaptive.xlsx,test,-0.6,-0.6,-0.6,0.6,0.6,left,L,,,,,0,1,1,1,0,74,74,53,,,,,,,,,,,,,,,,,,,,,,,,,,,,,,,,,,,,,,,,,,,,441.36550509999506,None,right,0,1.89981530001387,441.8660695000144,443.91913389999536,441.8660695000144,443.42064850000315,441.8660695000144,443.42064850000315,441.8660695000144,443.42064850000315,441.8660695000144,443.42064850000315,441.8660695000144,443.42064850000315,443.4016203999927,443.9023070000112,443.4016203999927,443.9023070000112,443.4016203999927,443.9023070000112,443.4016203999927,443.9023070000112,443.4016203999927,443.9023070000112,443.4016203999927,443.9023070000112,443.4016203999927,443.9023070000112,443.4016203999927,443.9023070000112,441.8660695000144,None,443.9023070000112,444.5041445000097,1.5500000000000012,444.53756980001344,None,445.28788910000003,None,,,,,,,[0.5944],2.0200000000000014,0.7733333333333333,11034,002,2024_Jan_16_1303,MFTM_A_new1021,2021.2.3,59.93076796945095,
,,,,,,,,stim/Instruction_adaptive.png,conditions/adaptive.xlsx,test,0.6,0.6,0.6,-0.6,-0.6,right,R,,,,,0,1,1,1,0,75,75,98,,,,,,,,,,,,,,,,,,,,,,,,,,,,,,,,,,,,,,,,,,,,445.7893918000045,None,right,1,1.4849897999956738,446.28929290000815,448.4092509000038,446.28929290000815,447.9083787999989,446.28929290000815,447.9083787999989,446.28929290000815,447.9083787999989,446.28929290000815,447.9083787999989,446.28929290000815,447.9083787999989,447.8923153000069,448.3925419000152,447.8923153000069,448.3925419000152,447.8923153000069,448.3925419000152,447.8923153000069,448.3925419000152,447.8923153000069,448.3925419000152,447.8923153000069,448.3925419000152,447.8923153000069,448.3925419000152,447.8923153000069,448.3925419000152,446.28929290000815,None,448.3925419000152,448.9939032999973,1.6200000000000012,449.0094952000072,None,449.76168890000554,None,,,,,,,[0.59815789],2.0400000000000014,0.7763157894736842,11034,002,2024_Jan_16_1303,MFTM_A_new1021,2021.2.3,59.93076796945095,
,,,,,,,,stim/Instruction_adaptive.png,conditions/adaptive.xlsx,test,0.6,0.6,0.6,-0.6,-0.6,right,R,,,,,0,1,1,1,0,76,76,18,,,,,,,,,,,,,,,,,,,,,,,,,,,,,,,,,,,,,,,,,,,,450.26186430000234,None,right,1,1.5387519000214525,450.76272020000033,452.8658338999958,450.76272020000033,452.365163200011,450.76272020000033,452.365163200011,450.76272020000033,452.365163200011,450.76272020000033,452.365163200011,450.76272020000033,452.365163200011,452.3483819999965,452.84906750000664,452.3483819999965,452.84906750000664,452.3483819999965,452.84906750000664,452.3483819999965,452.84906750000664,452.3483819999965,452.84906750000664,452.3483819999965,452.84906750000664,452.3483819999965,452.84906750000664,452.3483819999965,452.84906750000664,450.76272020000033,None,452.84906750000664,453.44998500001384,1.6000000000000012,453.4666991000122,None,454.21798149999813,None,,,,,,,[0.60207792],2.070000000000001,0.7792207792207793,11034,002,2024_Jan_16_1303,MFTM_A_new1021,2021.2.3,59.93076796945095,
,,,,,,,,stim/Instruction_adaptive.png,conditions/adaptive.xlsx,test,0.6,0.6,0.6,-0.6,-0.6,right,R,,,,,0,1,1,1,0,77,77,6,,,,,,,,,,,,,,,,,,,,,,,,,,,,,,,,,,,,,,,,,,,,454.7187694000022,None,right,1,1.4267025000008289,455.21945020000567,457.2891903000127,455.21945020000567,456.7887374999991,455.21945020000567,456.7887374999991,455.21945020000567,456.7887374999991,455.21945020000567,456.7887374999991,455.21945020000567,456.7887374999991,456.7719184999878,457.27250469999854,456.7719184999878,457.27250469999854,456.7719184999878,457.27250469999854,456.7719184999878,457.27250469999854,456.7719184999878,457.27250469999854,456.7719184999878,457.27250469999854,456.7719184999878,457.27250469999854,456.7719184999878,457.27250469999854,455.21945020000567,None,457.27250469999854,457.8902345999959,1.5700000000000012,457.9068769000005,None,458.65805349999573,None,,,,,,,[0.60628205],2.0900000000000016,0.782051282051282,11034,002,2024_Jan_16_1303,MFTM_A_new1021,2021.2.3,59.93076796945095,
,,,,,,,,stim/Instruction_adaptive.png,conditions/adaptive.xlsx,test,0.6,0.6,0.6,-0.6,-0.6,right,R,,,,,0,1,1,1,0,78,78,28,,,,,,,,,,,,,,,,,,,,,,,,,,,,,,,,,,,,,,,,,,,,459.1587283000117,None,left,0,1.3227569999871776,459.65945929999,461.71386330001405,459.65945929999,461.211957099993,459.65945929999,461.211957099993,459.65945929999,461.211957099993,459.65945929999,461.211957099993,459.65945929999,461.211957099993,461.19623420000426,461.69702769999276,461.19623420000426,461.69702769999276,461.19623420000426,461.69702769999276,461.19623420000426,461.69702769999276,461.19623420000426,461.69702769999276,461.19623420000426,461.69702769999276,461.19623420000426,461.69702769999276,461.19623420000426,461.69702769999276,459.65945929999,None,461.69702769999276,462.3135762999882,1.5500000000000012,462.33022810000693,None,463.08149250000133,None,,,,,,,[0.61063291],2.0200000000000014,0.7721518987341772,11034,002,2024_Jan_16_1303,MFTM_A_new1021,2021.2.3,59.93076796945095,
,,,,,,,,stim/Instruction_adaptive.png,conditions/adaptive.xlsx,test,-0.6,-0.6,-0.6,0.6,0.6,left,L,,,,,0,1,1,1,0,79,79,39,,,,,,,,,,,,,,,,,,,,,,,,,,,,,,,,,,,,,,,,,,,,463.5827275000047,None,left,1,1.411320599989267,464.0828550000151,466.20289539999794,464.0828550000151,465.7019062000036,464.0828550000151,465.7019062000036,464.0828550000151,465.7019062000036,464.0828550000151,465.7019062000036,464.0828550000151,465.7019062000036,465.6865204999922,466.1863308000029,465.6865204999922,466.1863308000029,465.6865204999922,466.1863308000029,465.6865204999922,466.1863308000029,465.6865204999922,466.1863308000029,465.6865204999922,466.1863308000029,465.6865204999922,466.1863308000029,465.6865204999922,466.1863308000029,464.0828550000151,None,466.1863308000029,466.8038455999922,1.6200000000000012,466.82036750001134,None,467.57140059999074,None,,,,,,,[0.614],2.0500000000000016,0.775,11034,002,2024_Jan_16_1303,MFTM_A_new1021,2021.2.3,59.93076796945095,
,,,,,,,,stim/Instruction_adaptive.png,conditions/adaptive.xlsx,test,-0.6,-0.6,-0.6,0.6,0.6,left,L,,,,,0,1,1,1,0,80,80,31,,,,,,,,,,,,,,,,,,,,,,,,,,,,,,,,,,,,,,,,,,,,468.0729132000124,None,right,0,1.4982404000184033,468.57310270000016,470.6767344000109,468.57310270000016,470.175330099999,468.57310270000016,470.175330099999,468.57310270000016,470.175330099999,468.57310270000016,470.175330099999,468.57310270000016,470.175330099999,470.1418255000026,470.64269860001514,470.1418255000026,470.64269860001514,470.1418255000026,470.64269860001514,470.1418255000026,470.64269860001514,470.1418255000026,470.64269860001514,470.1418255000026,470.64269860001514,470.1418255000026,470.64269860001514,470.1418255000026,470.64269860001514,468.57310270000016,None,470.64269860001514,471.26044620000175,1.5900000000000012,471.29372539999895,None,472.04532559998916,None,,,,,,,[0.61765432],1.9800000000000013,0.7654320987654321,11034,002,2024_Jan_16_1303,MFTM_A_new1021,2021.2.3,59.93076796945095,
,,,,,,,,stim/Instruction_adaptive.png,conditions/adaptive.xlsx,test,-0.6,-0.6,-0.6,0.6,0.6,left,L,,,,,0,1,1,1,0,81,81,3,,,,,,,,,,,,,,,,,,,,,,,,,,,,,,,,,,,,,,,,,,,,472.5469957999885,None,left,1,1.1601999999838881,473.04625059998943,475.21633490000386,473.04625059998943,474.71549609999056,473.04625059998943,474.71549609999056,473.04625059998943,474.71549609999056,473.04625059998943,474.71549609999056,473.04625059998943,474.71549609999056,474.6991582000046,475.199978699995,474.6991582000046,475.199978699995,474.6991582000046,475.199978699995,474.6991582000046,475.199978699995,474.6991582000046,475.199978699995,474.6991582000046,475.199978699995,474.6991582000046,475.199978699995,474.6991582000046,475.199978699995,473.04625059998943,None,475.199978699995,475.8339433000074,1.6700000000000013,475.8504452999914,None,476.6017622000072,None,,,,,,,[0.6202439],2.0000000000000013,0.7682926829268293,11034,002,2024_Jan_16_1303,MFTM_A_new1021,2021.2.3,59.93076796945095,
,,,,,,,,stim/Instruction_adaptive.png,conditions/adaptive.xlsx,test,-0.6,-0.6,-0.6,0.6,0.6,left,L,,,,,0,1,1,1,0,82,82,87,,,,,,,,,,,,,,,,,,,,,,,,,,,,,,,,,,,,,,,,,,,,477.10356019999017,None,left,1,1.2517353000002913,477.6033490000118,479.75664529998903,477.6033490000118,479.25552649999736,477.6033490000118,479.25552649999736,477.6033490000118,479.25552649999736,477.6033490000118,479.25552649999736,477.6033490000118,479.25552649999736,479.22247710000374,479.7236889000051,479.22247710000374,479.7236889000051,479.22247710000374,479.7236889000051,479.22247710000374,479.7236889000051,479.22247710000374,479.7236889000051,479.22247710000374,479.7236889000051,479.22247710000374,479.7236889000051,479.22247710000374,479.7236889000051,477.6033490000118,None,479.7236889000051,480.35747250000713,1.6400000000000012,480.37463460001163,None,481.12627670000074,None,,,,,,,[0.62313253],2.0200000000000014,0.7710843373493976,11034,002,2024_Jan_16_1303,MFTM_A_new1021,2021.2.3,59.93076796945095,
,,,,,,,,stim/Instruction_adaptive.png,conditions/adaptive.xlsx,test,0.6,0.6,0.6,-0.6,-0.6,right,R,,,,,0,1,1,1,0,83,83,76,,,,,,,,,,,,,,,,,,,,,,,,,,,,,,,,,,,,,,,,,,,,481.62690380000276,None,right,1,1.0637398000108078,482.12685030000284,484.2466465999896,482.12685030000284,483.76246140000876,482.12685030000284,483.76246140000876,482.12685030000284,483.76246140000876,482.12685030000284,483.76246140000876,482.12685030000284,483.76246140000876,483.72903009998845,484.23000889999093,483.72903009998845,484.23000889999093,483.72903009998845,484.23000889999093,483.72903009998845,484.23000889999093,483.72903009998845,484.23000889999093,483.72903009998845,484.23000889999093,483.72903009998845,484.23000889999093,483.72903009998845,484.23000889999093,482.12685030000284,None,484.23000889999093,484.8649562000064,1.6200000000000012,484.8818096999894,None,485.63208589999704,None,,,,,,,[0.62619048],2.0500000000000016,0.7738095238095238,11034,002,2024_Jan_16_1303,MFTM_A_new1021,2021.2.3,59.93076796945095,
,,,,,,,,stim/Instruction_adaptive.png,conditions/adaptive.xlsx,test,0.6,0.6,0.6,-0.6,-0.6,right,R,,,,,0,1,1,1,0,84,84,54,,,,,,,,,,,,,,,,,,,,,,,,,,,,,,,,,,,,,,,,,,,,486.1332774999901,None,right,1,1.3892932999879122,486.6334463999956,488.7368323999981,486.6334463999956,488.23591509999824,486.6334463999956,488.23591509999824,486.6334463999956,488.23591509999824,486.6334463999956,488.23591509999824,486.6334463999956,488.23591509999824,488.20279710000614,488.7035109999997,488.20279710000614,488.7035109999997,488.20279710000614,488.7035109999997,488.20279710000614,488.7035109999997,488.20279710000614,488.7035109999997,488.20279710000614,488.7035109999997,488.20279710000614,488.7035109999997,488.20279710000614,488.7035109999997,486.6334463999956,None,488.7035109999997,489.33761680001044,1.5900000000000012,489.35435529999086,None,490.10560859998805,None,,,,,,,[0.62952941],2.070000000000001,0.7764705882352941,11034,002,2024_Jan_16_1303,MFTM_A_new1021,2021.2.3,59.93076796945095,
,,,,,,,,stim/Instruction_adaptive.png,conditions/adaptive.xlsx,test,0.6,0.6,0.6,-0.6,-0.6,right,R,,,,,0,1,1,1,0,85,85,46,,,,,,,,,,,,,,,,,,,,,,,,,,,,,,,,,,,,,,,,,,,,490.6068389000138,None,right,1,1.0837001999898348,491.1071503999992,493.1768042999902,491.1071503999992,492.6760035000043,491.1071503999992,492.6760035000043,491.1071503999992,492.6760035000043,491.1071503999992,492.6760035000043,491.1071503999992,492.6760035000043,492.659541800007,493.1608874000085,492.659541800007,493.1608874000085,492.659541800007,493.1608874000085,492.659541800007,493.1608874000085,492.659541800007,493.1608874000085,492.659541800007,493.1608874000085,492.659541800007,493.1608874000085,492.659541800007,493.1608874000085,491.1071503999992,None,493.1608874000085,493.7951377000136,1.5700000000000012,493.8110777999973,None,494.5630104999873,None,,,,,,,[0.63302326],2.0900000000000016,0.7790697674418605,11034,002,2024_Jan_16_1303,MFTM_A_new1021,2021.2.3,59.93076796945095,
,,,,,,,,stim/Instruction_adaptive.png,conditions/adaptive.xlsx,test,-0.6,-0.6,-0.6,0.6,0.6,left,L,,,,,0,1,1,1,0,86,86,89,,,,,,,,,,,,,,,,,,,,,,,,,,,,,,,,,,,,,,,,,,,,495.06424340000376,None,left,1,1.404137300007278,495.56383259998984,497.61666219998733,495.56383259998984,497.1162248000037,495.56383259998984,497.1162248000037,495.56383259998984,497.1162248000037,495.56383259998984,497.1162248000037,495.56383259998984,497.1162248000037,497.09957670001313,497.6001014999929,497.09957670001313,497.6001014999929,497.09957670001313,497.6001014999929,497.09957670001313,497.6001014999929,497.09957670001313,497.6001014999929,497.09957670001313,497.6001014999929,497.09957670001313,497.6001014999929,497.09957670001313,497.6001014999929,495.56383259998984,None,497.6001014999929,None,1.5500000000000012,498.25124360001064,None,499.002994200011,None,,,,,,,[0.63666667],2.110000000000001,0.7816091954022989,11034,002,2024_Jan_16_1303,MFTM_A_new1021,2021.2.3,59.93076796945095,
,,,,,,,,stim/Instruction_adaptive.png,conditions/adaptive.xlsx,test,-0.6,-0.6,-0.6,0.6,0.6,left,L,,,,,0,1,1,1,0,87,87,25,,,,,,,,,,,,,,,,,,,,,,,,,,,,,,,,,,,,,,,,,,,,499.5042218999879,None,left,1,1.2351304000185337,500.0043844000029,502.0234897999908,500.0043844000029,501.5396536999906,500.0043844000029,501.5396536999906,500.0043844000029,501.5396536999906,500.0043844000029,501.5396536999906,500.0043844000029,501.5396536999906,501.50632499999483,502.00760489999084,501.50632499999483,502.00760489999084,501.50632499999483,502.00760489999084,501.50632499999483,502.00760489999084,501.50632499999483,502.00760489999084,501.50632499999483,502.00760489999084,501.50632499999483,502.00760489999084,501.50632499999483,502.00760489999084,500.0043844000029,None,502.00760489999084,502.65789460000815,1.5200000000000011,502.6752118000004,None,503.4264225999941,None,,,,,,,[0.64056818],2.1300000000000017,0.7840909090909091,11034,002,2024_Jan_16_1303,MFTM_A_new1021,2021.2.3,59.93076796945095,
,,,,,,,,stim/Instruction_adaptive.png,conditions/adaptive.xlsx,test,0.6,0.6,0.6,-0.6,-0.6,right,R,,,,,0,1,1,1,0,88,88,94,,,,,,,,,,,,,,,,,,,,,,,,,,,,,,,,,,,,,,,,,,,,503.9272078000067,None,right,1,1.1399496999802068,504.4276622000034,506.4301359000092,504.4276622000034,505.93008320001536,504.4276622000034,505.93008320001536,504.4276622000034,505.93008320001536,504.4276622000034,505.93008320001536,504.4276622000034,505.93008320001536,505.91303009999683,506.41424710000865,505.91303009999683,506.41424710000865,505.91303009999683,506.41424710000865,505.91303009999683,506.41424710000865,505.91303009999683,506.41424710000865,505.91303009999683,506.41424710000865,505.91303009999683,506.41424710000865,505.91303009999683,506.41424710000865,504.4276622000034,None,506.41424710000865,507.0651048000145,1.500000000000001,507.08118690000265,None,507.83303370000795,None,,,,,,,[0.64460674],2.1500000000000012,0.7865168539325843,11034,002,2024_Jan_16_1303,MFTM_A_new1021,2021.2.3,59.93076796945095,
,,,,,,,,stim/Instruction_adaptive.png,conditions/adaptive.xlsx,test,-0.6,-0.6,-0.6,0.6,0.6,left,L,,,,,0,1,1,1,0,89,89,11,,,,,,,,,,,,,,,,,,,,,,,,,,,,,,,,,,,,,,,,,,,,508.33299570000963,None,left,1,1.5018633999861777,508.83379639999475,510.8210046000022,508.83379639999475,510.31922880001366,508.83379639999475,510.31922880001366,508.83379639999475,510.31922880001366,508.83379639999475,510.31922880001366,508.83379639999475,510.31922880001366,510.3029281999916,510.80343749999884,510.3029281999916,510.80343749999884,510.3029281999916,510.80343749999884,510.3029281999916,510.80343749999884,510.3029281999916,510.80343749999884,510.3029281999916,510.80343749999884,510.3029281999916,510.80343749999884,510.3029281999916,510.80343749999884,508.83379639999475,None,510.80343749999884,511.45440449999296,1.480000000000001,511.471126199991,None,512.2222870000114,None,,,,,,,[0.64877778],2.1700000000000017,0.7888888888888889,11034,002,2024_Jan_16_1303,MFTM_A_new1021,2021.2.3,59.93076796945095,
,,,,,,,,stim/Instruction_adaptive.png,conditions/adaptive.xlsx,test,0.6,0.6,0.6,-0.6,-0.6,right,R,,,,,0,1,1,1,0,90,90,80,,,,,,,,,,,,,,,,,,,,,,,,,,,,,,,,,,,,,,,,,,,,512.7235595000093,None,right,1,0.9039875000016764,513.2235893000034,515.1933510999952,513.2235893000034,514.6926877000078,513.2235893000034,514.6926877000078,513.2235893000034,514.6926877000078,513.2235893000034,514.6926877000078,513.2235893000034,514.6926877000078,514.6601390000142,515.1600815000129,514.6601390000142,515.1600815000129,514.6601390000142,515.1600815000129,514.6601390000142,515.1600815000129,514.6601390000142,515.1600815000129,514.6601390000142,515.1600815000129,514.6601390000142,515.1600815000129,514.6601390000142,515.1600815000129,513.2235893000034,None,515.1600815000129,515.8281869000057,1.460000000000001,515.8443657000025,None,516.5957701000152,None,,,,,,,[0.65307692],2.1900000000000013,0.7912087912087912,11034,002,2024_Jan_16_1303,MFTM_A_new1021,2021.2.3,59.93076796945095,
,,,,,,,,stim/Instruction_adaptive.png,conditions/adaptive.xlsx,test,0.6,0.6,0.6,-0.6,-0.6,right,R,,,,,0,1,1,1,0,91,91,0,,,,,,,,,,,,,,,,,,,,,,,,,,,,,,,,,,,,,,,,,,,,517.0974210000131,None,right,1,0.7390302999992855,517.5970191000088,519.5501334000146,517.5970191000088,519.0505567000073,517.5970191000088,519.0505567000073,517.5970191000088,519.0505567000073,517.5970191000088,519.0505567000073,517.5970191000088,519.0505567000073,519.0158720999898,519.5164961999981,519.0158720999898,519.5164961999981,519.0158720999898,519.5164961999981,519.0158720999898,519.5164961999981,519.0158720999898,519.5164961999981,519.0158720999898,519.5164961999981,519.0158720999898,519.5164961999981,519.0158720999898,519.5164961999981,517.5970191000088,None,519.5164961999981,520.1844450999924,1.440000000000001,520.2008442000079,None,520.9518973999948,None,,,,,,,[0.6575],2.2100000000000017,0.7934782608695652,11034,002,2024_Jan_16_1303,MFTM_A_new1021,2021.2.3,59.93076796945095,
,,,,,,,,stim/Instruction_adaptive.png,conditions/adaptive.xlsx,test,-0.6,-0.6,-0.6,0.6,0.6,left,L,,,,,0,1,1,1,0,92,92,75,,,,,,,,,,,,,,,,,,,,,,,,,,,,,,,,,,,,,,,,,,,,521.453483499994,None,left,1,2.462850400013849,521.9536198000133,523.8729811999947,521.9536198000133,523.3890114999958,521.9536198000133,523.3890114999958,521.9536198000133,523.3890114999958,521.9536198000133,523.3890114999958,521.9536198000133,523.3890114999958,523.3559001999965,523.8563663999957,523.3559001999965,523.8563663999957,523.3559001999965,523.8563663999957,523.3559001999965,523.8563663999957,523.3559001999965,523.8563663999957,523.3559001999965,523.8563663999957,523.3559001999965,523.8563663999957,523.3559001999965,523.8563663999957,521.9536198000133,None,523.8563663999957,524.5242032000097,1.420000000000001,524.5408865000063,None,525.2917051000113,None,,,,,,,[0.66204301],2.2200000000000015,0.7956989247311828,11034,002,2024_Jan_16_1303,MFTM_A_new1021,2021.2.3,59.93076796945095,
,,,,,,,,stim/Instruction_adaptive.png,conditions/adaptive.xlsx,test,0.6,0.6,0.6,-0.6,-0.6,right,R,,,,,0,1,1,1,0,93,93,20,,,,,,,,,,,,,,,,,,,,,,,,,,,,,,,,,,,,,,,,,,,,525.7933625000005,None,right,1,1.3532375000067987,526.2948718999978,528.2131302999915,526.2948718999978,527.7124077999906,526.2948718999978,527.7124077999906,526.2948718999978,527.7124077999906,526.2948718999978,527.7124077999906,526.2948718999978,527.7124077999906,527.6788617999991,528.1801840999979,527.6788617999991,528.1801840999979,527.6788617999991,528.1801840999979,527.6788617999991,528.1801840999979,527.6788617999991,528.1801840999979,527.6788617999991,528.1801840999979,527.6788617999991,528.1801840999979,527.6788617999991,528.1801840999979,526.2948718999978,None,528.1801840999979,528.8484553000017,1.410000000000001,528.8816536999948,None,529.6326415000076,None,,,,,,,[0.66659574],2.2400000000000015,0.7978723404255319,11034,002,2024_Jan_16_1303,MFTM_A_new1021,2021.2.3,59.93076796945095,
