arrwidth1,arrwidth2,arrwidth3,arrwidth4,arrwidth5,keyb,type,orientation,instruction_image,block_filename,block_type,arrow11,arrow22,arrow33,arrow44,arrow55,keyb_3,orientation3,trials.thisRepN,trials.thisTrialN,trials.thisN,trials.thisIndex,trials_3.thisRepN,trials_3.thisTrialN,trials_3.thisN,trials_3.thisIndex,trials_2.thisRepN,trials_2.thisTrialN,trials_2.thisN,trials_2.thisIndex,welcome.started,welcome.stopped,key_resp.keys,key_resp.rt,key_resp.started,key_resp.stopped,instruction_example.started,instruction_example.stopped,key_resp_3.keys,key_resp_3.rt,key_resp_3.started,key_resp_3.stopped,instruction_task.started,instruction_task.stopped,key_resp_2.keys,key_resp_2.rt,key_resp_2.started,key_resp_2.stopped,text_2.started,text_2.stopped,A1.started,A1.stopped,A2.started,A2.stopped,A3.started,A3.stopped,A4.started,A4.stopped,A5.started,A5.stopped,key_resp_4.keys,key_resp_4.corr,key_resp_4.rt,key_resp_4.started,key_resp_4.stopped,fb.started,fb.stopped,instruction_block.started,instruction_block.stopped,key_resp_8.keys,key_resp_8.rt,key_resp_8.started,key_resp_8.stopped,text_8.started,text_8.stopped,key_resp_9.keys,key_resp_9.corr,key_resp_9.rt,text_5.started,text_5.stopped,A11_3.started,A11_3.stopped,A22_2.started,A22_2.stopped,A33_2.started,A33_2.stopped,A44_2.started,A44_2.stopped,A55_2.started,A55_2.stopped,M1_3.started,M1_3.stopped,M2_2.started,M2_2.stopped,M3_2.started,M3_2.stopped,M4_2.started,M4_2.stopped,M5_2.started,M5_2.stopped,M6_2.started,M6_2.stopped,M7_2.started,M7_2.stopped,M8_2.started,M8_2.stopped,key_resp_9.started,key_resp_9.stopped,fixation.started,fixation.stopped,ET,fb_3.started,fb_3.stopped,text_9.started,text_9.stopped,fb_4.started,fb_4.stopped,text_7.started,text_7.stopped,endtext.started,endtext.stopped,fixation_ITI,CCC,Acc,participant,session,date,expName,psychopyVersion,frameRate,
,,,,,,,,,,,,,,,,,,,,,,,,,,,,,,12.689593099988997,None,space,2.3889408002141863,12.689593099988997,None,,,,,,,,,,,,,,,,,,,,,,,,,,,,,,,,,,,,,,,,,,,,,,,,,,,,,,,,,,,,,,,,,,,,,,,,,,,,,,,,,,,,,,,,,11030,001,2024_Jan_11_0805,MFTM_A_new1021,2021.2.3,59.906139044041545,
,,,,,,,,,,,,,,,,,,,,,,,,,,,,,,,,,,,,15.10999479983002,None,space,2.024193699937314,15.10999479983002,None,,,,,,,,,,,,,,,,,,,,,,,,,,,,,,,,,,,,,,,,,,,,,,,,,,,,,,,,,,,,,,,,,,,,,,,,,,,,,,,,,,,11030,001,2024_Jan_11_0805,MFTM_A_new1021,2021.2.3,59.906139044041545,
,,,,,,,,,,,,,,,,,,,,,,,,,,,,,,,,,,,,,,,,,,17.16291689989157,None,space,3.706777299987152,17.16291689989157,None,,,,,,,,,,,,,,,,,,,,,,,,,,,,,,,,,,,,,,,,,,,,,,,,,,,,,,,,,,,,,,,,,,,,,,,,,,,,,11030,001,2024_Jan_11_0805,MFTM_A_new1021,2021.2.3,59.906139044041545,
-0.6,-0.6,-0.6,0.6,0.6,left,3:2,L,,,,,,,,,,,0,0,0,1,,,,,,,,,,,,,,,,,,,,,,,,,,,20.918574000010267,None,20.918574000010267,None,20.918574000010267,None,20.918574000010267,None,20.918574000010267,None,20.918574000010267,None,left,1,2.3592645002063364,20.918574000010267,None,23.322383599821478,None,,,,,,,,,,,,,,,,,,,,,,,,,,,,,,,,,,,,,,,,,,,,,,,,,,,,,,,,,,11030,001,2024_Jan_11_0805,MFTM_A_new1021,2021.2.3,59.906139044041545,
0.6,0.6,0.6,-0.6,-0.6,right,3:2,R,,,,,,,,,,,0,1,1,0,,,,,,,,,,,,,,,,,,,,,,,,,,,24.074182000011206,None,24.074182000011206,None,24.074182000011206,None,24.074182000011206,None,24.074182000011206,None,24.074182000011206,None,right,1,1.0116380997933447,24.074182000011206,None,25.108022399945185,None,,,,,,,,,,,,,,,,,,,,,,,,,,,,,,,,,,,,,,,,,,,,,,,,,,,,,,,,,,11030,001,2024_Jan_11_0805,MFTM_A_new1021,2021.2.3,59.906139044041545,
0.6,0.6,0.6,-0.6,-0.6,right,3:2,R,,,,,,,,,,,1,0,2,0,,,,,,,,,,,,,,,,,,,,,,,,,,,25.860471499850973,None,25.860471499850973,None,25.860471499850973,None,25.860471499850973,None,25.860471499850973,None,25.860471499850973,None,left,0,1.9453428001143038,25.860471499850973,None,27.82835519989021,None,,,,,,,,,,,,,,,,,,,,,,,,,,,,,,,,,,,,,,,,,,,,,,,,,,,,,,,,,,11030,001,2024_Jan_11_0805,MFTM_A_new1021,2021.2.3,59.906139044041545,
-0.6,-0.6,-0.6,0.6,0.6,left,3:2,L,,,,,,,,,,,1,1,3,1,,,,,,,,,,,,,,,,,,,,,,,,,,,28.5798058998771,None,28.5798058998771,None,28.5798058998771,None,28.5798058998771,None,28.5798058998771,None,28.5798058998771,None,left,1,1.122153399977833,28.5798058998771,None,29.732179299928248,None,,,,,,,,,,,,,,,,,,,,,,,,,,,,,,,,,,,,,,,,,,,,,,,,,,,,,,,,,,11030,001,2024_Jan_11_0805,MFTM_A_new1021,2021.2.3,59.906139044041545,
,,,,,,,,stim/Instruction_mask.png,conditions/adaptive.xlsx,practice,0.6,0.6,0.6,-0.6,-0.6,right,R,,,,,0,0,0,0,0,0,0,62,,,,,,,,,,,,,,,,,,,,,,,,,,,,,,,,,,,,,,30.716243000002578,None,space,10.289440599968657,30.716243000002578,None,41.11493159993552,None,right,1,1.2010494999121875,41.54940759995952,None,41.54940759995952,44.55422469996847,41.54940759995952,44.55422469996847,41.54940759995952,44.55422469996847,41.54940759995952,44.55422469996847,41.54940759995952,44.55422469996847,44.53680729982443,45.03751019993797,44.53680729982443,45.03751019993797,44.53680729982443,45.03751019993797,44.53680729982443,45.03751019993797,44.53680729982443,45.03751019993797,44.53680729982443,45.03751019993797,44.53680729982443,45.03751019993797,44.53680729982443,45.03751019993797,41.54940759995952,None,45.03751019993797,45.03751019993797,3,45.0543927999679,None,45.80593719985336,None,,,,,,,,,,11030,001,2024_Jan_11_0805,MFTM_A_new1021,2021.2.3,59.906139044041545,
,,,,,,,,stim/Instruction_mask.png,conditions/adaptive.xlsx,practice,0.6,0.6,0.6,-0.6,-0.6,right,R,,,,,0,0,0,0,0,1,1,94,,,,,,,,,,,,,,,,,,,,,,,,,,,,,,,,,,,,,,,,,,,,46.306134799961,None,right,1,1.3354152000974864,46.8067968999967,48.81062079989351,46.8067968999967,48.309206599835306,46.8067968999967,48.309206599835306,46.8067968999967,48.309206599835306,46.8067968999967,48.309206599835306,46.8067968999967,48.309206599835306,48.29224649979733,48.79293419979513,48.29224649979733,48.79293419979513,48.29224649979733,48.79293419979513,48.29224649979733,48.79293419979513,48.29224649979733,48.79293419979513,48.29224649979733,48.79293419979513,48.29224649979733,48.79293419979513,48.29224649979733,48.79293419979513,46.8067968999967,None,48.79293419979513,50.29650039994158,1.5,50.31190809980035,None,51.06320589990355,None,,,,,,,,,,11030,001,2024_Jan_11_0805,MFTM_A_new1021,2021.2.3,59.906139044041545,
,,,,,,,,stim/Instruction_mask.png,conditions/adaptive.xlsx,practice,-0.6,-0.6,-0.6,0.6,0.6,left,L,,,,,0,0,0,0,0,2,2,5,,,,,,,,,,,,,,,,,,,,,,,,,,,,,,,,,,,,,,,,,,,,51.56399299995974,None,left,1,1.6853793000336736,52.06472859997302,53.36727449996397,52.06472859997302,52.86571509996429,52.06472859997302,52.86571509996429,52.06472859997302,52.86571509996429,52.06472859997302,52.86571509996429,52.06472859997302,52.86571509996429,52.85085439984687,53.349934599827975,52.85085439984687,53.349934599827975,52.85085439984687,53.349934599827975,52.85085439984687,53.349934599827975,52.85085439984687,53.349934599827975,52.85085439984687,53.349934599827975,52.85085439984687,53.349934599827975,52.85085439984687,53.349934599827975,52.06472859997302,None,53.349934599827975,55.553065799875185,0.8,55.57087629986927,None,56.320833100005984,None,,,,,,,,,,11030,001,2024_Jan_11_0805,MFTM_A_new1021,2021.2.3,59.906139044041545,
,,,,,,,,stim/Instruction_mask.png,conditions/adaptive.xlsx,practice,-0.6,-0.6,-0.6,0.6,0.6,left,L,,,,,0,0,0,0,0,3,3,3,,,,,,,,,,,,,,,,,,,,,,,,,,,,,,,,,,,,,,,,,,,,56.82251919992268,None,left,1,1.859427200164646,57.32238519983366,58.0736163998954,57.32238519983366,57.57278319983743,57.32238519983366,57.57278319983743,57.32238519983366,57.57278319983743,57.32238519983366,57.57278319983743,57.32238519983366,57.57278319983743,57.55598980002105,58.0567564999219,57.55598980002105,58.0567564999219,57.55598980002105,58.0567564999219,57.55598980002105,58.0567564999219,57.55598980002105,58.0567564999219,57.55598980002105,58.0567564999219,57.55598980002105,58.0567564999219,57.55598980002105,58.0567564999219,57.32238519983366,None,58.0567564999219,60.811872499994934,3,60.82797109987587,None,61.57869049999863,None,,,,,,,,,,11030,001,2024_Jan_11_0805,MFTM_A_new1021,2021.2.3,59.906139044041545,
,,,,,,,,stim/Instruction_mask.png,conditions/adaptive.xlsx,practice,,,,,,,,,,,,0,0,0,0,,,,,,,,,,,,,,,,,,,,,,,,,,,,,,,,,,,,,,,,,,,,,,,,,,,,,,,,,,,,,,,,,,,,,,,,,,,,,,,,,,,,,,,,,,62.095874399878085,63.09900119993836,63.09900119993836,63.09900119993836,63.09900119993836,None,,,,11030,001,2024_Jan_11_0805,MFTM_A_new1021,2021.2.3,59.906139044041545,
,,,,,,,,stim/Instruction_adaptive.png,conditions/adaptive.xlsx,test,-0.6,-0.6,-0.6,0.6,0.6,left,L,,,,,0,1,1,1,0,0,0,41,,,,,,,,,,,,,,,,,,,,,,,,,,,,,,,,,,,,,,66.23477169987746,None,space,26.106996899936348,66.23477169987746,None,92.37406199984252,None,left,1,3.3392643998377025,92.8751579998061,None,92.8751579998061,95.87998899980448,92.8751579998061,95.87998899980448,92.8751579998061,95.87998899980448,92.8751579998061,95.87998899980448,92.8751579998061,95.87998899980448,95.86287750001065,96.3636601998005,95.86287750001065,96.3636601998005,95.86287750001065,96.3636601998005,95.86287750001065,96.3636601998005,95.86287750001065,96.3636601998005,95.86287750001065,96.3636601998005,95.86287750001065,96.3636601998005,95.86287750001065,96.3636601998005,92.8751579998061,None,96.3636601998005,96.3636601998005,3,96.38021059986204,None,97.13131949980743,None,,,,,,,0,6.000000000000005,1.0,11030,001,2024_Jan_11_0805,MFTM_A_new1021,2021.2.3,59.906139044041545,
,,,,,,,,stim/Instruction_adaptive.png,conditions/adaptive.xlsx,test,0.6,0.6,0.6,-0.6,-0.6,right,R,,,,,0,1,1,1,0,1,1,66,,,,,,,,,,,,,,,,,,,,,,,,,,,,,,,,,,,,,,,,,,,,97.63281809980981,None,right,1,1.1053329999558628,98.13275119988248,98.88445459981449,98.13275119988248,98.38337729987688,98.13275119988248,98.38337729987688,98.13275119988248,98.38337729987688,98.13275119988248,98.38337729987688,98.13275119988248,98.38337729987688,98.36739419982769,98.86794489994645,98.36739419982769,98.86794489994645,98.36739419982769,98.86794489994645,98.36739419982769,98.86794489994645,98.36739419982769,98.86794489994645,98.36739419982769,98.86794489994645,98.36739419982769,98.86794489994645,98.36739419982769,98.86794489994645,98.13275119988248,None,98.86794489994645,99.75201319996268,0.25,99.76836969982833,None,100.51978569990024,None,,,,,,,[0.875],6.000000000000005,1.0,11030,001,2024_Jan_11_0805,MFTM_A_new1021,2021.2.3,59.906139044041545,
,,,,,,,,stim/Instruction_adaptive.png,conditions/adaptive.xlsx,test,-0.6,-0.6,-0.6,0.6,0.6,left,L,,,,,0,1,1,1,0,2,2,71,,,,,,,,,,,,,,,,,,,,,,,,,,,,,,,,,,,,,,,,,,,,101.0206356998533,None,left,1,0.6529804999008775,101.52129879989661,102.27278300002217,101.52129879989661,101.77210829989053,101.52129879989661,101.77210829989053,101.52129879989661,101.77210829989053,101.52129879989661,101.77210829989053,101.52129879989661,101.77210829989053,101.75548249995336,102.25574409984984,101.75548249995336,102.25574409984984,101.75548249995336,102.25574409984984,101.75548249995336,102.25574409984984,101.75548249995336,102.25574409984984,101.75548249995336,102.25574409984984,101.75548249995336,102.25574409984984,101.75548249995336,102.25574409984984,101.52129879989661,None,102.25574409984984,103.59188629989512,0.25,103.60735219996423,None,104.35880069993436,None,,,,,,,[1.33333333],6.000000000000005,1.0,11030,001,2024_Jan_11_0805,MFTM_A_new1021,2021.2.3,59.906139044041545,
,,,,,,,,stim/Instruction_adaptive.png,conditions/adaptive.xlsx,test,-0.6,-0.6,-0.6,0.6,0.6,left,L,,,,,0,1,1,1,0,3,3,57,,,,,,,,,,,,,,,,,,,,,,,,,,,,,,,,,,,,,,,,,,,,104.86004339996725,None,right,0,0.6850286999251693,105.36079499986954,106.1121391998604,105.36079499986954,105.61072280001827,105.36079499986954,105.61072280001827,105.36079499986954,105.61072280001827,105.36079499986954,105.61072280001827,105.36079499986954,105.61072280001827,105.59481969987974,106.09528289991431,105.59481969987974,106.09528289991431,105.59481969987974,106.09528289991431,105.59481969987974,106.09528289991431,105.59481969987974,106.09528289991431,105.59481969987974,106.09528289991431,105.59481969987974,106.09528289991431,105.59481969987974,106.09528289991431,105.36079499986954,None,106.09528289991431,107.66449769982137,0.25,107.68017890001647,None,108.4314762998838,None,,,,,,,[1.5625],4.030000000000003,0.75,11030,001,2024_Jan_11_0805,MFTM_A_new1021,2021.2.3,59.906139044041545,
,,,,,,,,stim/Instruction_adaptive.png,conditions/adaptive.xlsx,test,-0.6,-0.6,-0.6,0.6,0.6,left,L,,,,,0,1,1,1,0,4,4,51,,,,,,,,,,,,,,,,,,,,,,,,,,,,,,,,,,,,,,,,,,,,108.93283039983362,None,right,0,1.1487551999744028,109.4329520999454,110.33493130002171,109.4329520999454,109.83386249979958,109.4329520999454,109.83386249979958,109.4329520999454,109.83386249979958,109.4329520999454,109.83386249979958,109.4329520999454,109.83386249979958,109.81755899987184,110.3176022998523,109.81755899987184,110.3176022998523,109.81755899987184,110.3176022998523,109.81755899987184,110.3176022998523,109.81755899987184,110.3176022998523,109.81755899987184,110.3176022998523,109.81755899987184,110.3176022998523,109.81755899987184,110.3176022998523,109.4329520999454,None,110.3176022998523,111.98738149995916,0.40000000000000013,112.00407499982975,None,112.75539930001833,None,,,,,,,[1.67],2.5100000000000016,0.6,11030,001,2024_Jan_11_0805,MFTM_A_new1021,2021.2.3,59.906139044041545,
,,,,,,,,stim/Instruction_adaptive.png,conditions/adaptive.xlsx,test,0.6,0.6,0.6,-0.6,-0.6,right,R,,,,,0,1,1,1,0,5,5,84,,,,,,,,,,,,,,,,,,,,,,,,,,,,,,,,,,,,,,,,,,,,113.25607289979234,None,right,1,2.6580324000678957,113.75596549990587,115.40903709991835,113.75596549990587,114.90882879984565,113.75596549990587,114.90882879984565,113.75596549990587,114.90882879984565,113.75596549990587,114.90882879984565,113.75596549990587,114.90882879984565,114.89120760001242,115.39247229998,114.89120760001242,115.39247229998,114.89120760001242,115.39247229998,114.89120760001242,115.39247229998,114.89120760001242,115.39247229998,114.89120760001242,115.39247229998,114.89120760001242,115.39247229998,114.89120760001242,115.39247229998,113.75596549990587,None,115.39247229998,116.74387369980104,1.1500000000000008,116.76046249992214,None,117.51167179993354,None,,,,,,,[[1.35]],3.1700000000000026,0.6666666666666666,11030,001,2024_Jan_11_0805,MFTM_A_new1021,2021.2.3,59.906139044041545,
,,,,,,,,stim/Instruction_adaptive.png,conditions/adaptive.xlsx,test,0.6,0.6,0.6,-0.6,-0.6,right,R,,,,,0,1,1,1,0,6,6,72,,,,,,,,,,,,,,,,,,,,,,,,,,,,,,,,,,,,,,,,,,,,118.01305499998853,None,right,1,1.2047544999513775,118.51309589995071,119.74847809993662,118.51309589995071,119.2476540999487,118.51309589995071,119.2476540999487,118.51309589995071,119.2476540999487,118.51309589995071,119.2476540999487,118.51309589995071,119.2476540999487,119.23164399992675,119.7322564998176,119.23164399992675,119.7322564998176,119.23164399992675,119.7322564998176,119.23164399992675,119.7322564998176,119.23164399992675,119.7322564998176,119.23164399992675,119.7322564998176,119.23164399992675,119.7322564998176,119.23164399992675,119.7322564998176,118.51309589995071,None,119.7322564998176,None,0.7300000000000004,121.38464939990081,None,122.13516779989004,None,,,,,,,[1.63857143],3.5900000000000025,0.7142857142857143,11030,001,2024_Jan_11_0805,MFTM_A_new1021,2021.2.3,59.906139044041545,
,,,,,,,,stim/Instruction_adaptive.png,conditions/adaptive.xlsx,test,0.6,0.6,0.6,-0.6,-0.6,right,R,,,,,0,1,1,1,0,7,7,24,,,,,,,,,,,,,,,,,,,,,,,,,,,,,,,,,,,,,,,,,,,,122.63582949992269,None,None,0,0,123.13664069981314,124.18810089980252,123.13664069981314,123.68801079993136,123.13664069981314,123.68801079993136,123.13664069981314,123.68801079993136,123.13664069981314,123.68801079993136,123.13664069981314,123.68801079993136,123.67074469989166,124.17173299985006,123.67074469989166,124.17173299985006,123.67074469989166,124.17173299985006,123.67074469989166,124.17173299985006,123.67074469989166,124.17173299985006,123.67074469989166,124.17173299985006,123.67074469989166,124.17173299985006,123.67074469989166,124.17173299985006,123.13664069981314,None,124.17173299985006,126.62516289995983,0.5500000000000003,126.64149189996533,None,127.39418939989991,None,,,,,,,[[2.45]],2.730000000000002,0.625,11030,001,2024_Jan_11_0805,MFTM_A_new1021,2021.2.3,59.906139044041545,
,,,,,,,,stim/Instruction_adaptive.png,conditions/adaptive.xlsx,test,-0.6,-0.6,-0.6,0.6,0.6,left,L,,,,,0,1,1,1,0,8,8,39,,,,,,,,,,,,,,,,,,,,,,,,,,,,,,,,,,,,,,,,,,,,127.8934698998928,None,right,0,0.9228235997725278,128.39544459991157,129.8966188998893,128.39544459991157,129.39584119990468,128.39544459991157,129.39584119990468,128.39544459991157,129.39584119990468,128.39544459991157,129.39584119990468,128.39544459991157,129.39584119990468,129.36274699983187,129.86300819995813,129.36274699983187,129.86300819995813,129.36274699983187,129.86300819995813,129.36274699983187,129.86300819995813,129.36274699983187,129.86300819995813,129.36274699983187,129.86300819995813,129.36274699983187,129.86300819995813,129.36274699983187,129.86300819995813,128.39544459991157,None,129.86300819995813,131.38218700001016,0.9900000000000007,131.39941529999487,None,132.15066189994104,None,,,,,,,[[1.51]],1.640000000000001,0.5555555555555556,11030,001,2024_Jan_11_0805,MFTM_A_new1021,2021.2.3,59.906139044041545,
,,,,,,,,stim/Instruction_adaptive.png,conditions/adaptive.xlsx,test,0.6,0.6,0.6,-0.6,-0.6,right,R,,,,,0,1,1,1,0,9,9,86,,,,,,,,,,,,,,,,,,,,,,,,,,,,,,,,,,,,,,,,,,,,132.65138649987057,None,left,0,1.494058399926871,133.15201969980262,135.77320459997281,133.15201969980262,135.2712565998081,133.15201969980262,135.2712565998081,133.15201969980262,135.2712565998081,133.15201969980262,135.2712565998081,133.15201969980262,135.2712565998081,135.23797609983012,135.73957189987414,135.23797609983012,135.73957189987414,135.23797609983012,135.73957189987414,135.23797609983012,135.73957189987414,135.23797609983012,135.73957189987414,135.23797609983012,135.73957189987414,135.23797609983012,135.73957189987414,135.23797609983012,135.73957189987414,133.15201969980262,None,135.73957189987414,136.14036610000767,2.1100000000000017,136.15597479999997,None,136.90764109999873,None,,,,,,,[[0.39]],0.5,0.5,11030,001,2024_Jan_11_0805,MFTM_A_new1021,2021.2.3,59.906139044041545,
,,,,,,,,stim/Instruction_adaptive.png,conditions/adaptive.xlsx,test,0.6,0.6,0.6,-0.6,-0.6,right,R,,,,,0,1,1,1,0,10,10,48,,,,,,,,,,,,,,,,,,,,,,,,,,,,,,,,,,,,,,,,,,,,137.40777980000712,None,right,1,2.9451180000323802,137.9093673999887,None,137.9093673999887,140.91310409992002,137.9093673999887,140.91310409992002,137.9093673999887,140.91310409992002,137.9093673999887,140.91310409992002,137.9093673999887,140.91310409992002,140.89628300000913,141.39735179999843,140.89628300000913,141.39735179999843,140.89628300000913,141.39735179999843,140.89628300000913,141.39735179999843,140.89628300000913,141.39735179999843,140.89628300000913,141.39735179999843,140.89628300000913,141.39735179999843,140.89628300000913,141.39735179999843,137.9093673999887,None,141.39735179999843,141.39735179999843,3.0000000000000027,141.4135053998325,None,142.16486939997412,None,,,,,,,0,0.7600000000000002,0.5454545454545454,11030,001,2024_Jan_11_0805,MFTM_A_new1021,2021.2.3,59.906139044041545,
,,,,,,,,stim/Instruction_adaptive.png,conditions/adaptive.xlsx,test,-0.6,-0.6,-0.6,0.6,0.6,left,L,,,,,0,1,1,1,0,11,11,95,,,,,,,,,,,,,,,,,,,,,,,,,,,,,,,,,,,,,,,,,,,,142.66643429989927,None,left,1,2.167486400110647,143.16698999982327,None,143.16698999982327,146.17095469986089,143.16698999982327,146.17095469986089,143.16698999982327,146.17095469986089,143.16698999982327,146.17095469986089,143.16698999982327,146.17095469986089,146.1550882998854,146.65488979988731,146.1550882998854,146.65488979988731,146.1550882998854,146.65488979988731,146.1550882998854,146.65488979988731,146.1550882998854,146.65488979988731,146.1550882998854,146.65488979988731,146.1550882998854,146.65488979988731,146.1550882998854,146.65488979988731,143.16698999982327,None,146.65488979988731,146.65488979988731,3.0000000000000027,146.67164889979176,None,147.4231566998642,None,,,,,,,0,1.3100000000000007,0.5833333333333334,11030,001,2024_Jan_11_0805,MFTM_A_new1021,2021.2.3,59.906139044041545,
,,,,,,,,stim/Instruction_adaptive.png,conditions/adaptive.xlsx,test,0.6,0.6,0.6,-0.6,-0.6,right,R,,,,,0,1,1,1,0,12,12,16,,,,,,,,,,,,,,,,,,,,,,,,,,,,,,,,,,,,,,,,,,,,147.92332439986058,None,right,1,1.6609081998467445,148.42514619999565,None,148.42514619999565,151.0780887999572,148.42514619999565,151.0780887999572,148.42514619999565,151.0780887999572,148.42514619999565,151.0780887999572,148.42514619999565,151.0780887999572,151.0619925998617,151.56211469997652,151.0619925998617,151.56211469997652,151.0619925998617,151.56211469997652,151.0619925998617,151.56211469997652,151.0619925998617,151.56211469997652,151.0619925998617,151.56211469997652,151.0619925998617,151.56211469997652,151.0619925998617,151.56211469997652,148.42514619999565,None,151.56211469997652,151.56211469997652,2.650000000000002,151.57879759999923,None,152.33016309980303,None,,,,,,,0,1.630000000000001,0.6153846153846154,11030,001,2024_Jan_11_0805,MFTM_A_new1021,2021.2.3,59.906139044041545,
,,,,,,,,stim/Instruction_adaptive.png,conditions/adaptive.xlsx,test,0.6,0.6,0.6,-0.6,-0.6,right,R,,,,,0,1,1,1,0,13,13,34,,,,,,,,,,,,,,,,,,,,,,,,,,,,,,,,,,,,,,,,,,,,152.8306741998531,None,right,1,1.6105520001146942,153.33129299990833,155.9686992999632,153.33129299990833,155.46852299990132,153.33129299990833,155.46852299990132,153.33129299990833,155.46852299990132,153.33129299990833,155.46852299990132,153.33129299990833,155.46852299990132,155.45100989984348,155.95326459989883,155.45100989984348,155.95326459989883,155.45100989984348,155.95326459989883,155.45100989984348,155.95326459989883,155.45100989984348,155.95326459989883,155.45100989984348,155.95326459989883,155.45100989984348,155.95326459989883,155.45100989984348,155.95326459989883,153.33129299990833,None,155.95326459989883,None,2.1300000000000017,156.3363749999553,None,157.0869024998974,None,,,,,,,[[0.37]],1.8600000000000012,0.6428571428571429,11030,001,2024_Jan_11_0805,MFTM_A_new1021,2021.2.3,59.906139044041545,
,,,,,,,,stim/Instruction_adaptive.png,conditions/adaptive.xlsx,test,-0.6,-0.6,-0.6,0.6,0.6,left,L,,,,,0,1,1,1,0,14,14,25,,,,,,,,,,,,,,,,,,,,,,,,,,,,,,,,,,,,,,,,,,,,157.58756499993615,None,right,0,2.373586499830708,158.08828729996458,160.40856249979697,158.08828729996458,159.9078503998462,158.08828729996458,159.9078503998462,158.08828729996458,159.9078503998462,158.08828729996458,159.9078503998462,158.08828729996458,159.9078503998462,159.87440079986118,160.37566109979525,159.87440079986118,160.37566109979525,159.87440079986118,160.37566109979525,159.87440079986118,160.37566109979525,159.87440079986118,160.37566109979525,159.87440079986118,160.37566109979525,159.87440079986118,160.37566109979525,159.87440079986118,160.37566109979525,158.08828729996458,None,160.37566109979525,161.07608369993977,1.8100000000000014,161.09288409980945,None,161.84397259983234,None,,,,,,,[[0.69]],1.2900000000000007,0.6,11030,001,2024_Jan_11_0805,MFTM_A_new1021,2021.2.3,59.906139044041545,
,,,,,,,,stim/Instruction_adaptive.png,conditions/adaptive.xlsx,test,-0.6,-0.6,-0.6,0.6,0.6,left,L,,,,,0,1,1,1,0,15,15,13,,,,,,,,,,,,,,,,,,,,,,,,,,,,,,,,,,,,,,,,,,,,162.34560539992526,None,left,1,1.880545600084588,162.84550479985774,None,162.84550479985774,165.54974949988537,162.84550479985774,165.54974949988537,162.84550479985774,165.54974949988537,162.84550479985774,165.54974949988537,162.84550479985774,165.54974949988537,165.51611489988863,166.01739969989285,165.51611489988863,166.01739969989285,165.51611489988863,166.01739969989285,165.51611489988863,166.01739969989285,165.51611489988863,166.01739969989285,165.51611489988863,166.01739969989285,165.51611489988863,166.01739969989285,165.51611489988863,166.01739969989285,162.84550479985774,None,166.01739969989285,166.01739969989285,2.690000000000002,166.0508776998613,None,166.80136319994926,None,,,,,,,0,1.520000000000001,0.625,11030,001,2024_Jan_11_0805,MFTM_A_new1021,2021.2.3,59.906139044041545,
,,,,,,,,stim/Instruction_adaptive.png,conditions/adaptive.xlsx,test,-0.6,-0.6,-0.6,0.6,0.6,left,L,,,,,0,1,1,1,0,16,16,5,,,,,,,,,,,,,,,,,,,,,,,,,,,,,,,,,,,,,,,,,,,,167.3026923998259,None,left,1,1.834236399969086,167.80391699983738,170.6069234998431,167.80391699983738,170.10629459982738,167.80391699983738,170.10629459982738,167.80391699983738,170.10629459982738,167.80391699983738,170.10629459982738,167.80391699983738,170.10629459982738,170.0728344998788,170.57437059981748,170.0728344998788,170.57437059981748,170.0728344998788,170.57437059981748,170.0728344998788,170.57437059981748,170.0728344998788,170.57437059981748,170.0728344998788,170.57437059981748,170.0728344998788,170.57437059981748,170.0728344998788,170.57437059981748,167.80391699983738,None,170.57437059981748,170.79069539997727,2.290000000000002,170.807234399952,None,171.5582635998726,None,,,,,,,[[0.21]],1.710000000000001,0.6470588235294118,11030,001,2024_Jan_11_0805,MFTM_A_new1021,2021.2.3,59.906139044041545,
,,,,,,,,stim/Instruction_adaptive.png,conditions/adaptive.xlsx,test,-0.6,-0.6,-0.6,0.6,0.6,left,L,,,,,0,1,1,1,0,17,17,49,,,,,,,,,,,,,,,,,,,,,,,,,,,,,,,,,,,,,,,,,,,,172.05898119998164,None,left,1,2.0864409001078457,172.55989699997008,175.08027459983714,172.55989699997008,174.58009499986656,172.55989699997008,174.58009499986656,172.55989699997008,174.58009499986656,172.55989699997008,174.58009499986656,172.55989699997008,174.58009499986656,174.54665099992417,175.04759899992496,174.54665099992417,175.04759899992496,174.54665099992417,175.04759899992496,174.54665099992417,175.04759899992496,174.54665099992417,175.04759899992496,174.54665099992417,175.04759899992496,174.54665099992417,175.04759899992496,174.54665099992417,175.04759899992496,172.55989699997008,None,175.04759899992496,175.54839999997057,2.0100000000000016,175.56435279990546,None,176.3158587999642,None,,,,,,,[[0.49]],1.8600000000000012,0.6666666666666666,11030,001,2024_Jan_11_0805,MFTM_A_new1021,2021.2.3,59.906139044041545,
,,,,,,,,stim/Instruction_adaptive.png,conditions/adaptive.xlsx,test,0.6,0.6,0.6,-0.6,-0.6,right,R,,,,,0,1,1,1,0,18,18,22,,,,,,,,,,,,,,,,,,,,,,,,,,,,,,,,,,,,,,,,,,,,176.81781849986874,None,right,1,1.561063600005582,177.31692619994283,179.63750489987433,177.31692619994283,179.13686219998635,177.31692619994283,179.13686219998635,177.31692619994283,179.13686219998635,177.31692619994283,179.13686219998635,177.31692619994283,179.13686219998635,179.1025924999267,179.60351889999583,179.1025924999267,179.60351889999583,179.1025924999267,179.60351889999583,179.1025924999267,179.60351889999583,179.1025924999267,179.60351889999583,179.1025924999267,179.60351889999583,179.1025924999267,179.60351889999583,179.1025924999267,179.60351889999583,177.31692619994283,None,179.60351889999583,180.30457769986242,1.8100000000000014,180.32124800002202,None,181.07319949986413,None,,,,,,,[[0.69]],1.9900000000000013,0.6842105263157895,11030,001,2024_Jan_11_0805,MFTM_A_new1021,2021.2.3,59.906139044041545,
,,,,,,,,stim/Instruction_adaptive.png,conditions/adaptive.xlsx,test,0.6,0.6,0.6,-0.6,-0.6,right,R,,,,,0,1,1,1,0,19,19,54,,,,,,,,,,,,,,,,,,,,,,,,,,,,,,,,,,,,,,,,,,,,181.57359879999422,None,left,0,2.371562499785796,182.07446819986217,184.24446359998547,182.07446819986217,183.74356189998798,182.07446819986217,183.74356189998798,182.07446819986217,183.74356189998798,182.07446819986217,183.74356189998798,182.07446819986217,183.74356189998798,183.71040019998327,184.21062299981713,183.71040019998327,184.21062299981713,183.71040019998327,184.21062299981713,183.71040019998327,184.21062299981713,183.71040019998327,184.21062299981713,183.71040019998327,184.21062299981713,183.71040019998327,184.21062299981713,183.71040019998327,184.21062299981713,182.07446819986217,None,184.21062299981713,185.06162769999355,1.6600000000000013,185.07823889981955,None,185.82962340000086,None,,,,,,,[[0.84]],1.640000000000001,0.65,11030,001,2024_Jan_11_0805,MFTM_A_new1021,2021.2.3,59.906139044041545,
,,,,,,,,stim/Instruction_adaptive.png,conditions/adaptive.xlsx,test,0.6,0.6,0.6,-0.6,-0.6,right,R,,,,,0,1,1,1,0,20,20,64,,,,,,,,,,,,,,,,,,,,,,,,,,,,,,,,,,,,,,,,,,,,186.33012839988805,None,right,1,1.8314430001191795,186.8308712998405,189.45249309996143,186.8308712998405,188.95071379980072,186.8308712998405,188.95071379980072,186.8308712998405,188.95071379980072,186.8308712998405,188.95071379980072,186.8308712998405,188.95071379980072,188.91722709988244,189.41871030000038,188.91722709988244,189.41871030000038,188.91722709988244,189.41871030000038,188.91722709988244,189.41871030000038,188.91722709988244,189.41871030000038,188.91722709988244,189.41871030000038,188.91722709988244,189.41871030000038,188.91722709988244,189.41871030000038,186.8308712998405,None,189.41871030000038,189.81871239980683,2.1100000000000017,189.83545659994707,None,190.58649719995447,None,,,,,,,[[0.39]],1.7700000000000011,0.6666666666666666,11030,001,2024_Jan_11_0805,MFTM_A_new1021,2021.2.3,59.906139044041545,
,,,,,,,,stim/Instruction_adaptive.png,conditions/adaptive.xlsx,test,-0.6,-0.6,-0.6,0.6,0.6,left,L,,,,,0,1,1,1,0,21,21,87,,,,,,,,,,,,,,,,,,,,,,,,,,,,,,,,,,,,,,,,,,,,191.0873358999379,None,left,1,1.45067790010944,191.5880105998367,194.02597459987737,191.5880105998367,193.52487679990008,191.5880105998367,193.52487679990008,191.5880105998367,193.52487679990008,191.5880105998367,193.52487679990008,191.5880105998367,193.52487679990008,193.5074209999293,194.00922110001557,193.5074209999293,194.00922110001557,193.5074209999293,194.00922110001557,193.5074209999293,194.00922110001557,193.5074209999293,194.00922110001557,193.5074209999293,194.00922110001557,193.5074209999293,194.00922110001557,193.5074209999293,194.00922110001557,191.5880105998367,None,193.9924777999986,194.575922699878,1.9300000000000015,194.59248019987717,None,195.34340139990672,None,,,,,,,[[0.57]],1.8800000000000012,0.6818181818181818,11030,001,2024_Jan_11_0805,MFTM_A_new1021,2021.2.3,59.906139044041545,
,,,,,,,,stim/Instruction_adaptive.png,conditions/adaptive.xlsx,test,-0.6,-0.6,-0.6,0.6,0.6,left,L,,,,,0,1,1,1,0,22,22,77,,,,,,,,,,,,,,,,,,,,,,,,,,,,,,,,,,,,,,,,,,,,195.84563609980978,None,left,1,1.4855557000264525,196.34529129997827,198.64850269979797,196.34529129997827,198.14766319980845,196.34529129997827,198.14766319980845,196.34529129997827,198.14766319980845,196.34529129997827,198.14766319980845,196.34529129997827,198.14766319980845,198.11418139981106,198.61506619979627,198.11418139981106,198.61506619979627,198.11418139981106,198.61506619979627,198.11418139981106,198.61506619979627,198.11418139981106,198.61506619979627,198.11418139981106,198.61506619979627,198.11418139981106,198.61506619979627,198.11418139981106,198.61506619979627,196.34529129997827,None,198.61506619979627,199.33291429979727,1.7900000000000014,199.34968619979918,None,200.1006747998763,None,,,,,,,[[0.71]],1.9900000000000013,0.6956521739130435,11030,001,2024_Jan_11_0805,MFTM_A_new1021,2021.2.3,59.906139044041545,
,,,,,,,,stim/Instruction_adaptive.png,conditions/adaptive.xlsx,test,-0.6,-0.6,-0.6,0.6,0.6,left,L,,,,,0,1,1,1,0,23,23,19,,,,,,,,,,,,,,,,,,,,,,,,,,,,,,,,,,,,,,,,,,,,200.60158569994383,None,left,1,1.9585768000688404,201.10339029994793,203.27243379992433,201.10339029994793,202.7717978998553,201.10339029994793,202.7717978998553,201.10339029994793,202.7717978998553,201.10339029994793,202.7717978998553,201.10339029994793,202.7717978998553,202.739271099912,203.23922009998932,202.739271099912,203.23922009998932,202.739271099912,203.23922009998932,202.739271099912,203.23922009998932,202.739271099912,203.23922009998932,202.739271099912,203.23922009998932,202.739271099912,203.23922009998932,202.739271099912,203.23922009998932,201.10339029994793,None,203.23922009998932,204.0733705998864,1.6600000000000013,204.09037779993378,None,204.84161329991184,None,,,,,,,[0.82416667],2.0800000000000014,0.7083333333333334,11030,001,2024_Jan_11_0805,MFTM_A_new1021,2021.2.3,59.906139044041545,
,,,,,,,,stim/Instruction_adaptive.png,conditions/adaptive.xlsx,test,-0.6,-0.6,-0.6,0.6,0.6,left,L,,,,,0,1,1,1,0,24,24,33,,,,,,,,,,,,,,,,,,,,,,,,,,,,,,,,,,,,,,,,,,,,205.34177959989756,None,left,1,1.2276731999590993,205.84241739986464,207.91434219991788,205.84241739986464,207.4126611999236,205.84241739986464,207.4126611999236,205.84241739986464,207.4126611999236,205.84241739986464,207.4126611999236,205.84241739986464,207.4126611999236,207.37800379982218,207.87896270002238,207.37800379982218,207.87896270002238,207.37800379982218,207.87896270002238,207.37800379982218,207.87896270002238,207.37800379982218,207.87896270002238,207.37800379982218,207.87896270002238,207.37800379982218,207.87896270002238,207.37800379982218,207.87896270002238,205.84241739986464,None,207.87896270002238,208.71340859984048,1.5600000000000012,208.74665579991415,None,209.4978100999724,None,,,,,,,[0.8288],2.1600000000000015,0.72,11030,001,2024_Jan_11_0805,MFTM_A_new1021,2021.2.3,59.906139044041545,
,,,,,,,,stim/Instruction_adaptive.png,conditions/adaptive.xlsx,test,-0.6,-0.6,-0.6,0.6,0.6,left,L,,,,,0,1,1,1,0,25,25,35,,,,,,,,,,,,,,,,,,,,,,,,,,,,,,,,,,,,,,,,,,,,209.99958790000528,None,left,1,1.4183771000243723,210.49995490000583,212.46965739992447,210.49995490000583,211.98563279979862,210.49995490000583,211.98563279979862,210.49995490000583,211.98563279979862,210.49995490000583,211.98563279979862,210.49995490000583,211.98563279979862,211.95166239980608,212.45235049980693,211.95166239980608,212.45235049980693,211.95166239980608,212.45235049980693,211.95166239980608,212.45235049980693,211.95166239980608,212.45235049980693,211.95166239980608,212.45235049980693,211.95166239980608,212.45235049980693,211.95166239980608,212.45235049980693,210.49995490000583,None,212.45235049980693,213.30414399993606,1.470000000000001,213.32070049992763,None,214.07139599998482,None,,,,,,,[0.83653846],2.2400000000000015,0.7307692307692307,11030,001,2024_Jan_11_0805,MFTM_A_new1021,2021.2.3,59.906139044041545,
,,,,,,,,stim/Instruction_adaptive.png,conditions/adaptive.xlsx,test,0.6,0.6,0.6,-0.6,-0.6,right,R,,,,,0,1,1,1,0,26,26,94,,,,,,,,,,,,,,,,,,,,,,,,,,,,,,,,,,,,,,,,,,,,214.57231820002198,None,right,1,1.3495012000203133,215.0728660998866,216.97566669993103,215.0728660998866,216.47504079993814,215.0728660998866,216.47504079993814,215.0728660998866,216.47504079993814,215.0728660998866,216.47504079993814,215.0728660998866,216.47504079993814,216.44246679986827,216.9427222998347,216.44246679986827,216.9427222998347,216.44246679986827,216.9427222998347,216.44246679986827,216.9427222998347,216.44246679986827,216.9427222998347,216.44246679986827,216.9427222998347,216.44246679986827,216.9427222998347,216.44246679986827,216.9427222998347,215.0728660998866,None,216.9427222998347,217.79387409985065,1.390000000000001,217.81047529983334,None,218.561484699836,None,,,,,,,[0.84666667],2.3100000000000014,0.7407407407407407,11030,001,2024_Jan_11_0805,MFTM_A_new1021,2021.2.3,59.906139044041545,
,,,,,,,,stim/Instruction_adaptive.png,conditions/adaptive.xlsx,test,0.6,0.6,0.6,-0.6,-0.6,right,R,,,,,0,1,1,1,0,27,27,98,,,,,,,,,,,,,,,,,,,,,,,,,,,,,,,,,,,,,,,,,,,,219.06226309994236,None,right,1,1.7952701998874545,219.5627190999221,221.40009939996526,219.5627190999221,220.89834619988687,219.5627190999221,220.89834619988687,219.5627190999221,220.89834619988687,219.5627190999221,220.89834619988687,219.5627190999221,220.89834619988687,220.88176889996976,221.3827290998306,220.88176889996976,221.3827290998306,220.88176889996976,221.3827290998306,220.88176889996976,221.3827290998306,220.88176889996976,221.3827290998306,220.88176889996976,221.3827290998306,220.88176889996976,221.3827290998306,220.88176889996976,221.3827290998306,219.5627190999221,None,221.3655282999389,222.23418719996698,1.330000000000001,222.25016589998268,None,223.0013064998202,None,,,,,,,[0.85821429],2.370000000000002,0.75,11030,001,2024_Jan_11_0805,MFTM_A_new1021,2021.2.3,59.906139044041545,
,,,,,,,,stim/Instruction_adaptive.png,conditions/adaptive.xlsx,test,0.6,0.6,0.6,-0.6,-0.6,right,R,,,,,0,1,1,1,0,28,28,8,,,,,,,,,,,,,,,,,,,,,,,,,,,,,,,,,,,,,,,,,,,,223.502778199967,None,right,1,1.627444899873808,224.0029623999726,225.77221959992312,224.0029623999726,225.288167799823,224.0029623999726,225.288167799823,224.0029623999726,225.288167799823,224.0029623999726,225.288167799823,224.0029623999726,225.288167799823,225.25472949980758,225.7554057999514,225.25472949980758,225.7554057999514,225.25472949980758,225.7554057999514,225.25472949980758,225.7554057999514,225.25472949980758,225.7554057999514,225.25472949980758,225.7554057999514,225.25472949980758,225.7554057999514,225.25472949980758,225.7554057999514,224.0029623999726,None,225.7554057999514,226.6407335998956,1.270000000000001,226.65671469992958,None,227.4078845998738,None,,,,,,,[0.87103448],2.4400000000000017,0.7586206896551724,11030,001,2024_Jan_11_0805,MFTM_A_new1021,2021.2.3,59.906139044041545,
,,,,,,,,stim/Instruction_adaptive.png,conditions/adaptive.xlsx,test,-0.6,-0.6,-0.6,0.6,0.6,left,L,,,,,0,1,1,1,0,29,29,63,,,,,,,,,,,,,,,,,,,,,,,,,,,,,,,,,,,,,,,,,,,,227.90973780001514,None,left,1,2.101026799995452,228.4093652998563,230.1286108000204,228.4093652998563,229.62777729984373,228.4093652998563,229.62777729984373,228.4093652998563,229.62777729984373,228.4093652998563,229.62777729984373,228.4093652998563,229.62777729984373,229.61112749995664,230.112617299892,229.61112749995664,230.112617299892,229.61112749995664,230.112617299892,229.61112749995664,230.112617299892,229.61112749995664,230.112617299892,229.61112749995664,230.112617299892,229.61112749995664,230.112617299892,229.61112749995664,230.112617299892,228.4093652998563,None,230.112617299892,None,1.2100000000000009,231.01392890000716,None,231.76497069979087,None,,,,,,,[0.885],2.5000000000000018,0.7666666666666667,11030,001,2024_Jan_11_0805,MFTM_A_new1021,2021.2.3,59.906139044041545,
,,,,,,,,stim/Instruction_adaptive.png,conditions/adaptive.xlsx,test,-0.6,-0.6,-0.6,0.6,0.6,left,L,,,,,0,1,1,1,0,30,30,47,,,,,,,,,,,,,,,,,,,,,,,,,,,,,,,,,,,,,,,,,,,,232.26543839997612,None,left,1,1.4244605000130832,232.76569339982234,234.4347530999221,232.76569339982234,233.9341431998182,232.76569339982234,233.9341431998182,232.76569339982234,233.9341431998182,232.76569339982234,233.9341431998182,232.76569339982234,233.9341431998182,233.91740009980276,234.41808460000902,233.91740009980276,234.41808460000902,233.91740009980276,234.41808460000902,233.91740009980276,234.41808460000902,233.91740009980276,234.41808460000902,233.91740009980276,234.41808460000902,233.91740009980276,234.41808460000902,233.91740009980276,234.41808460000902,232.76569339982234,None,234.41808460000902,235.32057320000604,1.1600000000000008,235.33600799995475,None,236.08799049980007,None,,,,,,,[0.89967742],2.5500000000000016,0.7741935483870968,11030,001,2024_Jan_11_0805,MFTM_A_new1021,2021.2.3,59.906139044041545,
,,,,,,,,stim/Instruction_adaptive.png,conditions/adaptive.xlsx,test,-0.6,-0.6,-0.6,0.6,0.6,left,L,,,,,0,1,1,1,0,31,31,93,,,,,,,,,,,,,,,,,,,,,,,,,,,,,,,,,,,,,,,,,,,,236.5882496999111,None,left,1,2.181308100000024,237.08915899996646,238.72444599983282,237.08915899996646,238.22435539984144,237.08915899996646,238.22435539984144,237.08915899996646,238.22435539984144,237.08915899996646,238.22435539984144,237.08915899996646,238.22435539984144,238.19015529984608,238.6912431998644,238.19015529984608,238.6912431998644,238.19015529984608,238.6912431998644,238.19015529984608,238.6912431998644,238.19015529984608,238.6912431998644,238.19015529984608,238.6912431998644,238.19015529984608,238.6912431998644,238.19015529984608,238.6912431998644,237.08915899996646,None,238.6912431998644,239.6092705000192,1.1200000000000008,239.62613829993643,None,240.37729169987142,None,,,,,,,[0.9146875],2.610000000000002,0.78125,11030,001,2024_Jan_11_0805,MFTM_A_new1021,2021.2.3,59.906139044041545,
,,,,,,,,stim/Instruction_adaptive.png,conditions/adaptive.xlsx,test,-0.6,-0.6,-0.6,0.6,0.6,left,L,,,,,0,1,1,1,0,32,32,69,,,,,,,,,,,,,,,,,,,,,,,,,,,,,,,,,,,,,,,,,,,,240.8784521999769,None,left,1,1.4760653001721948,241.37843049992807,242.96481099980883,241.37843049992807,242.4647383999545,241.37843049992807,242.4647383999545,241.37843049992807,242.4647383999545,241.37843049992807,242.4647383999545,241.37843049992807,242.4647383999545,242.44725269987248,242.94757259986363,242.44725269987248,242.94757259986363,242.44725269987248,242.94757259986363,242.44725269987248,242.94757259986363,242.44725269987248,242.94757259986363,242.44725269987248,242.94757259986363,242.44725269987248,242.94757259986363,242.44725269987248,242.94757259986363,241.37843049992807,None,242.94757259986363,243.8827640998643,1.0800000000000007,243.89896089979447,None,244.65008699987084,None,,,,,,,[0.93],2.660000000000002,0.7878787878787878,11030,001,2024_Jan_11_0805,MFTM_A_new1021,2021.2.3,59.906139044041545,
,,,,,,,,stim/Instruction_adaptive.png,conditions/adaptive.xlsx,test,0.6,0.6,0.6,-0.6,-0.6,right,R,,,,,0,1,1,1,0,33,33,20,,,,,,,,,,,,,,,,,,,,,,,,,,,,,,,,,,,,,,,,,,,,245.15117139997892,None,left,0,2.4753129000309855,245.65156329981983,247.2039098998066,245.65156329981983,246.7037137998268,245.65156329981983,246.7037137998268,245.65156329981983,246.7037137998268,245.65156329981983,246.7037137998268,245.65156329981983,246.7037137998268,246.6698082999792,247.17098139994778,246.6698082999792,247.17098139994778,246.6698082999792,247.17098139994778,246.6698082999792,247.17098139994778,246.6698082999792,247.17098139994778,246.6698082999792,247.17098139994778,246.6698082999792,247.17098139994778,246.6698082999792,247.17098139994778,245.65156329981983,None,247.17098139994778,248.15526719996706,1.0400000000000007,248.1717427999247,None,248.92308279988356,None,,,,,,,[0.94558824],2.5100000000000016,0.7647058823529411,11030,001,2024_Jan_11_0805,MFTM_A_new1021,2021.2.3,59.906139044041545,
,,,,,,,,stim/Instruction_adaptive.png,conditions/adaptive.xlsx,test,-0.6,-0.6,-0.6,0.6,0.6,left,L,,,,,0,1,1,1,0,34,34,7,,,,,,,,,,,,,,,,,,,,,,,,,,,,,,,,,,,,,,,,,,,,249.4244462000206,None,right,0,1.6339347998145968,249.92463439982384,251.57690240000375,249.92463439982384,251.07714869990014,249.92463439982384,251.07714869990014,249.92463439982384,251.07714869990014,249.92463439982384,251.07714869990014,249.92463439982384,251.07714869990014,251.06021259981208,251.56046959990636,251.06021259981208,251.56046959990636,251.06021259981208,251.56046959990636,251.06021259981208,251.56046959990636,251.06021259981208,251.56046959990636,251.06021259981208,251.56046959990636,251.06021259981208,251.56046959990636,251.06021259981208,251.56046959990636,249.92463439982384,None,251.56046959990636,252.53049659985118,1.1500000000000008,252.54502499988303,None,253.2968795998022,None,,,,,,,[0.95714286],2.3600000000000017,0.7428571428571429,11030,001,2024_Jan_11_0805,MFTM_A_new1021,2021.2.3,59.906139044041545,
,,,,,,,,stim/Instruction_adaptive.png,conditions/adaptive.xlsx,test,0.6,0.6,0.6,-0.6,-0.6,right,R,,,,,0,1,1,1,0,35,35,30,,,,,,,,,,,,,,,,,,,,,,,,,,,,,,,,,,,,,,,,,,,,253.797000200022,None,right,1,1.7328121999744326,254.29753439989872,256.0848914999515,254.29753439989872,255.58293829998001,254.29753439989872,255.58293829998001,254.29753439989872,255.58293829998001,254.29753439989872,255.58293829998001,254.29753439989872,255.58293829998001,255.5662584998645,256.06747539993376,255.5662584998645,256.06747539993376,255.5662584998645,256.06747539993376,255.5662584998645,256.06747539993376,255.5662584998645,256.06747539993376,255.5662584998645,256.06747539993376,255.5662584998645,256.06747539993376,255.5662584998645,256.06747539993376,254.29753439989872,None,256.06747539993376,257.0363302999176,1.280000000000001,257.05145639996044,None,257.80314709991217,None,,,,,,,[0.96444444],2.410000000000002,0.75,11030,001,2024_Jan_11_0805,MFTM_A_new1021,2021.2.3,59.906139044041545,
,,,,,,,,stim/Instruction_adaptive.png,conditions/adaptive.xlsx,test,-0.6,-0.6,-0.6,0.6,0.6,left,L,,,,,0,1,1,1,0,36,36,83,,,,,,,,,,,,,,,,,,,,,,,,,,,,,,,,,,,,,,,,,,,,258.30388079979457,None,left,1,2.7299794000573456,258.80412979982793,260.5569251999259,258.80412979982793,260.0561579000205,258.80412979982793,260.0561579000205,258.80412979982793,260.0561579000205,258.80412979982793,260.0561579000205,258.80412979982793,260.0561579000205,260.0226933998056,260.5239800999407,260.0226933998056,260.5239800999407,260.0226933998056,260.5239800999407,260.0226933998056,260.5239800999407,260.0226933998056,260.5239800999407,260.0226933998056,260.5239800999407,260.0226933998056,260.5239800999407,260.0226933998056,260.5239800999407,258.80412979982793,None,260.5239800999407,261.55827429983765,1.2400000000000009,261.5748933998402,None,262.32611839985475,None,,,,,,,[0.97243243],2.4700000000000015,0.7567567567567568,11030,001,2024_Jan_11_0805,MFTM_A_new1021,2021.2.3,59.906139044041545,
,,,,,,,,stim/Instruction_adaptive.png,conditions/adaptive.xlsx,test,0.6,0.6,0.6,-0.6,-0.6,right,R,,,,,0,1,1,1,0,37,37,40,,,,,,,,,,,,,,,,,,,,,,,,,,,,,,,,,,,,,,,,,,,,262.827055899892,None,right,1,2.4139863001182675,263.3279662998393,265.031129400013,263.3279662998393,264.52946589980274,263.3279662998393,264.52946589980274,263.3279662998393,264.52946589980274,263.3279662998393,264.52946589980274,263.3279662998393,264.52946589980274,264.4975340999663,264.9979375998955,264.4975340999663,264.9979375998955,264.4975340999663,264.9979375998955,264.4975340999663,264.9979375998955,264.4975340999663,264.9979375998955,264.4975340999663,264.9979375998955,264.4975340999663,264.9979375998955,264.4975340999663,264.9979375998955,263.3279662998393,None,264.9979375998955,265.981545999879,1.1900000000000008,266.01491849985905,None,266.7674789999146,None,,,,,,,[0.98131579],2.5100000000000016,0.7631578947368421,11030,001,2024_Jan_11_0805,MFTM_A_new1021,2021.2.3,59.906139044041545,
,,,,,,,,stim/Instruction_adaptive.png,conditions/adaptive.xlsx,test,0.6,0.6,0.6,-0.6,-0.6,right,R,,,,,0,1,1,1,0,38,38,0,,,,,,,,,,,,,,,,,,,,,,,,,,,,,,,,,,,,,,,,,,,,267.26687629986554,None,left,0,1.5825441000051796,267.76794379996136,269.42027869983576,267.76794379996136,268.91980419983156,267.76794379996136,268.91980419983156,267.76794379996136,268.91980419983156,267.76794379996136,268.91980419983156,267.76794379996136,268.91980419983156,268.90247919992544,269.40390599984676,268.90247919992544,269.40390599984676,268.90247919992544,269.40390599984676,268.90247919992544,269.40390599984676,268.90247919992544,269.40390599984676,268.90247919992544,269.40390599984676,268.90247919992544,269.40390599984676,268.90247919992544,269.40390599984676,267.76794379996136,None,269.40390599984676,270.4054868000094,1.1500000000000008,270.4215286998078,None,271.17324169981293,None,,,,,,,[0.99076923],2.3800000000000017,0.7435897435897436,11030,001,2024_Jan_11_0805,MFTM_A_new1021,2021.2.3,59.906139044041545,
,,,,,,,,stim/Instruction_adaptive.png,conditions/adaptive.xlsx,test,0.6,0.6,0.6,-0.6,-0.6,right,R,,,,,0,1,1,1,0,39,39,46,,,,,,,,,,,,,,,,,,,,,,,,,,,,,,,,,,,,,,,,,,,,271.67336869984865,None,right,1,1.6555884999688715,272.1745054998901,273.9434479000047,272.1745054998901,273.4437923999503,272.1745054998901,273.4437923999503,272.1745054998901,273.4437923999503,272.1745054998901,273.4437923999503,272.1745054998901,273.4437923999503,273.426004299894,273.92746849986725,273.426004299894,273.92746849986725,273.426004299894,273.92746849986725,273.426004299894,273.92746849986725,273.426004299894,273.92746849986725,273.426004299894,273.92746849986725,273.426004299894,273.92746849986725,273.426004299894,273.92746849986725,272.1745054998901,None,273.91028669988737,274.91195169999264,1.260000000000001,274.94415199989453,None,275.69612809992395,None,,,,,,,[0.997],2.4200000000000017,0.75,11030,001,2024_Jan_11_0805,MFTM_A_new1021,2021.2.3,59.906139044041545,
,,,,,,,,stim/Instruction_adaptive.png,conditions/adaptive.xlsx,test,0.6,0.6,0.6,-0.6,-0.6,right,R,,,,,0,1,1,1,0,40,40,26,,,,,,,,,,,,,,,,,,,,,,,,,,,,,,,,,,,,,,,,,,,,276.1964749000035,None,left,0,2.140210699988529,276.69794019986875,278.4337578997947,276.69794019986875,277.93285829992965,276.69794019986875,277.93285829992965,276.69794019986875,277.93285829992965,276.69794019986875,277.93285829992965,276.69794019986875,277.93285829992965,277.91639189980924,278.41685999999754,277.91639189980924,278.41685999999754,277.91639189980924,278.41685999999754,277.91639189980924,278.41685999999754,277.91639189980924,278.41685999999754,277.91639189980924,278.41685999999754,277.91639189980924,278.41685999999754,277.91639189980924,278.41685999999754,276.69794019986875,None,278.41685999999754,None,1.2300000000000009,279.4351237998344,None,280.18661679979414,None,,,,,,,[1.00365854],2.290000000000002,0.7317073170731707,11030,001,2024_Jan_11_0805,MFTM_A_new1021,2021.2.3,59.906139044041545,
,,,,,,,,stim/Instruction_adaptive.png,conditions/adaptive.xlsx,test,0.6,0.6,0.6,-0.6,-0.6,right,R,,,,,0,1,1,1,0,41,41,96,,,,,,,,,,,,,,,,,,,,,,,,,,,,,,,,,,,,,,,,,,,,280.6867757998407,None,right,1,1.7376002001110464,281.18849899992347,283.04151039989665,281.18849899992347,282.53940429980867,281.18849899992347,282.53940429980867,281.18849899992347,282.53940429980867,281.18849899992347,282.53940429980867,281.18849899992347,282.53940429980867,282.5228738000151,283.02351549989544,282.5228738000151,283.02351549989544,282.5228738000151,283.02351549989544,282.5228738000151,283.02351549989544,282.5228738000151,283.02351549989544,282.5228738000151,283.02351549989544,282.5228738000151,283.02351549989544,282.5228738000151,283.02351549989544,281.18849899992347,None,283.02351549989544,284.04171679983847,1.350000000000001,284.0590691999532,None,284.8097214999143,None,,,,,,,[1.00714286],2.330000000000002,0.7380952380952381,11030,001,2024_Jan_11_0805,MFTM_A_new1021,2021.2.3,59.906139044041545,
,,,,,,,,stim/Instruction_adaptive.png,conditions/adaptive.xlsx,test,0.6,0.6,0.6,-0.6,-0.6,right,R,,,,,0,1,1,1,0,42,42,70,,,,,,,,,,,,,,,,,,,,,,,,,,,,,,,,,,,,,,,,,,,,285.31023339997046,None,left,0,2.8834219998680055,285.81113970000297,287.63022009981796,285.81113970000297,287.12985019991174,285.81113970000297,287.12985019991174,285.81113970000297,287.12985019991174,285.81113970000297,287.12985019991174,285.81113970000297,287.12985019991174,287.112877599895,287.6140749999322,287.112877599895,287.6140749999322,287.112877599895,287.6140749999322,287.112877599895,287.6140749999322,287.112877599895,287.6140749999322,287.112877599895,287.6140749999322,287.112877599895,287.6140749999322,287.112877599895,287.6140749999322,285.81113970000297,None,287.5968249998987,288.71530569996685,1.310000000000001,288.73190449993126,None,289.48348709987476,None,,,,,,,[1.01139535],2.2000000000000015,0.7209302325581395,11030,001,2024_Jan_11_0805,MFTM_A_new1021,2021.2.3,59.906139044041545,
,,,,,,,,stim/Instruction_adaptive.png,conditions/adaptive.xlsx,test,-0.6,-0.6,-0.6,0.6,0.6,left,L,,,,,0,1,1,1,0,43,43,91,,,,,,,,,,,,,,,,,,,,,,,,,,,,,,,,,,,,,,,,,,,,289.98384549980983,None,left,1,2.257021199911833,290.48524159984663,292.4210099999327,290.48524159984663,291.92133569996804,290.48524159984663,291.92133569996804,290.48524159984663,291.92133569996804,290.48524159984663,291.92133569996804,290.48524159984663,291.92133569996804,291.90348899993114,292.40415179985575,291.90348899993114,292.40415179985575,291.90348899993114,292.40415179985575,291.90348899993114,292.40415179985575,291.90348899993114,292.40415179985575,291.90348899993114,292.40415179985575,291.90348899993114,292.40415179985575,291.90348899993114,292.40415179985575,290.48524159984663,None,292.40415179985575,293.42328389990143,1.430000000000001,293.43959610001184,None,294.1901730999816,None,,,,,,,[1.01272727],2.2400000000000015,0.7272727272727273,11030,001,2024_Jan_11_0805,MFTM_A_new1021,2021.2.3,59.906139044041545,
,,,,,,,,stim/Instruction_adaptive.png,conditions/adaptive.xlsx,test,-0.6,-0.6,-0.6,0.6,0.6,left,L,,,,,0,1,1,1,0,44,44,59,,,,,,,,,,,,,,,,,,,,,,,,,,,,,,,,,,,,,,,,,,,,294.69144680001773,None,left,1,1.710458200192079,295.1915885999333,297.0944932999555,295.1915885999333,296.5939118999522,295.1915885999333,296.5939118999522,295.1915885999333,296.5939118999522,295.1915885999333,296.5939118999522,295.1915885999333,296.5939118999522,296.56036180001684,297.06133269984275,296.56036180001684,297.06133269984275,296.56036180001684,297.06133269984275,296.56036180001684,297.06133269984275,296.56036180001684,297.06133269984275,296.56036180001684,297.06133269984275,296.56036180001684,297.06133269984275,296.56036180001684,297.06133269984275,295.1915885999333,None,297.06133269984275,298.07919309986755,1.390000000000001,298.0960448998958,None,298.846887299791,None,,,,,,,[1.01488889],2.290000000000002,0.7333333333333333,11030,001,2024_Jan_11_0805,MFTM_A_new1021,2021.2.3,59.906139044041545,
,,,,,,,,stim/Instruction_adaptive.png,conditions/adaptive.xlsx,test,-0.6,-0.6,-0.6,0.6,0.6,left,L,,,,,0,1,1,1,0,45,45,37,,,,,,,,,,,,,,,,,,,,,,,,,,,,,,,,,,,,,,,,,,,,299.34749569999985,None,left,1,1.101625399896875,299.84845639998093,301.7013099999167,299.84845639998093,301.20033729984425,299.84845639998093,301.20033729984425,299.84845639998093,301.20033729984425,299.84845639998093,301.20033729984425,299.84845639998093,301.20033729984425,301.1831412999891,301.68500259984285,301.1831412999891,301.68500259984285,301.1831412999891,301.68500259984285,301.1831412999891,301.68500259984285,301.1831412999891,301.68500259984285,301.1831412999891,301.68500259984285,301.1831412999891,301.68500259984285,301.1831412999891,301.68500259984285,299.84845639998093,None,301.68500259984285,302.7031719998922,1.350000000000001,302.719247699948,None,303.4704619999975,None,,,,,,,[1.01782609],2.330000000000002,0.7391304347826086,11030,001,2024_Jan_11_0805,MFTM_A_new1021,2021.2.3,59.906139044041545,
,,,,,,,,stim/Instruction_adaptive.png,conditions/adaptive.xlsx,test,0.6,0.6,0.6,-0.6,-0.6,right,R,,,,,0,1,1,1,0,46,46,6,,,,,,,,,,,,,,,,,,,,,,,,,,,,,,,,,,,,,,,,,,,,303.97127370000817,None,right,1,1.7334733000025153,304.47282629995607,306.2912955000065,304.47282629995607,305.7907073998358,304.47282629995607,305.7907073998358,304.47282629995607,305.7907073998358,304.47282629995607,305.7907073998358,304.47282629995607,305.7907073998358,305.7754474999383,306.27577979979105,305.7754474999383,306.27577979979105,305.7754474999383,306.27577979979105,305.7754474999383,306.27577979979105,305.7754474999383,306.27577979979105,305.7754474999383,306.27577979979105,305.7754474999383,306.27577979979105,305.7754474999383,306.27577979979105,304.47282629995607,None,306.2586926999502,307.2931790999137,1.310000000000001,307.30963879986666,None,308.0606872998178,None,,,,,,,[1.02148936],2.3800000000000017,0.7446808510638298,11030,001,2024_Jan_11_0805,MFTM_A_new1021,2021.2.3,59.906139044041545,
,,,,,,,,stim/Instruction_adaptive.png,conditions/adaptive.xlsx,test,-0.6,-0.6,-0.6,0.6,0.6,left,L,,,,,0,1,1,1,0,47,47,73,,,,,,,,,,,,,,,,,,,,,,,,,,,,,,,,,,,,,,,,,,,,308.5626634999644,None,left,1,2.047711000079289,309.06235079979524,310.83139539998956,309.06235079979524,310.3306872998364,309.06235079979524,310.3306872998364,309.06235079979524,310.3306872998364,309.06235079979524,310.3306872998364,309.06235079979524,310.3306872998364,310.2972963999491,310.798278799979,310.2972963999491,310.798278799979,310.2972963999491,310.798278799979,310.2972963999491,310.798278799979,310.2972963999491,310.798278799979,310.2972963999491,310.798278799979,310.2972963999491,310.798278799979,310.2972963999491,310.798278799979,309.06235079979524,None,310.798278799979,311.8340864998754,1.260000000000001,311.8495018999092,None,312.6009831998963,None,,,,,,,[1.02604167],2.4200000000000017,0.75,11030,001,2024_Jan_11_0805,MFTM_A_new1021,2021.2.3,59.906139044041545,
,,,,,,,,stim/Instruction_adaptive.png,conditions/adaptive.xlsx,test,-0.6,-0.6,-0.6,0.6,0.6,left,L,,,,,0,1,1,1,0,48,48,53,,,,,,,,,,,,,,,,,,,,,,,,,,,,,,,,,,,,,,,,,,,,313.1021210998297,None,left,1,1.8685516000259668,313.60221429984085,315.3380672999192,313.60221429984085,314.8378998998087,313.60221429984085,314.8378998998087,313.60221429984085,314.8378998998087,313.60221429984085,314.8378998998087,313.60221429984085,314.8378998998087,314.8206630998757,315.32210220000707,314.8206630998757,315.32210220000707,314.8206630998757,315.32210220000707,314.8206630998757,315.32210220000707,314.8206630998757,315.32210220000707,314.8206630998757,315.32210220000707,314.8206630998757,315.32210220000707,314.8206630998757,315.32210220000707,313.60221429984085,None,315.32210220000707,316.357394099934,1.2300000000000009,316.37380869989283,None,317.12397710001096,None,,,,,,,[1.03102041],2.4600000000000017,0.7551020408163265,11030,001,2024_Jan_11_0805,MFTM_A_new1021,2021.2.3,59.906139044041545,
,,,,,,,,stim/Instruction_adaptive.png,conditions/adaptive.xlsx,test,-0.6,-0.6,-0.6,0.6,0.6,left,L,,,,,0,1,1,1,0,49,49,3,,,,,,,,,,,,,,,,,,,,,,,,,,,,,,,,,,,,,,,,,,,,317.62516199983656,None,right,0,1.5532581000588834,318.1254868998658,319.82871289993636,318.1254868998658,319.3279155998025,318.1254868998658,319.3279155998025,318.1254868998658,319.3279155998025,318.1254868998658,319.3279155998025,318.1254868998658,319.3279155998025,319.31234439997934,319.81148429983296,319.31234439997934,319.81148429983296,319.31234439997934,319.81148429983296,319.31234439997934,319.81148429983296,319.31234439997934,319.81148429983296,319.31234439997934,319.81148429983296,319.31234439997934,319.81148429983296,319.31234439997934,319.81148429983296,318.1254868998658,None,319.81148429983296,None,1.2000000000000008,320.86279729986563,None,321.6147111998871,None,,,,,,,[1.0364],2.3400000000000016,0.74,11030,001,2024_Jan_11_0805,MFTM_A_new1021,2021.2.3,59.906139044041545,
,,,,,,,,stim/Instruction_adaptive.png,conditions/adaptive.xlsx,test,-0.6,-0.6,-0.6,0.6,0.6,left,L,,,,,0,1,1,1,0,50,50,45,,,,,,,,,,,,,,,,,,,,,,,,,,,,,,,,,,,,,,,,,,,,322.1149185998365,None,left,1,1.487152799963951,322.6156940998044,324.41840119985864,322.6156940998044,323.9182843999006,322.6156940998044,323.9182843999006,322.6156940998044,323.9182843999006,322.6156940998044,323.9182843999006,322.6156940998044,323.9182843999006,323.90206309990026,324.40148509992287,323.90206309990026,324.40148509992287,323.90206309990026,324.40148509992287,323.90206309990026,324.40148509992287,323.90206309990026,324.40148509992287,323.90206309990026,324.40148509992287,323.90206309990026,324.40148509992287,323.90206309990026,324.40148509992287,322.6156940998044,None,324.40148509992287,325.4534053998068,1.300000000000001,325.469885799801,None,326.2216189999599,None,,,,,,,[1.03960784],2.3800000000000017,0.7450980392156863,11030,001,2024_Jan_11_0805,MFTM_A_new1021,2021.2.3,59.906139044041545,
,,,,,,,,stim/Instruction_adaptive.png,conditions/adaptive.xlsx,test,-0.6,-0.6,-0.6,0.6,0.6,left,L,,,,,0,1,1,1,0,51,51,15,,,,,,,,,,,,,,,,,,,,,,,,,,,,,,,,,,,,,,,,,,,,326.7229542999994,None,left,1,1.6233753999695182,327.2231068999972,328.9918192999903,327.2231068999972,328.49100139993243,327.2231068999972,328.49100139993243,327.2231068999972,328.49100139993243,327.2231068999972,328.49100139993243,327.2231068999972,328.49100139993243,328.47418489982374,328.9755474999547,328.47418489982374,328.9755474999547,328.47418489982374,328.9755474999547,328.47418489982374,328.9755474999547,328.47418489982374,328.9755474999547,328.47418489982374,328.9755474999547,328.47418489982374,328.9755474999547,328.47418489982374,328.9755474999547,327.2231068999972,None,328.9755474999547,None,1.260000000000001,330.0268047999125,None,330.7782442998141,None,,,,,,,[1.04346154],2.4200000000000017,0.75,11030,001,2024_Jan_11_0805,MFTM_A_new1021,2021.2.3,59.906139044041545,
,,,,,,,,stim/Instruction_adaptive.png,conditions/adaptive.xlsx,test,0.6,0.6,0.6,-0.6,-0.6,right,R,,,,,0,1,1,1,0,52,52,76,,,,,,,,,,,,,,,,,,,,,,,,,,,,,,,,,,,,,,,,,,,,331.27839089999907,None,left,0,2.594423299888149,331.7799544997979,333.51629729988053,331.7799544997979,333.01536590000615,331.7799544997979,333.01536590000615,331.7799544997979,333.01536590000615,331.7799544997979,333.01536590000615,331.7799544997979,333.01536590000615,332.99767049984075,333.49834009981714,332.99767049984075,333.49834009981714,332.99767049984075,333.49834009981714,332.99767049984075,333.49834009981714,332.99767049984075,333.49834009981714,332.99767049984075,333.49834009981714,332.99767049984075,333.49834009981714,332.99767049984075,333.49834009981714,331.7799544997979,None,333.4816319998354,334.5333302000072,1.2300000000000009,334.56649639992975,None,335.3177222998347,None,,,,,,,[1.04773585],2.3100000000000014,0.7358490566037735,11030,001,2024_Jan_11_0805,MFTM_A_new1021,2021.2.3,59.906139044041545,
,,,,,,,,stim/Instruction_adaptive.png,conditions/adaptive.xlsx,test,0.6,0.6,0.6,-0.6,-0.6,right,R,,,,,0,1,1,1,0,53,53,60,,,,,,,,,,,,,,,,,,,,,,,,,,,,,,,,,,,,,,,,,,,,335.8184589999728,None,right,1,1.3031798000447452,336.31909739994444,338.15579629992135,336.31909739994444,337.65464439988136,336.31909739994444,337.65464439988136,336.31909739994444,337.65464439988136,336.31909739994444,337.65464439988136,336.31909739994444,337.65464439988136,337.63780369982123,338.139193699928,337.63780369982123,338.139193699928,337.63780369982123,338.139193699928,337.63780369982123,338.139193699928,337.63780369982123,338.139193699928,337.63780369982123,338.139193699928,337.63780369982123,338.139193699928,337.63780369982123,338.139193699928,336.31909739994444,None,338.139193699928,339.190746499924,1.330000000000001,339.20655419980176,None,339.95787739986554,None,,,,,,,[1.05],2.3500000000000014,0.7407407407407407,11030,001,2024_Jan_11_0805,MFTM_A_new1021,2021.2.3,59.906139044041545,
,,,,,,,,stim/Instruction_adaptive.png,conditions/adaptive.xlsx,test,0.6,0.6,0.6,-0.6,-0.6,right,R,,,,,0,1,1,1,0,54,54,12,,,,,,,,,,,,,,,,,,,,,,,,,,,,,,,,,,,,,,,,,,,,340.4594937998336,None,right,1,2.3195801998954266,340.95928229996935,342.7621533998754,340.95928229996935,342.26145290001296,340.95928229996935,342.26145290001296,340.95928229996935,342.26145290001296,340.95928229996935,342.26145290001296,340.95928229996935,342.26145290001296,342.22863259981386,342.72856049984694,342.22863259981386,342.72856049984694,342.22863259981386,342.72856049984694,342.22863259981386,342.72856049984694,342.22863259981386,342.72856049984694,342.22863259981386,342.72856049984694,342.22863259981386,342.72856049984694,342.22863259981386,342.72856049984694,340.95928229996935,None,342.72856049984694,343.78132539987564,1.290000000000001,343.81364859989844,None,344.56527589983307,None,,,,,,,[1.05290909],2.3900000000000015,0.7454545454545455,11030,001,2024_Jan_11_0805,MFTM_A_new1021,2021.2.3,59.906139044041545,
,,,,,,,,stim/Instruction_adaptive.png,conditions/adaptive.xlsx,test,0.6,0.6,0.6,-0.6,-0.6,right,R,,,,,0,1,1,1,0,55,55,80,,,,,,,,,,,,,,,,,,,,,,,,,,,,,,,,,,,,,,,,,,,,345.0655420999974,None,right,1,1.536199799971655,345.56613079993986,347.3357901999261,345.56613079993986,346.83546179998666,345.56613079993986,346.83546179998666,345.56613079993986,346.83546179998666,345.56613079993986,346.83546179998666,345.56613079993986,346.83546179998666,346.81808339990675,347.3188628000207,346.81808339990675,347.3188628000207,346.81808339990675,347.3188628000207,346.81808339990675,347.3188628000207,346.81808339990675,347.3188628000207,346.81808339990675,347.3188628000207,346.81808339990675,347.3188628000207,346.81808339990675,347.3188628000207,345.56613079993986,None,347.3188628000207,None,1.260000000000001,348.3869916999247,None,349.1382406000048,None,,,,,,,[1.05625],2.4200000000000017,0.75,11030,001,2024_Jan_11_0805,MFTM_A_new1021,2021.2.3,59.906139044041545,
,,,,,,,,stim/Instruction_adaptive.png,conditions/adaptive.xlsx,test,-0.6,-0.6,-0.6,0.6,0.6,left,L,,,,,0,1,1,1,0,56,56,21,,,,,,,,,,,,,,,,,,,,,,,,,,,,,,,,,,,,,,,,,,,,349.63937049987726,None,right,0,1.6834880001842976,350.13969319988973,351.87548209982924,350.13969319988973,351.3748935998883,350.13969319988973,351.3748935998883,350.13969319988973,351.3748935998883,350.13969319988973,351.3748935998883,350.13969319988973,351.3748935998883,351.3581567998044,351.8590861998964,351.3581567998044,351.8590861998964,351.3581567998044,351.8590861998964,351.3581567998044,351.8590861998964,351.3581567998044,351.8590861998964,351.3581567998044,351.8590861998964,351.3581567998044,351.8590861998964,351.3581567998044,351.8590861998964,350.13969319988973,None,351.8590861998964,352.92730859993026,1.2300000000000009,352.9436866999604,None,353.69567589997314,None,,,,,,,[1.06],2.3200000000000016,0.7368421052631579,11030,001,2024_Jan_11_0805,MFTM_A_new1021,2021.2.3,59.906139044041545,
,,,,,,,,stim/Instruction_adaptive.png,conditions/adaptive.xlsx,test,-0.6,-0.6,-0.6,0.6,0.6,left,L,,,,,0,1,1,1,0,57,57,75,,,,,,,,,,,,,,,,,,,,,,,,,,,,,,,,,,,,,,,,,,,,354.1968900000211,None,left,1,2.4222170000430197,354.69616429996677,356.5158318998292,354.69616429996677,356.0158484999556,354.69616429996677,356.0158484999556,354.69616429996677,356.0158484999556,354.69616429996677,356.0158484999556,354.69616429996677,356.0158484999556,355.99914989992976,356.49916159990244,355.99914989992976,356.49916159990244,355.99914989992976,356.49916159990244,355.99914989992976,356.49916159990244,355.99914989992976,356.49916159990244,355.99914989992976,356.49916159990244,355.99914989992976,356.49916159990244,355.99914989992976,356.49916159990244,354.69616429996677,None,356.49916159990244,357.5682260999456,1.320000000000001,357.5840391998645,None,358.33509339997545,None,,,,,,,[1.06206897],2.3500000000000014,0.7413793103448276,11030,001,2024_Jan_11_0805,MFTM_A_new1021,2021.2.3,59.906139044041545,
,,,,,,,,stim/Instruction_adaptive.png,conditions/adaptive.xlsx,test,-0.6,-0.6,-0.6,0.6,0.6,left,L,,,,,0,1,1,1,0,58,58,89,,,,,,,,,,,,,,,,,,,,,,,,,,,,,,,,,,,,,,,,,,,,358.8368796999566,None,left,1,2.533793699927628,359.3368402000051,361.13959849998355,359.3368402000051,360.63965099980123,359.3368402000051,360.63965099980123,359.3368402000051,360.63965099980123,359.3368402000051,360.63965099980123,359.3368402000051,360.63965099980123,360.6062334999442,361.1062407998834,360.6062334999442,361.1062407998834,360.6062334999442,361.1062407998834,360.6062334999442,361.1062407998834,360.6062334999442,361.1062407998834,360.6062334999442,361.1062407998834,360.6062334999442,361.1062407998834,360.6062334999442,361.1062407998834,359.3368402000051,None,361.1062407998834,362.1742717998568,1.290000000000001,362.19079989986494,None,362.94236669992097,None,,,,,,,[1.06457627],2.3900000000000015,0.7457627118644068,11030,001,2024_Jan_11_0805,MFTM_A_new1021,2021.2.3,59.906139044041545,
,,,,,,,,stim/Instruction_adaptive.png,conditions/adaptive.xlsx,test,-0.6,-0.6,-0.6,0.6,0.6,left,L,,,,,0,1,1,1,0,59,59,99,,,,,,,,,,,,,,,,,,,,,,,,,,,,,,,,,,,,,,,,,,,,363.44262390001677,None,left,1,1.5346828999463469,363.9435223999899,365.71306739980355,363.9435223999899,365.21242109988816,363.9435223999899,365.21242109988816,363.9435223999899,365.21242109988816,363.9435223999899,365.21242109988816,363.9435223999899,365.21242109988816,365.19600959983654,365.69619229994714,365.19600959983654,365.69619229994714,365.19600959983654,365.69619229994714,365.19600959983654,365.69619229994714,365.19600959983654,365.69619229994714,365.19600959983654,365.69619229994714,365.19600959983654,365.69619229994714,365.19600959983654,365.69619229994714,363.9435223999899,None,365.6793547999114,366.74776229984127,1.260000000000001,366.78096469980665,None,367.5327238999307,None,,,,,,,[1.0675],2.4200000000000017,0.75,11030,001,2024_Jan_11_0805,MFTM_A_new1021,2021.2.3,59.906139044041545,
,,,,,,,,stim/Instruction_adaptive.png,conditions/adaptive.xlsx,test,-0.6,-0.6,-0.6,0.6,0.6,left,L,,,,,0,1,1,1,0,60,60,1,,,,,,,,,,,,,,,,,,,,,,,,,,,,,,,,,,,,,,,,,,,,368.03286709985696,None,left,1,1.3931387001648545,368.5336710999254,370.27035199990496,368.5336710999254,369.7696018998977,368.5336710999254,369.7696018998977,368.5336710999254,369.7696018998977,368.5336710999254,369.7696018998977,368.5336710999254,369.7696018998977,369.7535166000016,370.2535821998026,369.7535166000016,370.2535821998026,369.7535166000016,370.2535821998026,369.7535166000016,370.2535821998026,369.7535166000016,370.2535821998026,369.7535166000016,370.2535821998026,369.7535166000016,370.2535821998026,369.7535166000016,370.2535821998026,368.5336710999254,None,370.2535821998026,None,1.2300000000000009,371.33765549981035,None,372.08900689985603,None,,,,,,,[1.07081967],2.450000000000002,0.7540983606557377,11030,001,2024_Jan_11_0805,MFTM_A_new1021,2021.2.3,59.906139044041545,
,,,,,,,,stim/Instruction_adaptive.png,conditions/adaptive.xlsx,test,0.6,0.6,0.6,-0.6,-0.6,right,R,,,,,0,1,1,1,0,61,61,4,,,,,,,,,,,,,,,,,,,,,,,,,,,,,,,,,,,,,,,,,,,,372.5903417998925,None,right,1,1.2913765998091549,373.0911195999943,374.79293979983777,373.0911195999943,374.29216740000993,373.0911195999943,374.29216740000993,373.0911195999943,374.29216740000993,373.0911195999943,374.29216740000993,373.0911195999943,374.29216740000993,374.2753752998542,374.7761573998723,374.2753752998542,374.7761573998723,374.2753752998542,374.7761573998723,374.2753752998542,374.7761573998723,374.2753752998542,374.7761573998723,374.2753752998542,374.7761573998723,374.2753752998542,374.7761573998723,374.2753752998542,374.7761573998723,373.0911195999943,None,374.7761573998723,375.86233329982497,1.2000000000000008,375.8778257998638,None,376.62925399979576,None,,,,,,,[1.07451613],2.4800000000000018,0.7580645161290323,11030,001,2024_Jan_11_0805,MFTM_A_new1021,2021.2.3,59.906139044041545,
,,,,,,,,stim/Instruction_adaptive.png,conditions/adaptive.xlsx,test,0.6,0.6,0.6,-0.6,-0.6,right,R,,,,,0,1,1,1,0,62,62,2,,,,,,,,,,,,,,,,,,,,,,,,,,,,,,,,,,,,,,,,,,,,377.1299101000186,None,left,0,1.4482746999710798,377.63101699994877,379.3161965999752,377.63101699994877,378.8155026999302,377.63101699994877,378.8155026999302,377.63101699994877,378.8155026999302,377.63101699994877,378.8155026999302,377.63101699994877,378.8155026999302,378.7988167000003,379.3003892998677,378.7988167000003,379.3003892998677,378.7988167000003,379.3003892998677,378.7988167000003,379.3003892998677,378.7988167000003,379.3003892998677,378.7988167000003,379.3003892998677,378.7988167000003,379.3003892998677,378.7988167000003,379.3003892998677,377.63101699994877,None,379.3003892998677,380.3846080999356,1.1800000000000008,380.40116039989516,None,381.1532052999828,None,,,,,,,[1.0784127],2.3900000000000015,0.746031746031746,11030,001,2024_Jan_11_0805,MFTM_A_new1021,2021.2.3,59.906139044041545,
,,,,,,,,stim/Instruction_adaptive.png,conditions/adaptive.xlsx,test,-0.6,-0.6,-0.6,0.6,0.6,left,L,,,,,0,1,1,1,0,63,63,11,,,,,,,,,,,,,,,,,,,,,,,,,,,,,,,,,,,,,,,,,,,,381.6535529999528,None,left,1,1.5488901999779046,382.1537624998018,383.9243874999229,382.1537624998018,383.4229301000014,382.1537624998018,383.4229301000014,382.1537624998018,383.4229301000014,382.1537624998018,383.4229301000014,382.1537624998018,383.4229301000014,383.3891059998423,383.89035419980064,383.3891059998423,383.89035419980064,383.3891059998423,383.89035419980064,383.3891059998423,383.89035419980064,383.3891059998423,383.89035419980064,383.3891059998423,383.89035419980064,383.3891059998423,383.89035419980064,383.3891059998423,383.89035419980064,382.1537624998018,None,383.89035419980064,384.97542259981856,1.260000000000001,385.00783219980076,None,385.7599321999587,None,,,,,,,[1.0809375],2.4200000000000017,0.75,11030,001,2024_Jan_11_0805,MFTM_A_new1021,2021.2.3,59.906139044041545,
,,,,,,,,stim/Instruction_adaptive.png,conditions/adaptive.xlsx,test,0.6,0.6,0.6,-0.6,-0.6,right,R,,,,,0,1,1,1,0,64,64,28,,,,,,,,,,,,,,,,,,,,,,,,,,,,,,,,,,,,,,,,,,,,386.2597212998662,None,right,1,1.6455576000735164,386.7606765998062,388.49721419997513,386.7606765998062,387.995659600012,386.7606765998062,387.995659600012,386.7606765998062,387.995659600012,386.7606765998062,387.995659600012,386.7606765998062,387.995659600012,387.9790286999196,388.47967689996585,387.9790286999196,388.47967689996585,387.9790286999196,388.47967689996585,387.9790286999196,388.47967689996585,387.9790286999196,388.47967689996585,387.9790286999196,388.47967689996585,387.9790286999196,388.47967689996585,387.9790286999196,388.47967689996585,386.7606765998062,None,388.47967689996585,389.566745699849,1.2300000000000009,389.5813116999343,None,390.33250759984367,None,,,,,,,[1.08384615],2.450000000000002,0.7538461538461538,11030,001,2024_Jan_11_0805,MFTM_A_new1021,2021.2.3,59.906139044041545,
,,,,,,,,stim/Instruction_adaptive.png,conditions/adaptive.xlsx,test,0.6,0.6,0.6,-0.6,-0.6,right,R,,,,,0,1,1,1,0,65,65,32,,,,,,,,,,,,,,,,,,,,,,,,,,,,,,,,,,,,,,,,,,,,390.833378699841,None,left,0,2.2962841999251395,391.3339221000206,393.03671030001715,391.3339221000206,392.5356379998848,391.3339221000206,392.5356379998848,391.3339221000206,392.5356379998848,391.3339221000206,392.5356379998848,391.3339221000206,392.5356379998848,392.51965679996647,393.02031509997323,392.51965679996647,393.02031509997323,392.51965679996647,393.02031509997323,392.51965679996647,393.02031509997323,392.51965679996647,393.02031509997323,392.51965679996647,393.02031509997323,392.51965679996647,393.02031509997323,392.51965679996647,393.02031509997323,391.3339221000206,None,393.02031509997323,None,1.2000000000000008,394.1219327999279,None,394.8735243999399,None,,,,,,,[1.08712121],2.370000000000002,0.7424242424242424,11030,001,2024_Jan_11_0805,MFTM_A_new1021,2021.2.3,59.906139044041545,
,,,,,,,,stim/Instruction_adaptive.png,conditions/adaptive.xlsx,test,0.6,0.6,0.6,-0.6,-0.6,right,R,,,,,0,1,1,1,0,66,66,88,,,,,,,,,,,,,,,,,,,,,,,,,,,,,,,,,,,,,,,,,,,,395.37335489992984,None,right,1,1.284100300166756,395.87413849984296,397.6438056998886,395.87413849984296,397.1592079999391,395.87413849984296,397.1592079999391,395.87413849984296,397.1592079999391,395.87413849984296,397.1592079999391,395.87413849984296,397.1592079999391,397.12583759985864,397.6269429998938,397.12583759985864,397.6269429998938,397.12583759985864,397.6269429998938,397.12583759985864,397.6269429998938,397.12583759985864,397.6269429998938,397.12583759985864,397.6269429998938,397.12583759985864,397.6269429998938,397.12583759985864,397.6269429998938,395.87413849984296,None,397.6269429998938,398.7297496998217,1.270000000000001,398.7449769999366,None,399.496007299982,None,,,,,,,[1.08925373],2.4000000000000017,0.746268656716418,11030,001,2024_Jan_11_0805,MFTM_A_new1021,2021.2.3,59.906139044041545,
,,,,,,,,stim/Instruction_adaptive.png,conditions/adaptive.xlsx,test,0.6,0.6,0.6,-0.6,-0.6,right,R,,,,,0,1,1,1,0,67,67,38,,,,,,,,,,,,,,,,,,,,,,,,,,,,,,,,,,,,,,,,,,,,399.99696309980936,None,left,0,2.3406279000919312,400.4975979998708,402.25041310000233,400.4975979998708,401.7496023999993,400.4975979998708,401.7496023999993,400.4975979998708,401.7496023999993,400.4975979998708,401.7496023999993,400.4975979998708,401.7496023999993,401.733131499961,402.23334139981307,401.733131499961,402.23334139981307,401.733131499961,402.23334139981307,401.733131499961,402.23334139981307,401.733131499961,402.23334139981307,401.733131499961,402.23334139981307,401.733131499961,402.23334139981307,401.733131499961,402.23334139981307,400.4975979998708,None,402.23334139981307,403.3350742999464,1.2500000000000009,403.3516483998392,None,404.10285389982164,None,,,,,,,[1.09161765],2.3100000000000014,0.7352941176470589,11030,001,2024_Jan_11_0805,MFTM_A_new1021,2021.2.3,59.906139044041545,
,,,,,,,,stim/Instruction_adaptive.png,conditions/adaptive.xlsx,test,0.6,0.6,0.6,-0.6,-0.6,right,R,,,,,0,1,1,1,0,68,68,42,,,,,,,,,,,,,,,,,,,,,,,,,,,,,,,,,,,,,,,,,,,,404.60407050000504,None,left,0,2.1415931000374258,405.10506389988586,406.94049900001846,405.10506389988586,406.44008159986697,405.10506389988586,406.44008159986697,405.10506389988586,406.44008159986697,405.10506389988586,406.44008159986697,405.10506389988586,406.44008159986697,406.42318609985523,406.92471049982123,406.42318609985523,406.92471049982123,406.42318609985523,406.92471049982123,406.42318609985523,406.92471049982123,406.42318609985523,406.92471049982123,406.42318609985523,406.92471049982123,406.42318609985523,406.92471049982123,406.42318609985523,406.92471049982123,405.10506389988586,None,406.92471049982123,408.0257374998182,1.330000000000001,408.04284719983116,None,408.79401819990017,None,,,,,,,[1.09275362],2.2200000000000015,0.7246376811594203,11030,001,2024_Jan_11_0805,MFTM_A_new1021,2021.2.3,59.906139044041545,
,,,,,,,,stim/Instruction_adaptive.png,conditions/adaptive.xlsx,test,-0.6,-0.6,-0.6,0.6,0.6,left,L,,,,,0,1,1,1,0,69,69,65,,,,,,,,,,,,,,,,,,,,,,,,,,,,,,,,,,,,,,,,,,,,409.2941177999601,None,left,1,2.371256100013852,409.79564089979976,411.714804999996,409.79564089979976,411.2134804998059,409.79564089979976,411.2134804998059,409.79564089979976,411.2134804998059,409.79564089979976,411.2134804998059,409.79564089979976,411.2134804998059,411.196867399849,411.69828449981287,411.196867399849,411.69828449981287,411.196867399849,411.69828449981287,411.196867399849,411.69828449981287,411.196867399849,411.69828449981287,411.196867399849,411.69828449981287,411.196867399849,411.69828449981287,411.196867399849,411.69828449981287,409.79564089979976,None,411.69828449981287,None,1.410000000000001,412.7994595998898,None,413.55132829979993,None,,,,,,,[[1.09]],2.2500000000000018,0.7285714285714285,11030,001,2024_Jan_11_0805,MFTM_A_new1021,2021.2.3,59.906139044041545,
,,,,,,,,stim/Instruction_adaptive.png,conditions/adaptive.xlsx,test,0.6,0.6,0.6,-0.6,-0.6,right,R,,,,,0,1,1,1,0,70,70,10,,,,,,,,,,,,,,,,,,,,,,,,,,,,,,,,,,,,,,,,,,,,414.0516762000043,None,left,0,1.8869874998927116,414.5516683999449,416.43790869996883,414.5516683999449,415.9372007998172,414.5516683999449,415.9372007998172,414.5516683999449,415.9372007998172,414.5516683999449,415.9372007998172,414.5516683999449,415.9372007998172,415.9209970999509,416.4212982999161,415.9209970999509,416.4212982999161,415.9209970999509,416.4212982999161,415.9209970999509,416.4212982999161,415.9209970999509,416.4212982999161,415.9209970999509,416.4212982999161,415.9209970999509,416.4212982999161,415.9209970999509,416.4212982999161,414.5516683999449,None,416.4212982999161,417.52271649986506,1.380000000000001,417.5395728999283,None,418.29066489986144,None,,,,,,,[1.09309859],2.1600000000000015,0.7183098591549296,11030,001,2024_Jan_11_0805,MFTM_A_new1021,2021.2.3,59.906139044041545,
,,,,,,,,stim/Instruction_adaptive.png,conditions/adaptive.xlsx,test,0.6,0.6,0.6,-0.6,-0.6,right,R,,,,,0,1,1,1,0,71,71,62,,,,,,,,,,,,,,,,,,,,,,,,,,,,,,,,,,,,,,,,,,,,418.7921811998822,None,right,1,1.5375469999853522,419.2928723997902,421.2617717999965,419.2928723997902,420.77908319979906,419.2928723997902,420.77908319979906,419.2928723997902,420.77908319979906,419.2928723997902,420.77908319979906,419.2928723997902,420.77908319979906,420.7443506999407,421.24567370000295,420.7443506999407,421.24567370000295,420.7443506999407,421.24567370000295,420.7443506999407,421.24567370000295,420.7443506999407,421.24567370000295,420.7443506999407,421.24567370000295,420.7443506999407,421.24567370000295,420.7443506999407,421.24567370000295,419.2928723997902,None,421.24567370000295,422.2798773997929,1.470000000000001,422.2966523999348,None,423.0477858998347,None,,,,,,,[[1.03]],2.1900000000000013,0.7222222222222222,11030,001,2024_Jan_11_0805,MFTM_A_new1021,2021.2.3,59.906139044041545,
,,,,,,,,stim/Instruction_adaptive.png,conditions/adaptive.xlsx,test,0.6,0.6,0.6,-0.6,-0.6,right,R,,,,,0,1,1,1,0,72,72,52,,,,,,,,,,,,,,,,,,,,,,,,,,,,,,,,,,,,,,,,,,,,423.5495915999636,None,right,1,1.5886325999163091,424.04968699999154,426.00287089985795,424.04968699999154,425.50144249992445,424.04968699999154,425.50144249992445,424.04968699999154,425.50144249992445,424.04968699999154,425.50144249992445,424.04968699999154,425.50144249992445,425.4680115999654,425.96937439986505,425.4680115999654,425.96937439986505,425.4680115999654,425.96937439986505,425.4680115999654,425.96937439986505,425.4680115999654,425.96937439986505,425.4680115999654,425.96937439986505,425.4680115999654,425.96937439986505,425.4680115999654,425.96937439986505,424.04968699999154,None,425.96937439986505,427.03701859992,1.440000000000001,427.0544252998661,None,427.8054399997927,None,,,,,,,[[1.06]],2.2200000000000015,0.726027397260274,11030,001,2024_Jan_11_0805,MFTM_A_new1021,2021.2.3,59.906139044041545,
,,,,,,,,stim/Instruction_adaptive.png,conditions/adaptive.xlsx,test,-0.6,-0.6,-0.6,0.6,0.6,left,L,,,,,0,1,1,1,0,73,73,27,,,,,,,,,,,,,,,,,,,,,,,,,,,,,,,,,,,,,,,,,,,,428.3057370998431,None,left,1,2.3279806000646204,428.806322599994,430.7265817997977,428.806322599994,430.2249906999059,428.806322599994,430.2249906999059,428.806322599994,430.2249906999059,428.806322599994,430.2249906999059,428.806322599994,430.2249906999059,430.1914323999081,430.6926126999315,430.1914323999081,430.6926126999315,430.1914323999081,430.6926126999315,430.1914323999081,430.6926126999315,430.1914323999081,430.6926126999315,430.1914323999081,430.6926126999315,430.1914323999081,430.6926126999315,430.1914323999081,430.6926126999315,428.806322599994,None,430.6926126999315,431.7944663998205,1.410000000000001,431.8105301000178,None,432.56174619984813,None,,,,,,,[[1.09]],2.2500000000000018,0.7297297297297297,11030,001,2024_Jan_11_0805,MFTM_A_new1021,2021.2.3,59.906139044041545,
,,,,,,,,stim/Instruction_adaptive.png,conditions/adaptive.xlsx,test,0.6,0.6,0.6,-0.6,-0.6,right,R,,,,,0,1,1,1,0,74,74,68,,,,,,,,,,,,,,,,,,,,,,,,,,,,,,,,,,,,,,,,,,,,433.06335029983893,None,left,0,1.6830661999993026,433.56368459993973,435.44993239990436,433.56368459993973,434.94854100001976,433.56368459993973,434.94854100001976,433.56368459993973,434.94854100001976,433.56368459993973,434.94854100001976,433.56368459993973,434.94854100001976,434.9321285998449,435.43377539981157,434.9321285998449,435.43377539981157,434.9321285998449,435.43377539981157,434.9321285998449,435.43377539981157,434.9321285998449,435.43377539981157,434.9321285998449,435.43377539981157,434.9321285998449,435.43377539981157,434.9321285998449,435.43377539981157,433.56368459993973,None,435.43377539981157,None,1.380000000000001,436.534336599987,None,437.28561639995314,None,,,,,,,[1.09213333],2.1700000000000017,0.72,11030,001,2024_Jan_11_0805,MFTM_A_new1021,2021.2.3,59.906139044041545,
,,,,,,,,stim/Instruction_adaptive.png,conditions/adaptive.xlsx,test,-0.6,-0.6,-0.6,0.6,0.6,left,L,,,,,0,1,1,1,0,75,75,55,,,,,,,,,,,,,,,,,,,,,,,,,,,,,,,,,,,,,,,,,,,,437.7869400999043,None,None,0,0,438.28696199995466,440.2566184999887,438.28696199995466,439.75629929988645,438.28696199995466,439.75629929988645,438.28696199995466,439.75629929988645,438.28696199995466,439.75629929988645,438.28696199995466,439.75629929988645,439.72322089993395,440.2237938998733,439.72322089993395,440.2237938998733,439.72322089993395,440.2237938998733,439.72322089993395,440.2237938998733,439.72322089993395,440.2237938998733,439.72322089993395,440.2237938998733,439.72322089993395,440.2237938998733,439.72322089993395,440.2237938998733,438.28696199995466,None,440.2237938998733,441.77629209985025,1.460000000000001,441.79224099987186,None,442.5440733998548,None,,,,,,,[[1.54]],2.0800000000000014,0.7105263157894737,11030,001,2024_Jan_11_0805,MFTM_A_new1021,2021.2.3,59.906139044041545,
,,,,,,,,stim/Instruction_adaptive.png,conditions/adaptive.xlsx,test,0.6,0.6,0.6,-0.6,-0.6,right,R,,,,,0,1,1,1,0,76,76,82,,,,,,,,,,,,,,,,,,,,,,,,,,,,,,,,,,,,,,,,,,,,443.04430769989267,None,right,1,1.8138442998751998,443.5447132999543,445.61468259990215,443.5447132999543,445.1137766998727,443.5447132999543,445.1137766998727,443.5447132999543,445.1137766998727,443.5447132999543,445.1137766998727,443.5447132999543,445.1137766998727,445.09931609989144,445.61468259990215,445.09931609989144,445.61468259990215,445.09931609989144,445.61468259990215,445.09931609989144,445.61468259990215,445.09931609989144,445.61468259990215,445.09931609989144,445.61468259990215,445.09931609989144,445.61468259990215,445.09931609989144,445.61468259990215,443.5447132999543,None,445.5811753999442,446.5331615000032,1.5600000000000012,446.54927009996027,None,447.3004469999578,None,,,,,,,[[0.94]],2.110000000000001,0.7142857142857143,11030,001,2024_Jan_11_0805,MFTM_A_new1021,2021.2.3,59.906139044041545,
,,,,,,,,stim/Instruction_adaptive.png,conditions/adaptive.xlsx,test,-0.6,-0.6,-0.6,0.6,0.6,left,L,,,,,0,1,1,1,0,77,77,31,,,,,,,,,,,,,,,,,,,,,,,,,,,,,,,,,,,,,,,,,,,,447.8010442999657,None,right,0,2.112699099816382,448.30164989992045,450.3235460999422,448.30164989992045,449.83752019982785,448.30164989992045,449.83752019982785,448.30164989992045,449.83752019982785,448.30164989992045,449.83752019982785,448.30164989992045,449.83752019982785,449.8039626998361,450.3045898999553,449.8039626998361,450.3045898999553,449.8039626998361,450.3045898999553,449.8039626998361,450.3045898999553,449.8039626998361,450.3045898999553,449.8039626998361,450.3045898999553,449.8039626998361,450.3045898999553,449.8039626998361,450.3045898999553,448.30164989992045,None,450.3045898999553,451.29164309985936,1.5200000000000011,451.3237314999569,None,452.0741985999048,None,,,,,,,[[0.98]],2.0200000000000014,0.7051282051282052,11030,001,2024_Jan_11_0805,MFTM_A_new1021,2021.2.3,59.906139044041545,
,,,,,,,,stim/Instruction_adaptive.png,conditions/adaptive.xlsx,test,-0.6,-0.6,-0.6,0.6,0.6,left,L,,,,,0,1,1,1,0,78,78,17,,,,,,,,,,,,,,,,,,,,,,,,,,,,,,,,,,,,,,,,,,,,452.57632129988633,None,left,1,1.3629358999896795,453.07539449981414,455.19586989982054,453.07539449981414,454.6946940999478,453.07539449981414,454.6946940999478,453.07539449981414,454.6946940999478,453.07539449981414,454.6946940999478,453.07539449981414,454.6946940999478,454.677962299902,455.1788419999648,454.677962299902,455.1788419999648,454.677962299902,455.1788419999648,454.677962299902,455.1788419999648,454.677962299902,455.1788419999648,454.677962299902,455.1788419999648,454.677962299902,455.1788419999648,454.677962299902,455.1788419999648,453.07539449981414,None,455.1788419999648,456.0631736998912,1.6200000000000012,456.0802211998962,None,456.831336800009,None,,,,,,,[[0.88]],2.0500000000000016,0.7088607594936709,11030,001,2024_Jan_11_0805,MFTM_A_new1021,2021.2.3,59.906139044041545,
,,,,,,,,stim/Instruction_adaptive.png,conditions/adaptive.xlsx,test,-0.6,-0.6,-0.6,0.6,0.6,left,L,,,,,0,1,1,1,0,79,79,43,,,,,,,,,,,,,,,,,,,,,,,,,,,,,,,,,,,,,,,,,,,,457.3331150999293,None,left,1,1.6862198000308126,457.83296429994516,459.93612660001963,457.83296429994516,459.4356249999255,457.83296429994516,459.4356249999255,457.83296429994516,459.4356249999255,457.83296429994516,459.4356249999255,457.83296429994516,459.4356249999255,459.40208699996583,459.90293729980476,459.40208699996583,459.90293729980476,459.40208699996583,459.90293729980476,459.40208699996583,459.90293729980476,459.40208699996583,459.90293729980476,459.40208699996583,459.90293729980476,459.40208699996583,459.90293729980476,459.40208699996583,459.90293729980476,457.83296429994516,None,459.90293729980476,460.8205455997959,1.5900000000000012,460.83727909997106,None,461.58879729988985,None,,,,,,,[[0.91]],2.0800000000000014,0.7125,11030,001,2024_Jan_11_0805,MFTM_A_new1021,2021.2.3,59.906139044041545,
,,,,,,,,stim/Instruction_adaptive.png,conditions/adaptive.xlsx,test,0.6,0.6,0.6,-0.6,-0.6,right,R,,,,,0,1,1,1,0,80,80,50,,,,,,,,,,,,,,,,,,,,,,,,,,,,,,,,,,,,,,,,,,,,462.08907929994166,None,right,1,1.2175336999353021,462.5894754999317,464.65960129979067,462.5894754999317,464.1586513000075,462.5894754999317,464.1586513000075,462.5894754999317,464.1586513000075,462.5894754999317,464.1586513000075,462.5894754999317,464.1586513000075,464.1254443998914,464.6265449000057,464.1254443998914,464.6265449000057,464.1254443998914,464.6265449000057,464.1254443998914,464.6265449000057,464.1254443998914,464.6265449000057,464.1254443998914,464.6265449000057,464.1254443998914,464.6265449000057,464.1254443998914,464.6265449000057,462.5894754999317,None,464.6265449000057,465.5779249998741,1.5600000000000012,465.59419919992797,None,466.34564399998635,None,,,,,,,[[0.94]],2.110000000000001,0.7160493827160493,11030,001,2024_Jan_11_0805,MFTM_A_new1021,2021.2.3,59.906139044041545,
,,,,,,,,stim/Instruction_adaptive.png,conditions/adaptive.xlsx,test,-0.6,-0.6,-0.6,0.6,0.6,left,L,,,,,0,1,1,1,0,81,81,23,,,,,,,,,,,,,,,,,,,,,,,,,,,,,,,,,,,,,,,,,,,,466.8467900999822,None,left,1,0.8838564001489431,467.34678549994715,469.366422199877,467.34678549994715,468.8667059999425,467.34678549994715,468.8667059999425,467.34678549994715,468.8667059999425,467.34678549994715,468.8667059999425,467.34678549994715,468.8667059999425,468.8492074999958,469.350318599958,468.8492074999958,469.350318599958,468.8492074999958,469.350318599958,468.8492074999958,469.350318599958,468.8492074999958,469.350318599958,468.8492074999958,469.350318599958,468.8492074999958,469.350318599958,468.8492074999958,469.350318599958,467.34678549994715,None,469.350318599958,470.3345741999801,1.5200000000000011,470.3512298997957,None,471.1022808998823,None,,,,,,,[[0.98]],2.1400000000000015,0.7195121951219512,11030,001,2024_Jan_11_0805,MFTM_A_new1021,2021.2.3,59.906139044041545,
,,,,,,,,stim/Instruction_adaptive.png,conditions/adaptive.xlsx,test,0.6,0.6,0.6,-0.6,-0.6,right,R,,,,,0,1,1,1,0,82,82,56,,,,,,,,,,,,,,,,,,,,,,,,,,,,,,,,,,,,,,,,,,,,471.60287569998764,None,right,1,1.790860699955374,472.1037718998268,474.1067627000157,472.1037718998268,473.6058862998616,472.1037718998268,473.6058862998616,472.1037718998268,473.6058862998616,472.1037718998268,473.6058862998616,472.1037718998268,473.6058862998616,473.5726655998733,474.0736792997923,473.5726655998733,474.0736792997923,473.5726655998733,474.0736792997923,473.5726655998733,474.0736792997923,473.5726655998733,474.0736792997923,473.5726655998733,474.0736792997923,473.5726655998733,474.0736792997923,473.5726655998733,474.0736792997923,472.1037718998268,None,474.0736792997923,475.09154989989474,1.490000000000001,475.10825579985976,None,475.8599700999912,None,,,,,,,[[1.01]],2.1600000000000015,0.7228915662650602,11030,001,2024_Jan_11_0805,MFTM_A_new1021,2021.2.3,59.906139044041545,
,,,,,,,,stim/Instruction_adaptive.png,conditions/adaptive.xlsx,test,-0.6,-0.6,-0.6,0.6,0.6,left,L,,,,,0,1,1,1,0,83,83,61,,,,,,,,,,,,,,,,,,,,,,,,,,,,,,,,,,,,,,,,,,,,476.36025299993344,None,left,1,1.4092977000400424,476.8609091998078,478.83045519981533,476.8609091998078,478.34694279986434,476.8609091998078,478.34694279986434,476.8609091998078,478.34694279986434,476.8609091998078,478.34694279986434,476.8609091998078,478.34694279986434,478.3130222999025,478.8137146998197,478.3130222999025,478.8137146998197,478.3130222999025,478.8137146998197,478.3130222999025,478.8137146998197,478.3130222999025,478.8137146998197,478.3130222999025,478.8137146998197,478.3130222999025,478.8137146998197,478.3130222999025,478.8137146998197,476.8609091998078,None,478.8137146998197,479.84882989991456,1.470000000000001,479.8653086000122,None,480.61718970001675,None,,,,,,,[[1.03]],2.1900000000000013,0.7261904761904762,11030,001,2024_Jan_11_0805,MFTM_A_new1021,2021.2.3,59.906139044041545,
,,,,,,,,stim/Instruction_adaptive.png,conditions/adaptive.xlsx,test,0.6,0.6,0.6,-0.6,-0.6,right,R,,,,,0,1,1,1,0,84,84,78,,,,,,,,,,,,,,,,,,,,,,,,,,,,,,,,,,,,,,,,,,,,481.1178017000202,None,right,1,1.6605768001172692,481.6178670998197,483.5707643998321,481.6178670998197,483.0700570999179,481.6178670998197,483.0700570999179,481.6178670998197,483.0700570999179,481.6178670998197,483.0700570999179,481.6178670998197,483.0700570999179,483.0365665999707,483.53723030001856,483.0365665999707,483.53723030001856,483.0365665999707,483.53723030001856,483.0365665999707,483.53723030001856,483.0365665999707,483.53723030001856,483.0365665999707,483.53723030001856,483.0365665999707,483.53723030001856,483.0365665999707,483.53723030001856,481.6178670998197,None,483.53723030001856,484.6056334997993,1.440000000000001,484.62211759993806,None,485.3738596998155,None,,,,,,,[[1.06]],2.2200000000000015,0.7294117647058823,11030,001,2024_Jan_11_0805,MFTM_A_new1021,2021.2.3,59.906139044041545,
,,,,,,,,stim/Instruction_adaptive.png,conditions/adaptive.xlsx,test,-0.6,-0.6,-0.6,0.6,0.6,left,L,,,,,0,1,1,1,0,85,85,85,,,,,,,,,,,,,,,,,,,,,,,,,,,,,,,,,,,,,,,,,,,,485.87663909979165,None,left,1,1.26193380006589,486.39232959994115,488.3121327999979,486.39232959994115,487.8110483000055,486.39232959994115,487.8110483000055,486.39232959994115,487.8110483000055,486.39232959994115,487.8110483000055,486.39232959994115,487.8110483000055,487.7770204998087,488.27789959986694,487.7770204998087,488.27789959986694,487.7770204998087,488.27789959986694,487.7770204998087,488.27789959986694,487.7770204998087,488.27789959986694,487.7770204998087,488.27789959986694,487.7770204998087,488.27789959986694,487.7770204998087,488.27789959986694,486.39232959994115,None,488.27789959986694,489.3626037999056,1.410000000000001,489.3959586999845,None,490.1474242999684,None,,,,,,,[1.07872093],2.2400000000000015,0.7325581395348837,11030,001,2024_Jan_11_0805,MFTM_A_new1021,2021.2.3,59.906139044041545,
,,,,,,,,stim/Instruction_adaptive.png,conditions/adaptive.xlsx,test,0.6,0.6,0.6,-0.6,-0.6,right,R,,,,,0,1,1,1,0,86,86,58,,,,,,,,,,,,,,,,,,,,,,,,,,,,,,,,,,,,,,,,,,,,490.6480464998167,None,right,1,1.7213204000145197,491.14905030000955,493.0512463999912,491.14905030000955,492.55196449998766,491.14905030000955,492.55196449998766,491.14905030000955,492.55196449998766,491.14905030000955,492.55196449998766,491.14905030000955,492.55196449998766,492.51797329983674,493.0185994999483,492.51797329983674,493.0185994999483,492.51797329983674,493.0185994999483,492.51797329983674,493.0185994999483,492.51797329983674,493.0185994999483,492.51797329983674,493.0185994999483,492.51797329983674,493.0185994999483,492.51797329983674,493.0185994999483,491.14905030000955,None,493.0185994999483,494.104359799996,1.390000000000001,494.1197267000098,None,494.8707967000082,None,,,,,,,[1.07908046],2.2700000000000014,0.735632183908046,11030,001,2024_Jan_11_0805,MFTM_A_new1021,2021.2.3,59.906139044041545,
,,,,,,,,stim/Instruction_adaptive.png,conditions/adaptive.xlsx,test,0.6,0.6,0.6,-0.6,-0.6,right,R,,,,,0,1,1,1,0,87,87,92,,,,,,,,,,,,,,,,,,,,,,,,,,,,,,,,,,,,,,,,,,,,495.37203019997105,None,left,0,1.6942288998980075,495.87225599982776,497.7419537999667,495.87225599982776,497.2417863998562,495.87225599982776,497.2417863998562,495.87225599982776,497.2417863998562,495.87225599982776,497.2417863998562,495.87225599982776,497.2417863998562,497.2250607998576,497.7255298998207,497.2250607998576,497.7255298998207,497.2250607998576,497.7255298998207,497.2250607998576,497.7255298998207,497.2250607998576,497.7255298998207,497.2250607998576,497.7255298998207,497.2250607998576,497.7255298998207,497.2250607998576,497.7255298998207,495.87225599982776,None,497.7255298998207,498.81027449993417,1.360000000000001,498.8271735999733,None,499.57795750000514,None,,,,,,,[1.07977273],2.1900000000000013,0.7272727272727273,11030,001,2024_Jan_11_0805,MFTM_A_new1021,2021.2.3,59.906139044041545,
,,,,,,,,stim/Instruction_adaptive.png,conditions/adaptive.xlsx,test,0.6,0.6,0.6,-0.6,-0.6,right,R,,,,,0,1,1,1,0,88,88,18,,,,,,,,,,,,,,,,,,,,,,,,,,,,,,,,,,,,,,,,,,,,500.0785854998976,None,right,1,1.594596200156957,500.57988499989733,502.53241979982704,500.57988499989733,502.03159339982085,500.57988499989733,502.03159339982085,500.57988499989733,502.03159339982085,500.57988499989733,502.03159339982085,500.57988499989733,502.03159339982085,501.99834759999067,502.49880009982735,501.99834759999067,502.49880009982735,501.99834759999067,502.49880009982735,501.99834759999067,502.49880009982735,501.99834759999067,502.49880009982735,501.99834759999067,502.49880009982735,501.99834759999067,502.49880009982735,501.99834759999067,502.49880009982735,500.57988499989733,None,502.49880009982735,503.5670243999921,1.440000000000001,503.584164599888,None,504.3349547998514,None,,,,,,,[[1.06]],2.2200000000000015,0.7303370786516854,11030,001,2024_Jan_11_0805,MFTM_A_new1021,2021.2.3,59.906139044041545,
,,,,,,,,stim/Instruction_adaptive.png,conditions/adaptive.xlsx,test,-0.6,-0.6,-0.6,0.6,0.6,left,L,,,,,0,1,1,1,0,89,89,97,,,,,,,,,,,,,,,,,,,,,,,,,,,,,,,,,,,,,,,,,,,,504.83681369991973,None,left,1,1.6053920001722872,505.337134399917,507.25593499979004,505.337134399917,506.75517489993945,505.337134399917,506.75517489993945,505.337134399917,506.75517489993945,505.337134399917,506.75517489993945,505.337134399917,506.75517489993945,506.7220552000217,507.22297069989145,506.7220552000217,507.22297069989145,506.7220552000217,507.22297069989145,506.7220552000217,507.22297069989145,506.7220552000217,507.22297069989145,506.7220552000217,507.22297069989145,506.7220552000217,507.22297069989145,506.7220552000217,507.22297069989145,505.337134399917,None,507.22297069989145,508.30857909983024,1.410000000000001,508.34066119999625,None,509.09207459981553,None,,,,,,,[1.07966667],2.2400000000000015,0.7333333333333333,11030,001,2024_Jan_11_0805,MFTM_A_new1021,2021.2.3,59.906139044041545,
,,,,,,,,stim/Instruction_adaptive.png,conditions/adaptive.xlsx,test,0.6,0.6,0.6,-0.6,-0.6,right,R,,,,,0,1,1,1,0,90,90,90,,,,,,,,,,,,,,,,,,,,,,,,,,,,,,,,,,,,,,,,,,,,509.59266579989344,None,right,1,1.5609651999548078,510.09342769999057,511.99614609987475,510.09342769999057,511.4961025000084,510.09342769999057,511.4961025000084,510.09342769999057,511.4961025000084,510.09342769999057,511.4961025000084,510.09342769999057,511.4961025000084,511.46257119998336,511.96310099982657,511.46257119998336,511.96310099982657,511.46257119998336,511.96310099982657,511.46257119998336,511.96310099982657,511.46257119998336,511.96310099982657,511.46257119998336,511.96310099982657,511.46257119998336,511.96310099982657,511.46257119998336,511.96310099982657,510.09342769999057,None,511.96310099982657,513.0477427998558,1.390000000000001,513.0643597999588,None,513.8162942000199,None,,,,,,,[1.08],2.2700000000000014,0.7362637362637363,11030,001,2024_Jan_11_0805,MFTM_A_new1021,2021.2.3,59.906139044041545,
,,,,,,,,stim/Instruction_adaptive.png,conditions/adaptive.xlsx,test,-0.6,-0.6,-0.6,0.6,0.6,left,L,,,,,0,1,1,1,0,91,91,67,,,,,,,,,,,,,,,,,,,,,,,,,,,,,,,,,,,,,,,,,,,,514.3169130999595,None,left,1,1.3250345999840647,514.8175294999965,516.6870225998573,514.8175294999965,516.185799599858,514.8175294999965,516.185799599858,514.8175294999965,516.185799599858,514.8175294999965,516.185799599858,514.8175294999965,516.185799599858,516.1522852999624,516.6533754998818,516.1522852999624,516.6533754998818,516.1522852999624,516.6533754998818,516.1522852999624,516.6533754998818,516.1522852999624,516.6533754998818,516.1522852999624,516.6533754998818,516.1522852999624,516.6533754998818,516.1522852999624,516.6533754998818,514.8175294999965,None,516.6533754998818,517.738803899847,1.360000000000001,517.7721245998982,None,518.5223001998384,None,,,,,,,[1.08065217],2.290000000000002,0.7391304347826086,11030,001,2024_Jan_11_0805,MFTM_A_new1021,2021.2.3,59.906139044041545,
,,,,,,,,stim/Instruction_adaptive.png,conditions/adaptive.xlsx,test,0.6,0.6,0.6,-0.6,-0.6,right,R,,,,,0,1,1,1,0,92,92,44,,,,,,,,,,,,,,,,,,,,,,,,,,,,,,,,,,,,,,,,,,,,519.0242661999073,None,right,1,1.6819823000114411,519.5243196999654,521.377230099868,519.5243196999654,520.8773322999477,519.5243196999654,520.8773322999477,519.5243196999654,520.8773322999477,519.5243196999654,520.8773322999477,519.5243196999654,520.8773322999477,520.8598544998094,521.360141800018,520.8598544998094,521.360141800018,520.8598544998094,521.360141800018,520.8598544998094,521.360141800018,520.8598544998094,521.360141800018,520.8598544998094,521.360141800018,520.8598544998094,521.360141800018,520.8598544998094,521.360141800018,519.5243196999654,None,521.360141800018,522.4455722998828,1.350000000000001,522.4617008999921,None,523.2129364998545,None,,,,,,,[1.08139785],2.3100000000000014,0.7419354838709677,11030,001,2024_Jan_11_0805,MFTM_A_new1021,2021.2.3,59.906139044041545,
