arrwidth1,arrwidth2,arrwidth3,arrwidth4,arrwidth5,keyb,type,orientation,instruction_image,block_filename,block_type,arrow11,arrow22,arrow33,arrow44,arrow55,keyb_3,orientation3,trials.thisRepN,trials.thisTrialN,trials.thisN,trials.thisIndex,trials_3.thisRepN,trials_3.thisTrialN,trials_3.thisN,trials_3.thisIndex,trials_2.thisRepN,trials_2.thisTrialN,trials_2.thisN,trials_2.thisIndex,welcome.started,welcome.stopped,key_resp.keys,key_resp.rt,key_resp.started,key_resp.stopped,instruction_example.started,instruction_example.stopped,key_resp_3.keys,key_resp_3.rt,key_resp_3.started,key_resp_3.stopped,instruction_task.started,instruction_task.stopped,key_resp_2.keys,key_resp_2.rt,key_resp_2.started,key_resp_2.stopped,text_2.started,text_2.stopped,A1.started,A1.stopped,A2.started,A2.stopped,A3.started,A3.stopped,A4.started,A4.stopped,A5.started,A5.stopped,key_resp_4.keys,key_resp_4.corr,key_resp_4.rt,key_resp_4.started,key_resp_4.stopped,fb.started,fb.stopped,instruction_block.started,instruction_block.stopped,key_resp_8.keys,key_resp_8.rt,key_resp_8.started,key_resp_8.stopped,text_8.started,text_8.stopped,key_resp_9.keys,key_resp_9.corr,key_resp_9.rt,text_5.started,text_5.stopped,A11_3.started,A11_3.stopped,A22_2.started,A22_2.stopped,A33_2.started,A33_2.stopped,A44_2.started,A44_2.stopped,A55_2.started,A55_2.stopped,M1_3.started,M1_3.stopped,M2_2.started,M2_2.stopped,M3_2.started,M3_2.stopped,M4_2.started,M4_2.stopped,M5_2.started,M5_2.stopped,M6_2.started,M6_2.stopped,M7_2.started,M7_2.stopped,M8_2.started,M8_2.stopped,key_resp_9.started,key_resp_9.stopped,fixation.started,fixation.stopped,ET,fb_3.started,fb_3.stopped,text_9.started,text_9.stopped,fb_4.started,fb_4.stopped,text_7.started,text_7.stopped,endtext.started,endtext.stopped,fixation_ITI,CCC,Acc,participant,session,date,expName,psychopyVersion,frameRate,
,,,,,,,,,,,,,,,,,,,,,,,,,,,,,,10.374638700042851,None,space,2.302198000019416,10.374638700042851,None,,,,,,,,,,,,,,,,,,,,,,,,,,,,,,,,,,,,,,,,,,,,,,,,,,,,,,,,,,,,,,,,,,,,,,,,,,,,,,,,,,,,,,,,,11043,001,2024_Mar_21_0757,MFTM_A_new1021,2021.2.3,59.805250190280134,
,,,,,,,,,,,,,,,,,,,,,,,,,,,,,,,,,,,,12.695039400015958,None,space,3.7416737000457942,12.695039400015958,None,,,,,,,,,,,,,,,,,,,,,,,,,,,,,,,,,,,,,,,,,,,,,,,,,,,,,,,,,,,,,,,,,,,,,,,,,,,,,,,,,,,11043,001,2024_Mar_21_0757,MFTM_A_new1021,2021.2.3,59.805250190280134,
,,,,,,,,,,,,,,,,,,,,,,,,,,,,,,,,,,,,,,,,,,16.467310399981216,None,space,12.153780599939637,16.467310399981216,None,,,,,,,,,,,,,,,,,,,,,,,,,,,,,,,,,,,,,,,,,,,,,,,,,,,,,,,,,,,,,,,,,,,,,,,,,,,,,11043,001,2024_Mar_21_0757,MFTM_A_new1021,2021.2.3,59.805250190280134,
-0.6,-0.6,-0.6,0.6,0.6,left,3:2,L,,,,,,,,,,,0,0,0,1,,,,,,,,,,,,,,,,,,,,,,,,,,,28.669469599961303,None,28.669469599961303,None,28.669469599961303,None,28.669469599961303,None,28.669469599961303,None,28.669469599961303,None,left,1,1.8321580999763682,28.669469599961303,None,30.538514700019732,None,,,,,,,,,,,,,,,,,,,,,,,,,,,,,,,,,,,,,,,,,,,,,,,,,,,,,,,,,,11043,001,2024_Mar_21_0757,MFTM_A_new1021,2021.2.3,59.805250190280134,
0.6,0.6,0.6,-0.6,-0.6,right,3:2,R,,,,,,,,,,,0,1,1,0,,,,,,,,,,,,,,,,,,,,,,,,,,,31.28956860001199,None,31.28956860001199,None,31.28956860001199,None,31.28956860001199,None,31.28956860001199,None,31.28956860001199,None,right,1,2.116264699958265,31.28956860001199,None,33.42622709996067,None,,,,,,,,,,,,,,,,,,,,,,,,,,,,,,,,,,,,,,,,,,,,,,,,,,,,,,,,,,11043,001,2024_Mar_21_0757,MFTM_A_new1021,2021.2.3,59.805250190280134,
0.6,0.6,0.6,-0.6,-0.6,right,3:2,R,,,,,,,,,,,1,0,2,0,,,,,,,,,,,,,,,,,,,,,,,,,,,34.177248000050895,None,34.177248000050895,None,34.177248000050895,None,34.177248000050895,None,34.177248000050895,None,34.177248000050895,None,right,1,1.6521856000181288,34.177248000050895,None,35.84632829995826,None,,,,,,,,,,,,,,,,,,,,,,,,,,,,,,,,,,,,,,,,,,,,,,,,,,,,,,,,,,11043,001,2024_Mar_21_0757,MFTM_A_new1021,2021.2.3,59.805250190280134,
-0.6,-0.6,-0.6,0.6,0.6,left,3:2,L,,,,,,,,,,,1,1,3,1,,,,,,,,,,,,,,,,,,,,,,,,,,,36.59753519995138,None,36.59753519995138,None,36.59753519995138,None,36.59753519995138,None,36.59753519995138,None,36.59753519995138,None,left,1,1.0246692999498919,36.59753519995138,None,37.64904699998442,None,,,,,,,,,,,,,,,,,,,,,,,,,,,,,,,,,,,,,,,,,,,,,,,,,,,,,,,,,,11043,001,2024_Mar_21_0757,MFTM_A_new1021,2021.2.3,59.805250190280134,
,,,,,,,,stim/Instruction_mask.png,conditions/adaptive.xlsx,practice,-0.6,-0.6,-0.6,0.6,0.6,left,L,,,,,0,0,0,0,0,0,0,11,,,,,,,,,,,,,,,,,,,,,,,,,,,,,,,,,,,,,,38.60273799998686,None,space,33.164087699959055,38.60273799998686,None,71.86751919996459,None,left,1,1.3934252000181004,72.30111849994864,None,72.30111849994864,75.30607499997132,72.30111849994864,75.30607499997132,72.30111849994864,75.30607499997132,72.30111849994864,75.30607499997132,72.30111849994864,75.30607499997132,75.28911110002082,75.78989759995602,75.28911110002082,75.78989759995602,75.28911110002082,75.78989759995602,75.28911110002082,75.78989759995602,75.28911110002082,75.78989759995602,75.28911110002082,75.78989759995602,75.28911110002082,75.78989759995602,75.28911110002082,75.78989759995602,72.30111849994864,None,75.78989759995602,75.78989759995602,3,75.80655540002044,None,76.55757990002166,None,,,,,,,,,,11043,001,2024_Mar_21_0757,MFTM_A_new1021,2021.2.3,59.805250190280134,
,,,,,,,,stim/Instruction_mask.png,conditions/adaptive.xlsx,practice,-0.6,-0.6,-0.6,0.6,0.6,left,L,,,,,0,0,0,0,0,1,1,73,,,,,,,,,,,,,,,,,,,,,,,,,,,,,,,,,,,,,,,,,,,,77.05836200003978,None,left,1,1.0635829000966623,77.55929709994234,79.56241999997292,77.55929709994234,79.06133970001247,77.55929709994234,79.06133970001247,77.55929709994234,79.06133970001247,77.55929709994234,79.06133970001247,77.55929709994234,79.06133970001247,79.04470780002885,79.54569269996136,79.04470780002885,79.54569269996136,79.04470780002885,79.54569269996136,79.04470780002885,79.54569269996136,79.04470780002885,79.54569269996136,79.04470780002885,79.54569269996136,79.04470780002885,79.54569269996136,79.04470780002885,79.54569269996136,77.55929709994234,None,79.54569269996136,81.04815950000193,1.5,81.06435480003711,None,81.81550060003065,None,,,,,,,,,,11043,001,2024_Mar_21_0757,MFTM_A_new1021,2021.2.3,59.805250190280134,
,,,,,,,,stim/Instruction_mask.png,conditions/adaptive.xlsx,practice,-0.6,-0.6,-0.6,0.6,0.6,left,L,,,,,0,0,0,0,0,2,2,49,,,,,,,,,,,,,,,,,,,,,,,,,,,,,,,,,,,,,,,,,,,,82.31648110004608,None,left,1,1.0858783000148833,82.8171769999899,84.11918709997553,82.8171769999899,83.61861819995102,82.8171769999899,83.61861819995102,82.8171769999899,83.61861819995102,82.8171769999899,83.61861819995102,82.8171769999899,83.61861819995102,83.60185610002372,84.10251779993996,83.60185610002372,84.10251779993996,83.60185610002372,84.10251779993996,83.60185610002372,84.10251779993996,83.60185610002372,84.10251779993996,83.60185610002372,84.10251779993996,83.60185610002372,84.10251779993996,83.60185610002372,84.10251779993996,82.8171769999899,None,84.10251779993996,86.30577239999548,0.8,86.32260189997032,None,87.07364179997239,None,,,,,,,,,,11043,001,2024_Mar_21_0757,MFTM_A_new1021,2021.2.3,59.805250190280134,
,,,,,,,,stim/Instruction_mask.png,conditions/adaptive.xlsx,practice,-0.6,-0.6,-0.6,0.6,0.6,left,L,,,,,0,0,0,0,0,3,3,43,,,,,,,,,,,,,,,,,,,,,,,,,,,,,,,,,,,,,,,,,,,,87.57439029996749,None,left,1,1.4436645999085158,88.07494690001477,88.8261609999463,88.07494690001477,88.32545899995603,88.07494690001477,88.32545899995603,88.07494690001477,88.32545899995603,88.07494690001477,88.32545899995603,88.07494690001477,88.32545899995603,88.30868360004388,88.80940399994142,88.30868360004388,88.80940399994142,88.30868360004388,88.80940399994142,88.30868360004388,88.80940399994142,88.30868360004388,88.80940399994142,88.30868360004388,88.80940399994142,88.30868360004388,88.80940399994142,88.30868360004388,88.80940399994142,88.07494690001477,None,88.80940399994142,91.56363380001858,3,91.58032629999798,None,92.3314534999663,None,,,,,,,,,,11043,001,2024_Mar_21_0757,MFTM_A_new1021,2021.2.3,59.805250190280134,
,,,,,,,,stim/Instruction_mask.png,conditions/adaptive.xlsx,practice,,,,,,,,,,,,0,0,0,0,,,,,,,,,,,,,,,,,,,,,,,,,,,,,,,,,,,,,,,,,,,,,,,,,,,,,,,,,,,,,,,,,,,,,,,,,,,,,,,,,,,,,,,,,,92.86584870005026,93.86782050004695,93.85042419994716,93.85042419994716,93.85042419994716,None,,,,11043,001,2024_Mar_21_0757,MFTM_A_new1021,2021.2.3,59.805250190280134,
,,,,,,,,stim/Instruction_adaptive.png,conditions/adaptive.xlsx,test,-0.6,-0.6,-0.6,0.6,0.6,left,L,,,,,0,1,1,1,0,0,0,69,,,,,,,,,,,,,,,,,,,,,,,,,,,,,,,,,,,,,,97.03833230002783,None,space,12.329178799991496,97.03833230002783,None,109.40657780005131,None,left,1,3.115616300026886,109.90804619994015,None,109.90804619994015,112.91249779995997,109.90804619994015,112.91249779995997,109.90804619994015,112.91249779995997,109.90804619994015,112.91249779995997,109.90804619994015,112.91249779995997,112.89575719996355,113.39660950005054,112.89575719996355,113.39660950005054,112.89575719996355,113.39660950005054,112.89575719996355,113.39660950005054,112.89575719996355,113.39660950005054,112.89575719996355,113.39660950005054,112.89575719996355,113.39660950005054,112.89575719996355,113.39660950005054,109.90804619994015,None,113.39660950005054,113.39660950005054,3,113.413258900051,None,114.16442030004691,None,,,,,,,0,6.000000000000005,1.0,11043,001,2024_Mar_21_0757,MFTM_A_new1021,2021.2.3,59.805250190280134,
,,,,,,,,stim/Instruction_adaptive.png,conditions/adaptive.xlsx,test,-0.6,-0.6,-0.6,0.6,0.6,left,L,,,,,0,1,1,1,0,1,1,67,,,,,,,,,,,,,,,,,,,,,,,,,,,,,,,,,,,,,,,,,,,,114.66538130003028,None,left,1,1.2816872000694275,115.16598539997358,115.91681309998967,115.16598539997358,115.4161705999868,115.16598539997358,115.4161705999868,115.16598539997358,115.4161705999868,115.16598539997358,115.4161705999868,115.16598539997358,115.4161705999868,115.3994662000332,115.9003521000268,115.3994662000332,115.9003521000268,115.3994662000332,115.9003521000268,115.3994662000332,115.9003521000268,115.3994662000332,115.9003521000268,115.3994662000332,115.9003521000268,115.3994662000332,115.9003521000268,115.3994662000332,115.9003521000268,115.16598539997358,None,115.9003521000268,116.78558340005111,0.25,116.80169909994584,None,117.5527028000215,None,,,,,,,[0.875],6.000000000000005,1.0,11043,001,2024_Mar_21_0757,MFTM_A_new1021,2021.2.3,59.805250190280134,
,,,,,,,,stim/Instruction_adaptive.png,conditions/adaptive.xlsx,test,0.6,0.6,0.6,-0.6,-0.6,right,R,,,,,0,1,1,1,0,2,2,68,,,,,,,,,,,,,,,,,,,,,,,,,,,,,,,,,,,,,,,,,,,,118.0535697999876,None,left,0,1.0527926000067964,118.55513819993939,119.30555359995924,118.55513819993939,118.80474549997598,118.55513819993939,118.80474549997598,118.55513819993939,118.80474549997598,118.55513819993939,118.80474549997598,118.55513819993939,118.80474549997598,118.7880752000492,119.2894593999954,118.7880752000492,119.2894593999954,118.7880752000492,119.2894593999954,118.7880752000492,119.2894593999954,118.7880752000492,119.2894593999954,118.7880752000492,119.2894593999954,118.7880752000492,119.2894593999954,118.7880752000492,119.2894593999954,118.55513819993939,None,119.2894593999954,120.624976699939,0.25,120.65947089996189,None,121.40936729998793,None,,,,,,,[1.33333333],3.1800000000000024,0.6666666666666666,11043,001,2024_Mar_21_0757,MFTM_A_new1021,2021.2.3,59.805250190280134,
,,,,,,,,stim/Instruction_adaptive.png,conditions/adaptive.xlsx,test,-0.6,-0.6,-0.6,0.6,0.6,left,L,,,,,0,1,1,1,0,3,3,43,,,,,,,,,,,,,,,,,,,,,,,,,,,,,,,,,,,,,,,,,,,,121.91015250002965,None,left,1,0.8857726999558508,122.41010079998523,123.64537939999718,122.41010079998523,123.14450099994428,122.41010079998523,123.14450099994428,122.41010079998523,123.14450099994428,122.41010079998523,123.14450099994428,122.41010079998523,123.14450099994428,123.12793009995949,123.62993109994568,123.12793009995949,123.62993109994568,123.12793009995949,123.62993109994568,123.12793009995949,123.62993109994568,123.12793009995949,123.62993109994568,123.12793009995949,123.62993109994568,123.12793009995949,123.62993109994568,123.12793009995949,123.62993109994568,122.41010079998523,None,123.62993109994568,125.08060430001933,0.7300000000000004,125.09736460004933,None,125.84872250002809,None,,,,,,,[1.4425],4.030000000000003,0.75,11043,001,2024_Mar_21_0757,MFTM_A_new1021,2021.2.3,59.805250190280134,
,,,,,,,,stim/Instruction_adaptive.png,conditions/adaptive.xlsx,test,-0.6,-0.6,-0.6,0.6,0.6,left,L,,,,,0,1,1,1,0,4,4,41,,,,,,,,,,,,,,,,,,,,,,,,,,,,,,,,,,,,,,,,,,,,126.34981619997416,None,left,1,1.5660568999592215,126.8501505999593,127.75151410000399,126.8501505999593,127.2509190000128,126.8501505999593,127.2509190000128,126.8501505999593,127.2509190000128,126.8501505999593,127.2509190000128,126.8501505999593,127.2509190000128,127.23478629998863,127.73473989998456,127.23478629998863,127.73473989998456,127.23478629998863,127.73473989998456,127.23478629998863,127.73473989998456,127.23478629998863,127.73473989998456,127.23478629998863,127.73473989998456,127.23478629998863,127.73473989998456,127.23478629998863,127.73473989998456,126.8501505999593,None,127.73473989998456,129.32232859998476,0.40000000000000013,129.3372002999531,None,130.08923219994176,None,,,,,,,[1.574],4.550000000000003,0.8,11043,001,2024_Mar_21_0757,MFTM_A_new1021,2021.2.3,59.805250190280134,
,,,,,,,,stim/Instruction_adaptive.png,conditions/adaptive.xlsx,test,-0.6,-0.6,-0.6,0.6,0.6,left,L,,,,,0,1,1,1,0,5,5,53,,,,,,,,,,,,,,,,,,,,,,,,,,,,,,,,,,,,,,,,,,,,130.59015089995228,None,right,0,0.47757350001484156,131.0905634999508,131.8743493000511,131.0905634999508,131.37360980000813,131.0905634999508,131.37360980000813,131.0905634999508,131.37360980000813,131.0905634999508,131.37360980000813,131.0905634999508,131.37360980000813,131.35684420005418,131.85801600001287,131.35684420005418,131.85801600001287,131.35684420005418,131.85801600001287,131.35684420005418,131.85801600001287,131.35684420005418,131.85801600001287,131.35684420005418,131.85801600001287,131.35684420005418,131.85801600001287,131.35684420005418,131.85801600001287,131.0905634999508,None,131.85801600001287,133.54360049997922,0.28,133.5602627999615,None,134.31175520003308,None,,,,,,,[1.68166667],3.5900000000000025,0.6666666666666666,11043,001,2024_Mar_21_0757,MFTM_A_new1021,2021.2.3,59.805250190280134,
,,,,,,,,stim/Instruction_adaptive.png,conditions/adaptive.xlsx,test,-0.6,-0.6,-0.6,0.6,0.6,left,L,,,,,0,1,1,1,0,6,6,91,,,,,,,,,,,,,,,,,,,,,,,,,,,,,,,,,,,,,,,,,,,,134.81257680000272,None,left,1,0.6074078000383452,135.3129408999812,136.36453469994012,135.3129408999812,135.86382550001144,135.3129408999812,135.86382550001144,135.3129408999812,135.86382550001144,135.3129408999812,135.86382550001144,135.3129408999812,135.86382550001144,135.84711530001368,136.34779869997874,135.84711530001368,136.34779869997874,135.84711530001368,136.34779869997874,135.84711530001368,136.34779869997874,135.84711530001368,136.34779869997874,135.84711530001368,136.34779869997874,135.84711530001368,136.34779869997874,135.84711530001368,136.34779869997874,135.3129408999812,None,136.34779869997874,138.06713910005055,0.5500000000000003,138.08368869998958,None,138.83493659994565,None,,,,,,,[1.72],4.0000000000000036,0.7142857142857143,11043,001,2024_Mar_21_0757,MFTM_A_new1021,2021.2.3,59.805250190280134,
,,,,,,,,stim/Instruction_adaptive.png,conditions/adaptive.xlsx,test,-0.6,-0.6,-0.6,0.6,0.6,left,L,,,,,0,1,1,1,0,7,7,75,,,,,,,,,,,,,,,,,,,,,,,,,,,,,,,,,,,,,,,,,,,,139.33568260003813,None,left,1,1.1801187000237405,139.83631100005005,140.75503650004975,139.83631100005005,140.2538292000536,139.83631100005005,140.2538292000536,139.83631100005005,140.2538292000536,139.83631100005005,140.2538292000536,139.83631100005005,140.2538292000536,140.23710320005193,140.73839880002197,140.23710320005193,140.73839880002197,140.23710320005193,140.73839880002197,140.23710320005193,140.73839880002197,140.23710320005193,140.73839880002197,140.23710320005193,140.73839880002197,140.23710320005193,140.73839880002197,140.23710320005193,140.73839880002197,139.83631100005005,None,140.7211765999673,142.4914721000241,0.41000000000000014,142.52362580003683,None,143.27486649993807,None,,,,,,,[1.76625],4.290000000000004,0.75,11043,001,2024_Mar_21_0757,MFTM_A_new1021,2021.2.3,59.805250190280134,
,,,,,,,,stim/Instruction_adaptive.png,conditions/adaptive.xlsx,test,0.6,0.6,0.6,-0.6,-0.6,right,R,,,,,0,1,1,1,0,8,8,70,,,,,,,,,,,,,,,,,,,,,,,,,,,,,,,,,,,,,,,,,,,,143.77558889996726,None,right,1,1.5080767999170348,144.27638499997556,145.12786300003063,144.27638499997556,144.62703470000997,144.27638499997556,144.62703470000997,144.27638499997556,144.62703470000997,144.27638499997556,144.62703470000997,144.27638499997556,144.62703470000997,144.5937421999406,145.09430929995142,144.5937421999406,145.09430929995142,144.5937421999406,145.09430929995142,144.5937421999406,145.09430929995142,144.5937421999406,145.09430929995142,144.5937421999406,145.09430929995142,144.5937421999406,145.09430929995142,144.5937421999406,145.09430929995142,144.27638499997556,None,145.09430929995142,146.91367689997423,0.3400000000000001,146.93038819998037,None,147.68148699996527,None,,,,,,,[1.81],4.520000000000003,0.7777777777777778,11043,001,2024_Mar_21_0757,MFTM_A_new1021,2021.2.3,59.805250190280134,
,,,,,,,,stim/Instruction_adaptive.png,conditions/adaptive.xlsx,test,-0.6,-0.6,-0.6,0.6,0.6,left,L,,,,,0,1,1,1,0,9,9,89,,,,,,,,,,,,,,,,,,,,,,,,,,,,,,,,,,,,,,,,,,,,148.1823687000433,None,left,1,0.9417277999455109,148.68309199996293,149.48421839997172,148.68309199996293,148.98349520005286,148.68309199996293,148.98349520005286,148.68309199996293,148.98349520005286,148.68309199996293,148.98349520005286,148.68309199996293,148.98349520005286,148.95007370004896,149.450971400016,148.95007370004896,149.450971400016,148.95007370004896,149.450971400016,148.95007370004896,149.450971400016,148.95007370004896,149.450971400016,148.95007370004896,149.450971400016,148.95007370004896,149.450971400016,148.95007370004896,149.450971400016,148.68309199996293,None,149.450971400016,151.30351220001467,0.29000000000000004,151.33706459996756,None,152.08832950005308,None,,,,,,,[1.85],4.7100000000000035,0.8,11043,001,2024_Mar_21_0757,MFTM_A_new1021,2021.2.3,59.805250190280134,
,,,,,,,,stim/Instruction_adaptive.png,conditions/adaptive.xlsx,test,-0.6,-0.6,-0.6,0.6,0.6,left,L,,,,,0,1,1,1,0,10,10,17,,,,,,,,,,,,,,,,,,,,,,,,,,,,,,,,,,,,,,,,,,,,152.58900749997701,None,right,0,1.3505825999891385,153.08977219997905,153.840989899938,153.08977219997905,153.34013130003586,153.08977219997905,153.34013130003586,153.08977219997905,153.34013130003586,153.08977219997905,153.34013130003586,153.08977219997905,153.34013130003586,153.3232859999407,153.82428229996003,153.3232859999407,153.82428229996003,153.3232859999407,153.82428229996003,153.3232859999407,153.82428229996003,153.3232859999407,153.82428229996003,153.3232859999407,153.82428229996003,153.3232859999407,153.82428229996003,153.3232859999407,153.82428229996003,153.08977219997905,None,153.82428229996003,155.7100756999571,0.25,155.72700509999413,None,156.47802339994814,None,,,,,,,[1.88636364],4.240000000000004,0.7272727272727273,11043,001,2024_Mar_21_0757,MFTM_A_new1021,2021.2.3,59.805250190280134,
,,,,,,,,stim/Instruction_adaptive.png,conditions/adaptive.xlsx,test,-0.6,-0.6,-0.6,0.6,0.6,left,L,,,,,0,1,1,1,0,11,11,21,,,,,,,,,,,,,,,,,,,,,,,,,,,,,,,,,,,,,,,,,,,,156.97904040000867,None,left,1,2.3051643999060616,157.47966559999622,158.33086710004136,157.47966559999622,157.83016050001606,157.47966559999622,157.83016050001606,157.47966559999622,157.83016050001606,157.47966559999622,157.83016050001606,157.47966559999622,157.83016050001606,157.81353449996095,158.31419269996695,157.81353449996095,158.31419269996695,157.81353449996095,158.31419269996695,157.81353449996095,158.31419269996695,157.81353449996095,158.31419269996695,157.81353449996095,158.31419269996695,157.81353449996095,158.31419269996695,157.81353449996095,158.31419269996695,157.47966559999622,None,158.31419269996695,160.23386649996974,0.3500000000000001,160.25061180000193,None,161.00175229995511,None,,,,,,,[1.90833333],4.4200000000000035,0.75,11043,001,2024_Mar_21_0757,MFTM_A_new1021,2021.2.3,59.805250190280134,
,,,,,,,,stim/Instruction_adaptive.png,conditions/adaptive.xlsx,test,0.6,0.6,0.6,-0.6,-0.6,right,R,,,,,0,1,1,1,0,12,12,42,,,,,,,,,,,,,,,,,,,,,,,,,,,,,,,,,,,,,,,,,,,,161.5025130000431,None,right,1,2.501850300002843,162.00313259998802,162.82115319999866,162.00313259998802,162.32032059994526,162.00313259998802,162.32032059994526,162.00313259998802,162.32032059994526,162.00313259998802,162.32032059994526,162.00313259998802,162.32032059994526,162.28703130001668,162.78803319996223,162.28703130001668,162.78803319996223,162.28703130001668,162.78803319996223,162.28703130001668,162.78803319996223,162.28703130001668,162.78803319996223,162.28703130001668,162.78803319996223,162.28703130001668,162.78803319996223,162.28703130001668,162.78803319996223,162.00313259998802,None,162.78803319996223,164.72394749999512,0.31000000000000005,164.7571903000353,None,165.50842630001716,None,,,,,,,[1.93],4.580000000000004,0.7692307692307693,11043,001,2024_Mar_21_0757,MFTM_A_new1021,2021.2.3,59.805250190280134,
,,,,,,,,stim/Instruction_adaptive.png,conditions/adaptive.xlsx,test,0.6,0.6,0.6,-0.6,-0.6,right,R,,,,,0,1,1,1,0,13,13,58,,,,,,,,,,,,,,,,,,,,,,,,,,,,,,,,,,,,,,,,,,,,166.00921799999196,None,left,0,1.5470662999432534,166.50989899993874,167.29453800001647,166.50989899993874,166.79366670001764,166.50989899993874,166.79366670001764,166.50989899993874,166.79366670001764,166.50989899993874,166.79366670001764,166.50989899993874,166.79366670001764,166.7772307000123,167.27770099998452,166.7772307000123,167.27770099998452,166.7772307000123,167.27770099998452,166.7772307000123,167.27770099998452,166.7772307000123,167.27770099998452,166.7772307000123,167.27770099998452,166.7772307000123,167.27770099998452,166.7772307000123,167.27770099998452,166.50989899993874,None,167.27770099998452,169.2307730000466,0.28,169.24751769995783,None,169.99909229995683,None,,,,,,,[1.95071429],4.180000000000003,0.7142857142857143,11043,001,2024_Mar_21_0757,MFTM_A_new1021,2021.2.3,59.805250190280134,
,,,,,,,,stim/Instruction_adaptive.png,conditions/adaptive.xlsx,test,0.6,0.6,0.6,-0.6,-0.6,right,R,,,,,0,1,1,1,0,14,14,26,,,,,,,,,,,,,,,,,,,,,,,,,,,,,,,,,,,,,,,,,,,,170.49935920001008,None,right,1,2.552981000044383,170.99997330002952,171.8679241000209,170.99997330002952,171.36721059994306,170.99997330002952,171.36721059994306,170.99997330002952,171.36721059994306,170.99997330002952,171.36721059994306,170.99997330002952,171.36721059994306,171.3337768999627,171.83470759994816,171.3337768999627,171.83470759994816,171.3337768999627,171.83470759994816,171.3337768999627,171.83470759994816,171.3337768999627,171.83470759994816,171.3337768999627,171.83470759994816,171.3337768999627,171.83470759994816,171.3337768999627,171.83470759994816,170.99997330002952,None,171.83470759994816,173.80424650001805,0.3600000000000001,173.83735829999205,None,174.58895999996457,None,,,,,,,[1.96333333],4.330000000000004,0.7333333333333333,11043,001,2024_Mar_21_0757,MFTM_A_new1021,2021.2.3,59.805250190280134,
,,,,,,,,stim/Instruction_adaptive.png,conditions/adaptive.xlsx,test,-0.6,-0.6,-0.6,0.6,0.6,left,L,,,,,0,1,1,1,0,15,15,7,,,,,,,,,,,,,,,,,,,,,,,,,,,,,,,,,,,,,,,,,,,,175.09002270002384,None,left,1,2.394996599992737,175.59024379996117,176.42483270005323,175.59024379996117,175.92417979997117,175.59024379996117,175.92417979997117,175.59024379996117,175.92417979997117,175.59024379996117,175.92417979997117,175.59024379996117,175.92417979997117,175.90752540004905,176.40823199995793,175.90752540004905,176.40823199995793,175.90752540004905,176.40823199995793,175.90752540004905,176.40823199995793,175.90752540004905,176.40823199995793,175.90752540004905,176.40823199995793,175.90752540004905,176.40823199995793,175.90752540004905,176.40823199995793,175.59024379996117,None,176.40823199995793,178.3944445999805,0.33000000000000007,178.4115512999706,None,179.16265419998672,None,,,,,,,[1.97625],4.4600000000000035,0.75,11043,001,2024_Mar_21_0757,MFTM_A_new1021,2021.2.3,59.805250190280134,
,,,,,,,,stim/Instruction_adaptive.png,conditions/adaptive.xlsx,test,0.6,0.6,0.6,-0.6,-0.6,right,R,,,,,0,1,1,1,0,16,16,12,,,,,,,,,,,,,,,,,,,,,,,,,,,,,,,,,,,,,,,,,,,,179.66307370003778,None,right,1,1.988391499966383,180.16481810004916,180.9650725000538,180.16481810004916,180.46449249994475,180.16481810004916,180.46449249994475,180.16481810004916,180.46449249994475,180.16481810004916,180.46449249994475,180.16481810004916,180.46449249994475,180.44775559997652,180.94838890002575,180.44775559997652,180.94838890002575,180.44775559997652,180.94838890002575,180.44775559997652,180.94838890002575,180.44775559997652,180.94838890002575,180.44775559997652,180.94838890002575,180.44775559997652,180.94838890002575,180.44775559997652,180.94838890002575,180.16481810004916,None,180.94838890002575,182.95140340004582,0.30000000000000004,182.96809950005263,None,183.7192071999889,None,,,,,,,[1.98941176],4.570000000000004,0.7647058823529411,11043,001,2024_Mar_21_0757,MFTM_A_new1021,2021.2.3,59.805250190280134,
,,,,,,,,stim/Instruction_adaptive.png,conditions/adaptive.xlsx,test,-0.6,-0.6,-0.6,0.6,0.6,left,L,,,,,0,1,1,1,0,17,17,51,,,,,,,,,,,,,,,,,,,,,,,,,,,,,,,,,,,,,,,,,,,,184.21988600003533,None,None,0,0,184.72168299998157,185.5053783999756,184.72168299998157,185.00493890000507,184.72168299998157,185.00493890000507,184.72168299998157,185.00493890000507,184.72168299998157,185.00493890000507,184.72168299998157,185.00493890000507,184.98794819996692,185.48861670005135,184.98794819996692,185.48861670005135,184.98794819996692,185.48861670005135,184.98794819996692,185.48861670005135,184.98794819996692,185.48861670005135,184.98794819996692,185.48861670005135,184.98794819996692,185.48861670005135,184.98794819996692,185.48861670005135,184.72168299998157,None,185.48861670005135,188.20927290001418,0.28,188.2434889000142,None,188.99454780004453,None,,,,,,,[[2.72]],4.260000000000003,0.7222222222222222,11043,001,2024_Mar_21_0757,MFTM_A_new1021,2021.2.3,59.805250190280134,
,,,,,,,,stim/Instruction_adaptive.png,conditions/adaptive.xlsx,test,0.6,0.6,0.6,-0.6,-0.6,right,R,,,,,0,1,1,1,0,18,18,14,,,,,,,,,,,,,,,,,,,,,,,,,,,,,,,,,,,,,,,,,,,,189.4945779000409,None,left,0,1.7110221000621095,189.9788460000418,190.83078950003255,189.9788460000418,190.32936239999253,189.9788460000418,190.32936239999253,189.9788460000418,190.32936239999253,189.9788460000418,190.32936239999253,189.9788460000418,190.32936239999253,190.29655660002027,190.7972068999661,190.29655660002027,190.7972068999661,190.29655660002027,190.7972068999661,190.29655660002027,190.7972068999661,190.29655660002027,190.7972068999661,190.29655660002027,190.7972068999661,190.29655660002027,190.7972068999661,190.29655660002027,190.7972068999661,189.9788460000418,None,190.7972068999661,192.8173254999565,0.3400000000000001,192.83303009998053,None,193.58426699996926,None,,,,,,,[2.01052632],3.910000000000003,0.6842105263157895,11043,001,2024_Mar_21_0757,MFTM_A_new1021,2021.2.3,59.805250190280134,
,,,,,,,,stim/Instruction_adaptive.png,conditions/adaptive.xlsx,test,0.6,0.6,0.6,-0.6,-0.6,right,R,,,,,0,1,1,1,0,19,19,30,,,,,,,,,,,,,,,,,,,,,,,,,,,,,,,,,,,,,,,,,,,,194.0848179999739,None,right,1,1.6801231000572443,194.58573789999355,195.53708769998048,194.58573789999355,195.03616739995778,194.58573789999355,195.03616739995778,194.58573789999355,195.03616739995778,194.58573789999355,195.03616739995778,194.58573789999355,195.03616739995778,195.00294389994815,195.5041590000037,195.00294389994815,195.5041590000037,195.00294389994815,195.5041590000037,195.00294389994815,195.5041590000037,195.00294389994815,195.5041590000037,195.00294389994815,195.5041590000037,195.00294389994815,195.5041590000037,195.00294389994815,195.5041590000037,194.58573789999355,None,195.5041590000037,197.52330130001064,0.44000000000000017,197.53989520005416,None,198.291774500045,None,,,,,,,[2.013],4.040000000000003,0.7,11043,001,2024_Mar_21_0757,MFTM_A_new1021,2021.2.3,59.805250190280134,
,,,,,,,,stim/Instruction_adaptive.png,conditions/adaptive.xlsx,test,0.6,0.6,0.6,-0.6,-0.6,right,R,,,,,0,1,1,1,0,20,20,90,,,,,,,,,,,,,,,,,,,,,,,,,,,,,,,,,,,,,,,,,,,,198.79193950002082,None,right,1,1.3411760999588296,199.2927527000429,200.1940387999639,199.2927527000429,199.69339389994275,199.2927527000429,199.69339389994275,199.2927527000429,199.69339389994275,199.2927527000429,199.69339389994275,199.2927527000429,199.69339389994275,199.67665799998213,200.17730420001317,199.67665799998213,200.17730420001317,199.67665799998213,200.17730420001317,199.67665799998213,200.17730420001317,199.67665799998213,200.17730420001317,199.67665799998213,200.17730420001317,199.67665799998213,200.17730420001317,199.67665799998213,200.17730420001317,199.2927527000429,None,200.17730420001317,202.19720079994295,0.40000000000000013,202.21380749996752,None,202.96490469994023,None,,,,,,,[2.01714286],4.160000000000004,0.7142857142857143,11043,001,2024_Mar_21_0757,MFTM_A_new1021,2021.2.3,59.805250190280134,
,,,,,,,,stim/Instruction_adaptive.png,conditions/adaptive.xlsx,test,-0.6,-0.6,-0.6,0.6,0.6,left,L,,,,,0,1,1,1,0,21,21,57,,,,,,,,,,,,,,,,,,,,,,,,,,,,,,,,,,,,,,,,,,,,203.46690640004817,None,right,0,1.6514711000490934,203.9663163999794,204.8522338999901,203.9663163999794,204.35024049994536,203.9663163999794,204.35024049994536,203.9663163999794,204.35024049994536,203.9663163999794,204.35024049994536,203.9663163999794,204.35024049994536,204.31705910002347,204.81781599996611,204.31705910002347,204.81781599996611,204.31705910002347,204.81781599996611,204.31705910002347,204.81781599996611,204.31705910002347,204.81781599996611,204.31705910002347,204.81781599996611,204.31705910002347,204.81781599996611,204.31705910002347,204.81781599996611,203.9663163999794,None,204.81781599996611,206.85416420002002,0.3700000000000001,206.8711260999553,None,207.62170499993954,None,,,,,,,[2.02227273],3.840000000000003,0.6818181818181818,11043,001,2024_Mar_21_0757,MFTM_A_new1021,2021.2.3,59.805250190280134,
,,,,,,,,stim/Instruction_adaptive.png,conditions/adaptive.xlsx,test,0.6,0.6,0.6,-0.6,-0.6,right,R,,,,,0,1,1,1,0,22,22,20,,,,,,,,,,,,,,,,,,,,,,,,,,,,,,,,,,,,,,,,,,,,208.12312080000993,None,right,1,2.322470900020562,208.6234562000027,209.59156019997317,208.6234562000027,209.09104550001211,208.6234562000027,209.09104550001211,208.6234562000027,209.09104550001211,208.6234562000027,209.09104550001211,208.6234562000027,209.09104550001211,209.05761879996862,209.55825769994408,209.05761879996862,209.55825769994408,209.05761879996862,209.55825769994408,209.05761879996862,209.55825769994408,209.05761879996862,209.55825769994408,209.05761879996862,209.55825769994408,209.05761879996862,209.55825769994408,209.05761879996862,209.55825769994408,208.6234562000027,None,209.55825769994408,211.5945779000176,0.4600000000000002,211.6112525999779,None,212.362394799944,None,,,,,,,[2.02304348],3.960000000000003,0.6956521739130435,11043,001,2024_Mar_21_0757,MFTM_A_new1021,2021.2.3,59.805250190280134,
,,,,,,,,stim/Instruction_adaptive.png,conditions/adaptive.xlsx,test,-0.6,-0.6,-0.6,0.6,0.6,left,L,,,,,0,1,1,1,0,23,23,5,,,,,,,,,,,,,,,,,,,,,,,,,,,,,,,,,,,,,,,,,,,,212.86299629998393,None,left,1,2.383268100093119,213.36383189994376,214.29864319995977,213.36383189994376,213.79791449999902,213.36383189994376,213.79791449999902,213.36383189994376,213.79791449999902,213.36383189994376,213.79791449999902,213.36383189994376,213.79791449999902,213.7645407000091,214.2657994000474,213.7645407000091,214.2657994000474,213.7645407000091,214.2657994000474,213.7645407000091,214.2657994000474,213.7645407000091,214.2657994000474,213.7645407000091,214.2657994000474,213.7645407000091,214.2657994000474,213.7645407000091,214.2657994000474,213.36383189994376,None,214.2657994000474,216.30153079994489,0.42000000000000015,216.31923689995892,None,217.0694745000219,None,,,,,,,[2.02541667],4.070000000000003,0.7083333333333334,11043,001,2024_Mar_21_0757,MFTM_A_new1021,2021.2.3,59.805250190280134,
,,,,,,,,stim/Instruction_adaptive.png,conditions/adaptive.xlsx,test,0.6,0.6,0.6,-0.6,-0.6,right,R,,,,,0,1,1,1,0,24,24,8,,,,,,,,,,,,,,,,,,,,,,,,,,,,,,,,,,,,,,,,,,,,217.5701900999993,None,left,0,1.7315338000189513,218.0710146999918,218.97239060001448,218.0710146999918,218.4714859999949,218.0710146999918,218.4714859999949,218.0710146999918,218.4714859999949,218.0710146999918,218.4714859999949,218.0710146999918,218.4714859999949,218.43821079994086,218.93908489996102,218.43821079994086,218.93908489996102,218.43821079994086,218.93908489996102,218.43821079994086,218.93908489996102,218.43821079994086,218.93908489996102,218.43821079994086,218.93908489996102,218.43821079994086,218.93908489996102,218.43821079994086,218.93908489996102,218.0710146999918,None,218.93908489996102,220.9754387999419,0.3900000000000001,220.99354339996353,None,221.74343649996445,None,,,,,,,[2.0288],3.780000000000003,0.68,11043,001,2024_Mar_21_0757,MFTM_A_new1021,2021.2.3,59.805250190280134,
,,,,,,,,stim/Instruction_adaptive.png,conditions/adaptive.xlsx,test,-0.6,-0.6,-0.6,0.6,0.6,left,L,,,,,0,1,1,1,0,25,25,45,,,,,,,,,,,,,,,,,,,,,,,,,,,,,,,,,,,,,,,,,,,,222.2445048999507,None,left,1,1.705794700072147,222.7446801000042,223.7295543999644,222.7446801000042,223.22876950004138,222.7446801000042,223.22876950004138,222.7446801000042,223.22876950004138,222.7446801000042,223.22876950004138,222.7446801000042,223.22876950004138,223.21199890004937,223.71280249999836,223.21199890004937,223.71280249999836,223.21199890004937,223.71280249999836,223.21199890004937,223.71280249999836,223.21199890004937,223.71280249999836,223.21199890004937,223.71280249999836,223.21199890004937,223.71280249999836,223.21199890004937,223.71280249999836,222.7446801000042,None,223.71280249999836,225.73316069995053,0.4800000000000002,225.74925009999424,None,226.50036079995334,None,,,,,,,[[2.02]],3.8900000000000032,0.6923076923076923,11043,001,2024_Mar_21_0757,MFTM_A_new1021,2021.2.3,59.805250190280134,
,,,,,,,,stim/Instruction_adaptive.png,conditions/adaptive.xlsx,test,-0.6,-0.6,-0.6,0.6,0.6,left,L,,,,,0,1,1,1,0,26,26,83,,,,,,,,,,,,,,,,,,,,,,,,,,,,,,,,,,,,,,,,,,,,227.00101799995173,None,left,1,1.6208914000308141,227.50175349996425,228.45326169999316,227.50175349996425,227.95254820003174,227.50175349996425,227.95254820003174,227.50175349996425,227.95254820003174,227.50175349996425,227.95254820003174,227.50175349996425,227.95254820003174,227.91923789994325,228.420110499952,227.91923789994325,228.420110499952,227.91923789994325,228.420110499952,227.91923789994325,228.420110499952,227.91923789994325,228.420110499952,227.91923789994325,228.420110499952,227.91923789994325,228.420110499952,227.91923789994325,228.420110499952,227.50175349996425,None,228.420110499952,230.45635330001824,0.44000000000000017,230.4728753999807,None,231.22424400004093,None,,,,,,,[2.02962963],3.980000000000003,0.7037037037037037,11043,001,2024_Mar_21_0757,MFTM_A_new1021,2021.2.3,59.805250190280134,
,,,,,,,,stim/Instruction_adaptive.png,conditions/adaptive.xlsx,test,-0.6,-0.6,-0.6,0.6,0.6,left,L,,,,,0,1,1,1,0,27,27,19,,,,,,,,,,,,,,,,,,,,,,,,,,,,,,,,,,,,,,,,,,,,231.72509880003054,None,left,1,1.456999000045471,232.225829300005,233.16032659995835,232.225829300005,232.6596374999499,232.225829300005,232.6596374999499,232.225829300005,232.6596374999499,232.225829300005,232.6596374999499,232.225829300005,232.6596374999499,232.6267217999557,233.12683269998524,232.6267217999557,233.12683269998524,232.6267217999557,233.12683269998524,232.6267217999557,233.12683269998524,232.6267217999557,233.12683269998524,232.6267217999557,233.12683269998524,232.6267217999557,233.12683269998524,232.6267217999557,233.12683269998524,232.225829300005,None,233.12683269998524,235.1632321999641,0.42000000000000015,235.1799448999809,None,235.9317960999906,None,,,,,,,[2.03142857],4.070000000000003,0.7142857142857143,11043,001,2024_Mar_21_0757,MFTM_A_new1021,2021.2.3,59.805250190280134,
,,,,,,,,stim/Instruction_adaptive.png,conditions/adaptive.xlsx,test,0.6,0.6,0.6,-0.6,-0.6,right,R,,,,,0,1,1,1,0,28,28,2,,,,,,,,,,,,,,,,,,,,,,,,,,,,,,,,,,,,,,,,,,,,236.43179599998984,None,right,1,2.373389499960467,236.93328899994958,237.83406979998108,236.93328899994958,237.33347299997695,236.93328899994958,237.33347299997695,236.93328899994958,237.33347299997695,236.93328899994958,237.33347299997695,236.93328899994958,237.33347299997695,237.30028640001547,237.8010740999598,237.30028640001547,237.8010740999598,237.30028640001547,237.8010740999598,237.30028640001547,237.8010740999598,237.30028640001547,237.8010740999598,237.30028640001547,237.8010740999598,237.30028640001547,237.8010740999598,237.30028640001547,237.8010740999598,236.93328899994958,None,237.8010740999598,239.8372557000257,0.3900000000000001,239.87056469998788,None,240.6219658999471,None,,,,,,,[2.03413793],4.150000000000003,0.7241379310344828,11043,001,2024_Mar_21_0757,MFTM_A_new1021,2021.2.3,59.805250190280134,
,,,,,,,,stim/Instruction_adaptive.png,conditions/adaptive.xlsx,test,0.6,0.6,0.6,-0.6,-0.6,right,R,,,,,0,1,1,1,0,29,29,98,,,,,,,,,,,,,,,,,,,,,,,,,,,,,,,,,,,,,,,,,,,,241.12249310000334,None,right,1,1.643883999902755,241.6232627000427,242.50769200001378,241.6232627000427,242.0070463999873,241.6232627000427,242.0070463999873,241.6232627000427,242.0070463999873,241.6232627000427,242.0070463999873,241.6232627000427,242.0070463999873,241.97389330004808,242.4748602999607,241.97389330004808,242.4748602999607,241.97389330004808,242.4748602999607,241.97389330004808,242.4748602999607,241.97389330004808,242.4748602999607,241.97389330004808,242.4748602999607,241.97389330004808,242.4748602999607,241.97389330004808,242.4748602999607,241.6232627000427,None,242.4748602999607,244.52758370002266,0.3700000000000001,244.5442439999897,None,245.29520379996393,None,,,,,,,[2.03733333],4.220000000000003,0.7333333333333333,11043,001,2024_Mar_21_0757,MFTM_A_new1021,2021.2.3,59.805250190280134,
,,,,,,,,stim/Instruction_adaptive.png,conditions/adaptive.xlsx,test,0.6,0.6,0.6,-0.6,-0.6,right,R,,,,,0,1,1,1,0,30,30,38,,,,,,,,,,,,,,,,,,,,,,,,,,,,,,,,,,,,,,,,,,,,245.79626009997446,None,right,1,1.570232899975963,246.29691699997056,247.14806499995757,246.29691699997056,246.64811529999133,246.29691699997056,246.64811529999133,246.29691699997056,246.64811529999133,246.29691699997056,246.64811529999133,246.29691699997056,246.64811529999133,246.63061650004238,247.1319524999708,246.63061650004238,247.1319524999708,246.63061650004238,247.1319524999708,246.63061650004238,247.1319524999708,246.63061650004238,247.1319524999708,246.63061650004238,247.1319524999708,246.63061650004238,247.1319524999708,246.63061650004238,247.1319524999708,246.29691699997056,None,247.1319524999708,249.18502039997838,0.3500000000000001,249.20132780005224,None,249.95243409997784,None,,,,,,,[2.04096774],4.280000000000003,0.7419354838709677,11043,001,2024_Mar_21_0757,MFTM_A_new1021,2021.2.3,59.805250190280134,
,,,,,,,,stim/Instruction_adaptive.png,conditions/adaptive.xlsx,test,-0.6,-0.6,-0.6,0.6,0.6,left,L,,,,,0,1,1,1,0,31,31,81,,,,,,,,,,,,,,,,,,,,,,,,,,,,,,,,,,,,,,,,,,,,250.45318149996456,None,left,1,1.297482299967669,250.95381420000922,251.80527500004973,250.95381420000922,251.30442689999472,250.95381420000922,251.30442689999472,250.95381420000922,251.30442689999472,250.95381420000922,251.30442689999472,250.95381420000922,251.30442689999472,251.271035999991,251.7729290999705,251.271035999991,251.7729290999705,251.271035999991,251.7729290999705,251.271035999991,251.7729290999705,251.271035999991,251.7729290999705,251.271035999991,251.7729290999705,251.271035999991,251.7729290999705,251.271035999991,251.7729290999705,250.95381420000922,None,251.7729290999705,253.82489060005173,0.3400000000000001,253.84176930005196,None,254.59355160000268,None,,,,,,,[2.0446875],4.340000000000003,0.75,11043,001,2024_Mar_21_0757,MFTM_A_new1021,2021.2.3,59.805250190280134,
,,,,,,,,stim/Instruction_adaptive.png,conditions/adaptive.xlsx,test,-0.6,-0.6,-0.6,0.6,0.6,left,L,,,,,0,1,1,1,0,32,32,15,,,,,,,,,,,,,,,,,,,,,,,,,,,,,,,,,,,,,,,,,,,,255.09366939996835,None,left,1,2.6411861999658868,255.59415120002814,256.4286055000266,255.59415120002814,255.92807290004566,255.59415120002814,255.92807290004566,255.59415120002814,255.92807290004566,255.59415120002814,255.92807290004566,255.59415120002814,255.92807290004566,255.89451549993828,256.39550550002605,255.89451549993828,256.39550550002605,255.89451549993828,256.39550550002605,255.89451549993828,256.39550550002605,255.89451549993828,256.39550550002605,255.89451549993828,256.39550550002605,255.89451549993828,256.39550550002605,255.89451549993828,256.39550550002605,255.59415120002814,None,256.39550550002605,258.44839299994055,0.32000000000000006,258.46505680005066,None,259.21639109996613,None,,,,,,,[2.04878788],4.400000000000004,0.7575757575757576,11043,001,2024_Mar_21_0757,MFTM_A_new1021,2021.2.3,59.805250190280134,
,,,,,,,,stim/Instruction_adaptive.png,conditions/adaptive.xlsx,test,0.6,0.6,0.6,-0.6,-0.6,right,R,,,,,0,1,1,1,0,33,33,62,,,,,,,,,,,,,,,,,,,,,,,,,,,,,,,,,,,,,,,,,,,,259.71724200004246,None,right,1,1.9294843999668956,260.21779290004633,261.035657600034,260.21779290004633,260.5351842000382,260.21779290004633,260.5351842000382,260.21779290004633,260.5351842000382,260.21779290004633,260.5351842000382,260.21779290004633,260.5351842000382,260.51908120000735,261.0193136000307,260.51908120000735,261.0193136000307,260.51908120000735,261.0193136000307,260.51908120000735,261.0193136000307,260.51908120000735,261.0193136000307,260.51908120000735,261.0193136000307,260.51908120000735,261.0193136000307,260.51908120000735,261.0193136000307,260.21779290004633,None,261.0193136000307,263.07238499994855,0.31000000000000005,263.0889866000507,None,263.84023199998774,None,,,,,,,[2.05294118],4.4600000000000035,0.7647058823529411,11043,001,2024_Mar_21_0757,MFTM_A_new1021,2021.2.3,59.805250190280134,
,,,,,,,,stim/Instruction_adaptive.png,conditions/adaptive.xlsx,test,-0.6,-0.6,-0.6,0.6,0.6,left,L,,,,,0,1,1,1,0,34,34,99,,,,,,,,,,,,,,,,,,,,,,,,,,,,,,,,,,,,,,,,,,,,264.34140449995175,None,left,1,2.2500766000011936,264.84150540002156,265.64592949999496,264.84150540002156,265.141889099963,264.84150540002156,265.141889099963,264.84150540002156,265.141889099963,264.84150540002156,265.141889099963,264.84150540002156,265.141889099963,265.1252337000333,265.6260859000031,265.1252337000333,265.6260859000031,265.1252337000333,265.6260859000031,265.1252337000333,265.6260859000031,265.1252337000333,265.6260859000031,265.1252337000333,265.6260859000031,265.1252337000333,265.6260859000031,265.1252337000333,265.6260859000031,264.84150540002156,None,265.6260859000031,267.6956858000485,0.30000000000000004,267.71241359994747,None,268.4636212999467,None,,,,,,,[2.05714286],4.510000000000003,0.7714285714285715,11043,001,2024_Mar_21_0757,MFTM_A_new1021,2021.2.3,59.805250190280134,
,,,,,,,,stim/Instruction_adaptive.png,conditions/adaptive.xlsx,test,0.6,0.6,0.6,-0.6,-0.6,right,R,,,,,0,1,1,1,0,35,35,10,,,,,,,,,,,,,,,,,,,,,,,,,,,,,,,,,,,,,,,,,,,,268.9643046000274,None,left,0,1.754688800079748,269.4649648000486,270.2663036000449,269.4649648000486,269.76553690002766,269.4649648000486,269.76553690002766,269.4649648000486,269.76553690002766,269.4649648000486,269.76553690002766,269.4649648000486,269.76553690002766,269.7321785000386,270.2328153999988,269.7321785000386,270.2328153999988,269.7321785000386,270.2328153999988,269.7321785000386,270.2328153999988,269.7321785000386,270.2328153999988,269.7321785000386,270.2328153999988,269.7321785000386,270.2328153999988,269.7321785000386,270.2328153999988,269.4649648000486,None,270.2328153999988,272.3026934999507,0.29000000000000004,272.31941039999947,None,273.07095219998155,None,,,,,,,[2.06138889],4.360000000000003,0.75,11043,001,2024_Mar_21_0757,MFTM_A_new1021,2021.2.3,59.805250190280134,
,,,,,,,,stim/Instruction_adaptive.png,conditions/adaptive.xlsx,test,0.6,0.6,0.6,-0.6,-0.6,right,R,,,,,0,1,1,1,0,36,36,84,,,,,,,,,,,,,,,,,,,,,,,,,,,,,,,,,,,,,,,,,,,,273.5716486000456,None,left,0,2.923591800034046,274.07201809994876,274.9067935999483,274.07201809994876,274.4056921999436,274.07201809994876,274.4056921999436,274.07201809994876,274.4056921999436,274.07201809994876,274.4056921999436,274.07201809994876,274.4056921999436,274.3728590999963,274.8733128999593,274.3728590999963,274.8733128999593,274.3728590999963,274.8733128999593,274.3728590999963,274.8733128999593,274.3728590999963,274.8733128999593,274.3728590999963,274.8733128999593,274.3728590999963,274.8733128999593,274.3728590999963,274.8733128999593,274.07201809994876,None,274.8733128999593,277.0265728000086,0.32000000000000006,277.0432352999924,None,277.79475859995,None,,,,,,,[2.06459459],4.200000000000003,0.7297297297297297,11043,001,2024_Mar_21_0757,MFTM_A_new1021,2021.2.3,59.805250190280134,
,,,,,,,,stim/Instruction_adaptive.png,conditions/adaptive.xlsx,test,0.6,0.6,0.6,-0.6,-0.6,right,R,,,,,0,1,1,1,0,37,37,46,,,,,,,,,,,,,,,,,,,,,,,,,,,,,,,,,,,,,,,,,,,,278.295138400048,None,right,1,3.0398136998992413,278.7963469000533,279.66416739998385,278.7963469000533,279.1630207999842,278.7963469000533,279.1630207999842,278.7963469000533,279.1630207999842,278.7963469000533,279.1630207999842,278.7963469000533,279.1630207999842,279.12978740001563,279.6305949999951,279.12978740001563,279.6305949999951,279.12978740001563,279.6305949999951,279.12978740001563,279.6305949999951,279.12978740001563,279.6305949999951,279.12978740001563,279.6305949999951,279.12978740001563,279.6305949999951,279.12978740001563,279.6305949999951,278.7963469000533,None,279.6305949999951,281.8676033000229,0.3600000000000001,281.8838949999772,None,282.6357769999886,None,,,,,,,[2.06657895],4.260000000000003,0.7368421052631579,11043,001,2024_Mar_21_0757,MFTM_A_new1021,2021.2.3,59.805250190280134,
,,,,,,,,stim/Instruction_adaptive.png,conditions/adaptive.xlsx,test,0.6,0.6,0.6,-0.6,-0.6,right,R,,,,,0,1,1,1,0,38,38,80,,,,,,,,,,,,,,,,,,,,,,,,,,,,,,,,,,,,,,,,,,,,283.135726199951,None,left,0,2.135614899918437,283.6364451999543,284.48769039998297,283.6364451999543,283.9871452000225,283.6364451999543,283.9871452000225,283.6364451999543,283.9871452000225,283.6364451999543,283.9871452000225,283.6364451999543,283.9871452000225,283.9535552000161,284.45447979995515,283.9535552000161,284.45447979995515,283.9535552000161,284.45447979995515,283.9535552000161,284.45447979995515,283.9535552000161,284.45447979995515,283.9535552000161,284.45447979995515,283.9535552000161,284.45447979995515,283.9535552000161,284.45447979995515,283.6364451999543,None,284.45447979995515,286.52419539995026,0.3400000000000001,286.5575561999576,None,287.3086952000158,None,,,,,,,[2.06897436],4.100000000000003,0.717948717948718,11043,001,2024_Mar_21_0757,MFTM_A_new1021,2021.2.3,59.805250190280134,
,,,,,,,,stim/Instruction_adaptive.png,conditions/adaptive.xlsx,test,0.6,0.6,0.6,-0.6,-0.6,right,R,,,,,0,1,1,1,0,39,39,96,,,,,,,,,,,,,,,,,,,,,,,,,,,,,,,,,,,,,,,,,,,,287.8094684999669,None,right,1,3.1821677000261843,288.3102558000246,289.19515709998086,288.3102558000246,288.6942473000381,288.3102558000246,288.6942473000381,288.3102558000246,288.6942473000381,288.3102558000246,288.6942473000381,288.3102558000246,288.6942473000381,288.6777591999853,289.1785202999599,288.6777591999853,289.1785202999599,288.6777591999853,289.1785202999599,288.6777591999853,289.1785202999599,288.6777591999853,289.1785202999599,288.6777591999853,289.1785202999599,288.6777591999853,289.1785202999599,288.6777591999853,289.1785202999599,288.3102558000246,None,289.1785202999599,291.5148870999692,0.3800000000000001,291.5315436000237,None,292.282894999953,None,,,,,,,[2.07025],4.160000000000004,0.725,11043,001,2024_Mar_21_0757,MFTM_A_new1021,2021.2.3,59.805250190280134,
,,,,,,,,stim/Instruction_adaptive.png,conditions/adaptive.xlsx,test,0.6,0.6,0.6,-0.6,-0.6,right,R,,,,,0,1,1,1,0,40,40,74,,,,,,,,,,,,,,,,,,,,,,,,,,,,,,,,,,,,,,,,,,,,292.78361749998294,None,left,0,2.2083787999581546,293.2842079999391,294.1693379000062,293.2842079999391,293.66812699998263,293.2842079999391,293.66812699998263,293.2842079999391,293.66812699998263,293.2842079999391,293.66812699998263,293.2842079999391,293.66812699998263,293.6350284999935,294.135636699968,293.6350284999935,294.135636699968,293.6350284999935,294.135636699968,293.6350284999935,294.135636699968,293.6350284999935,294.135636699968,293.6350284999935,294.135636699968,293.6350284999935,294.135636699968,293.6350284999935,294.135636699968,293.2842079999391,None,294.135636699968,296.2223361999495,0.3700000000000001,296.2387050000252,None,296.9905505999923,None,,,,,,,[2.07170732],4.0000000000000036,0.7073170731707317,11043,001,2024_Mar_21_0757,MFTM_A_new1021,2021.2.3,59.805250190280134,
,,,,,,,,stim/Instruction_adaptive.png,conditions/adaptive.xlsx,test,-0.6,-0.6,-0.6,0.6,0.6,left,L,,,,,0,1,1,1,0,41,41,37,,,,,,,,,,,,,,,,,,,,,,,,,,,,,,,,,,,,,,,,,,,,297.4921703999862,None,right,0,3.004669100046158,297.9923657999607,298.9095623999601,297.9923657999607,298.40861559996847,297.9923657999607,298.40861559996847,297.9923657999607,298.40861559996847,297.9923657999607,298.40861559996847,297.9923657999607,298.40861559996847,298.3754285000032,298.87742699997034,298.3754285000032,298.87742699997034,298.3754285000032,298.87742699997034,298.3754285000032,298.87742699997034,298.3754285000032,298.87742699997034,298.3754285000032,298.87742699997034,298.3754285000032,298.87742699997034,298.3754285000032,298.87742699997034,297.9923657999607,None,298.87742699997034,301.0127147999592,0.41000000000000014,301.0293837999925,None,301.7805265999632,None,,,,,,,[2.07214286],3.820000000000003,0.6904761904761905,11043,001,2024_Mar_21_0757,MFTM_A_new1021,2021.2.3,59.805250190280134,
,,,,,,,,stim/Instruction_adaptive.png,conditions/adaptive.xlsx,test,0.6,0.6,0.6,-0.6,-0.6,right,R,,,,,0,1,1,1,0,42,42,86,,,,,,,,,,,,,,,,,,,,,,,,,,,,,,,,,,,,,,,,,,,,302.28097459999844,None,right,1,2.4950778000056744,302.78191949997563,303.76696479995735,302.78191949997563,303.26635269995313,302.78191949997563,303.26635269995313,302.78191949997563,303.26635269995313,302.78191949997563,303.26635269995313,302.78191949997563,303.26635269995313,303.23293820000254,303.7333301999606,303.23293820000254,303.7333301999606,303.23293820000254,303.7333301999606,303.23293820000254,303.7333301999606,303.23293820000254,303.7333301999606,303.23293820000254,303.7333301999606,303.23293820000254,303.7333301999606,303.23293820000254,303.7333301999606,302.78191949997563,None,303.7333301999606,305.77006609993987,0.4700000000000002,305.78646790003404,None,306.53784150001593,None,,,,,,,[[2.03]],3.880000000000003,0.6976744186046512,11043,001,2024_Mar_21_0757,MFTM_A_new1021,2021.2.3,59.805250190280134,
,,,,,,,,stim/Instruction_adaptive.png,conditions/adaptive.xlsx,test,0.6,0.6,0.6,-0.6,-0.6,right,R,,,,,0,1,1,1,0,43,43,94,,,,,,,,,,,,,,,,,,,,,,,,,,,,,,,,,,,,,,,,,,,,307.0392715999624,None,left,0,3.257375199929811,307.53931539994664,308.49063579994254,307.53931539994664,307.98971420002636,307.53931539994664,307.98971420002636,307.53931539994664,307.98971420002636,307.53931539994664,307.98971420002636,307.53931539994664,307.98971420002636,307.97301990003325,308.4740423000185,307.97301990003325,308.4740423000185,307.97301990003325,308.4740423000185,307.97301990003325,308.4740423000185,307.97301990003325,308.4740423000185,307.97301990003325,308.4740423000185,307.97301990003325,308.4740423000185,307.97301990003325,308.4740423000185,307.53931539994664,None,308.4740423000185,310.81148379994556,0.4500000000000002,310.82745740003884,None,311.5786174000241,None,,,,,,,[[2.05]],3.700000000000003,0.6818181818181818,11043,001,2024_Mar_21_0757,MFTM_A_new1021,2021.2.3,59.805250190280134,
,,,,,,,,stim/Instruction_adaptive.png,conditions/adaptive.xlsx,test,-0.6,-0.6,-0.6,0.6,0.6,left,L,,,,,0,1,1,1,0,44,44,11,,,,,,,,,,,,,,,,,,,,,,,,,,,,,,,,,,,,,,,,,,,,312.07944130001124,None,left,1,1.7356682000681758,312.58134339994285,313.5983345999848,312.58134339994285,313.09741189994384,312.58134339994285,313.09741189994384,312.58134339994285,313.09741189994384,312.58134339994285,313.09741189994384,312.58134339994285,313.09741189994384,313.0809365999885,313.58151759998873,313.0809365999885,313.58151759998873,313.0809365999885,313.58151759998873,313.0809365999885,313.58151759998873,313.0809365999885,313.58151759998873,313.0809365999885,313.58151759998873,313.0809365999885,313.58151759998873,313.0809365999885,313.58151759998873,312.58134339994285,None,313.5647947000107,315.56795669998974,0.5100000000000002,315.58510350005236,None,316.33686180005316,None,,,,,,,[[1.99]],3.770000000000003,0.6888888888888889,11043,001,2024_Mar_21_0757,MFTM_A_new1021,2021.2.3,59.805250190280134,
,,,,,,,,stim/Instruction_adaptive.png,conditions/adaptive.xlsx,test,-0.6,-0.6,-0.6,0.6,0.6,left,L,,,,,0,1,1,1,0,45,45,23,,,,,,,,,,,,,,,,,,,,,,,,,,,,,,,,,,,,,,,,,,,,316.83637309994083,None,left,1,1.9158579000504687,317.33723049995024,318.32267939997837,317.33723049995024,317.8213692000136,317.33723049995024,317.8213692000136,317.33723049995024,317.8213692000136,317.33723049995024,317.8213692000136,317.33723049995024,317.8213692000136,317.8047682000324,318.30575639999006,317.8047682000324,318.30575639999006,317.8047682000324,318.30575639999006,317.8047682000324,318.30575639999006,317.8047682000324,318.30575639999006,317.8047682000324,318.30575639999006,317.8047682000324,318.30575639999006,317.8047682000324,318.30575639999006,317.33723049995024,None,318.30575639999006,320.3250618999591,0.4800000000000002,320.3417337000137,None,321.0947451000102,None,,,,,,,[[2.02]],3.8300000000000027,0.6956521739130435,11043,001,2024_Mar_21_0757,MFTM_A_new1021,2021.2.3,59.805250190280134,
,,,,,,,,stim/Instruction_adaptive.png,conditions/adaptive.xlsx,test,0.6,0.6,0.6,-0.6,-0.6,right,R,,,,,0,1,1,1,0,46,46,48,,,,,,,,,,,,,,,,,,,,,,,,,,,,,,,,,,,,,,,,,,,,321.59360599995125,None,left,0,2.486889100051485,322.0949759000214,323.0625886999769,322.0949759000214,322.5618849999737,322.0949759000214,322.5618849999737,322.0949759000214,322.5618849999737,322.0949759000214,322.5618849999737,322.0949759000214,322.5618849999737,322.5451206000289,323.04598000005353,322.5451206000289,323.04598000005353,322.5451206000289,323.04598000005353,322.5451206000289,323.04598000005353,322.5451206000289,323.04598000005353,322.5451206000289,323.04598000005353,322.5451206000289,323.04598000005353,322.5451206000289,323.04598000005353,322.0949759000214,None,323.04598000005353,None,0.4600000000000002,325.09835290000774,None,325.8508034000406,None,,,,,,,[[2.04]],3.660000000000003,0.6808510638297872,11043,001,2024_Mar_21_0757,MFTM_A_new1021,2021.2.3,59.805250190280134,
,,,,,,,,stim/Instruction_adaptive.png,conditions/adaptive.xlsx,test,0.6,0.6,0.6,-0.6,-0.6,right,R,,,,,0,1,1,1,0,47,47,60,,,,,,,,,,,,,,,,,,,,,,,,,,,,,,,,,,,,,,,,,,,,326.3509871000424,None,right,1,1.5938657000660896,326.8516143000452,327.88725389994215,326.8516143000452,327.38705420005135,326.8516143000452,327.38705420005135,326.8516143000452,327.38705420005135,326.8516143000452,327.38705420005135,326.8516143000452,327.38705420005135,327.3524164999835,327.85313649999443,327.3524164999835,327.85313649999443,327.3524164999835,327.85313649999443,327.3524164999835,327.85313649999443,327.3524164999835,327.85313649999443,327.3524164999835,327.85313649999443,327.3524164999835,327.85313649999443,327.3524164999835,327.85313649999443,326.8516143000452,None,327.85313649999443,329.839344899985,0.5200000000000002,329.8560486000497,None,330.6072677000193,None,,,,,,,[[1.98]],3.720000000000003,0.6875,11043,001,2024_Mar_21_0757,MFTM_A_new1021,2021.2.3,59.805250190280134,
,,,,,,,,stim/Instruction_adaptive.png,conditions/adaptive.xlsx,test,0.6,0.6,0.6,-0.6,-0.6,right,R,,,,,0,1,1,1,0,48,48,6,,,,,,,,,,,,,,,,,,,,,,,,,,,,,,,,,,,,,,,,,,,,331.10800420003943,None,right,1,1.764563100063242,331.6089947000146,332.61034100002144,331.6089947000146,332.1095646000467,331.6089947000146,332.1095646000467,331.6089947000146,332.1095646000467,331.6089947000146,332.1095646000467,331.6089947000146,332.1095646000467,332.0929057999747,332.5938178000506,332.0929057999747,332.5938178000506,332.0929057999747,332.5938178000506,332.0929057999747,332.5938178000506,332.0929057999747,332.5938178000506,332.0929057999747,332.5938178000506,332.0929057999747,332.5938178000506,332.0929057999747,332.5938178000506,331.6089947000146,None,332.5938178000506,334.59648279997054,0.5000000000000002,334.6132776000304,None,335.36459749995265,None,,,,,,,[[2.]],3.780000000000003,0.6938775510204082,11043,001,2024_Mar_21_0757,MFTM_A_new1021,2021.2.3,59.805250190280134,
,,,,,,,,stim/Instruction_adaptive.png,conditions/adaptive.xlsx,test,0.6,0.6,0.6,-0.6,-0.6,right,R,,,,,0,1,1,1,0,49,49,24,,,,,,,,,,,,,,,,,,,,,,,,,,,,,,,,,,,,,,,,,,,,335.86630310001783,None,right,1,2.18982790003065,336.36762949998956,337.35061019996647,336.36762949998956,336.8500226000324,336.36762949998956,336.8500226000324,336.36762949998956,336.8500226000324,336.36762949998956,336.8500226000324,336.36762949998956,336.8500226000324,336.8334068999393,337.3342810999602,336.8334068999393,337.3342810999602,336.8334068999393,337.3342810999602,336.8334068999393,337.3342810999602,336.8334068999393,337.3342810999602,336.8334068999393,337.3342810999602,336.8334068999393,337.3342810999602,336.8334068999393,337.3342810999602,336.36762949998956,None,337.3342810999602,339.35470819997136,0.4800000000000002,339.37039579998236,None,340.12168149999343,None,,,,,,,[[2.02]],3.8300000000000027,0.7,11043,001,2024_Mar_21_0757,MFTM_A_new1021,2021.2.3,59.805250190280134,
,,,,,,,,stim/Instruction_adaptive.png,conditions/adaptive.xlsx,test,0.6,0.6,0.6,-0.6,-0.6,right,R,,,,,0,1,1,1,0,50,50,36,,,,,,,,,,,,,,,,,,,,,,,,,,,,,,,,,,,,,,,,,,,,340.6232561999932,None,right,1,1.6826416999101639,341.12324730004184,342.09096669999417,341.12324730004184,341.5903757000342,341.12324730004184,341.5903757000342,341.12324730004184,341.5903757000342,341.12324730004184,341.5903757000342,341.12324730004184,341.5903757000342,341.55699369998183,342.0578782999655,341.55699369998183,342.0578782999655,341.55699369998183,342.0578782999655,341.55699369998183,342.0578782999655,341.55699369998183,342.0578782999655,341.55699369998183,342.0578782999655,341.55699369998183,342.0578782999655,341.55699369998183,342.0578782999655,341.12324730004184,None,342.0578782999655,344.1108520999551,0.4600000000000002,344.1274646000238,None,344.8787202000385,None,,,,,,,[[2.04]],3.880000000000003,0.7058823529411765,11043,001,2024_Mar_21_0757,MFTM_A_new1021,2021.2.3,59.805250190280134,
,,,,,,,,stim/Instruction_adaptive.png,conditions/adaptive.xlsx,test,-0.6,-0.6,-0.6,0.6,0.6,left,L,,,,,0,1,1,1,0,51,51,63,,,,,,,,,,,,,,,,,,,,,,,,,,,,,,,,,,,,,,,,,,,,345.3794782999903,None,left,1,2.1810815000208095,345.8805304999696,346.8317394000478,345.8805304999696,346.3313952999888,345.8805304999696,346.3313952999888,345.8805304999696,346.3313952999888,345.8805304999696,346.3313952999888,345.8805304999696,346.3313952999888,346.31511349999346,346.815113699995,346.31511349999346,346.815113699995,346.31511349999346,346.815113699995,346.31511349999346,346.815113699995,346.31511349999346,346.815113699995,346.31511349999346,346.815113699995,346.31511349999346,346.815113699995,346.31511349999346,346.815113699995,345.8805304999696,None,346.815113699995,348.86817050003447,0.4500000000000002,348.88477889995556,None,349.63609349995386,None,,,,,,,[[2.05]],3.9300000000000033,0.7115384615384616,11043,001,2024_Mar_21_0757,MFTM_A_new1021,2021.2.3,59.805250190280134,
,,,,,,,,stim/Instruction_adaptive.png,conditions/adaptive.xlsx,test,-0.6,-0.6,-0.6,0.6,0.6,left,L,,,,,0,1,1,1,0,52,52,1,,,,,,,,,,,,,,,,,,,,,,,,,,,,,,,,,,,,,,,,,,,,350.137221800047,None,left,1,2.6487942999228835,350.6374853999587,351.57240209996235,350.6374853999587,351.0714475000277,350.6374853999587,351.0714475000277,350.6374853999587,351.0714475000277,350.6374853999587,351.0714475000277,350.6374853999587,351.0714475000277,351.0547565999441,351.55558960000053,351.0547565999441,351.55558960000053,351.0547565999441,351.55558960000053,351.0547565999441,351.55558960000053,351.0547565999441,351.55558960000053,351.0547565999441,351.55558960000053,351.0547565999441,351.55558960000053,351.0547565999441,351.55558960000053,350.6374853999587,None,351.55558960000053,353.62528389994986,0.43000000000000016,353.64201479998883,None,354.3934649999719,None,,,,,,,[2.06264151],3.9700000000000033,0.7169811320754716,11043,001,2024_Mar_21_0757,MFTM_A_new1021,2021.2.3,59.805250190280134,
,,,,,,,,stim/Instruction_adaptive.png,conditions/adaptive.xlsx,test,-0.6,-0.6,-0.6,0.6,0.6,left,L,,,,,0,1,1,1,0,53,53,55,,,,,,,,,,,,,,,,,,,,,,,,,,,,,,,,,,,,,,,,,,,,354.8938895999454,None,left,1,2.8757652000058442,355.3946887999773,356.3297940000193,355.3946887999773,355.82862289994955,355.3946887999773,355.82862289994955,355.3946887999773,355.82862289994955,355.3946887999773,355.82862289994955,355.3946887999773,355.82862289994955,355.7960276999511,356.2958694000263,355.7960276999511,356.2958694000263,355.7960276999511,356.2958694000263,355.7960276999511,356.2958694000263,355.7960276999511,356.2958694000263,355.7960276999511,356.2958694000263,355.7960276999511,356.2958694000263,355.7960276999511,356.2958694000263,355.3946887999773,None,356.2958694000263,358.36738059995696,0.42000000000000015,358.38249670004006,None,359.1333801000146,None,,,,,,,[2.06296296],4.010000000000003,0.7222222222222222,11043,001,2024_Mar_21_0757,MFTM_A_new1021,2021.2.3,59.805250190280134,
,,,,,,,,stim/Instruction_adaptive.png,conditions/adaptive.xlsx,test,-0.6,-0.6,-0.6,0.6,0.6,left,L,,,,,0,1,1,1,0,54,54,47,,,,,,,,,,,,,,,,,,,,,,,,,,,,,,,,,,,,,,,,,,,,359.63511220004875,None,right,0,2.342849399894476,360.1353111000499,361.0534924999811,360.1353111000499,360.55334490002133,360.1353111000499,360.55334490002133,360.1353111000499,360.55334490002133,360.1353111000499,360.55334490002133,360.1353111000499,360.55334490002133,360.5358038999839,361.0365184999537,360.5358038999839,361.0365184999537,360.5358038999839,361.0365184999537,360.5358038999839,361.0365184999537,360.5358038999839,361.0365184999537,360.5358038999839,361.0365184999537,360.5358038999839,361.0365184999537,360.5358038999839,361.0365184999537,360.1353111000499,None,361.0204837999772,363.09022679994814,0.41000000000000014,363.14051850000396,None,363.89173220004886,None,,,,,,,[2.06345455],3.8900000000000032,0.7090909090909091,11043,001,2024_Mar_21_0757,MFTM_A_new1021,2021.2.3,59.805250190280134,
,,,,,,,,stim/Instruction_adaptive.png,conditions/adaptive.xlsx,test,-0.6,-0.6,-0.6,0.6,0.6,left,L,,,,,0,1,1,1,0,55,55,87,,,,,,,,,,,,,,,,,,,,,,,,,,,,,,,,,,,,,,,,,,,,364.3916174999904,None,left,1,1.6340820000041276,364.8921491999645,365.843802300049,364.8921491999645,365.3430405999534,364.8921491999645,365.3430405999534,364.8921491999645,365.3430405999534,364.8921491999645,365.3430405999534,364.8921491999645,365.3430405999534,365.30963679996785,365.81052269996144,365.30963679996785,365.81052269996144,365.30963679996785,365.81052269996144,365.30963679996785,365.81052269996144,365.30963679996785,365.81052269996144,365.30963679996785,365.81052269996144,365.30963679996785,365.81052269996144,365.30963679996785,365.81052269996144,364.8921491999645,None,365.81052269996144,367.88022000005003,0.44000000000000017,367.8966544000432,None,368.6485614000121,None,,,,,,,[[2.06]],3.9300000000000033,0.7142857142857143,11043,001,2024_Mar_21_0757,MFTM_A_new1021,2021.2.3,59.805250190280134,
,,,,,,,,stim/Instruction_adaptive.png,conditions/adaptive.xlsx,test,-0.6,-0.6,-0.6,0.6,0.6,left,L,,,,,0,1,1,1,0,56,56,85,,,,,,,,,,,,,,,,,,,,,,,,,,,,,,,,,,,,,,,,,,,,369.148789400002,None,left,1,1.8442379999905825,369.65020909998566,370.58412939996924,369.65020909998566,370.0834667000454,369.65020909998566,370.0834667000454,369.65020909998566,370.0834667000454,369.65020909998566,370.0834667000454,369.65020909998566,370.0834667000454,370.0671295999782,370.5672957999632,370.0671295999782,370.5672957999632,370.0671295999782,370.5672957999632,370.0671295999782,370.5672957999632,370.0671295999782,370.5672957999632,370.0671295999782,370.5672957999632,370.0671295999782,370.5672957999632,370.0671295999782,370.5672957999632,369.65020909998566,None,370.5672957999632,372.63753439998254,0.43000000000000016,372.65403650002554,None,373.4063973999582,None,,,,,,,[2.06350877],3.9700000000000033,0.7192982456140351,11043,001,2024_Mar_21_0757,MFTM_A_new1021,2021.2.3,59.805250190280134,
,,,,,,,,stim/Instruction_adaptive.png,conditions/adaptive.xlsx,test,-0.6,-0.6,-0.6,0.6,0.6,left,L,,,,,0,1,1,1,0,57,57,65,,,,,,,,,,,,,,,,,,,,,,,,,,,,,,,,,,,,,,,,,,,,373.90617410000414,None,right,0,2.18351410003379,374.40684599999804,375.32476220000535,374.40684599999804,374.84055880003143,374.40684599999804,374.84055880003143,374.40684599999804,374.84055880003143,374.40684599999804,374.84055880003143,374.40684599999804,374.84055880003143,374.8072174999397,375.3104603999527,374.8072174999397,375.3104603999527,374.8072174999397,375.3104603999527,374.8072174999397,375.3104603999527,374.8072174999397,375.3104603999527,374.8072174999397,375.3104603999527,374.8072174999397,375.3104603999527,374.8072174999397,375.3104603999527,374.40684599999804,None,375.3104603999527,377.37850820005406,0.42000000000000015,377.3938183999853,None,378.14579370000865,None,,,,,,,[2.0637931],3.850000000000003,0.7068965517241379,11043,001,2024_Mar_21_0757,MFTM_A_new1021,2021.2.3,59.805250190280134,
,,,,,,,,stim/Instruction_adaptive.png,conditions/adaptive.xlsx,test,0.6,0.6,0.6,-0.6,-0.6,right,R,,,,,0,1,1,1,0,58,58,32,,,,,,,,,,,,,,,,,,,,,,,,,,,,,,,,,,,,,,,,,,,,378.6465752000222,None,right,1,1.7243420999730006,379.1469236999983,380.1152392999502,379.1469236999983,379.61451400001533,379.1469236999983,379.61451400001533,379.1469236999983,379.61451400001533,379.1469236999983,379.61451400001533,379.1469236999983,379.61451400001533,379.59783520002384,380.0985345999943,379.59783520002384,380.0985345999943,379.59783520002384,380.0985345999943,379.59783520002384,380.0985345999943,379.59783520002384,380.0985345999943,379.59783520002384,380.0985345999943,379.59783520002384,380.0985345999943,379.59783520002384,380.0985345999943,379.1469236999983,None,380.0985345999943,None,0.4600000000000002,382.1510298999492,None,382.90272569993977,None,,,,,,,[[2.04]],3.900000000000003,0.711864406779661,11043,001,2024_Mar_21_0757,MFTM_A_new1021,2021.2.3,59.805250190280134,
,,,,,,,,stim/Instruction_adaptive.png,conditions/adaptive.xlsx,test,0.6,0.6,0.6,-0.6,-0.6,right,R,,,,,0,1,1,1,0,59,59,16,,,,,,,,,,,,,,,,,,,,,,,,,,,,,,,,,,,,,,,,,,,,383.40357900003437,None,right,1,1.7830998999997973,383.9041277000215,384.8564429000253,383.9041277000215,384.355113800033,383.9041277000215,384.355113800033,383.9041277000215,384.355113800033,383.9041277000215,384.355113800033,383.9041277000215,384.355113800033,384.3216834999621,384.8227189000463,384.3216834999621,384.8227189000463,384.3216834999621,384.8227189000463,384.3216834999621,384.8227189000463,384.3216834999621,384.8227189000463,384.3216834999621,384.8227189000463,384.3216834999621,384.8227189000463,384.3216834999621,384.8227189000463,383.9041277000215,None,384.8227189000463,386.8922086999519,0.44000000000000017,386.90877560002264,None,387.6599369000178,None,,,,,,,[[2.06]],3.940000000000003,0.7166666666666667,11043,001,2024_Mar_21_0757,MFTM_A_new1021,2021.2.3,59.805250190280134,
,,,,,,,,stim/Instruction_adaptive.png,conditions/adaptive.xlsx,test,0.6,0.6,0.6,-0.6,-0.6,right,R,,,,,0,1,1,1,0,60,60,28,,,,,,,,,,,,,,,,,,,,,,,,,,,,,,,,,,,,,,,,,,,,388.16077790001873,None,left,0,1.8974766999017447,388.6614540000446,389.5961183999898,388.6614540000446,389.0955225999933,388.6614540000446,389.0955225999933,388.6614540000446,389.0955225999933,388.6614540000446,389.0955225999933,388.6614540000446,389.0955225999933,389.0786031000316,389.5793878999539,389.0786031000316,389.5793878999539,389.0786031000316,389.5793878999539,389.0786031000316,389.5793878999539,389.0786031000316,389.5793878999539,389.0786031000316,389.5793878999539,389.0786031000316,389.5793878999539,389.0786031000316,389.5793878999539,388.6614540000446,None,389.5793878999539,391.64935119997244,0.43000000000000016,391.66609650000464,None,392.4172017000383,None,,,,,,,[2.06344262],3.820000000000003,0.7049180327868853,11043,001,2024_Mar_21_0757,MFTM_A_new1021,2021.2.3,59.805250190280134,
,,,,,,,,stim/Instruction_adaptive.png,conditions/adaptive.xlsx,test,0.6,0.6,0.6,-0.6,-0.6,right,R,,,,,0,1,1,1,0,61,61,50,,,,,,,,,,,,,,,,,,,,,,,,,,,,,,,,,,,,,,,,,,,,392.9178633999545,None,right,1,2.7804297000402585,393.41870649997145,394.4033861999633,393.41870649997145,393.9026233999757,393.41870649997145,393.9026233999757,393.41870649997145,393.9026233999757,393.41870649997145,393.9026233999757,393.41870649997145,393.9026233999757,393.86911199998576,394.3699824999785,393.86911199998576,394.3699824999785,393.86911199998576,394.3699824999785,393.86911199998576,394.3699824999785,393.86911199998576,394.3699824999785,393.86911199998576,394.3699824999785,393.86911199998576,394.3699824999785,393.86911199998576,394.3699824999785,393.41870649997145,None,394.3699824999785,396.406431099982,0.4700000000000002,396.4233654999407,None,397.17414959997404,None,,,,,,,[[2.03]],3.860000000000003,0.7096774193548387,11043,001,2024_Mar_21_0757,MFTM_A_new1021,2021.2.3,59.805250190280134,
,,,,,,,,stim/Instruction_adaptive.png,conditions/adaptive.xlsx,test,0.6,0.6,0.6,-0.6,-0.6,right,R,,,,,0,1,1,1,0,62,62,82,,,,,,,,,,,,,,,,,,,,,,,,,,,,,,,,,,,,,,,,,,,,397.676835799939,None,right,1,2.7992653999244794,398.1760390000418,399.1275814999826,398.1760390000418,398.626736999955,398.1760390000418,398.626736999955,398.1760390000418,398.626736999955,398.1760390000418,398.626736999955,398.1760390000418,398.626736999955,398.6096148999641,399.1113151999889,398.6096148999641,399.1113151999889,398.6096148999641,399.1113151999889,398.6096148999641,399.1113151999889,398.6096148999641,399.1113151999889,398.6096148999641,399.1113151999889,398.6096148999641,399.1113151999889,398.6096148999641,399.1113151999889,398.1760390000418,None,399.1113151999889,401.16352389997337,0.4500000000000002,401.18013240001164,None,401.9313708000118,None,,,,,,,[[2.05]],3.900000000000003,0.7142857142857143,11043,001,2024_Mar_21_0757,MFTM_A_new1021,2021.2.3,59.805250190280134,
,,,,,,,,stim/Instruction_adaptive.png,conditions/adaptive.xlsx,test,-0.6,-0.6,-0.6,0.6,0.6,left,L,,,,,0,1,1,1,0,63,63,27,,,,,,,,,,,,,,,,,,,,,,,,,,,,,,,,,,,,,,,,,,,,402.43205519998446,None,left,1,2.0256401000078768,402.93359909998253,403.8850538999541,402.93359909998253,403.383393600001,402.93359909998253,403.383393600001,402.93359909998253,403.383393600001,402.93359909998253,403.383393600001,402.93359909998253,403.383393600001,403.35016120004,403.85113570000976,403.35016120004,403.85113570000976,403.35016120004,403.85113570000976,403.35016120004,403.85113570000976,403.35016120004,403.85113570000976,403.35016120004,403.85113570000976,403.35016120004,403.85113570000976,403.35016120004,403.85113570000976,402.93359909998253,None,403.85113570000976,405.92072269995697,0.44000000000000017,405.9383911000332,None,406.689036799944,None,,,,,,,[[2.06]],3.940000000000003,0.71875,11043,001,2024_Mar_21_0757,MFTM_A_new1021,2021.2.3,59.805250190280134,
,,,,,,,,stim/Instruction_adaptive.png,conditions/adaptive.xlsx,test,-0.6,-0.6,-0.6,0.6,0.6,left,L,,,,,0,1,1,1,0,64,64,95,,,,,,,,,,,,,,,,,,,,,,,,,,,,,,,,,,,,,,,,,,,,407.18990879994817,None,right,0,2.9016042000148445,407.6901634000242,408.62485629995354,407.6901634000242,408.1239243999589,407.6901634000242,408.1239243999589,407.6901634000242,408.1239243999589,407.6901634000242,408.1239243999589,407.6901634000242,408.1239243999589,408.10740930004977,408.6081572000403,408.10740930004977,408.6081572000403,408.10740930004977,408.6081572000403,408.10740930004977,408.6081572000403,408.10740930004977,408.6081572000403,408.10740930004977,408.6081572000403,408.10740930004977,408.6081572000403,408.10740930004977,408.6081572000403,407.6901634000242,None,408.6081572000403,410.6778768999502,0.43000000000000016,410.6945527000353,None,411.44565210002474,None,,,,,,,[2.06276923],3.8300000000000027,0.7076923076923077,11043,001,2024_Mar_21_0757,MFTM_A_new1021,2021.2.3,59.805250190280134,
,,,,,,,,stim/Instruction_adaptive.png,conditions/adaptive.xlsx,test,0.6,0.6,0.6,-0.6,-0.6,right,R,,,,,0,1,1,1,0,65,65,92,,,,,,,,,,,,,,,,,,,,,,,,,,,,,,,,,,,,,,,,,,,,411.9467418999411,None,None,0,0,412.4473363000434,413.4156621999573,412.4473363000434,412.91463849996217,412.4473363000434,412.91463849996217,412.4473363000434,412.91463849996217,412.4473363000434,412.91463849996217,412.4473363000434,412.91463849996217,412.89783499995247,413.39890569995623,412.89783499995247,413.39890569995623,412.89783499995247,413.39890569995623,412.89783499995247,413.39890569995623,412.89783499995247,413.39890569995623,412.89783499995247,413.39890569995623,412.89783499995247,413.39890569995623,412.89783499995247,413.39890569995623,412.4473363000434,None,413.3820619999897,415.93587169994134,0.4600000000000002,415.95265550003387,None,416.70375200000126,None,,,,,,,[[2.54]],3.720000000000003,0.696969696969697,11043,001,2024_Mar_21_0757,MFTM_A_new1021,2021.2.3,59.805250190280134,
,,,,,,,,stim/Instruction_adaptive.png,conditions/adaptive.xlsx,test,0.6,0.6,0.6,-0.6,-0.6,right,R,,,,,0,1,1,1,0,66,66,52,,,,,,,,,,,,,,,,,,,,,,,,,,,,,,,,,,,,,,,,,,,,417.2045048000291,None,right,1,3.2548383000539616,417.7053294000216,418.706845000037,417.7053294000216,418.205984500004,417.7053294000216,418.205984500004,417.7053294000216,418.205984500004,417.7053294000216,418.205984500004,417.7053294000216,418.205984500004,418.1903523999499,418.6908037000103,418.1903523999499,418.6908037000103,418.1903523999499,418.6908037000103,418.1903523999499,418.6908037000103,418.1903523999499,418.6908037000103,418.1903523999499,418.6908037000103,418.1903523999499,418.6908037000103,418.1903523999499,418.6908037000103,417.7053294000216,None,418.6908037000103,420.9767562999623,0.5000000000000002,420.9934710999951,None,421.74513059994206,None,,,,,,,[[2.]],3.760000000000003,0.7014925373134329,11043,001,2024_Mar_21_0757,MFTM_A_new1021,2021.2.3,59.805250190280134,
,,,,,,,,stim/Instruction_adaptive.png,conditions/adaptive.xlsx,test,0.6,0.6,0.6,-0.6,-0.6,right,R,,,,,0,1,1,1,0,67,67,34,,,,,,,,,,,,,,,,,,,,,,,,,,,,,,,,,,,,,,,,,,,,422.24531819997355,None,left,0,1.6217980000656098,422.7460184999509,423.7477490999736,422.7460184999509,423.2470550000435,422.7460184999509,423.2470550000435,422.7460184999509,423.2470550000435,422.7460184999509,423.2470550000435,422.7460184999509,423.2470550000435,423.21412100002635,423.71421699994244,423.21412100002635,423.71421699994244,423.21412100002635,423.71421699994244,423.21412100002635,423.71421699994244,423.21412100002635,423.71421699994244,423.21412100002635,423.71421699994244,423.21412100002635,423.71421699994244,423.21412100002635,423.71421699994244,422.7460184999509,None,423.71421699994244,425.7338257000083,0.4900000000000002,425.750453799963,None,426.5020179999992,None,,,,,,,[[2.01]],3.640000000000003,0.6911764705882353,11043,001,2024_Mar_21_0757,MFTM_A_new1021,2021.2.3,59.805250190280134,
,,,,,,,,stim/Instruction_adaptive.png,conditions/adaptive.xlsx,test,0.6,0.6,0.6,-0.6,-0.6,right,R,,,,,0,1,1,1,0,68,68,18,,,,,,,,,,,,,,,,,,,,,,,,,,,,,,,,,,,,,,,,,,,,427.0025351999793,None,right,1,2.5371783999726176,427.5033579999581,428.5382032999769,427.5033579999581,428.03740619996097,427.5033579999581,428.03740619996097,427.5033579999581,428.03740619996097,427.5033579999581,428.03740619996097,427.5033579999581,428.03740619996097,428.0207094999496,428.521581399953,428.0207094999496,428.521581399953,428.0207094999496,428.521581399953,428.0207094999496,428.521581399953,428.0207094999496,428.521581399953,428.0207094999496,428.521581399953,428.0207094999496,428.521581399953,428.0207094999496,428.521581399953,427.5033579999581,None,428.521581399953,430.49102359998506,0.5300000000000002,430.5077614999609,None,431.25897790002637,None,,,,,,,[[1.97]],3.680000000000003,0.6956521739130435,11043,001,2024_Mar_21_0757,MFTM_A_new1021,2021.2.3,59.805250190280134,
,,,,,,,,stim/Instruction_adaptive.png,conditions/adaptive.xlsx,test,0.6,0.6,0.6,-0.6,-0.6,right,R,,,,,0,1,1,1,0,69,69,76,,,,,,,,,,,,,,,,,,,,,,,,,,,,,,,,,,,,,,,,,,,,431.75999499997124,None,right,1,1.8363906999584287,432.26099450001493,433.2787600000156,432.26099450001493,432.7779070000397,432.26099450001493,432.7779070000397,432.26099450001493,432.7779070000397,432.26099450001493,432.7779070000397,432.26099450001493,432.7779070000397,432.74564890004694,433.2451045999769,432.74564890004694,433.2451045999769,432.74564890004694,433.2451045999769,432.74564890004694,433.2451045999769,432.74564890004694,433.2451045999769,432.74564890004694,433.2451045999769,432.74564890004694,433.2451045999769,432.74564890004694,433.2451045999769,432.26099450001493,None,433.2451045999769,435.2488931999542,0.5100000000000002,435.26486140000634,None,436.0161650000373,None,,,,,,,[[1.99]],3.720000000000003,0.7,11043,001,2024_Mar_21_0757,MFTM_A_new1021,2021.2.3,59.805250190280134,
,,,,,,,,stim/Instruction_adaptive.png,conditions/adaptive.xlsx,test,-0.6,-0.6,-0.6,0.6,0.6,left,L,,,,,0,1,1,1,0,70,70,77,,,,,,,,,,,,,,,,,,,,,,,,,,,,,,,,,,,,,,,,,,,,436.5168995000422,None,left,1,1.406656299950555,437.01769340003375,438.01894770003855,437.01769340003375,437.5186137999408,437.01769340003375,437.5186137999408,437.01769340003375,437.5186137999408,437.01769340003375,437.5186137999408,437.01769340003375,437.5186137999408,437.50166660000104,438.0024549999507,437.50166660000104,438.0024549999507,437.50166660000104,438.0024549999507,437.50166660000104,438.0024549999507,437.50166660000104,438.0024549999507,437.50166660000104,438.0024549999507,437.50166660000104,438.0024549999507,437.50166660000104,438.0024549999507,437.01769340003375,None,438.0024549999507,440.00547810003627,0.5000000000000002,440.0219842999941,None,440.7730366999749,None,,,,,,,[[2.]],3.760000000000003,0.704225352112676,11043,001,2024_Mar_21_0757,MFTM_A_new1021,2021.2.3,59.805250190280134,
,,,,,,,,stim/Instruction_adaptive.png,conditions/adaptive.xlsx,test,0.6,0.6,0.6,-0.6,-0.6,right,R,,,,,0,1,1,1,0,71,71,88,,,,,,,,,,,,,,,,,,,,,,,,,,,,,,,,,,,,,,,,,,,,441.2741709999973,None,right,1,1.5139779000310227,441.77480679994915,442.7764825000195,441.77480679994915,442.2756698000012,441.77480679994915,442.2756698000012,441.77480679994915,442.2756698000012,441.77480679994915,442.2756698000012,441.77480679994915,442.2756698000012,442.24222719995305,442.74303450004663,442.24222719995305,442.74303450004663,442.24222719995305,442.74303450004663,442.24222719995305,442.74303450004663,442.24222719995305,442.74303450004663,442.24222719995305,442.74303450004663,442.24222719995305,442.74303450004663,442.24222719995305,442.74303450004663,441.77480679994915,None,442.74303450004663,444.76329659996554,0.4900000000000002,444.77932359999977,None,445.53045199997723,None,,,,,,,[[2.01]],3.7900000000000027,0.7083333333333334,11043,001,2024_Mar_21_0757,MFTM_A_new1021,2021.2.3,59.805250190280134,
,,,,,,,,stim/Instruction_adaptive.png,conditions/adaptive.xlsx,test,0.6,0.6,0.6,-0.6,-0.6,right,R,,,,,0,1,1,1,0,72,72,44,,,,,,,,,,,,,,,,,,,,,,,,,,,,,,,,,,,,,,,,,,,,446.0312847000314,None,right,1,1.6202895999886096,446.5319876000285,447.5169438000303,446.5319876000285,447.0161657000426,446.5319876000285,447.0161657000426,446.5319876000285,447.0161657000426,446.5319876000285,447.0161657000426,446.5319876000285,447.0161657000426,446.9992870000424,447.5001779999584,446.9992870000424,447.5001779999584,446.9992870000424,447.5001779999584,446.9992870000424,447.5001779999584,446.9992870000424,447.5001779999584,446.9992870000424,447.5001779999584,446.9992870000424,447.5001779999584,446.9992870000424,447.5001779999584,446.5319876000285,None,447.5001779999584,449.5197347999783,0.4800000000000002,449.5366084999405,None,450.288454500027,None,,,,,,,[[2.02]],3.820000000000003,0.7123287671232876,11043,001,2024_Mar_21_0757,MFTM_A_new1021,2021.2.3,59.805250190280134,
,,,,,,,,stim/Instruction_adaptive.png,conditions/adaptive.xlsx,test,0.6,0.6,0.6,-0.6,-0.6,right,R,,,,,0,1,1,1,0,73,73,66,,,,,,,,,,,,,,,,,,,,,,,,,,,,,,,,,,,,,,,,,,,,450.7884453999577,None,left,0,3.175536899943836,451.2889806999592,452.2739970999537,451.2889806999592,451.7731051000301,451.2889806999592,451.7731051000301,451.2889806999592,451.7731051000301,451.2889806999592,451.7731051000301,451.2889806999592,451.7731051000301,451.7399843999883,452.2405590999406,451.7399843999883,452.2405590999406,451.7399843999883,452.2405590999406,451.7399843999883,452.2405590999406,451.7399843999883,452.2405590999406,451.7399843999883,452.2405590999406,451.7399843999883,452.2405590999406,451.7399843999883,452.2405590999406,451.2889806999592,None,452.2405590999406,454.49484659999143,0.4700000000000002,454.51061879994813,None,455.2616981000174,None,,,,,,,[[2.03]],3.720000000000003,0.7027027027027027,11043,001,2024_Mar_21_0757,MFTM_A_new1021,2021.2.3,59.805250190280134,
,,,,,,,,stim/Instruction_adaptive.png,conditions/adaptive.xlsx,test,-0.6,-0.6,-0.6,0.6,0.6,left,L,,,,,0,1,1,1,0,74,74,33,,,,,,,,,,,,,,,,,,,,,,,,,,,,,,,,,,,,,,,,,,,,455.7626539999619,None,left,1,2.321375700063072,456.2633408999536,457.2649035999784,456.2633408999536,456.76413689996116,456.2633408999536,456.76413689996116,456.2633408999536,456.76413689996116,456.2633408999536,456.76413689996116,456.2633408999536,456.76413689996116,456.7474666000344,457.2482551999856,456.7474666000344,457.2482551999856,456.7474666000344,457.2482551999856,456.7474666000344,457.2482551999856,456.7474666000344,457.2482551999856,456.7474666000344,457.2482551999856,456.7474666000344,457.2482551999856,456.7474666000344,457.2482551999856,456.2633408999536,None,457.2482551999856,459.2519383999752,0.5000000000000002,459.26767269999254,None,460.01894350000657,None,,,,,,,[[2.]],3.760000000000003,0.7066666666666667,11043,001,2024_Mar_21_0757,MFTM_A_new1021,2021.2.3,59.805250190280134,
,,,,,,,,stim/Instruction_adaptive.png,conditions/adaptive.xlsx,test,0.6,0.6,0.6,-0.6,-0.6,right,R,,,,,0,1,1,1,0,75,75,0,,,,,,,,,,,,,,,,,,,,,,,,,,,,,,,,,,,,,,,,,,,,460.5199856000254,None,right,1,1.556296500028111,461.02043609996326,462.02198229997884,461.02043609996326,461.5213636000408,461.02043609996326,461.5213636000408,461.02043609996326,461.5213636000408,461.02043609996326,461.5213636000408,461.02043609996326,461.5213636000408,461.4880774000194,461.9886919000419,461.4880774000194,461.9886919000419,461.4880774000194,461.9886919000419,461.4880774000194,461.9886919000419,461.4880774000194,461.9886919000419,461.4880774000194,461.9886919000419,461.4880774000194,461.9886919000419,461.4880774000194,461.9886919000419,461.02043609996326,None,461.9886919000419,464.0085272999713,0.4900000000000002,464.0250889000017,None,464.7761424999917,None,,,,,,,[[2.01]],3.7900000000000027,0.7105263157894737,11043,001,2024_Mar_21_0757,MFTM_A_new1021,2021.2.3,59.805250190280134,
,,,,,,,,stim/Instruction_adaptive.png,conditions/adaptive.xlsx,test,0.6,0.6,0.6,-0.6,-0.6,right,R,,,,,0,1,1,1,0,76,76,72,,,,,,,,,,,,,,,,,,,,,,,,,,,,,,,,,,,,,,,,,,,,465.2768996000523,None,right,1,2.5352766999276355,465.7775633999845,466.76320679998025,465.7775633999845,466.26164130005054,465.7775633999845,466.26164130005054,465.7775633999845,466.26164130005054,465.7775633999845,466.26164130005054,465.7775633999845,466.26164130005054,466.24542119994294,466.74576630000956,466.24542119994294,466.74576630000956,466.24542119994294,466.74576630000956,466.24542119994294,466.74576630000956,466.24542119994294,466.74576630000956,466.24542119994294,466.74576630000956,466.24542119994294,466.74576630000956,466.24542119994294,466.74576630000956,465.7775633999845,None,466.74576630000956,468.76553219999187,0.4800000000000002,468.7822034000419,None,469.5334851000225,None,,,,,,,[[2.02]],3.820000000000003,0.7142857142857143,11043,001,2024_Mar_21_0757,MFTM_A_new1021,2021.2.3,59.805250190280134,
,,,,,,,,stim/Instruction_adaptive.png,conditions/adaptive.xlsx,test,-0.6,-0.6,-0.6,0.6,0.6,left,L,,,,,0,1,1,1,0,77,77,39,,,,,,,,,,,,,,,,,,,,,,,,,,,,,,,,,,,,,,,,,,,,470.03444019996095,None,left,1,2.194506200030446,470.53500120004173,471.52049669995904,470.53500120004173,471.0196180000203,470.53500120004173,471.0196180000203,470.53500120004173,471.0196180000203,470.53500120004173,471.0196180000203,470.53500120004173,471.0196180000203,470.9855890000472,471.4862191999564,470.9855890000472,471.4862191999564,470.9855890000472,471.4862191999564,470.9855890000472,471.4862191999564,470.9855890000472,471.4862191999564,470.9855890000472,471.4862191999564,470.9855890000472,471.4862191999564,470.9855890000472,471.4862191999564,470.53500120004173,None,471.4862191999564,473.52277529996354,0.4700000000000002,473.5393186999718,None,474.2906018999638,None,,,,,,,[[2.03]],3.850000000000003,0.717948717948718,11043,001,2024_Mar_21_0757,MFTM_A_new1021,2021.2.3,59.805250190280134,
,,,,,,,,stim/Instruction_adaptive.png,conditions/adaptive.xlsx,test,-0.6,-0.6,-0.6,0.6,0.6,left,L,,,,,0,1,1,1,0,78,78,9,,,,,,,,,,,,,,,,,,,,,,,,,,,,,,,,,,,,,,,,,,,,474.7912157999817,None,left,1,1.4694144999375567,475.291939000017,476.26015049999114,475.291939000017,475.7596935000038,475.291939000017,475.7596935000038,475.291939000017,475.7596935000038,475.291939000017,475.7596935000038,475.291939000017,475.7596935000038,475.72600579995196,476.22664879995864,475.72600579995196,476.22664879995864,475.72600579995196,476.22664879995864,475.72600579995196,476.22664879995864,475.72600579995196,476.22664879995864,475.72600579995196,476.22664879995864,475.72600579995196,476.22664879995864,475.72600579995196,476.22664879995864,475.291939000017,None,476.22664879995864,478.2800312000327,0.4600000000000002,478.29661349998787,None,479.0478066999931,None,,,,,,,[[2.04]],3.880000000000003,0.7215189873417721,11043,001,2024_Mar_21_0757,MFTM_A_new1021,2021.2.3,59.805250190280134,
,,,,,,,,stim/Instruction_adaptive.png,conditions/adaptive.xlsx,test,-0.6,-0.6,-0.6,0.6,0.6,left,L,,,,,0,1,1,1,0,79,79,73,,,,,,,,,,,,,,,,,,,,,,,,,,,,,,,,,,,,,,,,,,,,479.5483343000524,None,left,1,1.768552399938926,480.04901560000144,481.00082830002066,480.04901560000144,480.5000181000214,480.04901560000144,480.5000181000214,480.04901560000144,480.5000181000214,480.04901560000144,480.5000181000214,480.04901560000144,480.5000181000214,480.48317130003124,480.9846137999557,480.48317130003124,480.9846137999557,480.48317130003124,480.9846137999557,480.48317130003124,480.9846137999557,480.48317130003124,480.9846137999557,480.48317130003124,480.9846137999557,480.48317130003124,480.9846137999557,480.48317130003124,480.9846137999557,480.04901560000144,None,480.9846137999557,483.0371797999833,0.4500000000000002,483.05362839996815,None,483.80571400001645,None,,,,,,,[[2.05]],3.910000000000003,0.725,11043,001,2024_Mar_21_0757,MFTM_A_new1021,2021.2.3,59.805250190280134,
,,,,,,,,stim/Instruction_adaptive.png,conditions/adaptive.xlsx,test,-0.6,-0.6,-0.6,0.6,0.6,left,L,,,,,0,1,1,1,0,80,80,97,,,,,,,,,,,,,,,,,,,,,,,,,,,,,,,,,,,,,,,,,,,,484.30560119997244,None,left,1,1.403086100006476,484.80621900002006,485.75791449996177,484.80621900002006,485.25716299994383,484.80621900002006,485.25716299994383,484.80621900002006,485.25716299994383,484.80621900002006,485.25716299994383,484.80621900002006,485.25716299994383,485.22353860002477,485.7250273999525,485.22353860002477,485.7250273999525,485.22353860002477,485.7250273999525,485.22353860002477,485.7250273999525,485.22353860002477,485.7250273999525,485.22353860002477,485.7250273999525,485.22353860002477,485.7250273999525,485.22353860002477,485.7250273999525,484.80621900002006,None,485.7250273999525,487.7945066000102,0.44000000000000017,487.81089810002595,None,488.5620444000233,None,,,,,,,[2.05382716],3.940000000000003,0.7283950617283951,11043,001,2024_Mar_21_0757,MFTM_A_new1021,2021.2.3,59.805250190280134,
,,,,,,,,stim/Instruction_adaptive.png,conditions/adaptive.xlsx,test,-0.6,-0.6,-0.6,0.6,0.6,left,L,,,,,0,1,1,1,0,81,81,25,,,,,,,,,,,,,,,,,,,,,,,,,,,,,,,,,,,,,,,,,,,,489.0627158000134,None,right,0,1.4468363999621943,489.56339789996855,490.498338400037,489.56339789996855,489.99786899995524,489.56339789996855,489.99786899995524,489.56339789996855,489.99786899995524,489.56339789996855,489.99786899995524,489.56339789996855,489.99786899995524,489.98094859998673,490.4815843999386,489.98094859998673,490.4815843999386,489.98094859998673,490.4815843999386,489.98094859998673,490.4815843999386,489.98094859998673,490.4815843999386,489.98094859998673,490.4815843999386,489.98094859998673,490.4815843999386,489.98094859998673,490.4815843999386,489.56339789996855,None,490.4815843999386,492.5346763000125,0.43000000000000016,492.5512852999382,None,493.3024594000308,None,,,,,,,[2.05402439],3.860000000000003,0.7195121951219512,11043,001,2024_Mar_21_0757,MFTM_A_new1021,2021.2.3,59.805250190280134,
,,,,,,,,stim/Instruction_adaptive.png,conditions/adaptive.xlsx,test,-0.6,-0.6,-0.6,0.6,0.6,left,L,,,,,0,1,1,1,0,82,82,13,,,,,,,,,,,,,,,,,,,,,,,,,,,,,,,,,,,,,,,,,,,,493.8031753000105,None,left,1,2.114246500073932,494.3037773000542,495.2552803000435,494.3037773000542,494.7560850000009,494.3037773000542,494.7560850000009,494.3037773000542,494.7560850000009,494.3037773000542,494.7560850000009,494.3037773000542,494.7560850000009,494.73797330004163,495.2386727000121,494.73797330004163,495.2386727000121,494.73797330004163,495.2386727000121,494.73797330004163,495.2386727000121,494.73797330004163,495.2386727000121,494.73797330004163,495.2386727000121,494.73797330004163,495.2386727000121,494.73797330004163,495.2386727000121,494.3037773000542,None,495.2386727000121,497.2917297000531,0.4500000000000002,497.308384199976,None,498.06105749995913,None,,,,,,,[[2.05]],3.8900000000000032,0.7228915662650602,11043,001,2024_Mar_21_0757,MFTM_A_new1021,2021.2.3,59.805250190280134,
,,,,,,,,stim/Instruction_adaptive.png,conditions/adaptive.xlsx,test,0.6,0.6,0.6,-0.6,-0.6,right,R,,,,,0,1,1,1,0,83,83,78,,,,,,,,,,,,,,,,,,,,,,,,,,,,,,,,,,,,,,,,,,,,498.56036689993925,None,right,1,1.6125899999169633,499.0613261000253,500.0134916000534,499.0613261000253,499.5117505999515,499.0613261000253,499.5117505999515,499.0613261000253,499.5117505999515,499.0613261000253,499.5117505999515,499.0613261000253,499.5117505999515,499.47822539997287,499.9795727999881,499.47822539997287,499.9795727999881,499.47822539997287,499.9795727999881,499.47822539997287,499.9795727999881,499.47822539997287,499.9795727999881,499.47822539997287,499.9795727999881,499.47822539997287,499.9795727999881,499.47822539997287,499.9795727999881,499.0613261000253,None,499.9795727999881,502.04893089993857,0.44000000000000017,502.0656358000124,None,502.81695899995975,None,,,,,,,[2.05404762],3.910000000000003,0.7261904761904762,11043,001,2024_Mar_21_0757,MFTM_A_new1021,2021.2.3,59.805250190280134,
,,,,,,,,stim/Instruction_adaptive.png,conditions/adaptive.xlsx,test,0.6,0.6,0.6,-0.6,-0.6,right,R,,,,,0,1,1,1,0,84,84,4,,,,,,,,,,,,,,,,,,,,,,,,,,,,,,,,,,,,,,,,,,,,503.3177098999731,None,right,1,1.3833691000472754,503.81845060002524,504.7697716000257,503.81845060002524,504.2690126999514,503.81845060002524,504.2690126999514,503.81845060002524,504.2690126999514,503.81845060002524,504.2690126999514,503.81845060002524,504.2690126999514,504.2355735000456,504.73642450000625,504.2355735000456,504.73642450000625,504.2355735000456,504.73642450000625,504.2355735000456,504.73642450000625,504.2355735000456,504.73642450000625,504.2355735000456,504.73642450000625,504.2355735000456,504.73642450000625,504.2355735000456,504.73642450000625,503.81845060002524,None,504.73642450000625,506.8060963000171,0.44000000000000017,506.82381400000304,None,507.57415500003844,None,,,,,,,[2.05411765],3.940000000000003,0.7294117647058823,11043,001,2024_Mar_21_0757,MFTM_A_new1021,2021.2.3,59.805250190280134,
,,,,,,,,stim/Instruction_adaptive.png,conditions/adaptive.xlsx,test,0.6,0.6,0.6,-0.6,-0.6,right,R,,,,,0,1,1,1,0,85,85,56,,,,,,,,,,,,,,,,,,,,,,,,,,,,,,,,,,,,,,,,,,,,508.07543510000687,None,right,1,1.3941029000561684,508.5762248999672,509.51049250003416,508.5762248999672,509.0095229999861,508.5762248999672,509.0095229999861,508.5762248999672,509.0095229999861,508.5762248999672,509.0095229999861,508.5762248999672,509.0095229999861,508.9931720000459,509.49370590003673,508.9931720000459,509.49370590003673,508.9931720000459,509.49370590003673,508.9931720000459,509.49370590003673,508.9931720000459,509.49370590003673,508.9931720000459,509.49370590003673,508.9931720000459,509.49370590003673,508.9931720000459,509.49370590003673,508.5762248999672,None,509.49370590003673,None,0.43000000000000016,511.5631905000191,None,512.3152837000089,None,,,,,,,[2.05430233],3.9700000000000033,0.7325581395348837,11043,001,2024_Mar_21_0757,MFTM_A_new1021,2021.2.3,59.805250190280134,
,,,,,,,,stim/Instruction_adaptive.png,conditions/adaptive.xlsx,test,-0.6,-0.6,-0.6,0.6,0.6,left,L,,,,,0,1,1,1,0,86,86,3,,,,,,,,,,,,,,,,,,,,,,,,,,,,,,,,,,,,,,,,,,,,512.8159834999824,None,left,1,1.30200549995061,513.3161633999553,514.250737000024,513.3161633999553,513.7513321000151,513.3161633999553,513.7513321000151,513.3161633999553,513.7513321000151,513.3161633999553,513.7513321000151,513.3161633999553,513.7513321000151,513.7167772999965,514.2172770999605,513.7167772999965,514.2172770999605,513.7167772999965,514.2172770999605,513.7167772999965,514.2172770999605,513.7167772999965,514.2172770999605,513.7167772999965,514.2172770999605,513.7167772999965,514.2172770999605,513.7167772999965,514.2172770999605,513.3161633999553,None,514.2172770999605,516.2880967999808,0.42000000000000015,516.3038650000235,None,517.0548742000246,None,,,,,,,[2.0545977],3.990000000000003,0.735632183908046,11043,001,2024_Mar_21_0757,MFTM_A_new1021,2021.2.3,59.805250190280134,
,,,,,,,,stim/Instruction_adaptive.png,conditions/adaptive.xlsx,test,-0.6,-0.6,-0.6,0.6,0.6,left,L,,,,,0,1,1,1,0,87,87,79,,,,,,,,,,,,,,,,,,,,,,,,,,,,,,,,,,,,,,,,,,,,517.5558291999623,None,left,1,1.666657599969767,518.0564392999513,518.9743802000303,518.0564392999513,518.4737554000458,518.0564392999513,518.4737554000458,518.0564392999513,518.4737554000458,518.0564392999513,518.4737554000458,518.0564392999513,518.4737554000458,518.4404217000119,518.9410806000233,518.4404217000119,518.9410806000233,518.4404217000119,518.9410806000233,518.4404217000119,518.9410806000233,518.4404217000119,518.9410806000233,518.4404217000119,518.9410806000233,518.4404217000119,518.9410806000233,518.4404217000119,518.9410806000233,518.0564392999513,None,518.9410806000233,521.0108145000413,0.41000000000000014,521.0276017000433,None,521.7788887999486,None,,,,,,,[2.055],4.010000000000003,0.7386363636363636,11043,001,2024_Mar_21_0757,MFTM_A_new1021,2021.2.3,59.805250190280134,
,,,,,,,,stim/Instruction_adaptive.png,conditions/adaptive.xlsx,test,-0.6,-0.6,-0.6,0.6,0.6,left,L,,,,,0,1,1,1,0,88,88,59,,,,,,,,,,,,,,,,,,,,,,,,,,,,,,,,,,,,,,,,,,,,522.2796612000093,None,left,1,1.614359200000763,522.7802170000505,523.6991949999938,522.7802170000505,523.1980164999841,522.7802170000505,523.1980164999841,522.7802170000505,523.1980164999841,522.7802170000505,523.1980164999841,522.7802170000505,523.1980164999841,523.1808575999457,523.6818362999475,523.1808575999457,523.6818362999475,523.1808575999457,523.6818362999475,523.1808575999457,523.6818362999475,523.1808575999457,523.6818362999475,523.1808575999457,523.6818362999475,523.1808575999457,523.6818362999475,523.1808575999457,523.6818362999475,522.7802170000505,None,523.6818362999475,None,0.41000000000000014,525.7512963999761,None,526.5022562999511,None,,,,,,,[2.05539326],4.040000000000003,0.7415730337078652,11043,001,2024_Mar_21_0757,MFTM_A_new1021,2021.2.3,59.805250190280134,
,,,,,,,,stim/Instruction_adaptive.png,conditions/adaptive.xlsx,test,-0.6,-0.6,-0.6,0.6,0.6,left,L,,,,,0,1,1,1,0,89,89,71,,,,,,,,,,,,,,,,,,,,,,,,,,,,,,,,,,,,,,,,,,,,527.003137200023,None,right,0,1.7945984000107273,527.5042253000429,528.405471200007,527.5042253000429,527.9045379000017,527.5042253000429,527.9045379000017,527.5042253000429,527.9045379000017,527.5042253000429,527.9045379000017,527.5042253000429,527.9045379000017,527.8878419999965,528.3888658999931,527.8878419999965,528.3888658999931,527.8878419999965,528.3888658999931,527.8878419999965,528.3888658999931,527.8878419999965,528.3888658999931,527.8878419999965,528.3888658999931,527.8878419999965,528.3888658999931,527.8878419999965,528.3888658999931,527.5042253000429,None,528.3888658999931,530.4583468999481,0.40000000000000013,530.475091499975,None,531.2263283999637,None,,,,,,,[2.05588889],3.9700000000000033,0.7333333333333333,11043,001,2024_Mar_21_0757,MFTM_A_new1021,2021.2.3,59.805250190280134,
,,,,,,,,stim/Instruction_adaptive.png,conditions/adaptive.xlsx,test,-0.6,-0.6,-0.6,0.6,0.6,left,L,,,,,0,1,1,1,0,90,90,93,,,,,,,,,,,,,,,,,,,,,,,,,,,,,,,,,,,,,,,,,,,,531.7269935000222,None,left,1,1.359088599914685,532.2278154999949,533.1463623000309,532.2278154999949,532.6629882999696,532.2278154999949,532.6629882999696,532.2278154999949,532.6629882999696,532.2278154999949,532.6629882999696,532.2278154999949,532.6629882999696,532.6285447999835,533.1304302000208,532.6285447999835,533.1304302000208,532.6285447999835,533.1304302000208,532.6285447999835,533.1304302000208,532.6285447999835,533.1304302000208,532.6285447999835,533.1304302000208,532.6285447999835,533.1304302000208,532.6285447999835,533.1304302000208,532.2278154999949,None,533.1304302000208,535.1990376999602,0.42000000000000015,535.2155801999616,None,535.9669377000537,None,,,,,,,[2.05615385],3.990000000000003,0.7362637362637363,11043,001,2024_Mar_21_0757,MFTM_A_new1021,2021.2.3,59.805250190280134,
,,,,,,,,stim/Instruction_adaptive.png,conditions/adaptive.xlsx,test,-0.6,-0.6,-0.6,0.6,0.6,left,L,,,,,0,1,1,1,0,91,91,31,,,,,,,,,,,,,,,,,,,,,,,,,,,,,,,,,,,,,,,,,,,,536.4676783999894,None,left,1,1.3384460000088438,536.9682545999531,537.8864757999545,536.9682545999531,537.3856491999468,536.9682545999531,537.3856491999468,536.9682545999531,537.3856491999468,536.9682545999531,537.3856491999468,536.9682545999531,537.3856491999468,537.3689485000214,537.870155600016,537.3689485000214,537.870155600016,537.3689485000214,537.870155600016,537.3689485000214,537.870155600016,537.3689485000214,537.870155600016,537.3689485000214,537.870155600016,537.3689485000214,537.870155600016,537.3689485000214,537.870155600016,536.9682545999531,None,537.870155600016,None,0.41000000000000014,539.9393968000077,None,540.6906266999431,None,,,,,,,[2.05652174],4.010000000000003,0.7391304347826086,11043,001,2024_Mar_21_0757,MFTM_A_new1021,2021.2.3,59.805250190280134,
,,,,,,,,stim/Instruction_adaptive.png,conditions/adaptive.xlsx,test,-0.6,-0.6,-0.6,0.6,0.6,left,L,,,,,0,1,1,1,0,92,92,49,,,,,,,,,,,,,,,,,,,,,,,,,,,,,,,,,,,,,,,,,,,,541.1917681000195,None,right,0,1.8224712000228465,541.6922281000298,542.6107489999849,541.6922281000298,542.1094128999393,541.6922281000298,542.1094128999393,541.6922281000298,542.1094128999393,541.6922281000298,542.1094128999393,541.6922281000298,542.1094128999393,542.0926946999971,542.5943825000431,542.0926946999971,542.5943825000431,542.0926946999971,542.5943825000431,542.0926946999971,542.5943825000431,542.0926946999971,542.5943825000431,542.0926946999971,542.5943825000431,542.0926946999971,542.5943825000431,542.0926946999971,542.5943825000431,541.6922281000298,None,542.5766216999618,544.6467596000293,0.41000000000000014,544.6631504000397,None,545.4144156000111,None,,,,,,,[2.05688172],3.950000000000003,0.7311827956989247,11043,001,2024_Mar_21_0757,MFTM_A_new1021,2021.2.3,59.805250190280134,
