arrwidth1,arrwidth2,arrwidth3,arrwidth4,arrwidth5,keyb,type,orientation,instruction_image,block_filename,block_type,arrow11,arrow22,arrow33,arrow44,arrow55,keyb_3,orientation3,trials.thisRepN,trials.thisTrialN,trials.thisN,trials.thisIndex,trials_3.thisRepN,trials_3.thisTrialN,trials_3.thisN,trials_3.thisIndex,trials_2.thisRepN,trials_2.thisTrialN,trials_2.thisN,trials_2.thisIndex,welcome.started,welcome.stopped,key_resp.keys,key_resp.rt,key_resp.started,key_resp.stopped,instruction_example.started,instruction_example.stopped,key_resp_3.keys,key_resp_3.rt,key_resp_3.started,key_resp_3.stopped,instruction_task.started,instruction_task.stopped,key_resp_2.keys,key_resp_2.rt,key_resp_2.started,key_resp_2.stopped,text_2.started,text_2.stopped,A1.started,A1.stopped,A2.started,A2.stopped,A3.started,A3.stopped,A4.started,A4.stopped,A5.started,A5.stopped,key_resp_4.keys,key_resp_4.corr,key_resp_4.rt,key_resp_4.started,key_resp_4.stopped,fb.started,fb.stopped,instruction_block.started,instruction_block.stopped,key_resp_8.keys,key_resp_8.rt,key_resp_8.started,key_resp_8.stopped,text_8.started,text_8.stopped,key_resp_9.keys,key_resp_9.corr,key_resp_9.rt,text_5.started,text_5.stopped,A11_3.started,A11_3.stopped,A22_2.started,A22_2.stopped,A33_2.started,A33_2.stopped,A44_2.started,A44_2.stopped,A55_2.started,A55_2.stopped,M1_3.started,M1_3.stopped,M2_2.started,M2_2.stopped,M3_2.started,M3_2.stopped,M4_2.started,M4_2.stopped,M5_2.started,M5_2.stopped,M6_2.started,M6_2.stopped,M7_2.started,M7_2.stopped,M8_2.started,M8_2.stopped,key_resp_9.started,key_resp_9.stopped,fixation.started,fixation.stopped,ET,fb_3.started,fb_3.stopped,text_9.started,text_9.stopped,fb_4.started,fb_4.stopped,text_7.started,text_7.stopped,endtext.started,endtext.stopped,fixation_ITI,CCC,Acc,participant,session,date,expName,psychopyVersion,frameRate,
,,,,,,,,,,,,,,,,,,,,,,,,,,,,,,278.2840917999856,None,space,1.8432915000012144,278.2840917999856,None,,,,,,,,,,,,,,,,,,,,,,,,,,,,,,,,,,,,,,,,,,,,,,,,,,,,,,,,,,,,,,,,,,,,,,,,,,,,,,,,,,,,,,,,,11042,002,2024_Mar_17_1335,MFTM_A_new1021,2021.2.3,59.61241201077663,
,,,,,,,,,,,,,,,,,,,,,,,,,,,,,,,,,,,,280.1535919000162,None,space,1.1579721000161953,280.1535919000162,None,,,,,,,,,,,,,,,,,,,,,,,,,,,,,,,,,,,,,,,,,,,,,,,,,,,,,,,,,,,,,,,,,,,,,,,,,,,,,,,,,,,11042,002,2024_Mar_17_1335,MFTM_A_new1021,2021.2.3,59.61241201077663,
,,,,,,,,,,,,,,,,,,,,,,,,,,,,,,,,,,,,,,,,,,281.3390007999842,None,space,0.9893987999530509,281.3390007999842,None,,,,,,,,,,,,,,,,,,,,,,,,,,,,,,,,,,,,,,,,,,,,,,,,,,,,,,,,,,,,,,,,,,,,,,,,,,,,,11042,002,2024_Mar_17_1335,MFTM_A_new1021,2021.2.3,59.61241201077663,
0.6,0.6,0.6,-0.6,-0.6,right,3:2,R,,,,,,,,,,,0,0,0,0,,,,,,,,,,,,,,,,,,,,,,,,,,,282.37502699997276,None,282.37502699997276,None,282.37502699997276,None,282.37502699997276,None,282.37502699997276,None,282.37502699997276,None,right,1,1.4011477999738418,282.37502699997276,None,283.8094504000037,None,,,,,,,,,,,,,,,,,,,,,,,,,,,,,,,,,,,,,,,,,,,,,,,,,,,,,,,,,,11042,002,2024_Mar_17_1335,MFTM_A_new1021,2021.2.3,59.61241201077663,
-0.6,-0.6,-0.6,0.6,0.6,left,3:2,L,,,,,,,,,,,0,1,1,1,,,,,,,,,,,,,,,,,,,,,,,,,,,284.56050839996897,None,284.56050839996897,None,284.56050839996897,None,284.56050839996897,None,284.56050839996897,None,284.56050839996897,None,left,1,2.9111971000093035,284.56050839996897,None,287.4980895000044,None,,,,,,,,,,,,,,,,,,,,,,,,,,,,,,,,,,,,,,,,,,,,,,,,,,,,,,,,,,11042,002,2024_Mar_17_1335,MFTM_A_new1021,2021.2.3,59.61241201077663,
-0.6,-0.6,-0.6,0.6,0.6,left,3:2,L,,,,,,,,,,,1,0,2,1,,,,,,,,,,,,,,,,,,,,,,,,,,,288.2499668999808,None,288.2499668999808,None,288.2499668999808,None,288.2499668999808,None,288.2499668999808,None,288.2499668999808,None,left,1,3.374182799947448,288.2499668999808,None,291.654433699965,None,,,,,,,,,,,,,,,,,,,,,,,,,,,,,,,,,,,,,,,,,,,,,,,,,,,,,,,,,,11042,002,2024_Mar_17_1335,MFTM_A_new1021,2021.2.3,59.61241201077663,
0.6,0.6,0.6,-0.6,-0.6,right,3:2,R,,,,,,,,,,,1,1,3,0,,,,,,,,,,,,,,,,,,,,,,,,,,,292.40543250000337,None,292.40543250000337,None,292.40543250000337,None,292.40543250000337,None,292.40543250000337,None,292.40543250000337,None,right,1,1.5314917999785393,292.40543250000337,None,293.9578329999931,None,,,,,,,,,,,,,,,,,,,,,,,,,,,,,,,,,,,,,,,,,,,,,,,,,,,,,,,,,,11042,002,2024_Mar_17_1335,MFTM_A_new1021,2021.2.3,59.61241201077663,
,,,,,,,,stim/Instruction_mask.png,conditions/adaptive.xlsx,practice,-0.6,-0.6,-0.6,0.6,0.6,left,L,,,,,0,0,0,0,0,0,0,61,,,,,,,,,,,,,,,,,,,,,,,,,,,,,,,,,,,,,,294.89225149998674,None,space,3.948062999988906,294.89225149998674,None,298.931172600016,None,None,0,0,299.382629300002,None,299.382629300002,302.3876741999993,299.382629300002,302.3876741999993,299.382629300002,302.3876741999993,299.382629300002,302.3876741999993,299.382629300002,302.3876741999993,302.370940599998,302.872664799972,302.370940599998,302.872664799972,302.370940599998,302.872664799972,302.370940599998,302.872664799972,302.370940599998,302.872664799972,302.370940599998,302.872664799972,302.370940599998,302.872664799972,302.370940599998,302.872664799972,299.382629300002,None,302.872664799972,302.872664799972,3,302.9059500999865,None,303.6558429999859,None,,,,,,,,,,11042,002,2024_Mar_17_1335,MFTM_A_new1021,2021.2.3,59.61241201077663,
,,,,,,,,stim/Instruction_mask.png,conditions/adaptive.xlsx,practice,-0.6,-0.6,-0.6,0.6,0.6,left,L,,,,,0,0,0,0,0,1,1,81,,,,,,,,,,,,,,,,,,,,,,,,,,,,,,,,,,,,,,,,,,,,304.15868140000384,None,left,1,1.335379500000272,304.65723299997626,306.66026629996486,304.65723299997626,306.1593528999947,304.65723299997626,306.1593528999947,304.65723299997626,306.1593528999947,304.65723299997626,306.1593528999947,304.65723299997626,306.1593528999947,306.1426789999823,306.6433672999847,306.1426789999823,306.6433672999847,306.1426789999823,306.6433672999847,306.1426789999823,306.6433672999847,306.1426789999823,306.6433672999847,306.1426789999823,306.6433672999847,306.1426789999823,306.6433672999847,306.1426789999823,306.6433672999847,304.65723299997626,None,306.6433672999847,308.14581750001526,1.5,308.16235759999836,None,308.9136601999635,None,,,,,,,,,,11042,002,2024_Mar_17_1335,MFTM_A_new1021,2021.2.3,59.61241201077663,
,,,,,,,,stim/Instruction_mask.png,conditions/adaptive.xlsx,practice,-0.6,-0.6,-0.6,0.6,0.6,left,L,,,,,0,0,0,0,0,2,2,1,,,,,,,,,,,,,,,,,,,,,,,,,,,,,,,,,,,,,,,,,,,,309.41451309999684,None,left,1,0.7178168999962509,309.9152763999882,311.2169324000133,309.9152763999882,310.7163045000052,309.9152763999882,310.7163045000052,309.9152763999882,310.7163045000052,309.9152763999882,310.7163045000052,309.9152763999882,310.7163045000052,310.6995390999946,311.2004519000184,310.6995390999946,311.2004519000184,310.6995390999946,311.2004519000184,310.6995390999946,311.2004519000184,310.6995390999946,311.2004519000184,310.6995390999946,311.2004519000184,310.6995390999946,311.2004519000184,310.6995390999946,311.2004519000184,309.9152763999882,None,311.2004519000184,313.40522449999116,0.8,313.4203383999993,None,314.17274289997295,None,,,,,,,,,,11042,002,2024_Mar_17_1335,MFTM_A_new1021,2021.2.3,59.61241201077663,
,,,,,,,,stim/Instruction_mask.png,conditions/adaptive.xlsx,practice,0.6,0.6,0.6,-0.6,-0.6,right,R,,,,,0,0,0,0,0,3,3,64,,,,,,,,,,,,,,,,,,,,,,,,,,,,,,,,,,,,,,,,,,,,314.6723337000003,None,left,0,1.0432675000047311,315.17306619999,315.9248668999644,315.17306619999,315.4234672000166,315.17306619999,315.4234672000166,315.17306619999,315.4234672000166,315.17306619999,315.4234672000166,315.17306619999,315.4234672000166,315.4067788000102,315.9075947999954,315.4067788000102,315.9075947999954,315.4067788000102,315.9075947999954,315.4067788000102,315.9075947999954,315.4067788000102,315.9075947999954,315.4067788000102,315.9075947999954,315.4067788000102,315.9075947999954,315.4067788000102,315.9075947999954,315.17306619999,None,315.9075947999954,318.662445999973,3,318.6780701999669,None,319.4307174999849,None,,,,,,,,,,11042,002,2024_Mar_17_1335,MFTM_A_new1021,2021.2.3,59.61241201077663,
,,,,,,,,stim/Instruction_mask.png,conditions/adaptive.xlsx,practice,,,,,,,,,,,,0,0,0,0,,,,,,,,,,,,,,,,,,,,,,,,,,,,,,,,,,,,,,,,,,,,,,,,,,,,,,,,,,,,,,,,,,,,,,,,,,,,,,,,,,,,,,,,,,319.9471506999689,320.9495231999899,320.9329061000026,320.9329061000026,320.9329061000026,None,,,,11042,002,2024_Mar_17_1335,MFTM_A_new1021,2021.2.3,59.61241201077663,
,,,,,,,,stim/Instruction_adaptive.png,conditions/adaptive.xlsx,test,-0.6,-0.6,-0.6,0.6,0.6,left,L,,,,,0,1,1,1,0,0,0,23,,,,,,,,,,,,,,,,,,,,,,,,,,,,,,,,,,,,,,324.0529408999719,None,space,1.451840199995786,324.0529408999719,None,325.5387307999772,None,left,1,2.6578802000149153,326.0396066000103,None,326.0396066000103,329.0443072000053,326.0396066000103,329.0443072000053,326.0396066000103,329.0443072000053,326.0396066000103,329.0443072000053,326.0396066000103,329.0443072000053,329.0273400999722,329.5279812999652,329.0273400999722,329.5279812999652,329.0273400999722,329.5279812999652,329.0273400999722,329.5279812999652,329.0273400999722,329.5279812999652,329.0273400999722,329.5279812999652,329.0273400999722,329.5279812999652,329.0273400999722,329.5279812999652,326.0396066000103,None,329.5279812999652,329.5279812999652,3,329.54450079996604,None,330.2966966999811,None,,,,,,,0,6.000000000000005,1.0,11042,002,2024_Mar_17_1335,MFTM_A_new1021,2021.2.3,59.61241201077663,
,,,,,,,,stim/Instruction_adaptive.png,conditions/adaptive.xlsx,test,-0.6,-0.6,-0.6,0.6,0.6,left,L,,,,,0,1,1,1,0,1,1,87,,,,,,,,,,,,,,,,,,,,,,,,,,,,,,,,,,,,,,,,,,,,330.7976413000142,None,left,1,1.711594899999909,331.29739459999837,332.0491841000039,331.29739459999837,331.54858689999674,331.29739459999837,331.54858689999674,331.29739459999837,331.54858689999674,331.29739459999837,331.54858689999674,331.29739459999837,331.54858689999674,331.53119219996734,332.03190569998696,331.53119219996734,332.03190569998696,331.53119219996734,332.03190569998696,331.53119219996734,332.03190569998696,331.53119219996734,332.03190569998696,331.53119219996734,332.03190569998696,331.53119219996734,332.03190569998696,331.53119219996734,332.03190569998696,331.29739459999837,None,332.03190569998696,333.0336340999929,0.25,333.050046999997,None,333.80192080000415,None,,,,,,,[0.875],6.000000000000005,1.0,11042,002,2024_Mar_17_1335,MFTM_A_new1021,2021.2.3,59.61241201077663,
,,,,,,,,stim/Instruction_adaptive.png,conditions/adaptive.xlsx,test,-0.6,-0.6,-0.6,0.6,0.6,left,L,,,,,0,1,1,1,0,2,2,47,,,,,,,,,,,,,,,,,,,,,,,,,,,,,,,,,,,,,,,,,,,,334.3026262000203,None,right,0,0.894370699999854,334.80272340000374,335.55438599997433,334.80272340000374,335.05294919997687,334.80272340000374,335.05294919997687,334.80272340000374,335.05294919997687,334.80272340000374,335.05294919997687,334.80272340000374,335.05294919997687,335.0364402999985,335.53745279996656,335.0364402999985,335.53745279996656,335.0364402999985,335.53745279996656,335.0364402999985,335.53745279996656,335.0364402999985,335.53745279996656,335.0364402999985,335.53745279996656,335.0364402999985,335.53745279996656,335.0364402999985,335.53745279996656,334.80272340000374,None,335.53745279996656,336.8725661999779,0.25,336.88887670001714,None,337.6401220000116,None,,,,,,,[1.33333333],3.1800000000000024,0.6666666666666666,11042,002,2024_Mar_17_1335,MFTM_A_new1021,2021.2.3,59.61241201077663,
,,,,,,,,stim/Instruction_adaptive.png,conditions/adaptive.xlsx,test,-0.6,-0.6,-0.6,0.6,0.6,left,L,,,,,0,1,1,1,0,3,3,73,,,,,,,,,,,,,,,,,,,,,,,,,,,,,,,,,,,,,,,,,,,,338.14116589998594,None,right,0,1.671145299973432,338.6418796000071,339.8782884000102,338.6418796000071,339.37661089998437,338.6418796000071,339.37661089998437,338.6418796000071,339.37661089998437,338.6418796000071,339.37661089998437,338.6418796000071,339.37661089998437,339.359839599987,339.8605280999909,339.359839599987,339.8605280999909,339.359839599987,339.8605280999909,339.359839599987,339.8605280999909,339.359839599987,339.8605280999909,339.359839599987,339.8605280999909,339.359839599987,339.8605280999909,339.359839599987,339.8605280999909,338.6418796000071,None,339.8605280999909,341.31283259997144,0.7300000000000004,341.3292998999823,None,342.0808095000102,None,,,,,,,[1.4425],1.510000000000001,0.5,11042,002,2024_Mar_17_1335,MFTM_A_new1021,2021.2.3,59.61241201077663,
,,,,,,,,stim/Instruction_adaptive.png,conditions/adaptive.xlsx,test,0.6,0.6,0.6,-0.6,-0.6,right,R,,,,,0,1,1,1,0,4,4,68,,,,,,,,,,,,,,,,,,,,,,,,,,,,,,,,,,,,,,,,,,,,342.58265569998184,None,right,1,2.6718732999870554,343.0818480000016,345.90276460000314,343.0818480000016,345.40211229998386,343.0818480000016,345.40211229998386,343.0818480000016,345.40211229998386,343.0818480000016,345.40211229998386,343.0818480000016,345.40211229998386,345.3696967000142,345.86917959997663,345.3696967000142,345.86917959997663,345.3696967000142,345.86917959997663,345.3696967000142,345.86917959997663,345.3696967000142,345.86917959997663,345.3696967000142,345.86917959997663,345.3696967000142,345.86917959997663,345.3696967000142,345.86917959997663,343.0818480000016,None,345.86917959997663,346.07093950000126,2.310000000000002,346.08616509998683,None,346.8383154000039,None,,,,,,,[[0.19]],2.2800000000000016,0.6,11042,002,2024_Mar_17_1335,MFTM_A_new1021,2021.2.3,59.61241201077663,
,,,,,,,,stim/Instruction_adaptive.png,conditions/adaptive.xlsx,test,-0.6,-0.6,-0.6,0.6,0.6,left,L,,,,,0,1,1,1,0,5,5,3,,,,,,,,,,,,,,,,,,,,,,,,,,,,,,,,,,,,,,,,,,,,347.3389798999997,None,left,1,2.0095811000210233,347.839601100015,349.6929101999849,347.839601100015,349.19131530000595,347.839601100015,349.19131530000595,347.839601100015,349.19131530000595,347.839601100015,349.19131530000595,347.839601100015,349.19131530000595,349.1749545999919,349.67576269997517,349.1749545999919,349.67576269997517,349.1749545999919,349.67576269997517,349.1749545999919,349.67576269997517,349.1749545999919,349.67576269997517,349.1749545999919,349.67576269997517,349.1749545999919,349.67576269997517,349.1749545999919,349.67576269997517,347.839601100015,None,349.67576269997517,350.82649150001816,1.350000000000001,350.8434345999849,None,351.59460860001855,None,,,,,,,[[1.15]],2.7100000000000017,0.6666666666666666,11042,002,2024_Mar_17_1335,MFTM_A_new1021,2021.2.3,59.61241201077663,
,,,,,,,,stim/Instruction_adaptive.png,conditions/adaptive.xlsx,test,0.6,0.6,0.6,-0.6,-0.6,right,R,,,,,0,1,1,1,0,6,6,60,,,,,,,,,,,,,,,,,,,,,,,,,,,,,,,,,,,,,,,,,,,,352.0966865000082,None,right,1,1.780519700027071,352.5971253999742,354.1165517999907,352.5971253999742,353.61443630000576,352.5971253999742,353.61443630000576,352.5971253999742,353.61443630000576,352.5971253999742,353.61443630000576,352.5971253999742,353.61443630000576,353.58084539999254,354.08169859996997,353.58084539999254,354.08169859996997,353.58084539999254,354.08169859996997,353.58084539999254,354.08169859996997,353.58084539999254,354.08169859996997,353.58084539999254,354.08169859996997,353.58084539999254,354.08169859996997,353.58084539999254,354.08169859996997,352.5971253999742,None,354.08169859996997,355.31692020001356,1.0100000000000007,355.3503883999656,None,356.1015415000147,None,,,,,,,[1.22857143],3.0200000000000022,0.7142857142857143,11042,002,2024_Mar_17_1335,MFTM_A_new1021,2021.2.3,59.61241201077663,
,,,,,,,,stim/Instruction_adaptive.png,conditions/adaptive.xlsx,test,-0.6,-0.6,-0.6,0.6,0.6,left,L,,,,,0,1,1,1,0,7,7,77,,,,,,,,,,,,,,,,,,,,,,,,,,,,,,,,,,,,,,,,,,,,356.6023809000035,None,right,0,1.6831170999794267,357.1027720000129,358.4216565999668,357.1027720000129,357.9212632999988,357.1027720000129,357.9212632999988,357.1027720000129,357.9212632999988,357.1027720000129,357.9212632999988,357.1027720000129,357.9212632999988,357.90445069997804,358.4048416999867,357.90445069997804,358.4048416999867,357.90445069997804,358.4048416999867,357.90445069997804,358.4048416999867,357.90445069997804,358.4048416999867,357.90445069997804,358.4048416999867,357.90445069997804,358.4048416999867,357.90445069997804,358.4048416999867,357.1027720000129,None,358.4048416999867,359.6901593999937,0.8100000000000005,359.70674829999916,None,360.4587539000204,None,,,,,,,[1.28625],2.330000000000002,0.625,11042,002,2024_Mar_17_1335,MFTM_A_new1021,2021.2.3,59.61241201077663,
,,,,,,,,stim/Instruction_adaptive.png,conditions/adaptive.xlsx,test,-0.6,-0.6,-0.6,0.6,0.6,left,L,,,,,0,1,1,1,0,8,8,63,,,,,,,,,,,,,,,,,,,,,,,,,,,,,,,,,,,,,,,,,,,,360.96012880001217,None,right,0,2.1896713000023738,361.46002349996706,363.278813300014,361.46002349996706,362.7790753999725,361.46002349996706,362.7790753999725,361.46002349996706,362.7790753999725,361.46002349996706,362.7790753999725,361.46002349996706,362.7790753999725,362.7455605000141,363.24560439999914,362.7455605000141,363.24560439999914,362.7455605000141,363.24560439999914,362.7455605000141,363.24560439999914,362.7455605000141,363.24560439999914,362.7455605000141,363.24560439999914,362.7455605000141,363.24560439999914,362.7455605000141,363.24560439999914,361.46002349996706,None,363.24560439999914,364.4471892999718,1.310000000000001,364.4639068999677,None,365.2151914999704,None,,,,,,,[[1.19]],1.4600000000000009,0.5555555555555556,11042,002,2024_Mar_17_1335,MFTM_A_new1021,2021.2.3,59.61241201077663,
,,,,,,,,stim/Instruction_adaptive.png,conditions/adaptive.xlsx,test,-0.6,-0.6,-0.6,0.6,0.6,left,L,,,,,0,1,1,1,0,9,9,91,,,,,,,,,,,,,,,,,,,,,,,,,,,,,,,,,,,,,,,,,,,,365.7159845000133,None,left,1,1.9291494999779388,366.21666320000077,369.121694499976,366.21666320000077,368.62118600000395,366.21666320000077,368.62118600000395,366.21666320000077,368.62118600000395,366.21666320000077,368.62118600000395,366.21666320000077,368.62118600000395,368.58696400001645,369.08842479996383,368.58696400001645,369.08842479996383,368.58696400001645,369.08842479996383,368.58696400001645,369.08842479996383,368.58696400001645,369.08842479996383,368.58696400001645,369.08842479996383,368.58696400001645,369.08842479996383,368.58696400001645,369.08842479996383,366.21666320000077,None,369.08842479996383,369.20439259998966,2.390000000000002,369.2210634999792,None,369.97355539997807,None,,,,,,,[[0.11]],1.8400000000000012,0.6,11042,002,2024_Mar_17_1335,MFTM_A_new1021,2021.2.3,59.61241201077663,
,,,,,,,,stim/Instruction_adaptive.png,conditions/adaptive.xlsx,test,0.6,0.6,0.6,-0.6,-0.6,right,R,,,,,0,1,1,1,0,10,10,30,,,,,,,,,,,,,,,,,,,,,,,,,,,,,,,,,,,,,,,,,,,,370.473046900006,None,right,1,1.6762996000470594,370.97450650000246,373.32734479999635,370.97450650000246,372.8266954999999,370.97450650000246,372.8266954999999,370.97450650000246,372.8266954999999,370.97450650000246,372.8266954999999,370.97450650000246,372.8266954999999,372.7932028999785,373.2941984999925,372.7932028999785,373.2941984999925,372.7932028999785,373.2941984999925,372.7932028999785,373.2941984999925,372.7932028999785,373.2941984999925,372.7932028999785,373.2941984999925,372.7932028999785,373.2941984999925,372.7932028999785,373.2941984999925,370.97450650000246,None,373.2941984999925,373.96228899998823,1.8400000000000014,373.97832120000385,None,374.7296447000117,None,,,,,,,[[0.66]],2.110000000000001,0.6363636363636364,11042,002,2024_Mar_17_1335,MFTM_A_new1021,2021.2.3,59.61241201077663,
,,,,,,,,stim/Instruction_adaptive.png,conditions/adaptive.xlsx,test,0.6,0.6,0.6,-0.6,-0.6,right,R,,,,,0,1,1,1,0,11,11,74,,,,,,,,,,,,,,,,,,,,,,,,,,,,,,,,,,,,,,,,,,,,375.22999650001293,None,left,0,2.5028981000068597,375.73109319998184,377.75083560001804,375.73109319998184,377.26665070001036,375.73109319998184,377.26665070001036,375.73109319998184,377.26665070001036,375.73109319998184,377.26665070001036,375.73109319998184,377.26665070001036,377.23331609996967,377.7340938000125,377.23331609996967,377.7340938000125,377.23331609996967,377.7340938000125,377.23331609996967,377.7340938000125,377.23331609996967,377.7340938000125,377.23331609996967,377.7340938000125,377.23331609996967,377.7340938000125,377.23331609996967,377.7340938000125,375.73109319998184,None,377.7340938000125,378.719678799971,1.5200000000000011,378.73542759998236,None,379.4877441999852,None,,,,,,,[[0.98]],1.4800000000000009,0.5833333333333334,11042,002,2024_Mar_17_1335,MFTM_A_new1021,2021.2.3,59.61241201077663,
,,,,,,,,stim/Instruction_adaptive.png,conditions/adaptive.xlsx,test,-0.6,-0.6,-0.6,0.6,0.6,left,L,,,,,0,1,1,1,0,12,12,1,,,,,,,,,,,,,,,,,,,,,,,,,,,,,,,,,,,,,,,,,,,,379.9872098999913,None,left,1,1.506358300044667,380.4882045999984,383.35902899998473,380.4882045999984,382.8591337999678,380.4882045999984,382.8591337999678,380.4882045999984,382.8591337999678,380.4882045999984,382.8591337999678,380.4882045999984,382.8591337999678,382.82514490000904,383.3269829999772,382.82514490000904,383.3269829999772,382.82514490000904,383.3269829999772,382.82514490000904,383.3269829999772,382.82514490000904,383.3269829999772,382.82514490000904,383.3269829999772,382.82514490000904,383.3269829999772,382.82514490000904,383.3269829999772,380.4882045999984,None,383.3269829999772,383.47672849998344,2.360000000000002,383.49223649996566,None,384.2438477000105,None,,,,,,,[[0.14]],1.740000000000001,0.6153846153846154,11042,002,2024_Mar_17_1335,MFTM_A_new1021,2021.2.3,59.61241201077663,
,,,,,,,,stim/Instruction_adaptive.png,conditions/adaptive.xlsx,test,-0.6,-0.6,-0.6,0.6,0.6,left,L,,,,,0,1,1,1,0,13,13,51,,,,,,,,,,,,,,,,,,,,,,,,,,,,,,,,,,,,,,,,,,,,384.7455560999806,None,left,1,3.0529368999996223,385.2453042999841,387.71571550000226,385.2453042999841,387.21500889997697,385.2453042999841,387.21500889997697,385.2453042999841,387.21500889997697,385.2453042999841,387.21500889997697,385.2453042999841,387.21500889997697,387.199580000015,387.6988645999809,387.199580000015,387.6988645999809,387.199580000015,387.6988645999809,387.199580000015,387.6988645999809,387.199580000015,387.6988645999809,387.199580000015,387.6988645999809,387.199580000015,387.6988645999809,387.199580000015,387.6988645999809,385.2453042999841,None,387.6988645999809,388.31649200001266,1.9700000000000015,388.33319450001,None,389.08439480001107,None,,,,,,,[[0.53]],1.9400000000000013,0.6428571428571429,11042,002,2024_Mar_17_1335,MFTM_A_new1021,2021.2.3,59.61241201077663,
,,,,,,,,stim/Instruction_adaptive.png,conditions/adaptive.xlsx,test,0.6,0.6,0.6,-0.6,-0.6,right,R,,,,,0,1,1,1,0,14,14,44,,,,,,,,,,,,,,,,,,,,,,,,,,,,,,,,,,,,,,,,,,,,389.58566179999616,None,right,1,2.1805886999936774,390.08586409996497,392.30599939997774,390.08586409996497,391.80676180002047,390.08586409996497,391.80676180002047,390.08586409996497,391.80676180002047,390.08586409996497,391.80676180002047,390.08586409996497,391.80676180002047,391.771946199995,392.272567100008,391.771946199995,392.272567100008,391.771946199995,392.272567100008,391.771946199995,392.272567100008,391.771946199995,392.272567100008,391.771946199995,392.272567100008,391.771946199995,392.272567100008,391.771946199995,392.272567100008,390.08586409996497,None,392.272567100008,393.0737434999901,1.7100000000000013,393.0904949000105,None,393.84174730000086,None,,,,,,,[[0.79]],2.1000000000000014,0.6666666666666666,11042,002,2024_Mar_17_1335,MFTM_A_new1021,2021.2.3,59.61241201077663,
,,,,,,,,stim/Instruction_adaptive.png,conditions/adaptive.xlsx,test,-0.6,-0.6,-0.6,0.6,0.6,left,L,,,,,0,1,1,1,0,15,15,71,,,,,,,,,,,,,,,,,,,,,,,,,,,,,,,,,,,,,,,,,,,,394.3437869999907,None,left,1,2.16766280005686,394.8430739999749,396.8793737000087,394.8430739999749,396.3788856000174,394.8430739999749,396.3788856000174,394.8430739999749,396.3788856000174,394.8430739999749,396.3788856000174,394.8430739999749,396.3788856000174,396.36330229998566,396.8635523999692,396.36330229998566,396.8635523999692,396.36330229998566,396.8635523999692,396.36330229998566,396.8635523999692,396.36330229998566,396.8635523999692,396.36330229998566,396.8635523999692,396.36330229998566,396.8635523999692,396.36330229998566,396.8635523999692,394.8430739999749,None,396.84695649996866,397.8310954999761,1.5300000000000011,397.84770039998693,None,398.59875489998376,None,,,,,,,[[0.97]],2.2400000000000015,0.6875,11042,002,2024_Mar_17_1335,MFTM_A_new1021,2021.2.3,59.61241201077663,
,,,,,,,,stim/Instruction_adaptive.png,conditions/adaptive.xlsx,test,0.6,0.6,0.6,-0.6,-0.6,right,R,,,,,0,1,1,1,0,16,16,96,,,,,,,,,,,,,,,,,,,,,,,,,,,,,,,,,,,,,,,,,,,,399.0994156000088,None,right,1,2.362465300015174,399.6003269999637,401.5044571000035,399.6003269999637,401.0029355000006,399.6003269999637,401.0029355000006,399.6003269999637,401.0029355000006,399.6003269999637,401.0029355000006,399.6003269999637,401.0029355000006,400.969595499977,401.4699145000195,400.969595499977,401.4699145000195,400.969595499977,401.4699145000195,400.969595499977,401.4699145000195,400.969595499977,401.4699145000195,400.969595499977,401.4699145000195,400.969595499977,401.4699145000195,400.969595499977,401.4699145000195,399.6003269999637,None,401.4699145000195,402.47120979998726,1.390000000000001,402.4879149000044,None,403.2393091999693,None,,,,,,,[0.98647059],2.3600000000000017,0.7058823529411765,11042,002,2024_Mar_17_1335,MFTM_A_new1021,2021.2.3,59.61241201077663,
,,,,,,,,stim/Instruction_adaptive.png,conditions/adaptive.xlsx,test,0.6,0.6,0.6,-0.6,-0.6,right,R,,,,,0,1,1,1,0,17,17,48,,,,,,,,,,,,,,,,,,,,,,,,,,,,,,,,,,,,,,,,,,,,403.7398819999653,None,right,1,2.738325700047426,404.2404513999936,406.026640600001,404.2404513999936,405.52601199998753,404.2404513999936,405.52601199998753,404.2404513999936,405.52601199998753,404.2404513999936,405.52601199998753,404.2404513999936,405.52601199998753,405.50929439999163,406.01027570001315,405.50929439999163,406.01027570001315,405.50929439999163,406.01027570001315,405.50929439999163,406.01027570001315,405.50929439999163,406.01027570001315,405.50929439999163,406.01027570001315,405.50929439999163,406.01027570001315,405.50929439999163,406.01027570001315,404.2404513999936,None,405.99359719996573,406.9945980000193,1.280000000000001,407.02816430001985,None,407.77935259998776,None,,,,,,,[0.99944444],2.4700000000000015,0.7222222222222222,11042,002,2024_Mar_17_1335,MFTM_A_new1021,2021.2.3,59.61241201077663,
,,,,,,,,stim/Instruction_adaptive.png,conditions/adaptive.xlsx,test,0.6,0.6,0.6,-0.6,-0.6,right,R,,,,,0,1,1,1,0,18,18,78,,,,,,,,,,,,,,,,,,,,,,,,,,,,,,,,,,,,,,,,,,,,408.2802425000118,None,right,1,1.677875800000038,408.78119219996734,410.4833737000008,408.78119219996734,409.98264970001765,408.78119219996734,409.98264970001765,408.78119219996734,409.98264970001765,408.78119219996734,409.98264970001765,408.78119219996734,409.98264970001765,409.94927629997255,410.4499519999954,409.94927629997255,410.4499519999954,409.94927629997255,410.4499519999954,409.94927629997255,410.4499519999954,409.94927629997255,410.4499519999954,409.94927629997255,410.4499519999954,409.94927629997255,410.4499519999954,409.94927629997255,410.4499519999954,408.78119219996734,None,410.4499519999954,411.4687012999784,1.1900000000000008,411.50163860002067,None,412.25402749999193,None,,,,,,,[1.01578947],2.560000000000002,0.7368421052631579,11042,002,2024_Mar_17_1335,MFTM_A_new1021,2021.2.3,59.61241201077663,
,,,,,,,,stim/Instruction_adaptive.png,conditions/adaptive.xlsx,test,-0.6,-0.6,-0.6,0.6,0.6,left,L,,,,,0,1,1,1,0,19,19,31,,,,,,,,,,,,,,,,,,,,,,,,,,,,,,,,,,,,,,,,,,,,412.75435679999646,None,right,0,1.8199412999674678,413.25499459996354,414.890043899999,413.25499459996354,414.3901063000085,413.25499459996354,414.3901063000085,413.25499459996354,414.3901063000085,413.25499459996354,414.3901063000085,413.25499459996354,414.3901063000085,414.3560622999794,414.85647739999695,414.3560622999794,414.85647739999695,414.3560622999794,414.85647739999695,414.3560622999794,414.85647739999695,414.3560622999794,414.85647739999695,414.3560622999794,414.85647739999695,414.3560622999794,414.85647739999695,414.3560622999794,414.85647739999695,413.25499459996354,None,414.85647739999695,415.8916795999976,1.1200000000000008,415.90828480001073,None,416.6593381999992,None,,,,,,,[1.034],2.3000000000000016,0.7,11042,002,2024_Mar_17_1335,MFTM_A_new1021,2021.2.3,59.61241201077663,
,,,,,,,,stim/Instruction_adaptive.png,conditions/adaptive.xlsx,test,0.6,0.6,0.6,-0.6,-0.6,right,R,,,,,0,1,1,1,0,20,20,82,,,,,,,,,,,,,,,,,,,,,,,,,,,,,,,,,,,,,,,,,,,,417.1600514000165,None,right,1,1.4705127999768592,417.66081460000714,419.5138589999988,417.66081460000714,419.0134358999785,417.66081460000714,419.0134358999785,417.66081460000714,419.0134358999785,417.66081460000714,419.0134358999785,417.66081460000714,419.0134358999785,418.97980530001223,419.48015189997386,418.97980530001223,419.48015189997386,418.97980530001223,419.48015189997386,418.97980530001223,419.48015189997386,418.97980530001223,419.48015189997386,418.97980530001223,419.48015189997386,418.97980530001223,419.48015189997386,418.97980530001223,419.48015189997386,417.66081460000714,None,419.48015189997386,420.5327820999664,1.340000000000001,420.548397400009,None,421.30014469998423,None,,,,,,,[1.04],2.3900000000000015,0.7142857142857143,11042,002,2024_Mar_17_1335,MFTM_A_new1021,2021.2.3,59.61241201077663,
,,,,,,,,stim/Instruction_adaptive.png,conditions/adaptive.xlsx,test,0.6,0.6,0.6,-0.6,-0.6,right,R,,,,,0,1,1,1,0,21,21,34,,,,,,,,,,,,,,,,,,,,,,,,,,,,,,,,,,,,,,,,,,,,421.80078599997796,None,left,0,1.934301899978891,422.30121289996896,424.07049939996796,422.30121289996896,423.5698656999739,422.30121289996896,423.5698656999739,422.30121289996896,423.5698656999739,422.30121289996896,423.5698656999739,422.30121289996896,423.5698656999739,423.53634549997514,424.0370710999705,423.53634549997514,424.0370710999705,423.53634549997514,424.0370710999705,423.53634549997514,424.0370710999705,423.53634549997514,424.0370710999705,423.53634549997514,424.0370710999705,423.53634549997514,424.0370710999705,423.53634549997514,424.0370710999705,422.30121289996896,None,424.0370710999705,425.0893110000179,1.260000000000001,425.1232013999834,None,425.87460219999775,None,,,,,,,[1.04909091],2.1300000000000017,0.6818181818181818,11042,002,2024_Mar_17_1335,MFTM_A_new1021,2021.2.3,59.61241201077663,
,,,,,,,,stim/Instruction_adaptive.png,conditions/adaptive.xlsx,test,0.6,0.6,0.6,-0.6,-0.6,right,R,,,,,0,1,1,1,0,22,22,80,,,,,,,,,,,,,,,,,,,,,,,,,,,,,,,,,,,,,,,,,,,,426.3741609000135,None,right,1,1.9680351000279188,426.87557859998196,428.8777783999685,426.87557859998196,428.3771254000021,426.87557859998196,428.3771254000021,426.87557859998196,428.3771254000021,426.87557859998196,428.3771254000021,426.87557859998196,428.3771254000021,428.36047030001646,428.8609104999923,428.36047030001646,428.8609104999923,428.36047030001646,428.8609104999923,428.36047030001646,428.8609104999923,428.36047030001646,428.8609104999923,428.36047030001646,428.8609104999923,428.36047030001646,428.8609104999923,428.36047030001646,428.8609104999923,426.87557859998196,None,428.8609104999923,429.8646279000095,1.500000000000001,429.8793866999913,None,430.6303413999849,None,,,,,,,[[1.]],2.2300000000000013,0.6956521739130435,11042,002,2024_Mar_17_1335,MFTM_A_new1021,2021.2.3,59.61241201077663,
,,,,,,,,stim/Instruction_adaptive.png,conditions/adaptive.xlsx,test,-0.6,-0.6,-0.6,0.6,0.6,left,L,,,,,0,1,1,1,0,23,23,81,,,,,,,,,,,,,,,,,,,,,,,,,,,,,,,,,,,,,,,,,,,,431.1313680000021,None,left,1,2.3871092000044882,431.63244909996865,433.53493129997514,431.63244909996865,433.03428849997,431.63244909996865,433.03428849997,431.63244909996865,433.03428849997,431.63244909996865,433.03428849997,431.63244909996865,433.03428849997,433.0173378000036,433.5181915999856,433.0173378000036,433.5181915999856,433.0173378000036,433.5181915999856,433.0173378000036,433.5181915999856,433.0173378000036,433.5181915999856,433.0173378000036,433.5181915999856,433.0173378000036,433.5181915999856,433.0173378000036,433.5181915999856,431.63244909996865,None,433.5181915999856,434.5696377999848,1.400000000000001,434.58629030000884,None,435.3380439999746,None,,,,,,,[1.04916667],2.3100000000000014,0.7083333333333334,11042,002,2024_Mar_17_1335,MFTM_A_new1021,2021.2.3,59.61241201077663,
,,,,,,,,stim/Instruction_adaptive.png,conditions/adaptive.xlsx,test,0.6,0.6,0.6,-0.6,-0.6,right,R,,,,,0,1,1,1,0,24,24,86,,,,,,,,,,,,,,,,,,,,,,,,,,,,,,,,,,,,,,,,,,,,435.83830579998903,None,right,1,1.8086822999757715,436.33897250000155,438.1751334000146,436.33897250000155,437.67431229999056,436.33897250000155,437.67431229999056,436.33897250000155,437.67431229999056,436.33897250000155,437.67431229999056,436.33897250000155,437.67431229999056,437.6576907999697,438.1595336999744,437.6576907999697,438.1595336999744,437.6576907999697,438.1595336999744,437.6576907999697,438.1595336999744,437.6576907999697,438.1595336999744,437.6576907999697,438.1595336999744,437.6576907999697,438.1595336999744,437.6576907999697,438.1595336999744,436.33897250000155,None,438.1595336999744,None,1.330000000000001,439.22689950000495,None,439.9787272000103,None,,,,,,,[1.054],2.3900000000000015,0.72,11042,002,2024_Mar_17_1335,MFTM_A_new1021,2021.2.3,59.61241201077663,
,,,,,,,,stim/Instruction_adaptive.png,conditions/adaptive.xlsx,test,0.6,0.6,0.6,-0.6,-0.6,right,R,,,,,0,1,1,1,0,25,25,26,,,,,,,,,,,,,,,,,,,,,,,,,,,,,,,,,,,,,,,,,,,,440.47862179996446,None,left,0,2.0405196999781765,440.9793529000017,442.7487301999936,440.9793529000017,442.24818260001484,440.9793529000017,442.24818260001484,440.9793529000017,442.24818260001484,440.9793529000017,442.24818260001484,440.9793529000017,442.24818260001484,442.21455229999265,442.7152178999968,442.21455229999265,442.7152178999968,442.21455229999265,442.7152178999968,442.21455229999265,442.7152178999968,442.21455229999265,442.7152178999968,442.21455229999265,442.7152178999968,442.21455229999265,442.7152178999968,442.21455229999265,442.7152178999968,440.9793529000017,None,442.7152178999968,443.7835760000162,1.260000000000001,443.8001904999837,None,444.5520373000181,None,,,,,,,[1.06115385],2.1700000000000017,0.6923076923076923,11042,002,2024_Mar_17_1335,MFTM_A_new1021,2021.2.3,59.61241201077663,
,,,,,,,,stim/Instruction_adaptive.png,conditions/adaptive.xlsx,test,0.6,0.6,0.6,-0.6,-0.6,right,R,,,,,0,1,1,1,0,26,26,62,,,,,,,,,,,,,,,,,,,,,,,,,,,,,,,,,,,,,,,,,,,,445.05222299997695,None,right,1,2.2674145000055432,445.5528862999636,447.5236570999841,445.5528862999636,447.02188139996724,445.5528862999636,447.02188139996724,445.5528862999636,447.02188139996724,445.5528862999636,447.02188139996724,445.5528862999636,447.02188139996724,446.98911730002146,447.48904379998567,446.98911730002146,447.48904379998567,446.98911730002146,447.48904379998567,446.98911730002146,447.48904379998567,446.98911730002146,447.48904379998567,446.98911730002146,447.48904379998567,446.98911730002146,447.48904379998567,446.98911730002146,447.48904379998567,445.5528862999636,None,447.48904379998567,448.54068350000307,1.460000000000001,448.5574152999907,None,449.30867980001494,None,,,,,,,[[1.04]],2.2500000000000018,0.7037037037037037,11042,002,2024_Mar_17_1335,MFTM_A_new1021,2021.2.3,59.61241201077663,
,,,,,,,,stim/Instruction_adaptive.png,conditions/adaptive.xlsx,test,0.6,0.6,0.6,-0.6,-0.6,right,R,,,,,0,1,1,1,0,27,27,4,,,,,,,,,,,,,,,,,,,,,,,,,,,,,,,,,,,,,,,,,,,,449.8105307999649,None,right,1,2.1815738000441343,450.3105196999968,452.1970113000134,450.3105196999968,451.69560269999783,450.3105196999968,451.69560269999783,450.3105196999968,451.69560269999783,450.3105196999968,451.69560269999783,450.3105196999968,451.69560269999783,451.6791200999869,452.1796433000127,451.6791200999869,452.1796433000127,451.6791200999869,452.1796433000127,451.6791200999869,452.1796433000127,451.6791200999869,452.1796433000127,451.6791200999869,452.1796433000127,451.6791200999869,452.1796433000127,451.6791200999869,452.1796433000127,450.3105196999968,None,452.1796433000127,453.24901209998643,1.380000000000001,453.26458449999336,None,454.01614849996986,None,,,,,,,[1.0625],2.3200000000000016,0.7142857142857143,11042,002,2024_Mar_17_1335,MFTM_A_new1021,2021.2.3,59.61241201077663,
,,,,,,,,stim/Instruction_adaptive.png,conditions/adaptive.xlsx,test,-0.6,-0.6,-0.6,0.6,0.6,left,L,,,,,0,1,1,1,0,28,28,59,,,,,,,,,,,,,,,,,,,,,,,,,,,,,,,,,,,,,,,,,,,,454.5173603000003,None,left,1,2.25131959997816,455.01708049996523,456.83648300002096,455.01708049996523,456.33611719997134,455.01708049996523,456.33611719997134,455.01708049996523,456.33611719997134,455.01708049996523,456.33611719997134,455.01708049996523,456.33611719997134,456.31987539998954,456.8209431999712,456.31987539998954,456.8209431999712,456.31987539998954,456.8209431999712,456.31987539998954,456.8209431999712,456.31987539998954,456.8209431999712,456.31987539998954,456.8209431999712,456.31987539998954,456.8209431999712,456.31987539998954,456.8209431999712,455.01708049996523,None,456.8209431999712,457.88865360000636,1.320000000000001,457.9057808999787,None,458.6560240999679,None,,,,,,,[1.06655172],2.3900000000000015,0.7241379310344828,11042,002,2024_Mar_17_1335,MFTM_A_new1021,2021.2.3,59.61241201077663,
,,,,,,,,stim/Instruction_adaptive.png,conditions/adaptive.xlsx,test,-0.6,-0.6,-0.6,0.6,0.6,left,L,,,,,0,1,1,1,0,29,29,79,,,,,,,,,,,,,,,,,,,,,,,,,,,,,,,,,,,,,,,,,,,,459.1566437999718,None,left,1,2.6189831999945454,459.6580276999739,461.4267458000104,459.6580276999739,460.92698340001516,459.6580276999739,460.92698340001516,459.6580276999739,460.92698340001516,459.6580276999739,460.92698340001516,459.6580276999739,460.92698340001516,460.9093544000061,461.4102561000036,460.9093544000061,461.4102561000036,460.9093544000061,461.4102561000036,460.9093544000061,461.4102561000036,460.9093544000061,461.4102561000036,460.9093544000061,461.4102561000036,460.9093544000061,461.4102561000036,460.9093544000061,461.4102561000036,459.6580276999739,None,461.4102561000036,None,1.260000000000001,462.4951398000121,None,463.24673139996594,None,,,,,,,[1.07233333],2.4600000000000017,0.7333333333333333,11042,002,2024_Mar_17_1335,MFTM_A_new1021,2021.2.3,59.61241201077663,
,,,,,,,,stim/Instruction_adaptive.png,conditions/adaptive.xlsx,test,-0.6,-0.6,-0.6,0.6,0.6,left,L,,,,,0,1,1,1,0,30,30,7,,,,,,,,,,,,,,,,,,,,,,,,,,,,,,,,,,,,,,,,,,,,463.7469940999872,None,left,1,2.1959876000182703,464.2484355000197,465.95086719997926,464.2484355000197,465.45059610001044,464.2484355000197,465.45059610001044,464.2484355000197,465.45059610001044,464.2484355000197,465.45059610001044,464.2484355000197,465.45059610001044,465.43381040001987,465.9343869999866,465.43381040001987,465.9343869999866,465.43381040001987,465.9343869999866,465.43381040001987,465.9343869999866,465.43381040001987,465.9343869999866,465.43381040001987,465.9343869999866,465.43381040001987,465.9343869999866,465.43381040001987,465.9343869999866,464.2484355000197,None,465.9343869999866,467.01931170001626,1.2000000000000008,467.0359701999696,None,467.7870087000192,None,,,,,,,[1.07967742],2.520000000000002,0.7419354838709677,11042,002,2024_Mar_17_1335,MFTM_A_new1021,2021.2.3,59.61241201077663,
,,,,,,,,stim/Instruction_adaptive.png,conditions/adaptive.xlsx,test,0.6,0.6,0.6,-0.6,-0.6,right,R,,,,,0,1,1,1,0,31,31,94,,,,,,,,,,,,,,,,,,,,,,,,,,,,,,,,,,,,,,,,,,,,468.2883507999941,None,right,1,1.9925155999953859,468.78792370000156,470.4416186999879,468.78792370000156,469.94089909998,468.78792370000156,469.94089909998,468.78792370000156,469.94089909998,468.78792370000156,469.94089909998,468.78792370000156,469.94089909998,469.9239845999982,470.4240863000159,469.9239845999982,470.4240863000159,469.9239845999982,470.4240863000159,469.9239845999982,470.4240863000159,469.9239845999982,470.4240863000159,469.9239845999982,470.4240863000159,469.9239845999982,470.4240863000159,469.9239845999982,470.4240863000159,468.78792370000156,None,470.4240863000159,None,1.1500000000000008,471.52629469998647,None,472.2775690999697,None,,,,,,,[1.088125],2.570000000000002,0.75,11042,002,2024_Mar_17_1335,MFTM_A_new1021,2021.2.3,59.61241201077663,
,,,,,,,,stim/Instruction_adaptive.png,conditions/adaptive.xlsx,test,-0.6,-0.6,-0.6,0.6,0.6,left,L,,,,,0,1,1,1,0,32,32,27,,,,,,,,,,,,,,,,,,,,,,,,,,,,,,,,,,,,,,,,,,,,472.77814949996537,None,left,1,2.1265227000112645,473.2780904999818,474.89705420000246,473.2780904999818,474.3964352000039,473.2780904999818,474.3964352000039,473.2780904999818,474.3964352000039,473.2780904999818,474.3964352000039,473.2780904999818,474.3964352000039,474.36294399999315,474.86481180001283,474.36294399999315,474.86481180001283,474.36294399999315,474.86481180001283,474.36294399999315,474.86481180001283,474.36294399999315,474.86481180001283,474.36294399999315,474.86481180001283,474.36294399999315,474.86481180001283,474.36294399999315,474.86481180001283,473.2780904999818,None,474.86481180001283,475.96649349998916,1.1100000000000008,475.99912619998213,None,476.7498974999762,None,,,,,,,[1.09727273],2.6300000000000017,0.7575757575757576,11042,002,2024_Mar_17_1335,MFTM_A_new1021,2021.2.3,59.61241201077663,
,,,,,,,,stim/Instruction_adaptive.png,conditions/adaptive.xlsx,test,-0.6,-0.6,-0.6,0.6,0.6,left,L,,,,,0,1,1,1,0,33,33,29,,,,,,,,,,,,,,,,,,,,,,,,,,,,,,,,,,,,,,,,,,,,477.2508009999874,None,left,1,2.125647899985779,477.75148779997835,479.3209670999786,477.75148779997835,478.8203582999995,477.75148779997835,478.8203582999995,477.75148779997835,478.8203582999995,477.75148779997835,478.8203582999995,477.75148779997835,478.8203582999995,478.80361130001256,479.3043466999661,478.80361130001256,479.3043466999661,478.80361130001256,479.3043466999661,478.80361130001256,479.3043466999661,478.80361130001256,479.3043466999661,478.80361130001256,479.3043466999661,478.80361130001256,479.3043466999661,478.80361130001256,479.3043466999661,477.75148779997835,None,479.3043466999661,None,1.0600000000000007,480.4221303999657,None,481.17395839997334,None,,,,,,,[1.10735294],2.680000000000002,0.7647058823529411,11042,002,2024_Mar_17_1335,MFTM_A_new1021,2021.2.3,59.61241201077663,
,,,,,,,,stim/Instruction_adaptive.png,conditions/adaptive.xlsx,test,-0.6,-0.6,-0.6,0.6,0.6,left,L,,,,,0,1,1,1,0,34,34,75,,,,,,,,,,,,,,,,,,,,,,,,,,,,,,,,,,,,,,,,,,,,481.67511050001485,None,left,1,2.2872730000526644,482.1746423000004,483.71028379997006,482.1746423000004,483.2097911000019,482.1746423000004,483.2097911000019,482.1746423000004,483.2097911000019,482.1746423000004,483.2097911000019,482.1746423000004,483.2097911000019,483.19302239996614,483.69377269997494,483.19302239996614,483.69377269997494,483.19302239996614,483.69377269997494,483.19302239996614,483.69377269997494,483.19302239996614,483.69377269997494,483.19302239996614,483.69377269997494,483.19302239996614,483.69377269997494,483.19302239996614,483.69377269997494,482.1746423000004,None,483.69377269997494,484.81227220001165,1.0300000000000007,484.8287735999911,None,485.58061180001823,None,,,,,,,[1.11771429],2.730000000000002,0.7714285714285715,11042,002,2024_Mar_17_1335,MFTM_A_new1021,2021.2.3,59.61241201077663,
,,,,,,,,stim/Instruction_adaptive.png,conditions/adaptive.xlsx,test,0.6,0.6,0.6,-0.6,-0.6,right,R,,,,,0,1,1,1,0,35,35,88,,,,,,,,,,,,,,,,,,,,,,,,,,,,,,,,,,,,,,,,,,,,486.0807818999747,None,left,0,1.9030184000148438,486.58248079998884,488.08377620001556,486.58248079998884,487.5830876000109,486.58248079998884,487.5830876000109,486.58248079998884,487.5830876000109,486.58248079998884,487.5830876000109,486.58248079998884,487.5830876000109,487.54986699996516,488.0513859000057,487.54986699996516,488.0513859000057,487.54986699996516,488.0513859000057,487.54986699996516,488.0513859000057,487.54986699996516,488.0513859000057,487.54986699996516,488.0513859000057,487.54986699996516,488.0513859000057,487.54986699996516,488.0513859000057,486.58248079998884,None,488.0513859000057,489.1864084000117,0.9900000000000007,489.20186560001457,None,489.95309279998764,None,,,,,,,[1.12861111],2.5900000000000016,0.75,11042,002,2024_Mar_17_1335,MFTM_A_new1021,2021.2.3,59.61241201077663,
,,,,,,,,stim/Instruction_adaptive.png,conditions/adaptive.xlsx,test,-0.6,-0.6,-0.6,0.6,0.6,left,L,,,,,0,1,1,1,0,36,36,93,,,,,,,,,,,,,,,,,,,,,,,,,,,,,,,,,,,,,,,,,,,,490.4549526000046,None,left,1,2.5942372000426985,490.95484819996636,492.5571621999843,490.95484819996636,492.05644700000994,490.95484819996636,492.05644700000994,490.95484819996636,492.05644700000994,490.95484819996636,492.05644700000994,490.95484819996636,492.05644700000994,492.0238778999774,492.5237001000205,492.0238778999774,492.5237001000205,492.0238778999774,492.5237001000205,492.0238778999774,492.5237001000205,492.0238778999774,492.5237001000205,492.0238778999774,492.5237001000205,492.0238778999774,492.5237001000205,492.0238778999774,492.5237001000205,490.95484819996636,None,492.5237001000205,493.6598416999914,1.0900000000000007,493.6917727999971,None,494.44380559999263,None,,,,,,,[1.13621622],2.640000000000002,0.7567567567567568,11042,002,2024_Mar_17_1335,MFTM_A_new1021,2021.2.3,59.61241201077663,
,,,,,,,,stim/Instruction_adaptive.png,conditions/adaptive.xlsx,test,-0.6,-0.6,-0.6,0.6,0.6,left,L,,,,,0,1,1,1,0,37,37,15,,,,,,,,,,,,,,,,,,,,,,,,,,,,,,,,,,,,,,,,,,,,494.9448200999759,None,left,1,1.7122844000114128,495.4449863000191,497.01464429998305,495.4449863000191,496.5131027000025,495.4449863000191,496.5131027000025,495.4449863000191,496.5131027000025,495.4449863000191,496.5131027000025,495.4449863000191,496.5131027000025,496.47959980001906,496.98125899996376,496.47959980001906,496.98125899996376,496.47959980001906,496.98125899996376,496.47959980001906,496.98125899996376,496.47959980001906,496.98125899996376,496.47959980001906,496.98125899996376,496.47959980001906,496.98125899996376,496.47959980001906,496.98125899996376,495.4449863000191,None,496.98125899996376,498.1321401000023,1.0600000000000007,498.14889449998736,None,498.901074399997,None,,,,,,,[1.14421053],2.680000000000002,0.7631578947368421,11042,002,2024_Mar_17_1335,MFTM_A_new1021,2021.2.3,59.61241201077663,
,,,,,,,,stim/Instruction_adaptive.png,conditions/adaptive.xlsx,test,0.6,0.6,0.6,-0.6,-0.6,right,R,,,,,0,1,1,1,0,38,38,90,,,,,,,,,,,,,,,,,,,,,,,,,,,,,,,,,,,,,,,,,,,,499.4015821000212,None,right,1,2.016040000016801,499.90143650001846,501.437027500011,499.90143650001846,500.93754279997665,499.90143650001846,500.93754279997665,499.90143650001846,500.93754279997665,499.90143650001846,500.93754279997665,499.90143650001846,500.93754279997665,500.9205149000045,501.42068829998607,500.9205149000045,501.42068829998607,500.9205149000045,501.42068829998607,500.9205149000045,501.42068829998607,500.9205149000045,501.42068829998607,500.9205149000045,501.42068829998607,500.9205149000045,501.42068829998607,500.9205149000045,501.42068829998607,499.90143650001846,None,501.42068829998607,None,1.0300000000000007,502.5887441000086,None,503.3405683999881,None,,,,,,,[1.1525641],2.730000000000002,0.7692307692307693,11042,002,2024_Mar_17_1335,MFTM_A_new1021,2021.2.3,59.61241201077663,
,,,,,,,,stim/Instruction_adaptive.png,conditions/adaptive.xlsx,test,0.6,0.6,0.6,-0.6,-0.6,right,R,,,,,0,1,1,1,0,39,39,36,,,,,,,,,,,,,,,,,,,,,,,,,,,,,,,,,,,,,,,,,,,,503.8408225000021,None,left,0,2.1205868999822997,504.3414672999643,505.8448718999862,504.3414672999643,505.3431929000071,504.3414672999643,505.3431929000071,504.3414672999643,505.3431929000071,504.3414672999643,505.3431929000071,504.3414672999643,505.3431929000071,505.30969989998266,505.8112248000107,505.30969989998266,505.8112248000107,505.30969989998266,505.8112248000107,505.30969989998266,505.8112248000107,505.30969989998266,505.8112248000107,505.30969989998266,505.8112248000107,505.30969989998266,505.8112248000107,505.30969989998266,505.8112248000107,504.3414672999643,None,505.8112248000107,506.97935320000397,0.9900000000000007,506.99615879997145,None,507.74723380000796,None,,,,,,,[1.1615],2.600000000000002,0.75,11042,002,2024_Mar_17_1335,MFTM_A_new1021,2021.2.3,59.61241201077663,
,,,,,,,,stim/Instruction_adaptive.png,conditions/adaptive.xlsx,test,-0.6,-0.6,-0.6,0.6,0.6,left,L,,,,,0,1,1,1,0,40,40,99,,,,,,,,,,,,,,,,,,,,,,,,,,,,,,,,,,,,,,,,,,,,508.24732279998716,None,left,1,1.9135030999896117,508.74822160002077,510.3511198000051,508.74822160002077,509.8499174999888,508.74822160002077,509.8499174999888,508.74822160002077,509.8499174999888,508.74822160002077,509.8499174999888,508.74822160002077,509.8499174999888,509.81663590000244,510.31715249997796,509.81663590000244,510.31715249997796,509.81663590000244,510.31715249997796,509.81663590000244,510.31715249997796,509.81663590000244,510.31715249997796,509.81663590000244,510.31715249997796,509.81663590000244,510.31715249997796,509.81663590000244,510.31715249997796,508.74822160002077,None,510.31715249997796,511.48565839999355,1.0900000000000007,511.5188301000162,None,512.2701708999812,None,,,,,,,[1.16756098],2.650000000000002,0.7560975609756098,11042,002,2024_Mar_17_1335,MFTM_A_new1021,2021.2.3,59.61241201077663,
,,,,,,,,stim/Instruction_adaptive.png,conditions/adaptive.xlsx,test,-0.6,-0.6,-0.6,0.6,0.6,left,L,,,,,0,1,1,1,0,41,41,39,,,,,,,,,,,,,,,,,,,,,,,,,,,,,,,,,,,,,,,,,,,,512.771710800007,None,right,0,2.1184460999793373,513.271725700004,514.8246393000009,513.271725700004,514.3239811999956,513.271725700004,514.3239811999956,513.271725700004,514.3239811999956,513.271725700004,514.3239811999956,513.271725700004,514.3239811999956,514.3065683000023,514.8083191000042,514.3065683000023,514.8083191000042,514.3065683000023,514.8083191000042,514.3065683000023,514.8083191000042,514.3065683000023,514.8083191000042,514.3065683000023,514.8083191000042,514.3065683000023,514.8083191000042,514.3065683000023,514.8083191000042,513.271725700004,None,514.8083191000042,515.9932601000182,1.0500000000000007,516.0084186000167,None,516.7609913999913,None,,,,,,,[1.17428571],2.520000000000002,0.7380952380952381,11042,002,2024_Mar_17_1335,MFTM_A_new1021,2021.2.3,59.61241201077663,
,,,,,,,,stim/Instruction_adaptive.png,conditions/adaptive.xlsx,test,-0.6,-0.6,-0.6,0.6,0.6,left,L,,,,,0,1,1,1,0,42,42,49,,,,,,,,,,,,,,,,,,,,,,,,,,,,,,,,,,,,,,,,,,,,517.2622764999978,None,left,1,1.7869649000349455,517.7629434000119,519.4140501999645,517.7629434000119,518.9142914999975,517.7629434000119,518.9142914999975,517.7629434000119,518.9142914999975,517.7629434000119,518.9142914999975,517.7629434000119,518.9142914999975,518.8968242999981,519.3983635000186,518.8968242999981,519.3983635000186,518.8968242999981,519.3983635000186,518.8968242999981,519.3983635000186,518.8968242999981,519.3983635000186,518.8968242999981,519.3983635000186,518.8968242999981,519.3983635000186,518.8968242999981,519.3983635000186,517.7629434000119,None,519.3983635000186,520.5826964000007,1.1500000000000008,520.5993403000175,None,521.3511901000165,None,,,,,,,[1.17837209],2.560000000000002,0.7441860465116279,11042,002,2024_Mar_17_1335,MFTM_A_new1021,2021.2.3,59.61241201077663,
,,,,,,,,stim/Instruction_adaptive.png,conditions/adaptive.xlsx,test,0.6,0.6,0.6,-0.6,-0.6,right,R,,,,,0,1,1,1,0,43,43,50,,,,,,,,,,,,,,,,,,,,,,,,,,,,,,,,,,,,,,,,,,,,521.8512883000076,None,right,1,1.781756900018081,522.3529207999818,523.9717223999905,522.3529207999818,523.4870308999671,522.3529207999818,523.4870308999671,522.3529207999818,523.4870308999671,522.3529207999818,523.4870308999671,522.3529207999818,523.4870308999671,523.4535344999749,523.9552808000008,523.4535344999749,523.9552808000008,523.4535344999749,523.9552808000008,523.4535344999749,523.9552808000008,523.4535344999749,523.9552808000008,523.4535344999749,523.9552808000008,523.4535344999749,523.9552808000008,523.4535344999749,523.9552808000008,522.3529207999818,None,523.9552808000008,525.1402600000147,1.1200000000000008,525.1562071999651,None,525.9073255999829,None,,,,,,,[1.18295455],2.610000000000002,0.75,11042,002,2024_Mar_17_1335,MFTM_A_new1021,2021.2.3,59.61241201077663,
,,,,,,,,stim/Instruction_adaptive.png,conditions/adaptive.xlsx,test,0.6,0.6,0.6,-0.6,-0.6,right,R,,,,,0,1,1,1,0,44,44,18,,,,,,,,,,,,,,,,,,,,,,,,,,,,,,,,,,,,,,,,,,,,526.4081197999767,None,right,1,1.7770712000201456,526.9088478999911,528.4945102999918,526.9088478999911,527.9939416999696,526.9088478999911,527.9939416999696,526.9088478999911,527.9939416999696,526.9088478999911,527.9939416999696,526.9088478999911,527.9939416999696,527.9772076999652,528.4779520999873,527.9772076999652,528.4779520999873,527.9772076999652,528.4779520999873,527.9772076999652,528.4779520999873,527.9772076999652,528.4779520999873,527.9772076999652,528.4779520999873,527.9772076999652,528.4779520999873,527.9772076999652,528.4779520999873,526.9088478999911,None,528.4779520999873,None,1.0800000000000007,529.6795973000117,None,530.4306387999677,None,,,,,,,[1.18822222],2.650000000000002,0.7555555555555555,11042,002,2024_Mar_17_1335,MFTM_A_new1021,2021.2.3,59.61241201077663,
,,,,,,,,stim/Instruction_adaptive.png,conditions/adaptive.xlsx,test,0.6,0.6,0.6,-0.6,-0.6,right,R,,,,,0,1,1,1,0,45,45,42,,,,,,,,,,,,,,,,,,,,,,,,,,,,,,,,,,,,,,,,,,,,530.931599100004,None,right,1,1.2938925999915227,531.4324788000085,532.9857302000164,531.4324788000085,532.484487699985,531.4324788000085,532.484487699985,531.4324788000085,532.484487699985,531.4324788000085,532.484487699985,531.4324788000085,532.484487699985,532.4686428999994,532.967964600015,532.4686428999994,532.967964600015,532.4686428999994,532.967964600015,532.4686428999994,532.967964600015,532.4686428999994,532.967964600015,532.4686428999994,532.967964600015,532.4686428999994,532.967964600015,532.4686428999994,532.967964600015,531.4324788000085,None,532.967964600015,534.1697598000173,1.0500000000000007,534.1867860999773,None,534.9385848999955,None,,,,,,,[1.19391304],2.680000000000002,0.7608695652173914,11042,002,2024_Mar_17_1335,MFTM_A_new1021,2021.2.3,59.61241201077663,
,,,,,,,,stim/Instruction_adaptive.png,conditions/adaptive.xlsx,test,0.6,0.6,0.6,-0.6,-0.6,right,R,,,,,0,1,1,1,0,46,46,76,,,,,,,,,,,,,,,,,,,,,,,,,,,,,,,,,,,,,,,,,,,,535.4390234000166,None,left,0,2.091248699987773,535.9394669000176,537.4748759999638,535.9394669000176,536.974005099968,535.9394669000176,536.974005099968,535.9394669000176,536.974005099968,535.9394669000176,536.974005099968,535.9394669000176,536.974005099968,536.9573292999994,537.4581704000011,536.9573292999994,537.4581704000011,536.9573292999994,537.4581704000011,536.9573292999994,537.4581704000011,536.9573292999994,537.4581704000011,536.9573292999994,537.4581704000011,536.9573292999994,537.4581704000011,536.9573292999994,537.4581704000011,535.9394669000176,None,537.4581704000011,538.6600682999706,1.0300000000000007,538.6758938999847,None,539.4284828999662,None,,,,,,,[1.19978723],2.570000000000002,0.7446808510638298,11042,002,2024_Mar_17_1335,MFTM_A_new1021,2021.2.3,59.61241201077663,
,,,,,,,,stim/Instruction_adaptive.png,conditions/adaptive.xlsx,test,0.6,0.6,0.6,-0.6,-0.6,right,R,,,,,0,1,1,1,0,47,47,12,,,,,,,,,,,,,,,,,,,,,,,,,,,,,,,,,,,,,,,,,,,,539.9285481999977,None,right,1,1.329350300016813,540.4293326999759,542.0483422999969,540.4293326999759,541.5475898999721,540.4293326999759,541.5475898999721,540.4293326999759,541.5475898999721,540.4293326999759,541.5475898999721,540.4293326999759,541.5475898999721,541.5309159000171,542.0323971000034,541.5309159000171,542.0323971000034,541.5309159000171,542.0323971000034,541.5309159000171,542.0323971000034,541.5309159000171,542.0323971000034,541.5309159000171,542.0323971000034,541.5309159000171,542.0323971000034,541.5309159000171,542.0323971000034,540.4293326999759,None,542.015597599966,543.2342697000131,1.1100000000000008,543.2499925000011,None,544.001301500015,None,,,,,,,[1.20375],2.610000000000002,0.75,11042,002,2024_Mar_17_1335,MFTM_A_new1021,2021.2.3,59.61241201077663,
,,,,,,,,stim/Instruction_adaptive.png,conditions/adaptive.xlsx,test,-0.6,-0.6,-0.6,0.6,0.6,left,L,,,,,0,1,1,1,0,48,48,55,,,,,,,,,,,,,,,,,,,,,,,,,,,,,,,,,,,,,,,,,,,,544.5025562999654,None,left,1,1.88385639997432,545.0028433999978,546.5886005999637,545.0028433999978,546.0877645,545.0028433999978,546.0877645,545.0028433999978,546.0877645,545.0028433999978,546.0877645,545.0028433999978,546.0877645,546.072440799966,546.571837299969,546.072440799966,546.571837299969,546.072440799966,546.571837299969,546.072440799966,546.571837299969,546.072440799966,546.571837299969,546.072440799966,546.571837299969,546.072440799966,546.571837299969,546.072440799966,546.571837299969,545.0028433999978,None,546.571837299969,None,1.0800000000000007,547.7903074999922,None,548.5424129000166,None,,,,,,,[1.20816327],2.650000000000002,0.7551020408163265,11042,002,2024_Mar_17_1335,MFTM_A_new1021,2021.2.3,59.61241201077663,
,,,,,,,,stim/Instruction_adaptive.png,conditions/adaptive.xlsx,test,-0.6,-0.6,-0.6,0.6,0.6,left,L,,,,,0,1,1,1,0,49,49,37,,,,,,,,,,,,,,,,,,,,,,,,,,,,,,,,,,,,,,,,,,,,549.0423284000135,None,left,1,1.815995400014799,549.5429011000087,551.0961964000016,549.5429011000087,550.5944053999847,549.5429011000087,550.5944053999847,549.5429011000087,550.5944053999847,549.5429011000087,550.5944053999847,549.5429011000087,550.5944053999847,550.5786150000058,551.0792949000024,550.5786150000058,551.0792949000024,550.5786150000058,551.0792949000024,550.5786150000058,551.0792949000024,550.5786150000058,551.0792949000024,550.5786150000058,551.0792949000024,550.5786150000058,551.0792949000024,550.5786150000058,551.0792949000024,549.5429011000087,None,551.0792949000024,552.2969472999685,1.0500000000000007,552.3137726999703,None,553.064920099976,None,,,,,,,[1.213],2.680000000000002,0.76,11042,002,2024_Mar_17_1335,MFTM_A_new1021,2021.2.3,59.61241201077663,
,,,,,,,,stim/Instruction_adaptive.png,conditions/adaptive.xlsx,test,-0.6,-0.6,-0.6,0.6,0.6,left,L,,,,,0,1,1,1,0,50,50,61,,,,,,,,,,,,,,,,,,,,,,,,,,,,,,,,,,,,,,,,,,,,553.5659792000079,None,left,1,1.7794660999788903,554.0672328000073,555.6020996000152,554.0672328000073,555.1014290999738,554.0672328000073,555.1014290999738,554.0672328000073,555.1014290999738,554.0672328000073,555.1014290999738,554.0672328000073,555.1014290999738,555.0694993999787,555.5687076000031,555.0694993999787,555.5687076000031,555.0694993999787,555.5687076000031,555.0694993999787,555.5687076000031,555.0694993999787,555.5687076000031,555.0694993999787,555.5687076000031,555.0694993999787,555.5687076000031,555.0694993999787,555.5687076000031,554.0672328000073,None,555.5856388999964,556.8038943000138,1.0300000000000007,556.820466300007,None,557.5725205999915,None,,,,,,,[1.21803922],2.720000000000002,0.7647058823529411,11042,002,2024_Mar_17_1335,MFTM_A_new1021,2021.2.3,59.61241201077663,
,,,,,,,,stim/Instruction_adaptive.png,conditions/adaptive.xlsx,test,-0.6,-0.6,-0.6,0.6,0.6,left,L,,,,,0,1,1,1,0,51,51,33,,,,,,,,,,,,,,,,,,,,,,,,,,,,,,,,,,,,,,,,,,,,558.0729852999793,None,left,1,2.0734023000113666,558.5734523999854,560.0755119000096,558.5734523999854,559.5758374999859,558.5734523999854,559.5758374999859,558.5734523999854,559.5758374999859,558.5734523999854,559.5758374999859,558.5734523999854,559.5758374999859,559.5579533000127,560.0590845000115,559.5579533000127,560.0590845000115,559.5579533000127,560.0590845000115,559.5579533000127,560.0590845000115,559.5579533000127,560.0590845000115,559.5579533000127,560.0590845000115,559.5579533000127,560.0590845000115,559.5579533000127,560.0590845000115,558.5734523999854,None,560.0590845000115,561.293963700009,1.0000000000000007,561.3107446999638,None,562.062502500019,None,,,,,,,[1.22346154],2.7500000000000018,0.7692307692307693,11042,002,2024_Mar_17_1335,MFTM_A_new1021,2021.2.3,59.61241201077663,
,,,,,,,,stim/Instruction_adaptive.png,conditions/adaptive.xlsx,test,0.6,0.6,0.6,-0.6,-0.6,right,R,,,,,0,1,1,1,0,52,52,20,,,,,,,,,,,,,,,,,,,,,,,,,,,,,,,,,,,,,,,,,,,,562.5627137999982,None,right,1,1.9820774999679998,563.0650408999645,564.5498334000004,563.0650408999645,564.0490097000147,563.0650408999645,564.0490097000147,563.0650408999645,564.0490097000147,563.0650408999645,564.0490097000147,563.0650408999645,564.0490097000147,564.0316675999784,564.5330707000103,564.0316675999784,564.5330707000103,564.0316675999784,564.5330707000103,564.0316675999784,564.5330707000103,564.0316675999784,564.5330707000103,564.0316675999784,564.5330707000103,564.0316675999784,564.5330707000103,564.0316675999784,564.5330707000103,563.0650408999645,None,564.5330707000103,565.7685171000194,0.9800000000000006,565.7844310000073,None,566.535267499974,None,,,,,,,[1.2290566],2.780000000000002,0.7735849056603774,11042,002,2024_Mar_17_1335,MFTM_A_new1021,2021.2.3,59.61241201077663,
,,,,,,,,stim/Instruction_adaptive.png,conditions/adaptive.xlsx,test,-0.6,-0.6,-0.6,0.6,0.6,left,L,,,,,0,1,1,1,0,53,53,97,,,,,,,,,,,,,,,,,,,,,,,,,,,,,,,,,,,,,,,,,,,,567.0360229999642,None,left,1,1.902323600021191,567.5369040999794,569.0062111999723,567.5369040999794,568.5050025999662,567.5369040999794,568.5050025999662,567.5369040999794,568.5050025999662,567.5369040999794,568.5050025999662,567.5369040999794,568.5050025999662,568.4881625999697,568.9900842999923,568.4881625999697,568.9900842999923,568.4881625999697,568.9900842999923,568.4881625999697,568.9900842999923,568.4881625999697,568.9900842999923,568.4881625999697,568.9900842999923,568.4881625999697,568.9900842999923,568.4881625999697,568.9900842999923,567.5369040999794,None,568.9900842999923,570.2239638000028,0.9600000000000006,570.240669199964,None,570.9921614999766,None,,,,,,,[1.23481481],2.820000000000002,0.7777777777777778,11042,002,2024_Mar_17_1335,MFTM_A_new1021,2021.2.3,59.61241201077663,
,,,,,,,,stim/Instruction_adaptive.png,conditions/adaptive.xlsx,test,0.6,0.6,0.6,-0.6,-0.6,right,R,,,,,0,1,1,1,0,54,54,84,,,,,,,,,,,,,,,,,,,,,,,,,,,,,,,,,,,,,,,,,,,,571.493651399971,None,right,1,1.517922000028193,571.9940996000078,573.4288838999928,571.9940996000078,572.9292877999833,571.9940996000078,572.9292877999833,571.9940996000078,572.9292877999833,571.9940996000078,572.9292877999833,571.9940996000078,572.9292877999833,572.9125806000084,573.4122812999994,572.9125806000084,573.4122812999994,572.9125806000084,573.4122812999994,572.9125806000084,573.4122812999994,572.9125806000084,573.4122812999994,572.9125806000084,573.4122812999994,572.9125806000084,573.4122812999994,572.9125806000084,573.4122812999994,571.9940996000078,None,573.3955642000074,574.6474188999855,0.9300000000000006,574.6641344999662,None,575.416059500014,None,,,,,,,[1.24090909],2.8500000000000023,0.7818181818181819,11042,002,2024_Mar_17_1335,MFTM_A_new1021,2021.2.3,59.61241201077663,
,,,,,,,,stim/Instruction_adaptive.png,conditions/adaptive.xlsx,test,-0.6,-0.6,-0.6,0.6,0.6,left,L,,,,,0,1,1,1,0,55,55,95,,,,,,,,,,,,,,,,,,,,,,,,,,,,,,,,,,,,,,,,,,,,575.9171253999812,None,left,1,1.741526200028602,576.418011199974,577.8364820000133,576.418011199974,577.3349532000138,576.418011199974,577.3349532000138,576.418011199974,577.3349532000138,576.418011199974,577.3349532000138,576.418011199974,577.3349532000138,577.3014886999736,577.8020999999717,577.3014886999736,577.8020999999717,577.3014886999736,577.8020999999717,577.3014886999736,577.8020999999717,577.3014886999736,577.8020999999717,577.3014886999736,577.8020999999717,577.3014886999736,577.8020999999717,577.3014886999736,577.8020999999717,576.418011199974,None,577.8020999999717,579.0538699000026,0.9100000000000006,579.0873506999924,None,579.839191099978,None,,,,,,,[1.24714286],2.880000000000002,0.7857142857142857,11042,002,2024_Mar_17_1335,MFTM_A_new1021,2021.2.3,59.61241201077663,
,,,,,,,,stim/Instruction_adaptive.png,conditions/adaptive.xlsx,test,-0.6,-0.6,-0.6,0.6,0.6,left,L,,,,,0,1,1,1,0,56,56,45,,,,,,,,,,,,,,,,,,,,,,,,,,,,,,,,,,,,,,,,,,,,580.3393002999946,None,left,1,1.9350832999916747,580.8409691000124,582.243124999979,580.8409691000124,581.7422451999737,580.8409691000124,581.7422451999737,580.8409691000124,581.7422451999737,580.8409691000124,581.7422451999737,580.8409691000124,581.7422451999737,581.7081531999866,582.2091428000131,581.7081531999866,582.2091428000131,581.7081531999866,582.2091428000131,581.7081531999866,582.2091428000131,581.7081531999866,582.2091428000131,581.7081531999866,582.2091428000131,581.7081531999866,582.2091428000131,581.7081531999866,582.2091428000131,580.8409691000124,None,582.2091428000131,583.4787644000025,0.8900000000000006,583.4946605999721,None,584.2453397999634,None,,,,,,,[1.25350877],2.900000000000002,0.7894736842105263,11042,002,2024_Mar_17_1335,MFTM_A_new1021,2021.2.3,59.61241201077663,
,,,,,,,,stim/Instruction_adaptive.png,conditions/adaptive.xlsx,test,0.6,0.6,0.6,-0.6,-0.6,right,R,,,,,0,1,1,1,0,57,57,58,,,,,,,,,,,,,,,,,,,,,,,,,,,,,,,,,,,,,,,,,,,,584.7471772999852,None,right,1,1.992207400035113,585.2475168000092,586.632881700003,585.2475168000092,586.1315080000204,585.2475168000092,586.1315080000204,585.2475168000092,586.1315080000204,585.2475168000092,586.1315080000204,585.2475168000092,586.1315080000204,586.1149159999914,586.6168177999789,586.1149159999914,586.6168177999789,586.1149159999914,586.6168177999789,586.1149159999914,586.6168177999789,586.1149159999914,586.6168177999789,586.1149159999914,586.6168177999789,586.1149159999914,586.6168177999789,586.1149159999914,586.6168177999789,585.2475168000092,None,586.6168177999789,587.8854391999776,0.8800000000000006,587.900986899971,None,588.6518617999973,None,,,,,,,[1.25982759],2.9300000000000024,0.7931034482758621,11042,002,2024_Mar_17_1335,MFTM_A_new1021,2021.2.3,59.61241201077663,
,,,,,,,,stim/Instruction_adaptive.png,conditions/adaptive.xlsx,test,-0.6,-0.6,-0.6,0.6,0.6,left,L,,,,,0,1,1,1,0,58,58,25,,,,,,,,,,,,,,,,,,,,,,,,,,,,,,,,,,,,,,,,,,,,589.1531582999742,None,left,1,1.6025876000057906,589.6532515999861,591.0222281999886,589.6532515999861,590.5224502999918,589.6532515999861,590.5224502999918,589.6532515999861,590.5224502999918,589.6532515999861,590.5224502999918,589.6532515999861,590.5224502999918,590.488538399979,590.9887375999824,590.488538399979,590.9887375999824,590.488538399979,590.9887375999824,590.488538399979,590.9887375999824,590.488538399979,590.9887375999824,590.488538399979,590.9887375999824,590.488538399979,590.9887375999824,590.488538399979,590.9887375999824,589.6532515999861,None,590.9887375999824,592.2572761999909,0.8600000000000005,592.2906145000015,None,593.0426440999727,None,,,,,,,[1.26627119],2.960000000000002,0.7966101694915254,11042,002,2024_Mar_17_1335,MFTM_A_new1021,2021.2.3,59.61241201077663,
,,,,,,,,stim/Instruction_adaptive.png,conditions/adaptive.xlsx,test,-0.6,-0.6,-0.6,0.6,0.6,left,L,,,,,0,1,1,1,0,59,59,9,,,,,,,,,,,,,,,,,,,,,,,,,,,,,,,,,,,,,,,,,,,,593.5424753999687,None,left,1,1.828716500021983,594.0432393999654,595.3975719999871,594.0432393999654,594.8946570999688,594.0432393999654,594.8946570999688,594.0432393999654,594.8946570999688,594.0432393999654,594.8946570999688,594.0432393999654,594.8946570999688,594.8780245999806,595.3788285999908,594.8780245999806,595.3788285999908,594.8780245999806,595.3788285999908,594.8780245999806,595.3788285999908,594.8780245999806,595.3788285999908,594.8780245999806,595.3788285999908,594.8780245999806,595.3788285999908,594.8780245999806,595.3788285999908,594.0432393999654,None,595.3788285999908,596.6640067999833,0.8500000000000005,596.6807909000199,None,597.43246609997,None,,,,,,,[1.27266667],2.990000000000002,0.8,11042,002,2024_Mar_17_1335,MFTM_A_new1021,2021.2.3,59.61241201077663,
,,,,,,,,stim/Instruction_adaptive.png,conditions/adaptive.xlsx,test,-0.6,-0.6,-0.6,0.6,0.6,left,L,,,,,0,1,1,1,0,60,60,69,,,,,,,,,,,,,,,,,,,,,,,,,,,,,,,,,,,,,,,,,,,,597.9325077999965,None,right,0,1.92592790001072,598.4340893999906,599.7693946000072,598.4340893999906,599.2679919999791,598.4340893999906,599.2679919999791,598.4340893999906,599.2679919999791,598.4340893999906,599.2679919999791,598.4340893999906,599.2679919999791,599.2513902999926,599.7520516999648,599.2513902999926,599.7520516999648,599.2513902999926,599.7520516999648,599.2513902999926,599.7520516999648,599.2513902999926,599.7520516999648,599.2513902999926,599.7520516999648,599.2513902999926,599.7520516999648,599.2513902999926,599.7520516999648,598.4340893999906,None,599.7520516999648,601.0371032999828,0.8300000000000005,601.0551638000179,None,601.805149199965,None,,,,,,,[1.27918033],2.910000000000002,0.7868852459016393,11042,002,2024_Mar_17_1335,MFTM_A_new1021,2021.2.3,59.61241201077663,
,,,,,,,,stim/Instruction_adaptive.png,conditions/adaptive.xlsx,test,-0.6,-0.6,-0.6,0.6,0.6,left,L,,,,,0,1,1,1,0,61,61,11,,,,,,,,,,,,,,,,,,,,,,,,,,,,,,,,,,,,,,,,,,,,602.3058823000174,None,left,1,1.6568782000103965,602.8073357999674,604.1929973000078,602.8073357999674,603.6921007999917,602.8073357999674,603.6921007999917,602.8073357999674,603.6921007999917,602.8073357999674,603.6921007999917,602.8073357999674,603.6921007999917,603.6745991000207,604.1762811999652,603.6745991000207,604.1762811999652,603.6745991000207,604.1762811999652,603.6745991000207,604.1762811999652,603.6745991000207,604.1762811999652,603.6745991000207,604.1762811999652,603.6745991000207,604.1762811999652,603.6745991000207,604.1762811999652,602.8073357999674,None,604.1762811999652,605.4605575000169,0.8800000000000006,605.4771976000047,None,606.2287420000066,None,,,,,,,[1.28467742],2.940000000000002,0.7903225806451613,11042,002,2024_Mar_17_1335,MFTM_A_new1021,2021.2.3,59.61241201077663,
,,,,,,,,stim/Instruction_adaptive.png,conditions/adaptive.xlsx,test,-0.6,-0.6,-0.6,0.6,0.6,left,L,,,,,0,1,1,1,0,62,62,65,,,,,,,,,,,,,,,,,,,,,,,,,,,,,,,,,,,,,,,,,,,,606.7292646999704,None,right,0,1.9614703999832273,607.2308247999754,608.5986911999644,607.2308247999754,608.0984696999658,607.2308247999754,608.0984696999658,607.2308247999754,608.0984696999658,607.2308247999754,608.0984696999658,607.2308247999754,608.0984696999658,608.0649774000049,608.5652835000074,608.0649774000049,608.5652835000074,608.0649774000049,608.5652835000074,608.0649774000049,608.5652835000074,608.0649774000049,608.5652835000074,608.0649774000049,608.5652835000074,608.0649774000049,608.5652835000074,608.0649774000049,608.5652835000074,607.2308247999754,None,608.5652835000074,609.8685519999708,0.8600000000000005,609.8841331999865,None,610.6357014999958,None,,,,,,,[1.29031746],2.860000000000002,0.7777777777777778,11042,002,2024_Mar_17_1335,MFTM_A_new1021,2021.2.3,59.61241201077663,
,,,,,,,,stim/Instruction_adaptive.png,conditions/adaptive.xlsx,test,0.6,0.6,0.6,-0.6,-0.6,right,R,,,,,0,1,1,1,0,63,63,22,,,,,,,,,,,,,,,,,,,,,,,,,,,,,,,,,,,,,,,,,,,,611.1366651999997,None,left,0,1.6197025000001304,611.6365973000065,613.0554465000168,611.6365973000065,612.5551664999803,611.6365973000065,612.5551664999803,611.6365973000065,612.5551664999803,611.6365973000065,612.5551664999803,611.6365973000065,612.5551664999803,612.521967299981,613.0225323999766,612.521967299981,613.0225323999766,612.521967299981,613.0225323999766,612.521967299981,613.0225323999766,612.521967299981,613.0225323999766,612.521967299981,613.0225323999766,612.521967299981,613.0225323999766,612.521967299981,613.0225323999766,611.6365973000065,None,613.0225323999766,614.3256302999798,0.9100000000000006,614.3405506999698,None,615.0919701000093,None,,,,,,,[1.295],2.780000000000002,0.765625,11042,002,2024_Mar_17_1335,MFTM_A_new1021,2021.2.3,59.61241201077663,
,,,,,,,,stim/Instruction_adaptive.png,conditions/adaptive.xlsx,test,-0.6,-0.6,-0.6,0.6,0.6,left,L,,,,,0,1,1,1,0,64,64,53,,,,,,,,,,,,,,,,,,,,,,,,,,,,,,,,,,,,,,,,,,,,615.5930587999756,None,left,1,1.9237868000054732,616.093058599974,617.5623339000158,616.093058599974,617.062148099998,616.093058599974,617.062148099998,616.093058599974,617.062148099998,616.093058599974,617.062148099998,616.093058599974,617.062148099998,617.0459403999848,617.5453999000019,617.0459403999848,617.5453999000019,617.0459403999848,617.5453999000019,617.0459403999848,617.5453999000019,617.0459403999848,617.5453999000019,617.0459403999848,617.5453999000019,617.0459403999848,617.5453999000019,617.0459403999848,617.5453999000019,616.093058599974,None,617.5453999000019,618.8472083999659,0.9600000000000006,618.863976099994,None,619.6155947999796,None,,,,,,,[1.29876923],2.8100000000000023,0.7692307692307693,11042,002,2024_Mar_17_1335,MFTM_A_new1021,2021.2.3,59.61241201077663,
,,,,,,,,stim/Instruction_adaptive.png,conditions/adaptive.xlsx,test,0.6,0.6,0.6,-0.6,-0.6,right,R,,,,,0,1,1,1,0,65,65,24,,,,,,,,,,,,,,,,,,,,,,,,,,,,,,,,,,,,,,,,,,,,620.1159728000057,None,right,1,2.0241335000027902,620.6167809999897,622.0696948000113,620.6167809999897,621.5681080999784,620.6167809999897,621.5681080999784,620.6167809999897,621.5681080999784,620.6167809999897,621.5681080999784,620.6167809999897,621.5681080999784,621.5361060000141,622.0364293999737,621.5361060000141,622.0364293999737,621.5361060000141,622.0364293999737,621.5361060000141,622.0364293999737,621.5361060000141,622.0364293999737,621.5361060000141,622.0364293999737,621.5361060000141,622.0364293999737,621.5361060000141,622.0364293999737,620.6167809999897,None,622.0364293999737,623.3547873999923,0.9400000000000006,623.3716136000003,None,624.1224434999749,None,,,,,,,[1.30272727],2.830000000000002,0.7727272727272727,11042,002,2024_Mar_17_1335,MFTM_A_new1021,2021.2.3,59.61241201077663,
,,,,,,,,stim/Instruction_adaptive.png,conditions/adaptive.xlsx,test,-0.6,-0.6,-0.6,0.6,0.6,left,L,,,,,0,1,1,1,0,66,66,83,,,,,,,,,,,,,,,,,,,,,,,,,,,,,,,,,,,,,,,,,,,,624.6235776999965,None,left,1,2.1971951000159606,625.1235392999952,626.5613993000006,625.1235392999952,626.0582664000103,625.1235392999952,626.0582664000103,625.1235392999952,626.0582664000103,625.1235392999952,626.0582664000103,625.1235392999952,626.0582664000103,626.0415340000181,626.5423279000097,626.0415340000181,626.5423279000097,626.0415340000181,626.5423279000097,626.0415340000181,626.5423279000097,626.0415340000181,626.5423279000097,626.0415340000181,626.5423279000097,626.0415340000181,626.5423279000097,626.0415340000181,626.5423279000097,625.1235392999952,None,626.5423279000097,None,0.9300000000000006,627.8615354999783,None,628.6120835000183,None,,,,,,,[1.30671642],2.860000000000002,0.7761194029850746,11042,002,2024_Mar_17_1335,MFTM_A_new1021,2021.2.3,59.61241201077663,
,,,,,,,,stim/Instruction_adaptive.png,conditions/adaptive.xlsx,test,0.6,0.6,0.6,-0.6,-0.6,right,R,,,,,0,1,1,1,0,67,67,46,,,,,,,,,,,,,,,,,,,,,,,,,,,,,,,,,,,,,,,,,,,,629.1138706000056,None,left,0,2.2750702999765053,629.6137574000168,631.0333712999709,629.6137574000168,630.5326816000161,629.6137574000168,630.5326816000161,629.6137574000168,630.5326816000161,629.6137574000168,630.5326816000161,629.6137574000168,630.5326816000161,630.4994251999888,631.000510599988,630.4994251999888,631.000510599988,630.4994251999888,631.000510599988,630.4994251999888,631.000510599988,630.4994251999888,631.000510599988,630.4994251999888,631.000510599988,630.4994251999888,631.000510599988,630.4994251999888,631.000510599988,629.6137574000168,None,631.000510599988,632.31767389999,0.9100000000000006,632.3344844999956,None,633.0860621000174,None,,,,,,,[1.31088235],2.780000000000002,0.7647058823529411,11042,002,2024_Mar_17_1335,MFTM_A_new1021,2021.2.3,59.61241201077663,
,,,,,,,,stim/Instruction_adaptive.png,conditions/adaptive.xlsx,test,-0.6,-0.6,-0.6,0.6,0.6,left,L,,,,,0,1,1,1,0,68,68,89,,,,,,,,,,,,,,,,,,,,,,,,,,,,,,,,,,,,,,,,,,,,633.5870430999785,None,left,1,1.9058714999700896,634.0871287999908,635.5559760999749,634.0871287999908,635.0552003000048,634.0871287999908,635.0552003000048,634.0871287999908,635.0552003000048,634.0871287999908,635.0552003000048,634.0871287999908,635.0552003000048,635.0219597999821,635.5224716999801,635.0219597999821,635.5224716999801,635.0219597999821,635.5224716999801,635.0219597999821,635.5224716999801,635.0219597999821,635.5224716999801,635.0219597999821,635.5224716999801,635.0219597999821,635.5224716999801,635.0219597999821,635.5224716999801,634.0871287999908,None,635.5224716999801,636.8410858999705,0.9600000000000006,636.8745517000207,None,637.6257842999767,None,,,,,,,[1.3142029],2.8100000000000023,0.7681159420289855,11042,002,2024_Mar_17_1335,MFTM_A_new1021,2021.2.3,59.61241201077663,
,,,,,,,,stim/Instruction_adaptive.png,conditions/adaptive.xlsx,test,-0.6,-0.6,-0.6,0.6,0.6,left,L,,,,,0,1,1,1,0,69,69,35,,,,,,,,,,,,,,,,,,,,,,,,,,,,,,,,,,,,,,,,,,,,638.1264444999979,None,left,1,1.8703156999545172,638.6270571000059,640.0795614999952,638.6270571000059,639.5795876000193,638.6270571000059,639.5795876000193,638.6270571000059,639.5795876000193,638.6270571000059,639.5795876000193,638.6270571000059,639.5795876000193,639.5452557000099,640.0461438000202,639.5452557000099,640.0461438000202,639.5452557000099,640.0461438000202,639.5452557000099,640.0461438000202,639.5452557000099,640.0461438000202,639.5452557000099,640.0461438000202,639.5452557000099,640.0461438000202,639.5452557000099,640.0461438000202,638.6270571000059,None,640.0461438000202,641.3647906999686,0.9400000000000006,641.3981863000081,None,642.149245699984,None,,,,,,,[1.31771429],2.830000000000002,0.7714285714285715,11042,002,2024_Mar_17_1335,MFTM_A_new1021,2021.2.3,59.61241201077663,
,,,,,,,,stim/Instruction_adaptive.png,conditions/adaptive.xlsx,test,0.6,0.6,0.6,-0.6,-0.6,right,R,,,,,0,1,1,1,0,70,70,52,,,,,,,,,,,,,,,,,,,,,,,,,,,,,,,,,,,,,,,,,,,,642.6507443999872,None,right,1,2.0264462999766693,643.1508132999879,644.5869846999994,643.1508132999879,644.0855828999775,643.1508132999879,644.0855828999775,643.1508132999879,644.0855828999775,643.1508132999879,644.0855828999775,643.1508132999879,644.0855828999775,644.0698343999684,644.5695560000022,644.0698343999684,644.5695560000022,644.0698343999684,644.5695560000022,644.0698343999684,644.5695560000022,644.0698343999684,644.5695560000022,644.0698343999684,644.5695560000022,644.0698343999684,644.5695560000022,644.0698343999684,644.5695560000022,643.1508132999879,None,644.5695560000022,None,0.9300000000000006,645.9048696999671,None,646.6567901999806,None,,,,,,,[1.32126761],2.860000000000002,0.7746478873239436,11042,002,2024_Mar_17_1335,MFTM_A_new1021,2021.2.3,59.61241201077663,
,,,,,,,,stim/Instruction_adaptive.png,conditions/adaptive.xlsx,test,-0.6,-0.6,-0.6,0.6,0.6,left,L,,,,,0,1,1,1,0,71,71,19,,,,,,,,,,,,,,,,,,,,,,,,,,,,,,,,,,,,,,,,,,,,647.1566758999834,None,right,0,2.127221799979452,647.6581404000171,649.0762302000076,647.6581404000171,648.5756589999655,647.6581404000171,648.5756589999655,647.6581404000171,648.5756589999655,647.6581404000171,648.5756589999655,647.6581404000171,648.5756589999655,648.5420819999999,649.0431213999982,648.5420819999999,649.0431213999982,648.5420819999999,649.0431213999982,648.5420819999999,649.0431213999982,648.5420819999999,649.0431213999982,648.5420819999999,649.0431213999982,648.5420819999999,649.0431213999982,648.5420819999999,649.0431213999982,647.6581404000171,None,649.0431213999982,650.3786565000191,0.9100000000000006,650.3943032000097,None,651.1461601000046,None,,,,,,,[1.325],2.790000000000002,0.7638888888888888,11042,002,2024_Mar_17_1335,MFTM_A_new1021,2021.2.3,59.61241201077663,
,,,,,,,,stim/Instruction_adaptive.png,conditions/adaptive.xlsx,test,-0.6,-0.6,-0.6,0.6,0.6,left,L,,,,,0,1,1,1,0,72,72,41,,,,,,,,,,,,,,,,,,,,,,,,,,,,,,,,,,,,,,,,,,,,651.6477360000135,None,left,1,1.9262568000121973,652.1476340999943,653.6004019000102,652.1476340999943,653.0992244000081,652.1476340999943,653.0992244000081,652.1476340999943,653.0992244000081,652.1476340999943,653.0992244000081,652.1476340999943,653.0992244000081,653.0824725999846,653.5838467999711,653.0824725999846,653.5838467999711,653.0824725999846,653.5838467999711,653.0824725999846,653.5838467999711,653.0824725999846,653.5838467999711,653.0824725999846,653.5838467999711,653.0824725999846,653.5838467999711,653.0824725999846,653.5838467999711,652.1476340999943,None,653.5838467999711,654.9185647999984,0.9500000000000006,654.9352633999661,None,655.6860874000122,None,,,,,,,[1.32808219],2.8100000000000023,0.7671232876712328,11042,002,2024_Mar_17_1335,MFTM_A_new1021,2021.2.3,59.61241201077663,
,,,,,,,,stim/Instruction_adaptive.png,conditions/adaptive.xlsx,test,-0.6,-0.6,-0.6,0.6,0.6,left,L,,,,,0,1,1,1,0,73,73,21,,,,,,,,,,,,,,,,,,,,,,,,,,,,,,,,,,,,,,,,,,,,656.1869671000168,None,left,1,1.6661706999875605,656.688002299983,658.1401762000169,656.688002299983,657.6401351999957,656.688002299983,657.6401351999957,656.688002299983,657.6401351999957,656.688002299983,657.6401351999957,656.688002299983,657.6401351999957,657.6068182999734,658.1066613000003,657.6068182999734,658.1066613000003,657.6068182999734,658.1066613000003,657.6068182999734,658.1066613000003,657.6068182999734,658.1066613000003,657.6068182999734,658.1066613000003,657.6068182999734,658.1066613000003,657.6068182999734,658.1066613000003,656.688002299983,None,658.1066613000003,659.441848699993,0.9400000000000006,659.4589319999795,None,660.2098257999751,None,,,,,,,[1.33121622],2.830000000000002,0.7702702702702703,11042,002,2024_Mar_17_1335,MFTM_A_new1021,2021.2.3,59.61241201077663,
,,,,,,,,stim/Instruction_adaptive.png,conditions/adaptive.xlsx,test,0.6,0.6,0.6,-0.6,-0.6,right,R,,,,,0,1,1,1,0,74,74,54,,,,,,,,,,,,,,,,,,,,,,,,,,,,,,,,,,,,,,,,,,,,660.7104300999781,None,right,1,2.2623824999900535,661.2113069000188,662.6468838999863,661.2113069000188,662.1460161000141,661.2113069000188,662.1460161000141,661.2113069000188,662.1460161000141,661.2113069000188,662.1460161000141,661.2113069000188,662.1460161000141,662.1293182999943,662.6303205000004,662.1293182999943,662.6303205000004,662.1293182999943,662.6303205000004,662.1293182999943,662.6303205000004,662.1293182999943,662.6303205000004,662.1293182999943,662.6303205000004,662.1293182999943,662.6303205000004,662.1293182999943,662.6303205000004,661.2113069000188,None,662.6303205000004,663.9654023000039,0.9300000000000006,663.9821927999728,None,664.7335513000144,None,,,,,,,[1.3344],2.860000000000002,0.7733333333333333,11042,002,2024_Mar_17_1335,MFTM_A_new1021,2021.2.3,59.61241201077663,
,,,,,,,,stim/Instruction_adaptive.png,conditions/adaptive.xlsx,test,0.6,0.6,0.6,-0.6,-0.6,right,R,,,,,0,1,1,1,0,75,75,32,,,,,,,,,,,,,,,,,,,,,,,,,,,,,,,,,,,,,,,,,,,,665.2348235999816,None,left,0,2.0427359999739565,665.7348828999675,667.1544297999935,665.7348828999675,666.6531780000078,665.7348828999675,666.6531780000078,665.7348828999675,666.6531780000078,665.7348828999675,666.6531780000078,665.7348828999675,666.6531780000078,666.6194540999713,667.1208492000005,666.6194540999713,667.1208492000005,666.6194540999713,667.1208492000005,666.6194540999713,667.1208492000005,666.6194540999713,667.1208492000005,666.6194540999713,667.1208492000005,666.6194540999713,667.1208492000005,666.6194540999713,667.1208492000005,665.7348828999675,None,667.1208492000005,668.4721613000147,0.9100000000000006,668.4891971999896,None,669.240146199998,None,,,,,,,[1.33776316],2.790000000000002,0.7631578947368421,11042,002,2024_Mar_17_1335,MFTM_A_new1021,2021.2.3,59.61241201077663,
,,,,,,,,stim/Instruction_adaptive.png,conditions/adaptive.xlsx,test,0.6,0.6,0.6,-0.6,-0.6,right,R,,,,,0,1,1,1,0,76,76,16,,,,,,,,,,,,,,,,,,,,,,,,,,,,,,,,,,,,,,,,,,,,669.7407543999725,None,right,1,1.3765941999736242,670.2415050999844,671.69465640001,670.2415050999844,671.1930525000207,670.2415050999844,671.1930525000207,670.2415050999844,671.1930525000207,670.2415050999844,671.1930525000207,670.2415050999844,671.1930525000207,671.1762499000179,671.6779528000043,671.1762499000179,671.6779528000043,671.1762499000179,671.6779528000043,671.1762499000179,671.6779528000043,671.1762499000179,671.6779528000043,671.1762499000179,671.6779528000043,671.1762499000179,671.6779528000043,671.1762499000179,671.6779528000043,670.2415050999844,None,671.6779528000043,673.0305514999782,0.9500000000000006,673.0454666999867,None,673.7973778999876,None,,,,,,,[1.34051948],2.8100000000000023,0.7662337662337663,11042,002,2024_Mar_17_1335,MFTM_A_new1021,2021.2.3,59.61241201077663,
,,,,,,,,stim/Instruction_adaptive.png,conditions/adaptive.xlsx,test,0.6,0.6,0.6,-0.6,-0.6,right,R,,,,,0,1,1,1,0,77,77,40,,,,,,,,,,,,,,,,,,,,,,,,,,,,,,,,,,,,,,,,,,,,674.2983660000027,None,right,1,1.4117148999939673,674.7984769999748,676.2514112999779,674.7984769999748,675.7498779000016,674.7984769999748,675.7498779000016,674.7984769999748,675.7498779000016,674.7984769999748,675.7498779000016,674.7984769999748,675.7498779000016,675.7173081999645,676.2173014999717,675.7173081999645,676.2173014999717,675.7173081999645,676.2173014999717,675.7173081999645,676.2173014999717,675.7173081999645,676.2173014999717,675.7173081999645,676.2173014999717,675.7173081999645,676.2173014999717,675.7173081999645,676.2173014999717,674.7984769999748,None,676.2173014999717,677.5695270000142,0.9400000000000006,677.5860105999745,None,678.3369985999889,None,,,,,,,[1.34333333],2.840000000000002,0.7692307692307693,11042,002,2024_Mar_17_1335,MFTM_A_new1021,2021.2.3,59.61241201077663,
,,,,,,,,stim/Instruction_adaptive.png,conditions/adaptive.xlsx,test,0.6,0.6,0.6,-0.6,-0.6,right,R,,,,,0,1,1,1,0,78,78,66,,,,,,,,,,,,,,,,,,,,,,,,,,,,,,,,,,,,,,,,,,,,678.8387591000064,None,left,0,1.9203377999947406,679.3386409999803,680.7741517999675,679.3386409999803,680.2732953999657,679.3386409999803,680.2732953999657,679.3386409999803,680.2732953999657,679.3386409999803,680.2732953999657,679.3386409999803,680.2732953999657,680.240804400004,680.7406348999939,680.240804400004,680.7406348999939,680.240804400004,680.7406348999939,680.240804400004,680.7406348999939,680.240804400004,680.7406348999939,680.240804400004,680.7406348999939,680.240804400004,680.7406348999939,680.240804400004,680.7406348999939,679.3386409999803,None,680.7406348999939,682.09343790001,0.9200000000000006,682.109209999966,None,682.8607372000115,None,,,,,,,[1.34632911],2.7700000000000022,0.759493670886076,11042,002,2024_Mar_17_1335,MFTM_A_new1021,2021.2.3,59.61241201077663,
,,,,,,,,stim/Instruction_adaptive.png,conditions/adaptive.xlsx,test,0.6,0.6,0.6,-0.6,-0.6,right,R,,,,,0,1,1,1,0,79,79,38,,,,,,,,,,,,,,,,,,,,,,,,,,,,,,,,,,,,,,,,,,,,683.3622057000175,None,right,1,1.9077624999918044,683.8627297999919,685.3310337999719,683.8627297999919,684.831202899979,683.8627297999919,684.831202899979,683.8627297999919,684.831202899979,683.8627297999919,684.831202899979,683.8627297999919,684.831202899979,684.8135935000028,685.3142941999831,684.8135935000028,685.3142941999831,684.8135935000028,685.3142941999831,684.8135935000028,685.3142941999831,684.8135935000028,685.3142941999831,684.8135935000028,685.3142941999831,684.8135935000028,685.3142941999831,684.8135935000028,685.3142941999831,683.8627297999919,None,685.3142941999831,686.6664374999818,0.9600000000000006,686.6830273999949,None,687.4348549999995,None,,,,,,,[1.34875],2.790000000000002,0.7625,11042,002,2024_Mar_17_1335,MFTM_A_new1021,2021.2.3,59.61241201077663,
,,,,,,,,stim/Instruction_adaptive.png,conditions/adaptive.xlsx,test,-0.6,-0.6,-0.6,0.6,0.6,left,L,,,,,0,1,1,1,0,80,80,17,,,,,,,,,,,,,,,,,,,,,,,,,,,,,,,,,,,,,,,,,,,,687.9352133999928,None,left,1,1.9108466999605298,688.435667200014,689.8884810999734,688.435667200014,689.3872106000199,688.435667200014,689.3872106000199,688.435667200014,689.3872106000199,688.435667200014,689.3872106000199,688.435667200014,689.3872106000199,689.3704486999777,689.8720508000115,689.3704486999777,689.8720508000115,689.3704486999777,689.8720508000115,689.3704486999777,689.8720508000115,689.3704486999777,689.8720508000115,689.3704486999777,689.8720508000115,689.3704486999777,689.8720508000115,689.3704486999777,689.8720508000115,688.435667200014,None,689.8720508000115,691.2232604000019,0.9500000000000006,691.2400036000181,None,691.9919471999747,None,,,,,,,[1.35123457],2.8100000000000023,0.7654320987654321,11042,002,2024_Mar_17_1335,MFTM_A_new1021,2021.2.3,59.61241201077663,
,,,,,,,,stim/Instruction_adaptive.png,conditions/adaptive.xlsx,test,0.6,0.6,0.6,-0.6,-0.6,right,R,,,,,0,1,1,1,0,81,81,72,,,,,,,,,,,,,,,,,,,,,,,,,,,,,,,,,,,,,,,,,,,,692.4916987000033,None,left,0,2.026028199994471,692.9927352999803,694.4457029000041,692.9927352999803,693.9441316999728,692.9927352999803,693.9441316999728,692.9927352999803,693.9441316999728,692.9927352999803,693.9441316999728,692.9927352999803,693.9441316999728,693.9112265000003,694.4122961999965,693.9112265000003,694.4122961999965,693.9112265000003,694.4122961999965,693.9112265000003,694.4122961999965,693.9112265000003,694.4122961999965,693.9112265000003,694.4122961999965,693.9112265000003,694.4122961999965,693.9112265000003,694.4122961999965,692.9927352999803,None,694.4122961999965,695.7810585999978,0.9400000000000006,695.7962423000135,None,696.548926599964,None,,,,,,,[1.35378049],2.7500000000000018,0.7560975609756098,11042,002,2024_Mar_17_1335,MFTM_A_new1021,2021.2.3,59.61241201077663,
,,,,,,,,stim/Instruction_adaptive.png,conditions/adaptive.xlsx,test,0.6,0.6,0.6,-0.6,-0.6,right,R,,,,,0,1,1,1,0,82,82,2,,,,,,,,,,,,,,,,,,,,,,,,,,,,,,,,,,,,,,,,,,,,697.0485546999844,None,right,1,2.0041685000178404,697.5503841000027,699.0348209000076,697.5503841000027,698.5341705000028,697.5503841000027,698.5341705000028,697.5503841000027,698.5341705000028,697.5503841000027,698.5341705000028,697.5503841000027,698.5341705000028,698.5185022999649,699.0181104000076,698.5185022999649,699.0181104000076,698.5185022999649,699.0181104000076,698.5185022999649,699.0181104000076,698.5185022999649,699.0181104000076,698.5185022999649,699.0181104000076,698.5185022999649,699.0181104000076,698.5185022999649,699.0181104000076,697.5503841000027,None,699.0181104000076,None,0.9800000000000006,700.3864572999883,None,701.1391763999709,None,,,,,,,[1.35578313],2.7700000000000022,0.7590361445783133,11042,002,2024_Mar_17_1335,MFTM_A_new1021,2021.2.3,59.61241201077663,
,,,,,,,,stim/Instruction_adaptive.png,conditions/adaptive.xlsx,test,0.6,0.6,0.6,-0.6,-0.6,right,R,,,,,0,1,1,1,0,83,83,56,,,,,,,,,,,,,,,,,,,,,,,,,,,,,,,,,,,,,,,,,,,,701.6397177000181,None,right,1,1.4470731999608688,702.1397511999821,703.6095945999841,702.1397511999821,703.1082998000202,702.1397511999821,703.1082998000202,702.1397511999821,703.1082998000202,702.1397511999821,703.1082998000202,702.1397511999821,703.1082998000202,703.0910551999696,703.5916987999808,703.0910551999696,703.5916987999808,703.0910551999696,703.5916987999808,703.0910551999696,703.5916987999808,703.0910551999696,703.5916987999808,703.0910551999696,703.5916987999808,703.0910551999696,703.5916987999808,703.0910551999696,703.5916987999808,702.1397511999821,None,703.5752767999656,704.9438126999885,0.9600000000000006,704.9613148999633,None,705.7125380999641,None,,,,,,,[1.35797619],2.790000000000002,0.7619047619047619,11042,002,2024_Mar_17_1335,MFTM_A_new1021,2021.2.3,59.61241201077663,
,,,,,,,,stim/Instruction_adaptive.png,conditions/adaptive.xlsx,test,0.6,0.6,0.6,-0.6,-0.6,right,R,,,,,0,1,1,1,0,84,84,8,,,,,,,,,,,,,,,,,,,,,,,,,,,,,,,,,,,,,,,,,,,,706.213018600014,None,right,1,1.9136908000218682,706.7132999000023,708.1653816999751,706.7132999000023,707.6645424999879,706.7132999000023,707.6645424999879,706.7132999000023,707.6645424999879,706.7132999000023,707.6645424999879,706.7132999000023,707.6645424999879,707.6478279000148,708.1496334999683,707.6478279000148,708.1496334999683,707.6478279000148,708.1496334999683,707.6478279000148,708.1496334999683,707.6478279000148,708.1496334999683,707.6478279000148,708.1496334999683,707.6478279000148,708.1496334999683,707.6478279000148,708.1496334999683,706.7132999000023,None,708.1496334999683,709.5177801999962,0.9500000000000006,709.5348722999915,None,710.2862224999699,None,,,,,,,[1.36023529],2.8100000000000023,0.7647058823529411,11042,002,2024_Mar_17_1335,MFTM_A_new1021,2021.2.3,59.61241201077663,
,,,,,,,,stim/Instruction_adaptive.png,conditions/adaptive.xlsx,test,-0.6,-0.6,-0.6,0.6,0.6,left,L,,,,,0,1,1,1,0,85,85,43,,,,,,,,,,,,,,,,,,,,,,,,,,,,,,,,,,,,,,,,,,,,710.7875928999856,None,right,0,2.419944899971597,711.2872323999763,712.7396680999664,711.2872323999763,712.2382065000129,711.2872323999763,712.2382065000129,711.2872323999763,712.2382065000129,711.2872323999763,712.2382065000129,711.2872323999763,712.2382065000129,712.2047733999789,712.7057128999732,712.2047733999789,712.7057128999732,712.2047733999789,712.7057128999732,712.2047733999789,712.7057128999732,712.2047733999789,712.7057128999732,712.2047733999789,712.7057128999732,712.2047733999789,712.7057128999732,712.2047733999789,712.7057128999732,711.2872323999763,None,712.7057128999732,714.0745397999999,0.9400000000000006,714.0910771000199,None,714.8421922000125,None,,,,,,,[1.36255814],2.7500000000000018,0.7558139534883721,11042,002,2024_Mar_17_1335,MFTM_A_new1021,2021.2.3,59.61241201077663,
,,,,,,,,stim/Instruction_adaptive.png,conditions/adaptive.xlsx,test,-0.6,-0.6,-0.6,0.6,0.6,left,L,,,,,0,1,1,1,0,86,86,57,,,,,,,,,,,,,,,,,,,,,,,,,,,,,,,,,,,,,,,,,,,,715.3427073999774,None,left,1,1.6636666000122204,715.8435056000017,717.3302094999817,715.8435056000017,716.8283232999966,715.8435056000017,716.8283232999966,715.8435056000017,716.8283232999966,715.8435056000017,716.8283232999966,715.8435056000017,716.8283232999966,716.8117839000188,717.3132159999805,716.8117839000188,717.3132159999805,716.8117839000188,717.3132159999805,716.8117839000188,717.3132159999805,716.8117839000188,717.3132159999805,716.8117839000188,717.3132159999805,716.8117839000188,717.3132159999805,716.8117839000188,717.3132159999805,715.8435056000017,None,717.2964446999831,718.6657531000092,0.9800000000000006,718.6981596999685,None,719.4496902999817,None,,,,,,,[1.36436782],2.7700000000000022,0.7586206896551724,11042,002,2024_Mar_17_1335,MFTM_A_new1021,2021.2.3,59.61241201077663,
,,,,,,,,stim/Instruction_adaptive.png,conditions/adaptive.xlsx,test,0.6,0.6,0.6,-0.6,-0.6,right,R,,,,,0,1,1,1,0,87,87,28,,,,,,,,,,,,,,,,,,,,,,,,,,,,,,,,,,,,,,,,,,,,719.9510281999828,None,right,1,1.3451333999983035,720.4504167999839,721.9192192999762,720.4504167999839,721.4186277000117,720.4504167999839,721.4186277000117,720.4504167999839,721.4186277000117,720.4504167999839,721.4186277000117,720.4504167999839,721.4186277000117,721.385257899994,721.8864370000083,721.385257899994,721.8864370000083,721.385257899994,721.8864370000083,721.385257899994,721.8864370000083,721.385257899994,721.8864370000083,721.385257899994,721.8864370000083,721.385257899994,721.8864370000083,721.385257899994,721.8864370000083,720.4504167999839,None,721.8864370000083,723.2549424999743,0.9600000000000006,723.2892933000112,None,724.0392602999927,None,,,,,,,[1.36636364],2.790000000000002,0.7613636363636364,11042,002,2024_Mar_17_1335,MFTM_A_new1021,2021.2.3,59.61241201077663,
,,,,,,,,stim/Instruction_adaptive.png,conditions/adaptive.xlsx,test,0.6,0.6,0.6,-0.6,-0.6,right,R,,,,,0,1,1,1,0,88,88,14,,,,,,,,,,,,,,,,,,,,,,,,,,,,,,,,,,,,,,,,,,,,724.5409457000205,None,right,1,2.4104179000132717,725.0407793999766,726.4929450000054,725.0407793999766,725.9932273000013,725.0407793999766,725.9932273000013,725.0407793999766,725.9932273000013,725.0407793999766,725.9932273000013,725.0407793999766,725.9932273000013,725.976564600016,726.4763760999776,725.976564600016,726.4763760999776,725.976564600016,726.4763760999776,725.976564600016,726.4763760999776,725.976564600016,726.4763760999776,725.976564600016,726.4763760999776,725.976564600016,726.4763760999776,725.976564600016,726.4763760999776,725.0407793999766,None,726.4763760999776,727.8455970999785,0.9500000000000006,727.8626402000082,None,728.6135417000041,None,,,,,,,[1.36842697],2.8100000000000023,0.7640449438202247,11042,002,2024_Mar_17_1335,MFTM_A_new1021,2021.2.3,59.61241201077663,
,,,,,,,,stim/Instruction_adaptive.png,conditions/adaptive.xlsx,test,-0.6,-0.6,-0.6,0.6,0.6,left,L,,,,,0,1,1,1,0,89,89,85,,,,,,,,,,,,,,,,,,,,,,,,,,,,,,,,,,,,,,,,,,,,729.1137543999939,None,left,1,1.5408078000182286,729.6147825999651,731.0679718999891,729.6147825999651,730.5662029999658,729.6147825999651,730.5662029999658,729.6147825999651,730.5662029999658,729.6147825999651,730.5662029999658,729.6147825999651,730.5662029999658,730.5324316999759,731.033757600002,730.5324316999759,731.033757600002,730.5324316999759,731.033757600002,730.5324316999759,731.033757600002,730.5324316999759,731.033757600002,730.5324316999759,731.033757600002,730.5324316999759,731.033757600002,730.5324316999759,731.033757600002,729.6147825999651,None,731.033757600002,732.4185170999845,0.9400000000000006,732.435133299965,None,733.1863173000165,None,,,,,,,[1.37055556],2.830000000000002,0.7666666666666667,11042,002,2024_Mar_17_1335,MFTM_A_new1021,2021.2.3,59.61241201077663,
,,,,,,,,stim/Instruction_adaptive.png,conditions/adaptive.xlsx,test,0.6,0.6,0.6,-0.6,-0.6,right,R,,,,,0,1,1,1,0,90,90,6,,,,,,,,,,,,,,,,,,,,,,,,,,,,,,,,,,,,,,,,,,,,733.6870800000033,None,right,1,0.8710199000197463,734.1886074999929,735.6236774999998,734.1886074999929,735.1226403000182,734.1886074999929,735.1226403000182,734.1886074999929,735.1226403000182,734.1886074999929,735.1226403000182,734.1886074999929,735.1226403000182,735.1059436000069,735.6069560999749,735.1059436000069,735.6069560999749,735.1059436000069,735.6069560999749,735.1059436000069,735.6069560999749,735.1059436000069,735.6069560999749,735.1059436000069,735.6069560999749,735.1059436000069,735.6069560999749,735.1059436000069,735.6069560999749,734.1886074999929,None,735.6069560999749,None,0.9300000000000006,736.9923680999782,None,737.7432655000011,None,,,,,,,[1.37274725],2.8500000000000023,0.7692307692307693,11042,002,2024_Mar_17_1335,MFTM_A_new1021,2021.2.3,59.61241201077663,
,,,,,,,,stim/Instruction_adaptive.png,conditions/adaptive.xlsx,test,0.6,0.6,0.6,-0.6,-0.6,right,R,,,,,0,1,1,1,0,91,91,98,,,,,,,,,,,,,,,,,,,,,,,,,,,,,,,,,,,,,,,,,,,,738.2440678999992,None,right,1,1.3708743000170216,738.7449539999943,740.1645298000076,738.7449539999943,739.6629644000204,738.7449539999943,739.6629644000204,738.7449539999943,739.6629644000204,738.7449539999943,739.6629644000204,738.7449539999943,739.6629644000204,739.6295151999802,740.1301126999897,739.6295151999802,740.1301126999897,739.6295151999802,740.1301126999897,739.6295151999802,740.1301126999897,739.6295151999802,740.1301126999897,739.6295151999802,740.1301126999897,739.6295151999802,740.1301126999897,739.6295151999802,740.1301126999897,738.7449539999943,None,740.1301126999897,741.5161704000202,0.9100000000000006,741.5321573999827,None,742.2835150000174,None,,,,,,,[1.3751087],2.870000000000002,0.7717391304347826,11042,002,2024_Mar_17_1335,MFTM_A_new1021,2021.2.3,59.61241201077663,
,,,,,,,,stim/Instruction_adaptive.png,conditions/adaptive.xlsx,test,0.6,0.6,0.6,-0.6,-0.6,right,R,,,,,0,1,1,1,0,92,92,70,,,,,,,,,,,,,,,,,,,,,,,,,,,,,,,,,,,,,,,,,,,,742.7841012999997,None,left,0,1.94312919996446,743.2849554999848,744.6880104999873,743.2849554999848,744.1864427999826,743.2849554999848,744.1864427999826,743.2849554999848,744.1864427999826,743.2849554999848,744.1864427999826,743.2849554999848,744.1864427999826,744.1706743999966,744.6707644999842,744.1706743999966,744.6707644999842,744.1706743999966,744.6707644999842,744.1706743999966,744.6707644999842,744.1706743999966,744.6707644999842,744.1706743999966,744.6707644999842,744.1706743999966,744.6707644999842,744.1706743999966,744.6707644999842,743.2849554999848,None,744.6707644999842,746.0558327999897,0.9000000000000006,746.0725219000014,None,746.8237388000125,None,,,,,,,[1.37752688],2.820000000000002,0.7634408602150538,11042,002,2024_Mar_17_1335,MFTM_A_new1021,2021.2.3,59.61241201077663,
,,,,,,,,stim/Instruction_adaptive.png,conditions/adaptive.xlsx,test,-0.6,-0.6,-0.6,0.6,0.6,left,L,,,,,0,1,1,1,0,93,93,67,,,,,,,,,,,,,,,,,,,,,,,,,,,,,,,,,,,,,,,,,,,,747.3250351999886,None,left,1,1.9943625999731012,747.8257641000091,749.2605377999716,747.8257641000091,748.7600483999704,747.8257641000091,748.7600483999704,747.8257641000091,748.7600483999704,747.8257641000091,748.7600483999704,747.8257641000091,748.7600483999704,748.7433942999924,749.2442220000084,748.7433942999924,749.2442220000084,748.7433942999924,749.2442220000084,748.7433942999924,749.2442220000084,748.7433942999924,749.2442220000084,748.7433942999924,749.2442220000084,748.7433942999924,749.2442220000084,748.7433942999924,749.2442220000084,747.8257641000091,None,749.2442220000084,750.6296442999737,0.9300000000000006,750.6460557999671,None,751.3975752000115,None,,,,,,,[1.37957447],2.840000000000002,0.7659574468085106,11042,002,2024_Mar_17_1335,MFTM_A_new1021,2021.2.3,59.61241201077663,
,,,,,,,,stim/Instruction_adaptive.png,conditions/adaptive.xlsx,test,0.6,0.6,0.6,-0.6,-0.6,right,R,,,,,0,1,1,1,0,94,94,10,,,,,,,,,,,,,,,,,,,,,,,,,,,,,,,,,,,,,,,,,,,,751.8981202999712,None,right,1,1.4927375999977812,752.399159899971,753.8179466999718,752.399159899971,753.3342823999701,752.399159899971,753.3342823999701,752.399159899971,753.3342823999701,752.399159899971,753.3342823999701,752.399159899971,753.3342823999701,753.3000384999905,753.8016598999966,753.3000384999905,753.8016598999966,753.3000384999905,753.8016598999966,753.3000384999905,753.8016598999966,753.3000384999905,753.8016598999966,753.3000384999905,753.8016598999966,753.3000384999905,753.8016598999966,753.3000384999905,753.8016598999966,752.399159899971,None,753.8016598999966,755.1865352999885,0.9200000000000006,755.202848099987,None,755.954913900001,None,,,,,,,[1.38168421],2.8500000000000023,0.7684210526315789,11042,002,2024_Mar_17_1335,MFTM_A_new1021,2021.2.3,59.61241201077663,
