arrwidth1,arrwidth2,arrwidth3,arrwidth4,arrwidth5,keyb,type,orientation,instruction_image,block_filename,block_type,arrow11,arrow22,arrow33,arrow44,arrow55,keyb_3,orientation3,trials.thisRepN,trials.thisTrialN,trials.thisN,trials.thisIndex,trials_3.thisRepN,trials_3.thisTrialN,trials_3.thisN,trials_3.thisIndex,trials_2.thisRepN,trials_2.thisTrialN,trials_2.thisN,trials_2.thisIndex,welcome.started,welcome.stopped,key_resp.keys,key_resp.rt,key_resp.started,key_resp.stopped,instruction_example.started,instruction_example.stopped,key_resp_3.keys,key_resp_3.rt,key_resp_3.started,key_resp_3.stopped,instruction_task.started,instruction_task.stopped,key_resp_2.keys,key_resp_2.rt,key_resp_2.started,key_resp_2.stopped,text_2.started,text_2.stopped,A1.started,A1.stopped,A2.started,A2.stopped,A3.started,A3.stopped,A4.started,A4.stopped,A5.started,A5.stopped,key_resp_4.keys,key_resp_4.corr,key_resp_4.rt,key_resp_4.started,key_resp_4.stopped,fb.started,fb.stopped,instruction_block.started,instruction_block.stopped,key_resp_8.keys,key_resp_8.rt,key_resp_8.started,key_resp_8.stopped,text_8.started,text_8.stopped,key_resp_9.keys,key_resp_9.corr,key_resp_9.rt,text_5.started,text_5.stopped,A11_3.started,A11_3.stopped,A22_2.started,A22_2.stopped,A33_2.started,A33_2.stopped,A44_2.started,A44_2.stopped,A55_2.started,A55_2.stopped,M1_3.started,M1_3.stopped,M2_2.started,M2_2.stopped,M3_2.started,M3_2.stopped,M4_2.started,M4_2.stopped,M5_2.started,M5_2.stopped,M6_2.started,M6_2.stopped,M7_2.started,M7_2.stopped,M8_2.started,M8_2.stopped,key_resp_9.started,key_resp_9.stopped,fixation.started,fixation.stopped,ET,fb_3.started,fb_3.stopped,text_9.started,text_9.stopped,fb_4.started,fb_4.stopped,text_7.started,text_7.stopped,endtext.started,endtext.stopped,fixation_ITI,CCC,Acc,participant,session,date,expName,psychopyVersion,frameRate,
,,,,,,,,,,,,,,,,,,,,,,,,,,,,,,87.61998040000617,None,left,14.053100899996934,87.61998040000617,None,,,,,,,,,,,,,,,,,,,,,,,,,,,,,,,,,,,,,,,,,,,,,,,,,,,,,,,,,,,,,,,,,,,,,,,,,,,,,,,,,,,,,,,,,11044,002,2024_Mar_24_1504,MFTM_A_new1021,2021.2.3,59.710689769994,
,,,,,,,,,,,,,,,,,,,,,,,,,,,,,,,,,,,,101.69120680000924,None,left,4.574425400001928,101.69120680000924,None,,,,,,,,,,,,,,,,,,,,,,,,,,,,,,,,,,,,,,,,,,,,,,,,,,,,,,,,,,,,,,,,,,,,,,,,,,,,,,,,,,,11044,002,2024_Mar_24_1504,MFTM_A_new1021,2021.2.3,59.710689769994,
,,,,,,,,,,,,,,,,,,,,,,,,,,,,,,,,,,,,,,,,,,106.28138359999866,None,left,1.6956329999957234,106.28138359999866,None,,,,,,,,,,,,,,,,,,,,,,,,,,,,,,,,,,,,,,,,,,,,,,,,,,,,,,,,,,,,,,,,,,,,,,,,,,,,,11044,002,2024_Mar_24_1504,MFTM_A_new1021,2021.2.3,59.710689769994,
-0.6,-0.6,-0.6,0.6,0.6,left,3:2,L,,,,,,,,,,,0,0,0,1,,,,,,,,,,,,,,,,,,,,,,,,,,,108.01933999999892,None,108.01933999999892,None,108.01933999999892,None,108.01933999999892,None,108.01933999999892,None,108.01933999999892,None,left,1,7.6699463999975706,108.01933999999892,None,115.72979550001037,None,,,,,,,,,,,,,,,,,,,,,,,,,,,,,,,,,,,,,,,,,,,,,,,,,,,,,,,,,,11044,002,2024_Mar_24_1504,MFTM_A_new1021,2021.2.3,59.710689769994,
0.6,0.6,0.6,-0.6,-0.6,right,3:2,R,,,,,,,,,,,0,1,1,0,,,,,,,,,,,,,,,,,,,,,,,,,,,116.48101090001,None,116.48101090001,None,116.48101090001,None,116.48101090001,None,116.48101090001,None,116.48101090001,None,right,1,1.6650936000078218,116.48101090001,None,118.16621160000795,None,,,,,,,,,,,,,,,,,,,,,,,,,,,,,,,,,,,,,,,,,,,,,,,,,,,,,,,,,,11044,002,2024_Mar_24_1504,MFTM_A_new1021,2021.2.3,59.710689769994,
-0.6,-0.6,-0.6,0.6,0.6,left,3:2,L,,,,,,,,,,,1,0,2,1,,,,,,,,,,,,,,,,,,,,,,,,,,,118.91767640000035,None,118.91767640000035,None,118.91767640000035,None,118.91767640000035,None,118.91767640000035,None,118.91767640000035,None,left,1,2.0361581000033766,118.91767640000035,None,120.97025880000729,None,,,,,,,,,,,,,,,,,,,,,,,,,,,,,,,,,,,,,,,,,,,,,,,,,,,,,,,,,,11044,002,2024_Mar_24_1504,MFTM_A_new1021,2021.2.3,59.710689769994,
0.6,0.6,0.6,-0.6,-0.6,right,3:2,R,,,,,,,,,,,1,1,3,0,,,,,,,,,,,,,,,,,,,,,,,,,,,121.72137790000124,None,121.72137790000124,None,121.72137790000124,None,121.72137790000124,None,121.72137790000124,None,121.72137790000124,None,right,1,3.896400400000857,121.72137790000124,None,125.64440750000358,None,,,,,,,,,,,,,,,,,,,,,,,,,,,,,,,,,,,,,,,,,,,,,,,,,,,,,,,,,,11044,002,2024_Mar_24_1504,MFTM_A_new1021,2021.2.3,59.710689769994,
,,,,,,,,stim/Instruction_mask.png,conditions/adaptive.xlsx,practice,-0.6,-0.6,-0.6,0.6,0.6,left,L,,,,,0,0,0,0,0,0,0,39,,,,,,,,,,,,,,,,,,,,,,,,,,,,,,,,,,,,,,126.74566450000566,None,right,3.624133100005565,126.74566450000566,None,130.51950940000825,None,right,0,2.2596520999941276,130.91869920000318,None,130.91869920000318,133.92321600001014,130.91869920000318,133.92321600001014,130.91869920000318,133.92321600001014,130.91869920000318,133.92321600001014,130.91869920000318,133.92321600001014,133.90653920000477,134.40737159999844,133.90653920000477,134.40737159999844,133.90653920000477,134.40737159999844,133.90653920000477,134.40737159999844,133.90653920000477,134.40737159999844,133.90653920000477,134.40737159999844,133.90653920000477,134.40737159999844,133.90653920000477,134.40737159999844,130.91869920000318,None,134.40737159999844,134.40737159999844,3,134.42366000000038,None,135.17588900000555,None,,,,,,,,,,11044,002,2024_Mar_24_1504,MFTM_A_new1021,2021.2.3,59.710689769994,
,,,,,,,,stim/Instruction_mask.png,conditions/adaptive.xlsx,practice,0.6,0.6,0.6,-0.6,-0.6,right,R,,,,,0,0,0,0,0,1,1,38,,,,,,,,,,,,,,,,,,,,,,,,,,,,,,,,,,,,,,,,,,,,135.67647020000732,None,right,1,1.8015199999936158,136.17647610000859,138.17978160000348,136.17647610000859,137.67998200000147,136.17647610000859,137.67998200000147,136.17647610000859,137.67998200000147,136.17647610000859,137.67998200000147,136.17647610000859,137.67998200000147,137.6625931000017,138.16383620000852,137.6625931000017,138.16383620000852,137.6625931000017,138.16383620000852,137.6625931000017,138.16383620000852,137.6625931000017,138.16383620000852,137.6625931000017,138.16383620000852,137.6625931000017,138.16383620000852,137.6625931000017,138.16383620000852,136.17647610000859,None,138.16383620000852,139.66567719999875,1.5,139.68248309999763,None,140.43294470000546,None,,,,,,,,,,11044,002,2024_Mar_24_1504,MFTM_A_new1021,2021.2.3,59.710689769994,
,,,,,,,,stim/Instruction_mask.png,conditions/adaptive.xlsx,practice,-0.6,-0.6,-0.6,0.6,0.6,left,L,,,,,0,0,0,0,0,2,2,17,,,,,,,,,,,,,,,,,,,,,,,,,,,,,,,,,,,,,,,,,,,,140.93426660000114,None,left,1,1.5433725000038976,141.43460970000888,142.7367016000062,141.43460970000888,142.23567010000988,141.43460970000888,142.23567010000988,141.43460970000888,142.23567010000988,141.43460970000888,142.23567010000988,141.43460970000888,142.23567010000988,142.2192403000081,142.71996980000404,142.2192403000081,142.71996980000404,142.2192403000081,142.71996980000404,142.2192403000081,142.71996980000404,142.2192403000081,142.71996980000404,142.2192403000081,142.71996980000404,142.2192403000081,142.71996980000404,142.2192403000081,142.71996980000404,141.43460970000888,None,142.71996980000404,144.9231826000032,0.8,144.93962850001117,None,145.69104360000347,None,,,,,,,,,,11044,002,2024_Mar_24_1504,MFTM_A_new1021,2021.2.3,59.710689769994,
,,,,,,,,stim/Instruction_mask.png,conditions/adaptive.xlsx,practice,-0.6,-0.6,-0.6,0.6,0.6,left,L,,,,,0,0,0,0,0,3,3,13,,,,,,,,,,,,,,,,,,,,,,,,,,,,,,,,,,,,,,,,,,,,146.19168270000955,None,right,0,2.0052074999985052,146.69319309999992,147.44365000000107,146.69319309999992,146.94293190000462,146.69319309999992,146.94293190000462,146.69319309999992,146.94293190000462,146.69319309999992,146.94293190000462,146.69319309999992,146.94293190000462,146.92615410000144,147.42764400001033,146.92615410000144,147.42764400001033,146.92615410000144,147.42764400001033,146.92615410000144,147.42764400001033,146.92615410000144,147.42764400001033,146.92615410000144,147.42764400001033,146.92615410000144,147.42764400001033,146.92615410000144,147.42764400001033,146.69319309999992,None,147.42764400001033,150.18107040000905,3,150.1981872000033,None,150.94896300000255,None,,,,,,,,,,11044,002,2024_Mar_24_1504,MFTM_A_new1021,2021.2.3,59.710689769994,
,,,,,,,,stim/Instruction_mask.png,conditions/adaptive.xlsx,practice,,,,,,,,,,,,0,0,0,0,,,,,,,,,,,,,,,,,,,,,,,,,,,,,,,,,,,,,,,,,,,,,,,,,,,,,,,,,,,,,,,,,,,,,,,,,,,,,,,,,,,,,,,,,,151.46636360000412,152.4679160000087,152.4511940000084,152.4511940000084,152.4511940000084,None,,,,11044,002,2024_Mar_24_1504,MFTM_A_new1021,2021.2.3,59.710689769994,
,,,,,,,,stim/Instruction_adaptive.png,conditions/adaptive.xlsx,test,0.6,0.6,0.6,-0.6,-0.6,right,R,,,,,0,1,1,1,0,0,0,16,,,,,,,,,,,,,,,,,,,,,,,,,,,,,,,,,,,,,,155.7059936000005,None,left,5.1925663000001805,155.7059936000005,None,160.9473616000032,None,None,0,0,161.43144290000782,None,161.43144290000782,164.43612779999967,161.43144290000782,164.43612779999967,161.43144290000782,164.43612779999967,161.43144290000782,164.43612779999967,161.43144290000782,164.43612779999967,164.41938170000503,164.920031200003,164.41938170000503,164.920031200003,164.41938170000503,164.920031200003,164.41938170000503,164.920031200003,164.41938170000503,164.920031200003,164.41938170000503,164.920031200003,164.41938170000503,164.920031200003,164.41938170000503,164.920031200003,161.43144290000782,None,164.920031200003,164.920031200003,3,164.93676090000372,None,165.68786120000004,None,,,,,,,0.0,0.5,0.0,11044,002,2024_Mar_24_1504,MFTM_A_new1021,2021.2.3,59.710689769994,
,,,,,,,,stim/Instruction_adaptive.png,conditions/adaptive.xlsx,test,-0.6,-0.6,-0.6,0.6,0.6,left,L,,,,,0,1,1,1,0,1,1,49,,,,,,,,,,,,,,,,,,,,,,,,,,,,,,,,,,,,,,,,,,,,166.18942380000954,None,left,1,3.3537876999907894,166.68931040000462,None,166.68931040000462,169.6939194000006,166.68931040000462,169.6939194000006,166.68931040000462,169.6939194000006,166.68931040000462,169.6939194000006,166.68931040000462,169.6939194000006,169.6771790000057,170.1779172000097,169.6771790000057,170.1779172000097,169.6771790000057,170.1779172000097,169.6771790000057,170.1779172000097,169.6771790000057,170.1779172000097,169.6771790000057,170.1779172000097,169.6771790000057,170.1779172000097,169.6771790000057,170.1779172000097,166.68931040000462,None,170.1779172000097,170.1779172000097,3.0000000000000027,170.1945129000087,None,170.94638880000275,None,,,,,,,0,0.5,0.5,11044,002,2024_Mar_24_1504,MFTM_A_new1021,2021.2.3,59.710689769994,
,,,,,,,,stim/Instruction_adaptive.png,conditions/adaptive.xlsx,test,-0.6,-0.6,-0.6,0.6,0.6,left,L,,,,,0,1,1,1,0,2,2,45,,,,,,,,,,,,,,,,,,,,,,,,,,,,,,,,,,,,,,,,,,,,171.4478822000092,None,left,1,1.7276932000095258,171.9472051000048,None,171.9472051000048,174.95181350001076,171.9472051000048,174.95181350001076,171.9472051000048,174.95181350001076,171.9472051000048,174.95181350001076,171.9472051000048,174.95181350001076,174.9353706999973,175.43593630001124,174.9353706999973,175.43593630001124,174.9353706999973,175.43593630001124,174.9353706999973,175.43593630001124,174.9353706999973,175.43593630001124,174.9353706999973,175.43593630001124,174.9353706999973,175.43593630001124,174.9353706999973,175.43593630001124,171.9472051000048,None,175.43593630001124,175.43593630001124,3.0000000000000027,175.4522508000082,None,176.20415330000105,None,,,,,,,0,0.5,0.6666666666666666,11044,002,2024_Mar_24_1504,MFTM_A_new1021,2021.2.3,59.710689769994,
,,,,,,,,stim/Instruction_adaptive.png,conditions/adaptive.xlsx,test,0.6,0.6,0.6,-0.6,-0.6,right,R,,,,,0,1,1,1,0,3,3,40,,,,,,,,,,,,,,,,,,,,,,,,,,,,,,,,,,,,,,,,,,,,176.70457860000897,None,right,1,1.8372107000031974,177.20580380001047,None,177.20580380001047,180.21057680000376,177.20580380001047,180.21057680000376,177.20580380001047,180.21057680000376,177.20580380001047,180.21057680000376,177.20580380001047,180.21057680000376,180.1931224,180.69387390000338,180.1931224,180.69387390000338,180.1931224,180.69387390000338,180.1931224,180.69387390000338,180.1931224,180.69387390000338,180.1931224,180.69387390000338,180.1931224,180.69387390000338,180.1931224,180.69387390000338,177.20580380001047,None,180.69387390000338,180.69387390000338,3.0000000000000027,180.7106269000069,None,181.46176010000636,None,,,,,,,0,1.1300000000000006,0.75,11044,002,2024_Mar_24_1504,MFTM_A_new1021,2021.2.3,59.710689769994,
,,,,,,,,stim/Instruction_adaptive.png,conditions/adaptive.xlsx,test,-0.6,-0.6,-0.6,0.6,0.6,left,L,,,,,0,1,1,1,0,4,4,95,,,,,,,,,,,,,,,,,,,,,,,,,,,,,,,,,,,,,,,,,,,,181.9632355000067,None,left,1,2.6364618000079645,182.46314500000153,None,182.46314500000153,185.46787030000996,182.46314500000153,185.46787030000996,182.46314500000153,185.46787030000996,182.46314500000153,185.46787030000996,182.46314500000153,185.46787030000996,185.45142280000437,185.95182650000788,185.45142280000437,185.95182650000788,185.45142280000437,185.95182650000788,185.45142280000437,185.95182650000788,185.45142280000437,185.95182650000788,185.45142280000437,185.95182650000788,185.45142280000437,185.95182650000788,185.45142280000437,185.95182650000788,182.46314500000153,None,185.95182650000788,185.95182650000788,3.0000000000000027,185.96851099999913,None,186.7196052000072,None,,,,,,,0,1.540000000000001,0.8,11044,002,2024_Mar_24_1504,MFTM_A_new1021,2021.2.3,59.710689769994,
,,,,,,,,stim/Instruction_adaptive.png,conditions/adaptive.xlsx,test,0.6,0.6,0.6,-0.6,-0.6,right,R,,,,,0,1,1,1,0,5,5,96,,,,,,,,,,,,,,,,,,,,,,,,,,,,,,,,,,,,,,,,,,,,187.22021980000136,None,right,1,1.810458199994173,187.72101540000585,None,187.72101540000585,189.99200410000049,187.72101540000585,189.99200410000049,187.72101540000585,189.99200410000049,187.72101540000585,189.99200410000049,187.72101540000585,189.99200410000049,189.95784770000319,190.459219700002,189.95784770000319,190.459219700002,189.95784770000319,190.459219700002,189.95784770000319,190.459219700002,189.95784770000319,190.459219700002,189.95784770000319,190.459219700002,189.95784770000319,190.459219700002,189.95784770000319,190.459219700002,187.72101540000585,None,190.459219700002,190.459219700002,2.2600000000000016,190.49176520000037,None,191.24408290001156,None,,,,,,,0,1.8100000000000012,0.8333333333333334,11044,002,2024_Mar_24_1504,MFTM_A_new1021,2021.2.3,59.710689769994,
,,,,,,,,stim/Instruction_adaptive.png,conditions/adaptive.xlsx,test,-0.6,-0.6,-0.6,0.6,0.6,left,L,,,,,0,1,1,1,0,6,6,5,,,,,,,,,,,,,,,,,,,,,,,,,,,,,,,,,,,,,,,,,,,,191.74445340000966,None,left,1,2.383121300008497,192.24470590001147,194.631650299998,192.24470590001147,194.13144260000263,192.24470590001147,194.13144260000263,192.24470590001147,194.13144260000263,192.24470590001147,194.13144260000263,192.24470590001147,194.13144260000263,194.1147328000079,194.61490400000184,194.1147328000079,194.61490400000184,194.1147328000079,194.61490400000184,194.1147328000079,194.61490400000184,194.1147328000079,194.61490400000184,194.1147328000079,194.61490400000184,194.1147328000079,194.61490400000184,194.1147328000079,194.61490400000184,192.24470590001147,None,194.61490400000184,194.64833029999863,1.8800000000000014,194.6650449000008,None,195.41673170001013,None,,,,,,,0,2.0200000000000014,0.8571428571428571,11044,002,2024_Mar_24_1504,MFTM_A_new1021,2021.2.3,59.710689769994,
,,,,,,,,stim/Instruction_adaptive.png,conditions/adaptive.xlsx,test,0.6,0.6,0.6,-0.6,-0.6,right,R,,,,,0,1,1,1,0,7,7,36,,,,,,,,,,,,,,,,,,,,,,,,,,,,,,,,,,,,,,,,,,,,195.91728490000241,None,right,1,1.5213446999987355,196.41833190000034,None,196.41833190000034,198.0533482000028,196.41833190000034,198.0533482000028,196.41833190000034,198.0533482000028,196.41833190000034,198.0533482000028,196.41833190000034,198.0533482000028,198.0200954000029,198.52090730000054,198.0200954000029,198.52090730000054,198.0200954000029,198.52090730000054,198.0200954000029,198.52090730000054,198.0200954000029,198.52090730000054,198.0200954000029,198.52090730000054,198.0200954000029,198.52090730000054,198.0200954000029,198.52090730000054,196.41833190000034,None,198.52090730000054,198.52090730000054,1.6200000000000012,198.53859480000392,None,199.28840499999933,None,,,,,,,0,2.2000000000000015,0.875,11044,002,2024_Mar_24_1504,MFTM_A_new1021,2021.2.3,59.710689769994,
,,,,,,,,stim/Instruction_adaptive.png,conditions/adaptive.xlsx,test,0.6,0.6,0.6,-0.6,-0.6,right,R,,,,,0,1,1,1,0,8,8,48,,,,,,,,,,,,,,,,,,,,,,,,,,,,,,,,,,,,,,,,,,,,199.78935740000452,None,right,1,1.6741594999912195,200.29013239999767,202.2271885000082,200.29013239999767,201.72551869999734,200.29013239999767,201.72551869999734,200.29013239999767,201.72551869999734,200.29013239999767,201.72551869999734,200.29013239999767,201.72551869999734,201.70883350000076,202.21036140000797,201.70883350000076,202.21036140000797,201.70883350000076,202.21036140000797,201.70883350000076,202.21036140000797,201.70883350000076,202.21036140000797,201.70883350000076,202.21036140000797,201.70883350000076,202.21036140000797,201.70883350000076,202.21036140000797,200.29013239999767,None,202.21036140000797,202.2435201000044,1.430000000000001,202.2596099000075,None,203.01207250000152,None,,,,,,,[0.03444444],2.3500000000000014,0.8888888888888888,11044,002,2024_Mar_24_1504,MFTM_A_new1021,2021.2.3,59.710689769994,
,,,,,,,,stim/Instruction_adaptive.png,conditions/adaptive.xlsx,test,0.6,0.6,0.6,-0.6,-0.6,right,R,,,,,0,1,1,1,0,9,9,54,,,,,,,,,,,,,,,,,,,,,,,,,,,,,,,,,,,,,,,,,,,,203.5115719000023,None,right,1,1.1761060999997426,204.01232449999952,205.81589779999922,204.01232449999952,205.3145385000098,204.01232449999952,205.3145385000098,204.01232449999952,205.3145385000098,204.01232449999952,205.3145385000098,204.01232449999952,205.3145385000098,205.28099120000843,205.7816407000064,205.28099120000843,205.7816407000064,205.28099120000843,205.7816407000064,205.28099120000843,205.7816407000064,205.28099120000843,205.7816407000064,205.28099120000843,205.7816407000064,205.28099120000843,205.7816407000064,205.28099120000843,205.7816407000064,204.01232449999952,None,205.7816407000064,205.94893050000246,1.290000000000001,205.96528810000746,None,206.7167014000006,None,,,,,,,[0.152],2.490000000000002,0.9,11044,002,2024_Mar_24_1504,MFTM_A_new1021,2021.2.3,59.710689769994,
,,,,,,,,stim/Instruction_adaptive.png,conditions/adaptive.xlsx,test,-0.6,-0.6,-0.6,0.6,0.6,left,L,,,,,0,1,1,1,0,10,10,69,,,,,,,,,,,,,,,,,,,,,,,,,,,,,,,,,,,,,,,,,,,,207.21712020000268,None,left,1,1.6062193000107072,207.71788940000988,209.38712710000982,207.71788940000988,208.90300380000554,207.71788940000988,208.90300380000554,207.71788940000988,208.90300380000554,207.71788940000988,208.90300380000554,207.71788940000988,208.90300380000554,208.86961700000393,209.3711561000091,208.86961700000393,209.3711561000091,208.86961700000393,209.3711561000091,208.86961700000393,209.3711561000091,208.86961700000393,209.3711561000091,208.86961700000393,209.3711561000091,208.86961700000393,209.3711561000091,208.86961700000393,209.3711561000091,207.71788940000988,None,209.3711561000091,209.6374394000013,1.1700000000000008,209.6541508000082,None,210.40635820000898,None,,,,,,,[0.25909091],2.610000000000002,0.9090909090909091,11044,002,2024_Mar_24_1504,MFTM_A_new1021,2021.2.3,59.710689769994,
,,,,,,,,stim/Instruction_adaptive.png,conditions/adaptive.xlsx,test,0.6,0.6,0.6,-0.6,-0.6,right,R,,,,,0,1,1,1,0,11,11,4,,,,,,,,,,,,,,,,,,,,,,,,,,,,,,,,,,,,,,,,,,,,210.90636980001,None,left,0,1.7094853999878978,211.40679629999795,212.99267630001123,211.40679629999795,212.49180309999792,211.40679629999795,212.49180309999792,211.40679629999795,212.49180309999792,211.40679629999795,212.49180309999792,211.40679629999795,212.49180309999792,212.47534640000958,212.97659950000525,212.47534640000958,212.97659950000525,212.47534640000958,212.97659950000525,212.47534640000958,212.97659950000525,212.47534640000958,212.97659950000525,212.47534640000958,212.97659950000525,212.47534640000958,212.97659950000525,212.47534640000958,212.97659950000525,211.40679629999795,None,212.97659950000525,None,1.0800000000000007,213.3428841999994,None,214.09435179999855,None,,,,,,,[0.35583333],2.290000000000002,0.8333333333333334,11044,002,2024_Mar_24_1504,MFTM_A_new1021,2021.2.3,59.710689769994,
,,,,,,,,stim/Instruction_adaptive.png,conditions/adaptive.xlsx,test,-0.6,-0.6,-0.6,0.6,0.6,left,L,,,,,0,1,1,1,0,12,12,97,,,,,,,,,,,,,,,,,,,,,,,,,,,,,,,,,,,,,,,,,,,,214.5953925000067,None,right,0,1.7956777999934275,215.09652659999847,216.94928460000665,215.09652659999847,216.44830750000256,215.09652659999847,216.44830750000256,215.09652659999847,216.44830750000256,215.09652659999847,216.44830750000256,215.09652659999847,216.44830750000256,216.43186419999984,216.93292990000919,216.43186419999984,216.93292990000919,216.43186419999984,216.93292990000919,216.43186419999984,216.93292990000919,216.43186419999984,216.93292990000919,216.43186419999984,216.93292990000919,216.43186419999984,216.93292990000919,216.43186419999984,216.93292990000919,215.09652659999847,None,216.93292990000919,217.3498535000108,1.350000000000001,217.38393120000546,None,218.13364770000044,None,,,,,,,[0.41692308],1.9400000000000013,0.7692307692307693,11044,002,2024_Mar_24_1504,MFTM_A_new1021,2021.2.3,59.710689769994,
,,,,,,,,stim/Instruction_adaptive.png,conditions/adaptive.xlsx,test,-0.6,-0.6,-0.6,0.6,0.6,left,L,,,,,0,1,1,1,0,13,13,39,,,,,,,,,,,,,,,,,,,,,,,,,,,,,,,,,,,,,,,,,,,,218.63448980000976,None,left,1,1.7645514000032563,219.1360851000063,221.35561450000387,219.1360851000063,220.85466550001001,219.1360851000063,220.85466550001001,219.1360851000063,220.85466550001001,219.1360851000063,220.85466550001001,219.1360851000063,220.85466550001001,220.82119919999968,221.32245690000127,220.82119919999968,221.32245690000127,220.82119919999968,221.32245690000127,220.82119919999968,221.32245690000127,220.82119919999968,221.32245690000127,220.82119919999968,221.32245690000127,220.82119919999968,221.32245690000127,220.82119919999968,221.32245690000127,219.1360851000063,None,221.32245690000127,221.77244220000284,1.7100000000000013,221.79003499999817,None,222.54087260000233,None,,,,,,,[0.44357143],2.070000000000001,0.7857142857142857,11044,002,2024_Mar_24_1504,MFTM_A_new1021,2021.2.3,59.710689769994,
,,,,,,,,stim/Instruction_adaptive.png,conditions/adaptive.xlsx,test,0.6,0.6,0.6,-0.6,-0.6,right,R,,,,,0,1,1,1,0,14,14,74,,,,,,,,,,,,,,,,,,,,,,,,,,,,,,,,,,,,,,,,,,,,223.04176069999812,None,right,1,1.8778818999999203,223.5424583999993,225.61163460000535,223.5424583999993,225.1280573999975,223.5424583999993,225.1280573999975,223.5424583999993,225.1280573999975,223.5424583999993,225.1280573999975,223.5424583999993,225.1280573999975,225.09411970000656,225.59521600000153,225.09411970000656,225.59521600000153,225.09411970000656,225.59521600000153,225.09411970000656,225.59521600000153,225.09411970000656,225.59521600000153,225.09411970000656,225.59521600000153,225.09411970000656,225.59521600000153,225.09411970000656,225.59521600000153,223.5424583999993,None,225.59521600000153,226.0795694999979,1.5700000000000012,226.0960911000002,None,226.84685929999978,None,,,,,,,[0.476],2.1900000000000013,0.8,11044,002,2024_Mar_24_1504,MFTM_A_new1021,2021.2.3,59.710689769994,
,,,,,,,,stim/Instruction_adaptive.png,conditions/adaptive.xlsx,test,0.6,0.6,0.6,-0.6,-0.6,right,R,,,,,0,1,1,1,0,15,15,56,,,,,,,,,,,,,,,,,,,,,,,,,,,,,,,,,,,,,,,,,,,,227.34763650000968,None,right,1,2.4762271999934455,227.84874000000127,229.8012924000068,227.84874000000127,229.30055569999968,227.84874000000127,229.30055569999968,227.84874000000127,229.30055569999968,227.84874000000127,229.30055569999968,227.84874000000127,229.30055569999968,229.26714789999824,229.76791780001076,229.26714789999824,229.76791780001076,229.26714789999824,229.76791780001076,229.26714789999824,229.76791780001076,229.26714789999824,229.76791780001076,229.26714789999824,229.76791780001076,229.26714789999824,229.76791780001076,229.26714789999824,229.76791780001076,227.84874000000127,None,229.76791780001076,230.3524280999991,1.440000000000001,230.3689255000063,None,231.12021750000713,None,,,,,,,[0.5125],2.290000000000002,0.8125,11044,002,2024_Mar_24_1504,MFTM_A_new1021,2021.2.3,59.710689769994,
,,,,,,,,stim/Instruction_adaptive.png,conditions/adaptive.xlsx,test,0.6,0.6,0.6,-0.6,-0.6,right,R,,,,,0,1,1,1,0,16,16,84,,,,,,,,,,,,,,,,,,,,,,,,,,,,,,,,,,,,,,,,,,,,231.62075000000186,None,right,1,1.7952194000099553,232.12146880000364,233.97464880000916,232.12146880000364,233.474037100008,232.12146880000364,233.474037100008,232.12146880000364,233.474037100008,232.12146880000364,233.474037100008,232.12146880000364,233.474037100008,233.4568544000067,233.95794010000827,233.4568544000067,233.95794010000827,233.4568544000067,233.95794010000827,233.4568544000067,233.95794010000827,233.4568544000067,233.95794010000827,233.4568544000067,233.95794010000827,233.4568544000067,233.95794010000827,233.4568544000067,233.95794010000827,232.12146880000364,None,233.95794010000827,234.50861090001126,1.350000000000001,234.52509760000976,None,235.27640410000458,None,,,,,,,[0.55],2.3800000000000017,0.8235294117647058,11044,002,2024_Mar_24_1504,MFTM_A_new1021,2021.2.3,59.710689769994,
,,,,,,,,stim/Instruction_adaptive.png,conditions/adaptive.xlsx,test,-0.6,-0.6,-0.6,0.6,0.6,left,L,,,,,0,1,1,1,0,17,17,19,,,,,,,,,,,,,,,,,,,,,,,,,,,,,,,,,,,,,,,,,,,,235.77759949999745,None,right,0,1.9352005000109784,236.27772019999975,238.04786510000122,236.27772019999975,237.5468036000093,236.27772019999975,237.5468036000093,236.27772019999975,237.5468036000093,236.27772019999975,237.5468036000093,236.27772019999975,237.5468036000093,237.5130535000062,238.01411350000126,237.5130535000062,238.01411350000126,237.5130535000062,238.01411350000126,237.5130535000062,238.01411350000126,237.5130535000062,238.01411350000126,237.5130535000062,238.01411350000126,237.5130535000062,238.01411350000126,237.5130535000062,238.01411350000126,236.27772019999975,None,238.01411350000126,238.61475130000326,1.260000000000001,238.63203940000676,None,239.38219899999967,None,,,,,,,[0.58833333],2.1300000000000017,0.7777777777777778,11044,002,2024_Mar_24_1504,MFTM_A_new1021,2021.2.3,59.710689769994,
,,,,,,,,stim/Instruction_adaptive.png,conditions/adaptive.xlsx,test,-0.6,-0.6,-0.6,0.6,0.6,left,L,,,,,0,1,1,1,0,18,18,83,,,,,,,,,,,,,,,,,,,,,,,,,,,,,,,,,,,,,,,,,,,,239.88342470000498,None,left,1,1.7727916999865556,240.38398790000065,242.38686870000674,240.38398790000065,241.88624649999838,240.38398790000065,241.88624649999838,240.38398790000065,241.88624649999838,240.38398790000065,241.88624649999838,240.38398790000065,241.88624649999838,241.86952180000662,242.37014330000966,241.86952180000662,242.37014330000966,241.86952180000662,242.37014330000966,241.86952180000662,242.37014330000966,241.86952180000662,242.37014330000966,241.86952180000662,242.37014330000966,241.86952180000662,242.37014330000966,241.86952180000662,242.37014330000966,240.38398790000065,None,242.37014330000966,242.98934670000745,1.500000000000001,243.00409930000023,None,243.7560952000058,None,,,,,,,[0.61],2.2200000000000015,0.7894736842105263,11044,002,2024_Mar_24_1504,MFTM_A_new1021,2021.2.3,59.710689769994,
,,,,,,,,stim/Instruction_adaptive.png,conditions/adaptive.xlsx,test,-0.6,-0.6,-0.6,0.6,0.6,left,L,,,,,0,1,1,1,0,19,19,33,,,,,,,,,,,,,,,,,,,,,,,,,,,,,,,,,,,,,,,,,,,,244.2564393000066,None,right,0,1.9118467000080273,244.75728489999892,246.6792737000069,244.75728489999892,246.17671169999812,244.75728489999892,246.17671169999812,244.75728489999892,246.17671169999812,244.75728489999892,246.17671169999812,244.75728489999892,246.17671169999812,246.14351170000737,246.64342810001108,246.14351170000737,246.64342810001108,246.14351170000737,246.64342810001108,246.14351170000737,246.64342810001108,246.14351170000737,246.64342810001108,246.14351170000737,246.64342810001108,246.14351170000737,246.64342810001108,246.14351170000737,246.64342810001108,244.75728489999892,None,246.64342810001108,247.27755350001098,1.410000000000001,247.31099959999847,None,248.06250670000736,None,,,,,,,[0.634],1.9700000000000013,0.75,11044,002,2024_Mar_24_1504,MFTM_A_new1021,2021.2.3,59.710689769994,
,,,,,,,,stim/Instruction_adaptive.png,conditions/adaptive.xlsx,test,-0.6,-0.6,-0.6,0.6,0.6,left,L,,,,,0,1,1,1,0,20,20,87,,,,,,,,,,,,,,,,,,,,,,,,,,,,,,,,,,,,,,,,,,,,248.56350850001036,None,left,1,1.8850539999984903,249.06460250000237,251.25048270000843,249.06460250000237,250.74976010000682,249.06460250000237,250.74976010000682,249.06460250000237,250.74976010000682,249.06460250000237,250.74976010000682,249.06460250000237,250.74976010000682,250.73298400000203,251.2342137000087,250.73298400000203,251.2342137000087,250.73298400000203,251.2342137000087,250.73298400000203,251.2342137000087,250.73298400000203,251.2342137000087,250.73298400000203,251.2342137000087,250.73298400000203,251.2342137000087,250.73298400000203,251.2342137000087,249.06460250000237,None,251.21699380000064,251.8679420999979,1.6800000000000013,251.9010735000047,None,252.65241640000022,None,,,,,,,[0.64285714],2.0600000000000014,0.7619047619047619,11044,002,2024_Mar_24_1504,MFTM_A_new1021,2021.2.3,59.710689769994,
,,,,,,,,stim/Instruction_adaptive.png,conditions/adaptive.xlsx,test,0.6,0.6,0.6,-0.6,-0.6,right,R,,,,,0,1,1,1,0,21,21,64,,,,,,,,,,,,,,,,,,,,,,,,,,,,,,,,,,,,,,,,,,,,253.15306399999827,None,right,1,1.5359868999948958,253.65405450000253,255.74155279999832,253.65405450000253,255.2396441000019,253.65405450000253,255.2396441000019,253.65405450000253,255.2396441000019,253.65405450000253,255.2396441000019,253.65405450000253,255.2396441000019,255.22294880000118,255.72369250000338,255.22294880000118,255.72369250000338,255.22294880000118,255.72369250000338,255.22294880000118,255.72369250000338,255.22294880000118,255.72369250000338,255.22294880000118,255.72369250000338,255.22294880000118,255.72369250000338,255.22294880000118,255.72369250000338,253.65405450000253,None,255.72369250000338,None,1.5800000000000012,256.39142900001025,None,257.1431420000008,None,,,,,,,[0.65545455],2.1400000000000015,0.7727272727272727,11044,002,2024_Mar_24_1504,MFTM_A_new1021,2021.2.3,59.710689769994,
,,,,,,,,stim/Instruction_adaptive.png,conditions/adaptive.xlsx,test,-0.6,-0.6,-0.6,0.6,0.6,left,L,,,,,0,1,1,1,0,22,22,63,,,,,,,,,,,,,,,,,,,,,,,,,,,,,,,,,,,,,,,,,,,,257.643324100005,None,left,1,1.5170892000023741,258.14429609999934,260.1479468000034,258.14429609999934,259.6463148000039,258.14429609999934,259.6463148000039,258.14429609999934,259.6463148000039,258.14429609999934,259.6463148000039,258.14429609999934,259.6463148000039,259.61296910000965,260.11357660000795,259.61296910000965,260.11357660000795,259.61296910000965,260.11357660000795,259.61296910000965,260.11357660000795,259.61296910000965,260.11357660000795,259.61296910000965,260.11357660000795,259.61296910000965,260.11357660000795,259.61296910000965,260.11357660000795,258.14429609999934,None,260.11357660000795,260.79835940001067,1.490000000000001,260.8149092000094,None,261.5657586000016,None,,,,,,,[0.67086957],2.2200000000000015,0.782608695652174,11044,002,2024_Mar_24_1504,MFTM_A_new1021,2021.2.3,59.710689769994,
,,,,,,,,stim/Instruction_adaptive.png,conditions/adaptive.xlsx,test,0.6,0.6,0.6,-0.6,-0.6,right,R,,,,,0,1,1,1,0,23,23,66,,,,,,,,,,,,,,,,,,,,,,,,,,,,,,,,,,,,,,,,,,,,262.0667763000092,None,left,0,2.1106721999967704,262.5674863000022,264.4892525000032,262.5674863000022,263.98617080000986,262.5674863000022,263.98617080000986,262.5674863000022,263.98617080000986,262.5674863000022,263.98617080000986,262.5674863000022,263.98617080000986,263.95272719999775,264.45401700001094,263.95272719999775,264.45401700001094,263.95272719999775,264.45401700001094,263.95272719999775,264.45401700001094,263.95272719999775,264.45401700001094,263.95272719999775,264.45401700001094,263.95272719999775,264.45401700001094,263.95272719999775,264.45401700001094,262.5674863000022,None,264.45401700001094,265.1546720000042,1.410000000000001,265.1710919000034,None,265.923345800009,None,,,,,,,[0.68833333],2.0000000000000013,0.75,11044,002,2024_Mar_24_1504,MFTM_A_new1021,2021.2.3,59.710689769994,
,,,,,,,,stim/Instruction_adaptive.png,conditions/adaptive.xlsx,test,-0.6,-0.6,-0.6,0.6,0.6,left,L,,,,,0,1,1,1,0,24,24,77,,,,,,,,,,,,,,,,,,,,,,,,,,,,,,,,,,,,,,,,,,,,266.42365750001045,None,left,1,1.385375900004874,266.92458869999973,269.0771842000104,266.92458869999973,268.57651280000573,266.92458869999973,268.57651280000573,266.92458869999973,268.57651280000573,266.92458869999973,268.57651280000573,266.92458869999973,268.57651280000573,268.54398060000676,269.04483360001177,268.54398060000676,269.04483360001177,268.54398060000676,269.04483360001177,268.54398060000676,269.04483360001177,268.54398060000676,269.04483360001177,268.54398060000676,269.04483360001177,268.54398060000676,269.04483360001177,268.54398060000676,269.04483360001177,266.92458869999973,None,269.04483360001177,269.74524970000493,1.6400000000000012,269.7613493000099,None,270.51356930000475,None,,,,,,,[0.6952],2.0800000000000014,0.76,11044,002,2024_Mar_24_1504,MFTM_A_new1021,2021.2.3,59.710689769994,
,,,,,,,,stim/Instruction_adaptive.png,conditions/adaptive.xlsx,test,-0.6,-0.6,-0.6,0.6,0.6,left,L,,,,,0,1,1,1,0,25,25,31,,,,,,,,,,,,,,,,,,,,,,,,,,,,,,,,,,,,,,,,,,,,271.01364640000975,None,left,1,1.555534200000693,271.5143282000063,273.5840489999973,271.5143282000063,273.0833616000018,271.5143282000063,273.0833616000018,271.5143282000063,273.0833616000018,271.5143282000063,273.0833616000018,271.5143282000063,273.0833616000018,273.0670237000013,273.5672670000058,273.0670237000013,273.5672670000058,273.0670237000013,273.5672670000058,273.0670237000013,273.5672670000058,273.0670237000013,273.5672670000058,273.0670237000013,273.5672670000058,273.0670237000013,273.5672670000058,273.0670237000013,273.5672670000058,271.5143282000063,None,273.5672670000058,None,1.5600000000000012,274.28493710000475,None,275.0372003000084,None,,,,,,,[0.70461538],2.1600000000000015,0.7692307692307693,11044,002,2024_Mar_24_1504,MFTM_A_new1021,2021.2.3,59.710689769994,
,,,,,,,,stim/Instruction_adaptive.png,conditions/adaptive.xlsx,test,-0.6,-0.6,-0.6,0.6,0.6,left,L,,,,,0,1,1,1,0,26,26,59,,,,,,,,,,,,,,,,,,,,,,,,,,,,,,,,,,,,,,,,,,,,275.53770670000813,None,right,0,1.4638436999957776,276.0384388000093,278.0074564000097,276.0384388000093,277.5232515000098,276.0384388000093,277.5232515000098,276.0384388000093,277.5232515000098,276.0384388000093,277.5232515000098,276.0384388000093,277.5232515000098,277.4900532000029,277.99156150000636,277.4900532000029,277.99156150000636,277.4900532000029,277.99156150000636,277.4900532000029,277.99156150000636,277.4900532000029,277.99156150000636,277.4900532000029,277.99156150000636,277.4900532000029,277.99156150000636,277.4900532000029,277.99156150000636,276.0384388000093,None,277.99156150000636,278.708529800002,1.470000000000001,278.74319990001095,None,279.49293910000415,None,,,,,,,[0.71666667],1.9500000000000013,0.7407407407407407,11044,002,2024_Mar_24_1504,MFTM_A_new1021,2021.2.3,59.710689769994,
,,,,,,,,stim/Instruction_adaptive.png,conditions/adaptive.xlsx,test,0.6,0.6,0.6,-0.6,-0.6,right,R,,,,,0,1,1,1,0,27,27,2,,,,,,,,,,,,,,,,,,,,,,,,,,,,,,,,,,,,,,,,,,,,279.9936916000006,None,left,0,1.9036491000006208,280.49529160000384,282.6980689000047,280.49529160000384,282.19791670000996,280.49529160000384,282.19791670000996,280.49529160000384,282.19791670000996,280.49529160000384,282.19791670000996,280.49529160000384,282.19791670000996,282.1809592000063,282.6811611000012,282.1809592000063,282.6811611000012,282.1809592000063,282.6811611000012,282.1809592000063,282.6811611000012,282.1809592000063,282.6811611000012,282.1809592000063,282.6811611000012,282.1809592000063,282.6811611000012,282.1809592000063,282.6811611000012,280.49529160000384,None,282.6811611000012,None,1.7000000000000013,283.41559509999934,None,284.1667243999982,None,,,,,,,[0.71964286],1.730000000000001,0.7142857142857143,11044,002,2024_Mar_24_1504,MFTM_A_new1021,2021.2.3,59.710689769994,
,,,,,,,,stim/Instruction_adaptive.png,conditions/adaptive.xlsx,test,0.6,0.6,0.6,-0.6,-0.6,right,R,,,,,0,1,1,1,0,28,28,82,,,,,,,,,,,,,,,,,,,,,,,,,,,,,,,,,,,,,,,,,,,,284.66748709999956,None,right,1,2.16604229999939,285.16864210000494,287.65542979999736,285.16864210000494,287.1552223000035,285.16864210000494,287.1552223000035,285.16864210000494,287.1552223000035,285.16864210000494,287.1552223000035,285.16864210000494,287.1552223000035,287.1383441000071,287.6386643000005,287.1383441000071,287.6386643000005,287.1383441000071,287.6386643000005,287.1383441000071,287.6386643000005,287.1383441000071,287.6386643000005,287.1383441000071,287.6386643000005,287.1383441000071,287.6386643000005,287.1383441000071,287.6386643000005,285.16864210000494,None,287.6386643000005,None,1.9800000000000015,288.1739709000103,None,288.9245176999975,None,,,,,,,[[0.52]],1.8100000000000012,0.7241379310344828,11044,002,2024_Mar_24_1504,MFTM_A_new1021,2021.2.3,59.710689769994,
,,,,,,,,stim/Instruction_adaptive.png,conditions/adaptive.xlsx,test,-0.6,-0.6,-0.6,0.6,0.6,left,L,,,,,0,1,1,1,0,29,29,11,,,,,,,,,,,,,,,,,,,,,,,,,,,,,,,,,,,,,,,,,,,,289.4252834000072,None,right,0,2.0800848999933805,289.92628840000543,292.3122804000013,289.92628840000543,291.81158590000996,289.92628840000543,291.81158590000996,289.92628840000543,291.81158590000996,289.92628840000543,291.81158590000996,289.92628840000543,291.81158590000996,291.79481130000204,292.295523400011,291.79481130000204,292.295523400011,291.79481130000204,292.295523400011,291.79481130000204,292.295523400011,291.79481130000204,292.295523400011,291.79481130000204,292.295523400011,291.79481130000204,292.295523400011,291.79481130000204,292.295523400011,289.92628840000543,None,292.295523400011,None,1.8800000000000014,292.9299159000075,None,293.68179830000736,None,,,,,,,[[0.62]],1.580000000000001,0.7,11044,002,2024_Mar_24_1504,MFTM_A_new1021,2021.2.3,59.710689769994,
,,,,,,,,stim/Instruction_adaptive.png,conditions/adaptive.xlsx,test,0.6,0.6,0.6,-0.6,-0.6,right,R,,,,,0,1,1,1,0,30,30,42,,,,,,,,,,,,,,,,,,,,,,,,,,,,,,,,,,,,,,,,,,,,294.18260650000593,None,left,0,2.1471744000009494,294.6834453000047,297.38679820000834,294.6834453000047,296.8871962999983,294.6834453000047,296.8871962999983,294.6834453000047,296.8871962999983,294.6834453000047,296.8871962999983,294.6834453000047,296.8871962999983,296.8692538000032,297.370276200003,296.8692538000032,297.370276200003,296.8692538000032,297.370276200003,296.8692538000032,297.370276200003,296.8692538000032,297.370276200003,296.8692538000032,297.370276200003,296.8692538000032,297.370276200003,296.8692538000032,297.370276200003,294.6834453000047,None,297.370276200003,297.67056610000145,2.200000000000002,297.6871642000042,None,298.43831019999925,None,,,,,,,[[0.3]],1.3100000000000007,0.6774193548387096,11044,002,2024_Mar_24_1504,MFTM_A_new1021,2021.2.3,59.710689769994,
,,,,,,,,stim/Instruction_adaptive.png,conditions/adaptive.xlsx,test,-0.6,-0.6,-0.6,0.6,0.6,left,L,,,,,0,1,1,1,0,31,31,99,,,,,,,,,,,,,,,,,,,,,,,,,,,,,,,,,,,,,,,,,,,,298.9389591000072,None,left,1,1.454474999991362,299.4401327000087,None,299.4401327000087,302.0938412000105,299.4401327000087,302.0938412000105,299.4401327000087,302.0938412000105,299.4401327000087,302.0938412000105,299.4401327000087,302.0938412000105,302.07783650000056,302.5788990000001,302.07783650000056,302.5788990000001,302.07783650000056,302.5788990000001,302.07783650000056,302.5788990000001,302.07783650000056,302.5788990000001,302.07783650000056,302.5788990000001,302.07783650000056,302.5788990000001,302.07783650000056,302.5788990000001,299.4401327000087,None,302.5788990000001,302.5788990000001,2.650000000000002,302.5941817999992,None,303.34618140000384,None,,,,,,,0,1.4100000000000008,0.6875,11044,002,2024_Mar_24_1504,MFTM_A_new1021,2021.2.3,59.710689769994,
,,,,,,,,stim/Instruction_adaptive.png,conditions/adaptive.xlsx,test,0.6,0.6,0.6,-0.6,-0.6,right,R,,,,,0,1,1,1,0,32,32,92,,,,,,,,,,,,,,,,,,,,,,,,,,,,,,,,,,,,,,,,,,,,303.8464021000109,None,right,1,1.8526251000002958,304.3471709000005,307.335891900002,304.3471709000005,306.8354483000003,304.3471709000005,306.8354483000003,304.3471709000005,306.8354483000003,304.3471709000005,306.8354483000003,304.3471709000005,306.8354483000003,306.80081190000055,307.3022483000095,306.80081190000055,307.3022483000095,306.80081190000055,307.3022483000095,306.80081190000055,307.3022483000095,306.80081190000055,307.3022483000095,306.80081190000055,307.3022483000095,306.80081190000055,307.3022483000095,306.80081190000055,307.3022483000095,304.3471709000005,None,307.3022483000095,307.335891900002,2.480000000000002,307.35161140000855,None,308.1035302000091,None,,,,,,,[[0.02]],1.5000000000000009,0.696969696969697,11044,002,2024_Mar_24_1504,MFTM_A_new1021,2021.2.3,59.710689769994,
,,,,,,,,stim/Instruction_adaptive.png,conditions/adaptive.xlsx,test,0.6,0.6,0.6,-0.6,-0.6,right,R,,,,,0,1,1,1,0,33,33,78,,,,,,,,,,,,,,,,,,,,,,,,,,,,,,,,,,,,,,,,,,,,308.60399750000215,None,right,1,1.8866470000066329,309.10463440000603,311.9421419999999,309.10463440000603,311.44115830000374,309.10463440000603,311.44115830000374,309.10463440000603,311.44115830000374,309.10463440000603,311.44115830000374,309.10463440000603,311.44115830000374,311.4244572000025,311.9252264000097,311.4244572000025,311.9252264000097,311.4244572000025,311.9252264000097,311.4244572000025,311.9252264000097,311.4244572000025,311.9252264000097,311.4244572000025,311.9252264000097,311.4244572000025,311.9252264000097,311.4244572000025,311.9252264000097,309.10463440000603,None,311.9252264000097,None,2.330000000000002,312.10957939999935,None,312.85992070000793,None,,,,,,,[[0.17]],1.580000000000001,0.7058823529411765,11044,002,2024_Mar_24_1504,MFTM_A_new1021,2021.2.3,59.710689769994,
,,,,,,,,stim/Instruction_adaptive.png,conditions/adaptive.xlsx,test,0.6,0.6,0.6,-0.6,-0.6,right,R,,,,,0,1,1,1,0,34,34,34,,,,,,,,,,,,,,,,,,,,,,,,,,,,,,,,,,,,,,,,,,,,313.3608305000089,None,right,1,1.5455363999935798,313.8614898000087,316.5656304000004,313.8614898000087,316.06483119999757,313.8614898000087,316.06483119999757,313.8614898000087,316.06483119999757,313.8614898000087,316.06483119999757,313.8614898000087,316.06483119999757,316.0481889000075,316.5489080000116,316.0481889000075,316.5489080000116,316.0481889000075,316.5489080000116,316.0481889000075,316.5489080000116,316.0481889000075,316.5489080000116,316.0481889000075,316.5489080000116,316.0481889000075,316.5489080000116,316.0481889000075,316.5489080000116,313.8614898000087,None,316.5489080000116,316.84969170000113,2.200000000000002,316.86609340000723,None,317.61711040000955,None,,,,,,,[[0.3]],1.650000000000001,0.7142857142857143,11044,002,2024_Mar_24_1504,MFTM_A_new1021,2021.2.3,59.710689769994,
,,,,,,,,stim/Instruction_adaptive.png,conditions/adaptive.xlsx,test,-0.6,-0.6,-0.6,0.6,0.6,left,L,,,,,0,1,1,1,0,35,35,25,,,,,,,,,,,,,,,,,,,,,,,,,,,,,,,,,,,,,,,,,,,,318.1180725000013,None,left,1,1.5885082999884617,318.6187226000038,321.2227043000021,318.6187226000038,320.7227688999992,318.6187226000038,320.7227688999992,318.6187226000038,320.7227688999992,318.6187226000038,320.7227688999992,318.6187226000038,320.7227688999992,320.70574370000395,321.20598310000787,320.70574370000395,321.20598310000787,320.70574370000395,321.20598310000787,320.70574370000395,321.20598310000787,320.70574370000395,321.20598310000787,320.70574370000395,321.20598310000787,320.70574370000395,321.20598310000787,320.70574370000395,321.20598310000787,318.6187226000038,None,321.20598310000787,321.6070499000052,2.1000000000000014,321.62358369999856,None,322.3742570000031,None,,,,,,,[[0.4]],1.720000000000001,0.7222222222222222,11044,002,2024_Mar_24_1504,MFTM_A_new1021,2021.2.3,59.710689769994,
,,,,,,,,stim/Instruction_adaptive.png,conditions/adaptive.xlsx,test,0.6,0.6,0.6,-0.6,-0.6,right,R,,,,,0,1,1,1,0,36,36,94,,,,,,,,,,,,,,,,,,,,,,,,,,,,,,,,,,,,,,,,,,,,322.8751232000068,None,right,1,2.2640804999973625,323.37578120001126,325.87960990000283,323.37578120001126,325.3796582000068,323.37578120001126,325.3796582000068,323.37578120001126,325.3796582000068,323.37578120001126,325.3796582000068,323.37578120001126,325.3796582000068,325.3621371000045,325.8628921000054,325.3621371000045,325.8628921000054,325.3621371000045,325.8628921000054,325.3621371000045,325.8628921000054,325.3621371000045,325.8628921000054,325.3621371000045,325.8628921000054,325.3621371000045,325.8628921000054,325.3621371000045,325.8628921000054,323.37578120001126,None,325.8628921000054,326.3645058999973,2.0000000000000018,326.38010609999765,None,327.1322091000038,None,,,,,,,[[0.5]],1.7800000000000011,0.7297297297297297,11044,002,2024_Mar_24_1504,MFTM_A_new1021,2021.2.3,59.710689769994,
,,,,,,,,stim/Instruction_adaptive.png,conditions/adaptive.xlsx,test,-0.6,-0.6,-0.6,0.6,0.6,left,L,,,,,0,1,1,1,0,37,37,89,,,,,,,,,,,,,,,,,,,,,,,,,,,,,,,,,,,,,,,,,,,,327.633239200004,None,left,1,2.098616699993727,328.1330530999985,330.55414920000476,328.1330530999985,330.0527531000116,328.1330530999985,330.0527531000116,328.1330530999985,330.0527531000116,328.1330530999985,330.0527531000116,328.1330530999985,330.0527531000116,330.0359431000106,330.5375408000109,330.0359431000106,330.5375408000109,330.0359431000106,330.5375408000109,330.0359431000106,330.5375408000109,330.0359431000106,330.5375408000109,330.0359431000106,330.5375408000109,330.0359431000106,330.5375408000109,330.0359431000106,330.5375408000109,328.1330530999985,None,330.5375408000109,331.1209768999979,1.9200000000000015,331.13771010001074,None,331.8888341999991,None,,,,,,,[[0.58]],1.8400000000000012,0.7368421052631579,11044,002,2024_Mar_24_1504,MFTM_A_new1021,2021.2.3,59.710689769994,
,,,,,,,,stim/Instruction_adaptive.png,conditions/adaptive.xlsx,test,0.6,0.6,0.6,-0.6,-0.6,right,R,,,,,0,1,1,1,0,38,38,18,,,,,,,,,,,,,,,,,,,,,,,,,,,,,,,,,,,,,,,,,,,,332.3897961000039,None,right,1,2.349611099998583,332.8901317999989,335.2437910000008,332.8901317999989,334.7431770999974,332.8901317999989,334.7431770999974,332.8901317999989,334.7431770999974,332.8901317999989,334.7431770999974,332.8901317999989,334.7431770999974,334.7096848000074,335.21038810000755,334.7096848000074,335.21038810000755,334.7096848000074,335.21038810000755,334.7096848000074,335.21038810000755,334.7096848000074,335.21038810000755,334.7096848000074,335.21038810000755,334.7096848000074,335.21038810000755,334.7096848000074,335.21038810000755,332.8901317999989,None,335.21038810000755,335.82812370000465,1.8400000000000014,335.8613878000033,None,336.6124339000089,None,,,,,,,[0.61717949],1.8900000000000012,0.7435897435897436,11044,002,2024_Mar_24_1504,MFTM_A_new1021,2021.2.3,59.710689769994,
,,,,,,,,stim/Instruction_adaptive.png,conditions/adaptive.xlsx,test,-0.6,-0.6,-0.6,0.6,0.6,left,L,,,,,0,1,1,1,0,39,39,53,,,,,,,,,,,,,,,,,,,,,,,,,,,,,,,,,,,,,,,,,,,,337.1133588000084,None,left,1,1.929787100001704,337.61397130000114,339.9015701000026,337.61397130000114,339.4004217000038,337.61397130000114,339.4004217000038,337.61397130000114,339.4004217000038,337.61397130000114,339.4004217000038,337.61397130000114,339.4004217000038,339.38343310001073,339.8842689000012,339.38343310001073,339.8842689000012,339.38343310001073,339.8842689000012,339.38343310001073,339.8842689000012,339.38343310001073,339.8842689000012,339.38343310001073,339.8842689000012,339.38343310001073,339.8842689000012,339.38343310001073,339.8842689000012,337.61397130000114,None,339.8842689000012,None,1.7800000000000014,340.51834530000633,None,341.2698018000083,None,,,,,,,[0.61975],1.9400000000000013,0.75,11044,002,2024_Mar_24_1504,MFTM_A_new1021,2021.2.3,59.710689769994,
,,,,,,,,stim/Instruction_adaptive.png,conditions/adaptive.xlsx,test,0.6,0.6,0.6,-0.6,-0.6,right,R,,,,,0,1,1,1,0,40,40,88,,,,,,,,,,,,,,,,,,,,,,,,,,,,,,,,,,,,,,,,,,,,341.770425900002,None,right,1,1.5202030999935232,342.27202679999755,344.4921081000066,342.27202679999755,343.99030610000773,342.27202679999755,343.99030610000773,342.27202679999755,343.99030610000773,342.27202679999755,343.99030610000773,342.27202679999755,343.99030610000773,343.95692480000434,344.45814899999823,343.95692480000434,344.45814899999823,343.95692480000434,344.45814899999823,343.95692480000434,344.45814899999823,343.95692480000434,344.45814899999823,343.95692480000434,344.45814899999823,343.95692480000434,344.45814899999823,343.95692480000434,344.45814899999823,342.27202679999755,None,344.45814899999823,345.09248350000416,1.7100000000000013,345.1086396000028,None,345.85978710000927,None,,,,,,,[0.62390244],1.9900000000000013,0.7560975609756098,11044,002,2024_Mar_24_1504,MFTM_A_new1021,2021.2.3,59.710689769994,
,,,,,,,,stim/Instruction_adaptive.png,conditions/adaptive.xlsx,test,-0.6,-0.6,-0.6,0.6,0.6,left,L,,,,,0,1,1,1,0,41,41,15,,,,,,,,,,,,,,,,,,,,,,,,,,,,,,,,,,,,,,,,,,,,346.3604946999985,None,left,1,1.9627195999928517,346.8613977000059,349.0315128000075,346.8613977000059,348.5310487000097,346.8613977000059,348.5310487000097,346.8613977000059,348.5310487000097,346.8613977000059,348.5310487000097,346.8613977000059,348.5310487000097,348.513869900009,349.0147433000093,348.513869900009,349.0147433000093,348.513869900009,349.0147433000093,348.513869900009,349.0147433000093,348.513869900009,349.0147433000093,348.513869900009,349.0147433000093,348.513869900009,349.0147433000093,348.513869900009,349.0147433000093,346.8613977000059,None,349.0147433000093,None,1.6600000000000013,349.6668539000093,None,350.4183517000056,None,,,,,,,[0.62904762],2.030000000000001,0.7619047619047619,11044,002,2024_Mar_24_1504,MFTM_A_new1021,2021.2.3,59.710689769994,
,,,,,,,,stim/Instruction_adaptive.png,conditions/adaptive.xlsx,test,-0.6,-0.6,-0.6,0.6,0.6,left,L,,,,,0,1,1,1,0,42,42,27,,,,,,,,,,,,,,,,,,,,,,,,,,,,,,,,,,,,,,,,,,,,350.91819330000726,None,left,1,1.8217392999940785,351.4184086000023,353.5380512999982,351.4184086000023,353.03732709999895,351.4184086000023,353.03732709999895,351.4184086000023,353.03732709999895,351.4184086000023,353.03732709999895,351.4184086000023,353.03732709999895,353.00385190000816,353.5046102000051,353.00385190000816,353.5046102000051,353.00385190000816,353.5046102000051,353.00385190000816,353.5046102000051,353.00385190000816,353.5046102000051,353.00385190000816,353.5046102000051,353.00385190000816,353.5046102000051,353.00385190000816,353.5046102000051,351.4184086000023,None,353.5046102000051,354.13901780000015,1.6100000000000012,354.17246899999736,None,354.923764799998,None,,,,,,,[0.63511628],2.070000000000001,0.7674418604651163,11044,002,2024_Mar_24_1504,MFTM_A_new1021,2021.2.3,59.710689769994,
,,,,,,,,stim/Instruction_adaptive.png,conditions/adaptive.xlsx,test,-0.6,-0.6,-0.6,0.6,0.6,left,L,,,,,0,1,1,1,0,43,43,9,,,,,,,,,,,,,,,,,,,,,,,,,,,,,,,,,,,,,,,,,,,,355.42428360000486,None,left,1,1.594695199994021,355.9257102999982,357.9953201000026,355.9257102999982,357.51056219999737,355.9257102999982,357.51056219999737,355.9257102999982,357.51056219999737,355.9257102999982,357.51056219999737,355.9257102999982,357.51056219999737,357.47740260000865,357.97816160001094,357.47740260000865,357.97816160001094,357.47740260000865,357.97816160001094,357.47740260000865,357.97816160001094,357.47740260000865,357.97816160001094,357.47740260000865,357.97816160001094,357.47740260000865,357.97816160001094,357.47740260000865,357.97816160001094,355.9257102999982,None,357.97816160001094,358.62909640000726,1.5700000000000012,358.6456820000021,None,359.39686550000624,None,,,,,,,[0.64181818],2.1200000000000014,0.7727272727272727,11044,002,2024_Mar_24_1504,MFTM_A_new1021,2021.2.3,59.710689769994,
,,,,,,,,stim/Instruction_adaptive.png,conditions/adaptive.xlsx,test,0.6,0.6,0.6,-0.6,-0.6,right,R,,,,,0,1,1,1,0,44,44,44,,,,,,,,,,,,,,,,,,,,,,,,,,,,,,,,,,,,,,,,,,,,359.8977620000078,None,left,0,1.4181581000011647,360.3984888999985,362.41881119999744,360.3984888999985,361.91787289999775,360.3984888999985,361.91787289999775,360.3984888999985,361.91787289999775,360.3984888999985,361.91787289999775,360.3984888999985,361.91787289999775,361.9016719000065,362.4019479999988,361.9016719000065,362.4019479999988,361.9016719000065,362.4019479999988,361.9016719000065,362.4019479999988,361.9016719000065,362.4019479999988,361.9016719000065,362.4019479999988,361.9016719000065,362.4019479999988,361.9016719000065,362.4019479999988,360.3984888999985,None,362.4019479999988,363.052486200002,1.5100000000000011,363.0691039000085,None,363.8215441000066,None,,,,,,,[0.64955556],2.0000000000000013,0.7555555555555555,11044,002,2024_Mar_24_1504,MFTM_A_new1021,2021.2.3,59.710689769994,
,,,,,,,,stim/Instruction_adaptive.png,conditions/adaptive.xlsx,test,-0.6,-0.6,-0.6,0.6,0.6,left,L,,,,,0,1,1,1,0,45,45,47,,,,,,,,,,,,,,,,,,,,,,,,,,,,,,,,,,,,,,,,,,,,364.3211008000071,None,left,1,2.010738400000264,364.82187330001034,366.975351400004,364.82187330001034,366.4744342000049,364.82187330001034,366.4744342000049,364.82187330001034,366.4744342000049,364.82187330001034,366.4744342000049,364.82187330001034,366.4744342000049,366.4410077000066,366.94168630000786,366.4410077000066,366.94168630000786,366.4410077000066,366.94168630000786,366.4410077000066,366.94168630000786,366.4410077000066,366.94168630000786,366.4410077000066,366.94168630000786,366.4410077000066,366.94168630000786,366.4410077000066,366.94168630000786,364.82187330001034,None,366.94168630000786,367.60925809999753,1.6400000000000012,367.6259204000089,None,368.3770246000058,None,,,,,,,[0.65413043],2.0400000000000014,0.7608695652173914,11044,002,2024_Mar_24_1504,MFTM_A_new1021,2021.2.3,59.710689769994,
,,,,,,,,stim/Instruction_adaptive.png,conditions/adaptive.xlsx,test,0.6,0.6,0.6,-0.6,-0.6,right,R,,,,,0,1,1,1,0,46,46,8,,,,,,,,,,,,,,,,,,,,,,,,,,,,,,,,,,,,,,,,,,,,368.87795700000424,None,right,1,1.6299952999979723,369.3788243000017,371.48212919999787,369.3788243000017,370.9815491000045,369.3788243000017,370.9815491000045,369.3788243000017,370.9815491000045,369.3788243000017,370.9815491000045,369.3788243000017,370.9815491000045,370.96477869999944,371.46566139999777,370.96477869999944,371.46566139999777,370.96477869999944,371.46566139999777,370.96477869999944,371.46566139999777,370.96477869999944,371.46566139999777,370.96477869999944,371.46566139999777,370.96477869999944,371.46566139999777,370.96477869999944,371.46566139999777,369.3788243000017,None,371.46566139999777,372.1336092999991,1.6000000000000012,372.1492183000082,None,372.9006621000008,None,,,,,,,[0.6593617],2.0800000000000014,0.7659574468085106,11044,002,2024_Mar_24_1504,MFTM_A_new1021,2021.2.3,59.710689769994,
,,,,,,,,stim/Instruction_adaptive.png,conditions/adaptive.xlsx,test,-0.6,-0.6,-0.6,0.6,0.6,left,L,,,,,0,1,1,1,0,47,47,37,,,,,,,,,,,,,,,,,,,,,,,,,,,,,,,,,,,,,,,,,,,,373.4017690000037,None,left,1,1.6587729000020772,373.90209160000086,375.97200360000716,373.90209160000086,375.47139089999837,373.90209160000086,375.47139089999837,373.90209160000086,375.47139089999837,373.90209160000086,375.47139089999837,373.90209160000086,375.47139089999837,375.4546527000057,375.9552460999985,375.4546527000057,375.9552460999985,375.4546527000057,375.9552460999985,375.4546527000057,375.9552460999985,375.4546527000057,375.9552460999985,375.4546527000057,375.9552460999985,375.4546527000057,375.9552460999985,375.4546527000057,375.9552460999985,373.90209160000086,None,375.93849910001154,376.6064353999973,1.5600000000000012,376.6393916000088,None,377.3907431999978,None,,,,,,,[0.66520833],2.1200000000000014,0.7708333333333334,11044,002,2024_Mar_24_1504,MFTM_A_new1021,2021.2.3,59.710689769994,
,,,,,,,,stim/Instruction_adaptive.png,conditions/adaptive.xlsx,test,-0.6,-0.6,-0.6,0.6,0.6,left,L,,,,,0,1,1,1,0,48,48,67,,,,,,,,,,,,,,,,,,,,,,,,,,,,,,,,,,,,,,,,,,,,377.8913504000084,None,left,1,2.0646057999983896,378.39234590000706,380.41223159999936,378.39234590000706,379.91113730000507,378.39234590000706,379.91113730000507,378.39234590000706,379.91113730000507,378.39234590000706,379.91113730000507,378.39234590000706,379.91113730000507,379.8943627000117,380.3954512000055,379.8943627000117,380.3954512000055,379.8943627000117,380.3954512000055,379.8943627000117,380.3954512000055,379.8943627000117,380.3954512000055,379.8943627000117,380.3954512000055,379.8943627000117,380.3954512000055,379.8943627000117,380.3954512000055,378.39234590000706,None,380.3954512000055,None,1.5100000000000011,381.07976230001077,None,381.83081890000904,None,,,,,,,[0.67183673],2.1500000000000012,0.7755102040816326,11044,002,2024_Mar_24_1504,MFTM_A_new1021,2021.2.3,59.710689769994,
,,,,,,,,stim/Instruction_adaptive.png,conditions/adaptive.xlsx,test,-0.6,-0.6,-0.6,0.6,0.6,left,L,,,,,0,1,1,1,0,49,49,75,,,,,,,,,,,,,,,,,,,,,,,,,,,,,,,,,,,,,,,,,,,,382.33151109999744,None,left,1,2.4407211000070674,382.8329184000031,384.81874660000904,382.8329184000031,384.3177645000105,382.8329184000031,384.3177645000105,382.8329184000031,384.3177645000105,382.8329184000031,384.3177645000105,382.8329184000031,384.3177645000105,384.30112879999797,384.8026183000038,384.30112879999797,384.8026183000038,384.30112879999797,384.8026183000038,384.30112879999797,384.8026183000038,384.30112879999797,384.8026183000038,384.30112879999797,384.8026183000038,384.30112879999797,384.8026183000038,384.30112879999797,384.8026183000038,382.8329184000031,None,384.8026183000038,385.4863008000102,1.480000000000001,385.5030745000113,None,386.2542692999996,None,,,,,,,[0.6788],2.1900000000000013,0.78,11044,002,2024_Mar_24_1504,MFTM_A_new1021,2021.2.3,59.710689769994,
,,,,,,,,stim/Instruction_adaptive.png,conditions/adaptive.xlsx,test,0.6,0.6,0.6,-0.6,-0.6,right,R,,,,,0,1,1,1,0,50,50,22,,,,,,,,,,,,,,,,,,,,,,,,,,,,,,,,,,,,,,,,,,,,386.75780370000575,None,right,1,2.001594000001205,387.25625279999804,389.2086684000096,387.25625279999804,388.7077600000048,387.25625279999804,388.7077600000048,387.25625279999804,388.7077600000048,387.25625279999804,388.7077600000048,387.25625279999804,388.7077600000048,388.6745813000016,389.17500129999826,388.6745813000016,389.17500129999826,388.6745813000016,389.17500129999826,388.6745813000016,389.17500129999826,388.6745813000016,389.17500129999826,388.6745813000016,389.17500129999826,388.6745813000016,389.17500129999826,388.6745813000016,389.17500129999826,387.25625279999804,None,389.17500129999826,389.87628500000574,1.440000000000001,389.89293430000544,None,390.64416419999907,None,,,,,,,[0.68627451],2.2200000000000015,0.7843137254901961,11044,002,2024_Mar_24_1504,MFTM_A_new1021,2021.2.3,59.710689769994,
,,,,,,,,stim/Instruction_adaptive.png,conditions/adaptive.xlsx,test,0.6,0.6,0.6,-0.6,-0.6,right,R,,,,,0,1,1,1,0,51,51,26,,,,,,,,,,,,,,,,,,,,,,,,,,,,,,,,,,,,,,,,,,,,391.14485300000524,None,left,0,2.0766249999869615,391.6454828999995,393.5657557000086,391.6454828999995,393.06447379999736,391.6454828999995,393.06447379999736,391.6454828999995,393.06447379999736,391.6454828999995,393.06447379999736,391.6454828999995,393.06447379999736,393.047687600003,393.5487196000031,393.047687600003,393.5487196000031,393.047687600003,393.5487196000031,393.047687600003,393.5487196000031,393.047687600003,393.5487196000031,393.047687600003,393.5487196000031,393.047687600003,393.5487196000031,393.047687600003,393.5487196000031,391.6454828999995,None,393.5317713000113,394.233662300001,1.410000000000001,394.24920669999847,None,395.0006224000099,None,,,,,,,[0.69403846],2.1200000000000014,0.7692307692307693,11044,002,2024_Mar_24_1504,MFTM_A_new1021,2021.2.3,59.710689769994,
,,,,,,,,stim/Instruction_adaptive.png,conditions/adaptive.xlsx,test,-0.6,-0.6,-0.6,0.6,0.6,left,L,,,,,0,1,1,1,0,52,52,79,,,,,,,,,,,,,,,,,,,,,,,,,,,,,,,,,,,,,,,,,,,,395.50149950000923,None,left,1,1.6071062000119127,396.0023174000089,398.0221843000036,396.0023174000089,397.5216870000004,396.0023174000089,397.5216870000004,396.0023174000089,397.5216870000004,396.0023174000089,397.5216870000004,396.0023174000089,397.5216870000004,397.4878385000047,397.98860710000736,397.4878385000047,397.98860710000736,397.4878385000047,397.98860710000736,397.4878385000047,397.98860710000736,397.4878385000047,397.98860710000736,397.4878385000047,397.98860710000736,397.4878385000047,397.98860710000736,397.4878385000047,397.98860710000736,396.0023174000089,None,397.98860710000736,398.68959390000964,1.5100000000000011,398.7229757000023,None,399.47420820000116,None,,,,,,,[0.69962264],2.1600000000000015,0.7735849056603774,11044,002,2024_Mar_24_1504,MFTM_A_new1021,2021.2.3,59.710689769994,
,,,,,,,,stim/Instruction_adaptive.png,conditions/adaptive.xlsx,test,0.6,0.6,0.6,-0.6,-0.6,right,R,,,,,0,1,1,1,0,53,53,80,,,,,,,,,,,,,,,,,,,,,,,,,,,,,,,,,,,,,,,,,,,,399.9754896000086,None,right,1,1.8540330000105314,400.4755167999974,402.445284100002,400.4755167999974,401.961155099998,400.4755167999974,401.961155099998,400.4755167999974,401.961155099998,400.4755167999974,401.961155099998,400.4755167999974,401.961155099998,401.9276627000072,402.42911120000645,401.9276627000072,402.42911120000645,401.9276627000072,402.42911120000645,401.9276627000072,402.42911120000645,401.9276627000072,402.42911120000645,401.9276627000072,402.42911120000645,401.9276627000072,402.42911120000645,401.9276627000072,402.42911120000645,400.4755167999974,None,402.42911120000645,403.14641430000484,1.470000000000001,403.1630953999993,None,403.91453100000217,None,,,,,,,[0.70574074],2.1900000000000013,0.7777777777777778,11044,002,2024_Mar_24_1504,MFTM_A_new1021,2021.2.3,59.710689769994,
,,,,,,,,stim/Instruction_adaptive.png,conditions/adaptive.xlsx,test,0.6,0.6,0.6,-0.6,-0.6,right,R,,,,,0,1,1,1,0,54,54,0,,,,,,,,,,,,,,,,,,,,,,,,,,,,,,,,,,,,,,,,,,,,404.4158938000037,None,right,1,1.8452657000016188,404.91636210000433,406.8696753999975,404.91636210000433,406.36868330001016,404.91636210000433,406.36868330001016,404.91636210000433,406.36868330001016,404.91636210000433,406.36868330001016,404.91636210000433,406.36868330001016,406.3343798999995,406.8352564000088,406.3343798999995,406.8352564000088,406.3343798999995,406.8352564000088,406.3343798999995,406.8352564000088,406.3343798999995,406.8352564000088,406.3343798999995,406.8352564000088,406.3343798999995,406.8352564000088,406.3343798999995,406.8352564000088,404.91636210000433,None,406.8352564000088,407.55303920000733,1.440000000000001,407.56931430000986,None,408.320798700006,None,,,,,,,[0.71218182],2.2200000000000015,0.7818181818181819,11044,002,2024_Mar_24_1504,MFTM_A_new1021,2021.2.3,59.710689769994,
,,,,,,,,stim/Instruction_adaptive.png,conditions/adaptive.xlsx,test,-0.6,-0.6,-0.6,0.6,0.6,left,L,,,,,0,1,1,1,0,55,55,65,,,,,,,,,,,,,,,,,,,,,,,,,,,,,,,,,,,,,,,,,,,,408.8214203000098,None,left,1,1.8158163000043714,409.3220728000015,411.24202700000023,409.3220728000015,410.7410710999975,409.3220728000015,410.7410710999975,409.3220728000015,410.7410710999975,409.3220728000015,410.7410710999975,409.3220728000015,410.7410710999975,410.70855850000225,411.20856410000124,410.70855850000225,411.20856410000124,410.70855850000225,411.20856410000124,410.70855850000225,411.20856410000124,410.70855850000225,411.20856410000124,410.70855850000225,411.20856410000124,410.70855850000225,411.20856410000124,410.70855850000225,411.20856410000124,409.3220728000015,None,411.20856410000124,411.9437157000066,1.410000000000001,411.97657910001,None,412.72750920000544,None,,,,,,,[0.71892857],2.2500000000000018,0.7857142857142857,11044,002,2024_Mar_24_1504,MFTM_A_new1021,2021.2.3,59.710689769994,
,,,,,,,,stim/Instruction_adaptive.png,conditions/adaptive.xlsx,test,0.6,0.6,0.6,-0.6,-0.6,right,R,,,,,0,1,1,1,0,56,56,6,,,,,,,,,,,,,,,,,,,,,,,,,,,,,,,,,,,,,,,,,,,,413.2286419000011,None,right,1,1.481117200004519,413.7289918000024,415.61527419999766,413.7289918000024,415.11444440000923,413.7289918000024,415.11444440000923,413.7289918000024,415.11444440000923,413.7289918000024,415.11444440000923,413.7289918000024,415.11444440000923,415.0977016000106,415.5992629000102,415.0977016000106,415.5992629000102,415.0977016000106,415.5992629000102,415.0977016000106,415.5992629000102,415.0977016000106,415.5992629000102,415.0977016000106,415.5992629000102,415.0977016000106,415.5992629000102,415.0977016000106,415.5992629000102,413.7289918000024,None,415.5992629000102,416.3328734000097,1.380000000000001,416.3496087000094,None,417.10178930000984,None,,,,,,,[0.72596491],2.2800000000000016,0.7894736842105263,11044,002,2024_Mar_24_1504,MFTM_A_new1021,2021.2.3,59.710689769994,
,,,,,,,,stim/Instruction_adaptive.png,conditions/adaptive.xlsx,test,0.6,0.6,0.6,-0.6,-0.6,right,R,,,,,0,1,1,1,0,57,57,52,,,,,,,,,,,,,,,,,,,,,,,,,,,,,,,,,,,,,,,,,,,,417.6021061000065,None,left,0,2.0508374000055483,418.10337589999835,419.95512530000997,418.10337589999835,419.4542722000042,418.10337589999835,419.4542722000042,418.10337589999835,419.4542722000042,418.10337589999835,419.4542722000042,418.10337589999835,419.4542722000042,419.43754810000246,419.9383550000057,419.43754810000246,419.9383550000057,419.43754810000246,419.9383550000057,419.43754810000246,419.9383550000057,419.43754810000246,419.9383550000057,419.43754810000246,419.9383550000057,419.43754810000246,419.9383550000057,419.43754810000246,419.9383550000057,418.10337589999835,None,419.9383550000057,420.67272909999883,1.350000000000001,420.6906485000072,None,421.4410540000099,None,,,,,,,[0.73327586],2.2000000000000015,0.7758620689655172,11044,002,2024_Mar_24_1504,MFTM_A_new1021,2021.2.3,59.710689769994,
,,,,,,,,stim/Instruction_adaptive.png,conditions/adaptive.xlsx,test,-0.6,-0.6,-0.6,0.6,0.6,left,L,,,,,0,1,1,1,0,58,58,93,,,,,,,,,,,,,,,,,,,,,,,,,,,,,,,,,,,,,,,,,,,,421.94208079999953,None,left,1,1.9200622999924235,422.4422457000037,424.37841230000777,422.4422457000037,423.87766140000895,422.4422457000037,423.87766140000895,422.4422457000037,423.87766140000895,422.4422457000037,423.87766140000895,422.4422457000037,423.87766140000895,423.86186240000825,424.361613400004,423.86186240000825,424.361613400004,423.86186240000825,424.361613400004,423.86186240000825,424.361613400004,423.86186240000825,424.361613400004,423.86186240000825,424.361613400004,423.86186240000825,424.361613400004,423.86186240000825,424.361613400004,422.4422457000037,None,424.361613400004,None,1.430000000000001,425.112749500011,None,425.86384170000383,None,,,,,,,[0.73898305],2.2300000000000013,0.7796610169491526,11044,002,2024_Mar_24_1504,MFTM_A_new1021,2021.2.3,59.710689769994,
,,,,,,,,stim/Instruction_adaptive.png,conditions/adaptive.xlsx,test,0.6,0.6,0.6,-0.6,-0.6,right,R,,,,,0,1,1,1,0,59,59,20,,,,,,,,,,,,,,,,,,,,,,,,,,,,,,,,,,,,,,,,,,,,426.36497550000786,None,right,1,1.9129173999972409,426.86542539999937,428.768290100008,426.86542539999937,428.2675847000064,426.86542539999937,428.2675847000064,426.86542539999937,428.2675847000064,426.86542539999937,428.2675847000064,426.86542539999937,428.2675847000064,428.2508574000094,428.75162910000654,428.2508574000094,428.75162910000654,428.2508574000094,428.75162910000654,428.2508574000094,428.75162910000654,428.2508574000094,428.75162910000654,428.2508574000094,428.75162910000654,428.2508574000094,428.75162910000654,428.2508574000094,428.75162910000654,426.86542539999937,None,428.75162910000654,429.5028022000042,1.400000000000001,429.519360700011,None,430.2705300000089,None,,,,,,,[0.745],2.2500000000000018,0.7833333333333333,11044,002,2024_Mar_24_1504,MFTM_A_new1021,2021.2.3,59.710689769994,
,,,,,,,,stim/Instruction_adaptive.png,conditions/adaptive.xlsx,test,-0.6,-0.6,-0.6,0.6,0.6,left,L,,,,,0,1,1,1,0,60,60,91,,,,,,,,,,,,,,,,,,,,,,,,,,,,,,,,,,,,,,,,,,,,430.7716067000001,None,right,0,1.5869458000088343,431.2720573000115,433.15818660000514,431.2720573000115,432.65767179999966,431.2720573000115,432.65767179999966,431.2720573000115,432.65767179999966,431.2720573000115,432.65767179999966,431.2720573000115,432.65767179999966,432.64087870001094,433.14151700001094,432.64087870001094,433.14151700001094,432.64087870001094,433.14151700001094,432.64087870001094,433.14151700001094,432.64087870001094,433.14151700001094,432.64087870001094,433.14151700001094,432.64087870001094,433.14151700001094,432.64087870001094,433.14151700001094,431.2720573000115,None,433.14151700001094,433.8927197000012,1.380000000000001,433.9093544000061,None,434.66051290000905,None,,,,,,,[0.75114754],2.1700000000000017,0.7704918032786885,11044,002,2024_Mar_24_1504,MFTM_A_new1021,2021.2.3,59.710689769994,
,,,,,,,,stim/Instruction_adaptive.png,conditions/adaptive.xlsx,test,-0.6,-0.6,-0.6,0.6,0.6,left,L,,,,,0,1,1,1,0,61,61,21,,,,,,,,,,,,,,,,,,,,,,,,,,,,,,,,,,,,,,,,,,,,435.16160530000343,None,left,1,1.5483437000075355,435.6627656000055,437.63178330000665,435.6627656000055,437.13181990000885,435.6627656000055,437.13181990000885,435.6627656000055,437.13181990000885,435.6627656000055,437.13181990000885,435.6627656000055,437.13181990000885,437.09794839999813,437.598962700009,437.09794839999813,437.598962700009,437.09794839999813,437.598962700009,437.09794839999813,437.598962700009,437.09794839999813,437.598962700009,437.09794839999813,437.598962700009,437.09794839999813,437.598962700009,437.09794839999813,437.598962700009,435.6627656000055,None,437.598962700009,438.36709050000354,1.460000000000001,438.40051920000406,None,439.151563300009,None,,,,,,,[0.75580645],2.2000000000000015,0.7741935483870968,11044,002,2024_Mar_24_1504,MFTM_A_new1021,2021.2.3,59.710689769994,
,,,,,,,,stim/Instruction_adaptive.png,conditions/adaptive.xlsx,test,0.6,0.6,0.6,-0.6,-0.6,right,R,,,,,0,1,1,1,0,62,62,76,,,,,,,,,,,,,,,,,,,,,,,,,,,,,,,,,,,,,,,,,,,,439.6514896000008,None,left,0,1.6592265000072075,440.1522379000089,442.08931219999795,440.1522379000089,441.58786549999786,440.1522379000089,441.58786549999786,440.1522379000089,441.58786549999786,440.1522379000089,441.58786549999786,440.1522379000089,441.58786549999786,441.5716805999982,442.07268860000477,441.5716805999982,442.07268860000477,441.5716805999982,442.07268860000477,441.5716805999982,442.07268860000477,441.5716805999982,442.07268860000477,441.5716805999982,442.07268860000477,441.5716805999982,442.07268860000477,441.5716805999982,442.07268860000477,440.1522379000089,None,442.07268860000477,442.8401930000109,1.430000000000001,442.8560706999997,None,443.60808740000357,None,,,,,,,[0.76079365],2.110000000000001,0.7619047619047619,11044,002,2024_Mar_24_1504,MFTM_A_new1021,2021.2.3,59.710689769994,
,,,,,,,,stim/Instruction_adaptive.png,conditions/adaptive.xlsx,test,-0.6,-0.6,-0.6,0.6,0.6,left,L,,,,,0,1,1,1,0,63,63,29,,,,,,,,,,,,,,,,,,,,,,,,,,,,,,,,,,,,,,,,,,,,444.10801310000534,None,left,1,1.4979173000028823,444.60895130000426,446.6286012000055,444.60895130000426,446.12789200000407,444.60895130000426,446.12789200000407,444.60895130000426,446.12789200000407,444.60895130000426,446.12789200000407,444.60895130000426,446.12789200000407,446.1113389000093,446.6120040000096,446.1113389000093,446.6120040000096,446.1113389000093,446.6120040000096,446.1113389000093,446.6120040000096,446.1113389000093,446.6120040000096,446.1113389000093,446.6120040000096,446.1113389000093,446.6120040000096,446.1113389000093,446.6120040000096,444.60895130000426,None,446.6120040000096,447.37991860001057,1.5200000000000011,447.39614870000514,None,448.14765400000033,None,,,,,,,[0.76421875],2.1400000000000015,0.765625,11044,002,2024_Mar_24_1504,MFTM_A_new1021,2021.2.3,59.710689769994,
,,,,,,,,stim/Instruction_adaptive.png,conditions/adaptive.xlsx,test,0.6,0.6,0.6,-0.6,-0.6,right,R,,,,,0,1,1,1,0,64,64,38,,,,,,,,,,,,,,,,,,,,,,,,,,,,,,,,,,,,,,,,,,,,448.6484233000083,None,right,1,1.6214579000079539,449.1500250000099,451.15260220000346,449.1500250000099,450.6518165000016,449.1500250000099,450.6518165000016,449.1500250000099,450.6518165000016,449.1500250000099,450.6518165000016,449.1500250000099,450.6518165000016,450.6182429000037,451.1195641000086,450.6182429000037,451.1195641000086,450.6182429000037,451.1195641000086,450.6182429000037,451.1195641000086,450.6182429000037,451.1195641000086,450.6182429000037,451.1195641000086,450.6182429000037,451.1195641000086,450.6182429000037,451.1195641000086,449.1500250000099,None,451.1195641000086,451.90314110000327,1.490000000000001,451.9199473000044,None,452.6714132000052,None,,,,,,,[0.768],2.1700000000000017,0.7692307692307693,11044,002,2024_Mar_24_1504,MFTM_A_new1021,2021.2.3,59.710689769994,
,,,,,,,,stim/Instruction_adaptive.png,conditions/adaptive.xlsx,test,0.6,0.6,0.6,-0.6,-0.6,right,R,,,,,0,1,1,1,0,65,65,50,,,,,,,,,,,,,,,,,,,,,,,,,,,,,,,,,,,,,,,,,,,,453.1717578000098,None,right,1,2.0510189999913564,453.6725570999988,455.6423866000114,453.6725570999988,455.1425045000069,453.6725570999988,455.1425045000069,453.6725570999988,455.1425045000069,453.6725570999988,455.1425045000069,453.6725570999988,455.1425045000069,455.12473989999853,455.6257089999999,455.12473989999853,455.6257089999999,455.12473989999853,455.6257089999999,455.12473989999853,455.6257089999999,455.12473989999853,455.6257089999999,455.12473989999853,455.6257089999999,455.12473989999853,455.6257089999999,455.12473989999853,455.6257089999999,453.6725570999988,None,455.60890649999783,456.3932805000077,1.460000000000001,456.4099819000112,None,457.16126890000305,None,,,,,,,[0.77212121],2.2000000000000015,0.7727272727272727,11044,002,2024_Mar_24_1504,MFTM_A_new1021,2021.2.3,59.710689769994,
,,,,,,,,stim/Instruction_adaptive.png,conditions/adaptive.xlsx,test,0.6,0.6,0.6,-0.6,-0.6,right,R,,,,,0,1,1,1,0,66,66,10,,,,,,,,,,,,,,,,,,,,,,,,,,,,,,,,,,,,,,,,,,,,457.6621000000014,None,right,1,1.928591799995047,458.1627154000016,460.0989150000096,458.1627154000016,459.5981738999981,458.1627154000016,459.5981738999981,458.1627154000016,459.5981738999981,458.1627154000016,459.5981738999981,458.1627154000016,459.5981738999981,459.5821935999993,460.08218950001174,459.5821935999993,460.08218950001174,459.5821935999993,460.08218950001174,459.5821935999993,460.08218950001174,459.5821935999993,460.08218950001174,459.5821935999993,460.08218950001174,459.5821935999993,460.08218950001174,459.5821935999993,460.08218950001174,458.1627154000016,None,460.0654962999979,460.8505243000109,1.430000000000001,460.90129150000575,None,461.6514393000107,None,,,,,,,[0.77656716],2.2300000000000013,0.7761194029850746,11044,002,2024_Mar_24_1504,MFTM_A_new1021,2021.2.3,59.710689769994,
,,,,,,,,stim/Instruction_adaptive.png,conditions/adaptive.xlsx,test,-0.6,-0.6,-0.6,0.6,0.6,left,L,,,,,0,1,1,1,0,67,67,55,,,,,,,,,,,,,,,,,,,,,,,,,,,,,,,,,,,,,,,,,,,,462.15233080000326,None,left,1,2.1352592000039294,462.652743300001,464.555680400008,462.652743300001,464.05525420000777,462.652743300001,464.05525420000777,462.652743300001,464.05525420000777,462.652743300001,464.05525420000777,462.652743300001,464.05525420000777,464.0383731000038,464.53977410000516,464.0383731000038,464.53977410000516,464.0383731000038,464.53977410000516,464.0383731000038,464.53977410000516,464.0383731000038,464.53977410000516,464.0383731000038,464.53977410000516,464.0383731000038,464.53977410000516,464.0383731000038,464.53977410000516,462.652743300001,None,464.53977410000516,465.3236853999988,1.400000000000001,465.3403290999995,None,466.0914260999998,None,,,,,,,[0.78132353],2.2500000000000018,0.7794117647058824,11044,002,2024_Mar_24_1504,MFTM_A_new1021,2021.2.3,59.710689769994,
,,,,,,,,stim/Instruction_adaptive.png,conditions/adaptive.xlsx,test,0.6,0.6,0.6,-0.6,-0.6,right,R,,,,,0,1,1,1,0,68,68,14,,,,,,,,,,,,,,,,,,,,,,,,,,,,,,,,,,,,,,,,,,,,466.5921109000046,None,right,1,2.0227267000009306,467.09283760000835,468.9793034000031,467.09283760000835,468.4783776000113,467.09283760000835,468.4783776000113,467.09283760000835,468.4783776000113,467.09283760000835,468.4783776000113,467.09283760000835,468.4783776000113,468.46187369999825,468.9623033000098,468.46187369999825,468.9623033000098,468.46187369999825,468.9623033000098,468.46187369999825,468.9623033000098,468.46187369999825,468.9623033000098,468.46187369999825,468.9623033000098,468.46187369999825,468.9623033000098,468.46187369999825,468.9623033000098,467.09283760000835,None,468.9623033000098,None,1.380000000000001,469.7639044000098,None,470.51473409999744,None,,,,,,,[0.78623188],2.2800000000000016,0.782608695652174,11044,002,2024_Mar_24_1504,MFTM_A_new1021,2021.2.3,59.710689769994,
,,,,,,,,stim/Instruction_adaptive.png,conditions/adaptive.xlsx,test,0.6,0.6,0.6,-0.6,-0.6,right,R,,,,,0,1,1,1,0,69,69,32,,,,,,,,,,,,,,,,,,,,,,,,,,,,,,,,,,,,,,,,,,,,471.01543060000404,None,right,1,1.559292899997672,471.51670960000774,473.36893019999843,471.51670960000774,472.8682511000079,471.51670960000774,472.8682511000079,471.51670960000774,472.8682511000079,471.51670960000774,472.8682511000079,471.51670960000774,472.8682511000079,472.851651200006,473.35247230000095,472.851651200006,473.35247230000095,472.851651200006,473.35247230000095,472.851651200006,473.35247230000095,472.851651200006,473.35247230000095,472.851651200006,473.35247230000095,472.851651200006,473.35247230000095,472.851651200006,473.35247230000095,471.51670960000774,None,473.35247230000095,474.15361510000366,1.350000000000001,474.17031359999964,None,474.9215691999998,None,,,,,,,[0.79142857],2.3000000000000016,0.7857142857142857,11044,002,2024_Mar_24_1504,MFTM_A_new1021,2021.2.3,59.710689769994,
,,,,,,,,stim/Instruction_adaptive.png,conditions/adaptive.xlsx,test,-0.6,-0.6,-0.6,0.6,0.6,left,L,,,,,0,1,1,1,0,70,70,17,,,,,,,,,,,,,,,,,,,,,,,,,,,,,,,,,,,,,,,,,,,,475.42216149999877,None,left,1,1.7450079999980517,475.92279090000375,477.77616449999914,475.92279090000375,477.27549650000583,475.92279090000375,477.27549650000583,475.92279090000375,477.27549650000583,475.92279090000375,477.27549650000583,475.92279090000375,477.27549650000583,477.2422687000071,477.7431815000018,477.2422687000071,477.7431815000018,477.2422687000071,477.7431815000018,477.2422687000071,477.7431815000018,477.2422687000071,477.7431815000018,477.2422687000071,477.7431815000018,477.2422687000071,477.7431815000018,477.2422687000071,477.7431815000018,475.92279090000375,None,477.7431815000018,478.54364740000165,1.340000000000001,478.5602770000114,None,479.3112725000101,None,,,,,,,[0.79661972],2.330000000000002,0.7887323943661971,11044,002,2024_Mar_24_1504,MFTM_A_new1021,2021.2.3,59.710689769994,
,,,,,,,,stim/Instruction_adaptive.png,conditions/adaptive.xlsx,test,-0.6,-0.6,-0.6,0.6,0.6,left,L,,,,,0,1,1,1,0,71,71,85,,,,,,,,,,,,,,,,,,,,,,,,,,,,,,,,,,,,,,,,,,,,479.8121678000025,None,left,1,1.4673877000022912,480.3126848000102,482.1322413000016,480.3126848000102,481.63155469999765,480.3126848000102,481.63155469999765,480.3126848000102,481.63155469999765,480.3126848000102,481.63155469999765,480.3126848000102,481.63155469999765,481.6153620000114,482.11606369999936,481.6153620000114,482.11606369999936,481.6153620000114,482.11606369999936,481.6153620000114,482.11606369999936,481.6153620000114,482.11606369999936,481.6153620000114,482.11606369999936,481.6153620000114,482.11606369999936,481.6153620000114,482.11606369999936,480.3126848000102,None,482.09931700000016,482.91689680000127,1.310000000000001,482.9340605000034,None,483.6846712000115,None,,,,,,,[0.80208333],2.3500000000000014,0.7916666666666666,11044,002,2024_Mar_24_1504,MFTM_A_new1021,2021.2.3,59.710689769994,
,,,,,,,,stim/Instruction_adaptive.png,conditions/adaptive.xlsx,test,0.6,0.6,0.6,-0.6,-0.6,right,R,,,,,0,1,1,1,0,72,72,60,,,,,,,,,,,,,,,,,,,,,,,,,,,,,,,,,,,,,,,,,,,,484.18604310000956,None,left,0,2.2544677999976557,484.68598930000735,486.48872629999823,484.68598930000735,485.98872259999916,484.68598930000735,485.98872259999916,484.68598930000735,485.98872259999916,484.68598930000735,485.98872259999916,484.68598930000735,485.98872259999916,485.95469640000374,486.4555435000075,485.95469640000374,486.4555435000075,485.95469640000374,486.4555435000075,485.95469640000374,486.4555435000075,485.95469640000374,486.4555435000075,485.95469640000374,486.4555435000075,485.95469640000374,486.4555435000075,485.95469640000374,486.4555435000075,484.68598930000735,None,486.4555435000075,487.2737352999975,1.290000000000001,487.3080418000027,None,488.05865070001164,None,,,,,,,[0.80767123],2.2800000000000016,0.7808219178082192,11044,002,2024_Mar_24_1504,MFTM_A_new1021,2021.2.3,59.710689769994,
,,,,,,,,stim/Instruction_adaptive.png,conditions/adaptive.xlsx,test,0.6,0.6,0.6,-0.6,-0.6,right,R,,,,,0,1,1,1,0,73,73,58,,,,,,,,,,,,,,,,,,,,,,,,,,,,,,,,,,,,,,,,,,,,488.5589057000034,None,right,1,1.4889722999942023,489.0597237000038,490.91225400000985,489.0597237000038,490.41124390000186,489.0597237000038,490.41124390000186,489.0597237000038,490.41124390000186,489.0597237000038,490.41124390000186,489.0597237000038,490.41124390000186,490.39490270000533,490.89549130000523,490.39490270000533,490.89549130000523,490.39490270000533,490.89549130000523,490.39490270000533,490.89549130000523,490.39490270000533,490.89549130000523,490.39490270000533,490.89549130000523,490.39490270000533,490.89549130000523,490.39490270000533,490.89549130000523,489.0597237000038,None,490.89549130000523,491.7133635000064,1.350000000000001,491.7299311000097,None,492.4811511000007,None,,,,,,,[0.8122973],2.3000000000000016,0.7837837837837838,11044,002,2024_Mar_24_1504,MFTM_A_new1021,2021.2.3,59.710689769994,
,,,,,,,,stim/Instruction_adaptive.png,conditions/adaptive.xlsx,test,-0.6,-0.6,-0.6,0.6,0.6,left,L,,,,,0,1,1,1,0,74,74,41,,,,,,,,,,,,,,,,,,,,,,,,,,,,,,,,,,,,,,,,,,,,492.9820375999989,None,left,1,1.5617778000014368,493.48268280000775,495.3356853000005,493.48268280000775,494.8357374000043,493.48268280000775,494.8357374000043,493.48268280000775,494.8357374000043,493.48268280000775,494.8357374000043,493.48268280000775,494.8357374000043,494.80207400000654,495.30222520000825,494.80207400000654,495.30222520000825,494.80207400000654,495.30222520000825,494.80207400000654,495.30222520000825,494.80207400000654,495.30222520000825,494.80207400000654,495.30222520000825,494.80207400000654,495.30222520000825,494.80207400000654,495.30222520000825,493.48268280000775,None,495.30222520000825,496.120717400001,1.340000000000001,496.1533885000099,None,496.90490639999916,None,,,,,,,[0.81693333],2.330000000000002,0.7866666666666666,11044,002,2024_Mar_24_1504,MFTM_A_new1021,2021.2.3,59.710689769994,
,,,,,,,,stim/Instruction_adaptive.png,conditions/adaptive.xlsx,test,0.6,0.6,0.6,-0.6,-0.6,right,R,,,,,0,1,1,1,0,75,75,62,,,,,,,,,,,,,,,,,,,,,,,,,,,,,,,,,,,,,,,,,,,,497.405247600007,None,right,1,1.650971799987019,497.90594630000123,499.7254777000053,497.90594630000123,499.2247808000102,497.90594630000123,499.2247808000102,497.90594630000123,499.2247808000102,497.90594630000123,499.2247808000102,497.90594630000123,499.2247808000102,499.19125620000705,499.6921410000068,499.19125620000705,499.6921410000068,499.19125620000705,499.6921410000068,499.19125620000705,499.6921410000068,499.19125620000705,499.6921410000068,499.19125620000705,499.6921410000068,499.19125620000705,499.6921410000068,499.19125620000705,499.6921410000068,497.90594630000123,None,499.6921410000068,500.52912300000025,1.310000000000001,500.54310920000717,None,501.2944838000112,None,,,,,,,[0.82184211],2.3500000000000014,0.7894736842105263,11044,002,2024_Mar_24_1504,MFTM_A_new1021,2021.2.3,59.710689769994,
,,,,,,,,stim/Instruction_adaptive.png,conditions/adaptive.xlsx,test,-0.6,-0.6,-0.6,0.6,0.6,left,L,,,,,0,1,1,1,0,76,76,3,,,,,,,,,,,,,,,,,,,,,,,,,,,,,,,,,,,,,,,,,,,,501.79516950000834,None,left,1,1.7718099000048824,502.29687900000135,504.0988215000107,502.29687900000135,503.5979231000092,502.29687900000135,503.5979231000092,502.29687900000135,503.5979231000092,502.29687900000135,503.5979231000092,502.29687900000135,503.5979231000092,503.56499880000774,504.06499540001096,503.56499880000774,504.06499540001096,503.56499880000774,504.06499540001096,503.56499880000774,504.06499540001096,503.56499880000774,504.06499540001096,503.56499880000774,504.06499540001096,503.56499880000774,504.06499540001096,503.56499880000774,504.06499540001096,502.29687900000135,None,504.06499540001096,504.9005321000004,1.290000000000001,504.91645800000697,None,505.6680044000095,None,,,,,,,[0.82688312],2.370000000000002,0.7922077922077922,11044,002,2024_Mar_24_1504,MFTM_A_new1021,2021.2.3,59.710689769994,
,,,,,,,,stim/Instruction_adaptive.png,conditions/adaptive.xlsx,test,-0.6,-0.6,-0.6,0.6,0.6,left,L,,,,,0,1,1,1,0,77,77,43,,,,,,,,,,,,,,,,,,,,,,,,,,,,,,,,,,,,,,,,,,,,506.16870619999827,None,left,1,1.5602158000110649,506.6691109000094,508.4389724000066,506.6691109000094,507.9546227000101,506.6691109000094,507.9546227000101,506.6691109000094,507.9546227000101,506.6691109000094,507.9546227000101,506.6691109000094,507.9546227000101,507.9212373000046,508.4219224999979,507.9212373000046,508.4219224999979,507.9212373000046,508.4219224999979,507.9212373000046,508.4219224999979,507.9212373000046,508.4219224999979,507.9212373000046,508.4219224999979,507.9212373000046,508.4219224999979,507.9212373000046,508.4219224999979,506.6691109000094,None,508.4219224999979,509.2569424000103,1.270000000000001,509.273362500011,None,510.0243722000014,None,,,,,,,[0.83205128],2.3900000000000015,0.7948717948717948,11044,002,2024_Mar_24_1504,MFTM_A_new1021,2021.2.3,59.710689769994,
,,,,,,,,stim/Instruction_adaptive.png,conditions/adaptive.xlsx,test,-0.6,-0.6,-0.6,0.6,0.6,left,L,,,,,0,1,1,1,0,78,78,1,,,,,,,,,,,,,,,,,,,,,,,,,,,,,,,,,,,,,,,,,,,,510.52512370000477,None,left,1,1.7869358999887481,511.0257438999979,512.7973258999991,511.0257438999979,512.2944999000028,511.0257438999979,512.2944999000028,511.0257438999979,512.2944999000028,511.0257438999979,512.2944999000028,511.0257438999979,512.2944999000028,512.2776913999987,512.7783503000101,512.2776913999987,512.7783503000101,512.2776913999987,512.7783503000101,512.2776913999987,512.7783503000101,512.2776913999987,512.7783503000101,512.2776913999987,512.7783503000101,512.2776913999987,512.7783503000101,512.2776913999987,512.7783503000101,511.0257438999979,None,512.7783503000101,None,1.260000000000001,513.6298021999974,None,514.3809244000004,None,,,,,,,[0.83721519],2.410000000000002,0.7974683544303798,11044,002,2024_Mar_24_1504,MFTM_A_new1021,2021.2.3,59.710689769994,
,,,,,,,,stim/Instruction_adaptive.png,conditions/adaptive.xlsx,test,0.6,0.6,0.6,-0.6,-0.6,right,R,,,,,0,1,1,1,0,79,79,98,,,,,,,,,,,,,,,,,,,,,,,,,,,,,,,,,,,,,,,,,,,,514.8816100000113,None,right,1,1.5666766000067582,515.3823719000065,517.1352417000016,515.3823719000065,516.6342296000075,515.3823719000065,516.6342296000075,515.3823719000065,516.6342296000075,515.3823719000065,516.6342296000075,515.3823719000065,516.6342296000075,516.6010433000047,517.1017129000102,516.6010433000047,517.1017129000102,516.6010433000047,517.1017129000102,516.6010433000047,517.1017129000102,516.6010433000047,517.1017129000102,516.6010433000047,517.1017129000102,516.6010433000047,517.1017129000102,516.6010433000047,517.1017129000102,515.3823719000065,None,517.1017129000102,517.9528865000029,1.2400000000000009,517.9695505999989,None,518.7209071000107,None,,,,,,,[0.8425],2.4300000000000015,0.8,11044,002,2024_Mar_24_1504,MFTM_A_new1021,2021.2.3,59.710689769994,
,,,,,,,,stim/Instruction_adaptive.png,conditions/adaptive.xlsx,test,-0.6,-0.6,-0.6,0.6,0.6,left,L,,,,,0,1,1,1,0,80,80,61,,,,,,,,,,,,,,,,,,,,,,,,,,,,,,,,,,,,,,,,,,,,519.2222130000009,None,left,1,1.6429930000012973,519.7225920000055,521.4423203000042,519.7225920000055,520.9581659000105,519.7225920000055,520.9581659000105,519.7225920000055,520.9581659000105,519.7225920000055,520.9581659000105,519.7225920000055,520.9581659000105,520.924139499999,521.4261600000027,520.924139499999,521.4261600000027,520.924139499999,521.4261600000027,520.924139499999,521.4261600000027,520.924139499999,521.4261600000027,520.924139499999,521.4261600000027,520.924139499999,521.4261600000027,520.924139499999,521.4261600000027,519.7225920000055,None,521.4261600000027,522.2770272000053,1.2200000000000009,522.3105456000048,None,523.0605973000056,None,,,,,,,[0.84790123],2.450000000000002,0.8024691358024691,11044,002,2024_Mar_24_1504,MFTM_A_new1021,2021.2.3,59.710689769994,
,,,,,,,,stim/Instruction_adaptive.png,conditions/adaptive.xlsx,test,0.6,0.6,0.6,-0.6,-0.6,right,R,,,,,0,1,1,1,0,81,81,46,,,,,,,,,,,,,,,,,,,,,,,,,,,,,,,,,,,,,,,,,,,,523.5616093999997,None,right,1,1.7671180000033928,524.0621384999977,525.7648627000017,524.0621384999977,525.263912800001,524.0621384999977,525.263912800001,524.0621384999977,525.263912800001,524.0621384999977,525.263912800001,524.0621384999977,525.263912800001,525.247680600005,525.7483284000045,525.247680600005,525.7483284000045,525.247680600005,525.7483284000045,525.247680600005,525.7483284000045,525.247680600005,525.7483284000045,525.247680600005,525.7483284000045,525.247680600005,525.7483284000045,525.247680600005,525.7483284000045,524.0621384999977,None,525.7483284000045,None,1.2000000000000008,526.6158501000027,None,527.3673142000043,None,,,,,,,[0.85341463],2.4700000000000015,0.8048780487804879,11044,002,2024_Mar_24_1504,MFTM_A_new1021,2021.2.3,59.710689769994,
,,,,,,,,stim/Instruction_adaptive.png,conditions/adaptive.xlsx,test,0.6,0.6,0.6,-0.6,-0.6,right,R,,,,,0,1,1,1,0,82,82,90,,,,,,,,,,,,,,,,,,,,,,,,,,,,,,,,,,,,,,,,,,,,527.8678014000034,None,right,1,1.692905800009612,528.3687678999995,530.0711269000021,528.3687678999995,529.5711200000078,528.3687678999995,529.5711200000078,528.3687678999995,529.5711200000078,528.3687678999995,529.5711200000078,528.3687678999995,529.5711200000078,529.5379616999999,530.0389355000079,529.5379616999999,530.0389355000079,529.5379616999999,530.0389355000079,529.5379616999999,530.0389355000079,529.5379616999999,530.0389355000079,529.5379616999999,530.0389355000079,529.5379616999999,530.0389355000079,529.5379616999999,530.0389355000079,528.3687678999995,None,530.0389355000079,530.9059630999982,1.1900000000000008,530.9228631000005,None,531.6736619000003,None,,,,,,,[0.85891566],2.490000000000002,0.8072289156626506,11044,002,2024_Mar_24_1504,MFTM_A_new1021,2021.2.3,59.710689769994,
,,,,,,,,stim/Instruction_adaptive.png,conditions/adaptive.xlsx,test,-0.6,-0.6,-0.6,0.6,0.6,left,L,,,,,0,1,1,1,0,83,83,57,,,,,,,,,,,,,,,,,,,,,,,,,,,,,,,,,,,,,,,,,,,,532.174328699999,None,right,0,1.7141069000062998,532.6751957000088,534.3442499000084,532.6751957000088,533.8604304000037,532.6751957000088,533.8604304000037,532.6751957000088,533.8604304000037,532.6751957000088,533.8604304000037,532.6751957000088,533.8604304000037,533.8272485000052,534.3276541000087,533.8272485000052,534.3276541000087,533.8272485000052,534.3276541000087,533.8272485000052,534.3276541000087,533.8272485000052,534.3276541000087,533.8272485000052,534.3276541000087,533.8272485000052,534.3276541000087,533.8272485000052,534.3276541000087,532.6751957000088,None,534.3276541000087,535.1956681000011,1.1700000000000008,535.2120546000078,None,535.9633948999981,None,,,,,,,[0.86452381],2.4300000000000015,0.7976190476190477,11044,002,2024_Mar_24_1504,MFTM_A_new1021,2021.2.3,59.710689769994,
,,,,,,,,stim/Instruction_adaptive.png,conditions/adaptive.xlsx,test,-0.6,-0.6,-0.6,0.6,0.6,left,L,,,,,0,1,1,1,0,84,84,35,,,,,,,,,,,,,,,,,,,,,,,,,,,,,,,,,,,,,,,,,,,,536.4642284000001,None,left,1,1.5526580000005197,536.9651872000104,538.7040708999994,536.9651872000104,538.2002320000029,536.9651872000104,538.2002320000029,536.9651872000104,538.2002320000029,536.9651872000104,538.2002320000029,536.9651872000104,538.2002320000029,538.1671197000105,538.6675015000073,538.1671197000105,538.6675015000073,538.1671197000105,538.6675015000073,538.1671197000105,538.6675015000073,538.1671197000105,538.6675015000073,538.1671197000105,538.6675015000073,538.1671197000105,538.6675015000073,538.1671197000105,538.6675015000073,536.9651872000104,None,538.6675015000073,539.5523405999993,1.2200000000000009,539.5688070000033,None,540.3200622000004,None,,,,,,,[0.86941176],2.450000000000002,0.8,11044,002,2024_Mar_24_1504,MFTM_A_new1021,2021.2.3,59.710689769994,
,,,,,,,,stim/Instruction_adaptive.png,conditions/adaptive.xlsx,test,-0.6,-0.6,-0.6,0.6,0.6,left,L,,,,,0,1,1,1,0,85,85,13,,,,,,,,,,,,,,,,,,,,,,,,,,,,,,,,,,,,,,,,,,,,540.8208753000072,None,left,1,1.9743267000012565,541.3215848000109,543.0240741000016,541.3215848000109,542.5232268000109,541.3215848000109,542.5232268000109,541.3215848000109,542.5232268000109,541.3215848000109,542.5232268000109,541.3215848000109,542.5232268000109,542.5066928000015,543.007474099999,542.5066928000015,543.007474099999,542.5066928000015,543.007474099999,542.5066928000015,543.007474099999,542.5066928000015,543.007474099999,542.5066928000015,543.007474099999,542.5066928000015,543.007474099999,542.5066928000015,543.007474099999,541.3215848000109,None,543.007474099999,543.892135800008,1.2000000000000008,543.9088944000105,None,544.6602663000085,None,,,,,,,[0.8744186],2.4700000000000015,0.8023255813953488,11044,002,2024_Mar_24_1504,MFTM_A_new1021,2021.2.3,59.710689769994,
,,,,,,,,stim/Instruction_adaptive.png,conditions/adaptive.xlsx,test,0.6,0.6,0.6,-0.6,-0.6,right,R,,,,,0,1,1,1,0,86,86,12,,,,,,,,,,,,,,,,,,,,,,,,,,,,,,,,,,,,,,,,,,,,545.160623600008,None,right,1,2.3040798000001814,545.6621708000021,547.3639575999987,545.6621708000021,546.8633471000066,545.6621708000021,546.8633471000066,545.6621708000021,546.8633471000066,545.6621708000021,546.8633471000066,545.6621708000021,546.8633471000066,546.8299094000104,547.3304485999979,546.8299094000104,547.3304485999979,546.8299094000104,547.3304485999979,546.8299094000104,547.3304485999979,546.8299094000104,547.3304485999979,546.8299094000104,547.3304485999979,546.8299094000104,547.3304485999979,546.8299094000104,547.3304485999979,545.6621708000021,None,547.3304485999979,548.2160646999982,1.1900000000000008,548.2328574999992,None,548.9835059000034,None,,,,,,,[0.87942529],2.490000000000002,0.8045977011494253,11044,002,2024_Mar_24_1504,MFTM_A_new1021,2021.2.3,59.710689769994,
,,,,,,,,stim/Instruction_adaptive.png,conditions/adaptive.xlsx,test,0.6,0.6,0.6,-0.6,-0.6,right,R,,,,,0,1,1,1,0,87,87,72,,,,,,,,,,,,,,,,,,,,,,,,,,,,,,,,,,,,,,,,,,,,549.4840748999995,None,right,1,1.5254615000012564,549.9847395000106,551.6539613000059,549.9847395000106,551.1696983000002,549.9847395000106,551.1696983000002,549.9847395000106,551.1696983000002,549.9847395000106,551.1696983000002,549.9847395000106,551.1696983000002,551.136318600009,551.6378879000113,551.136318600009,551.6378879000113,551.136318600009,551.6378879000113,551.136318600009,551.6378879000113,551.136318600009,551.6378879000113,551.136318600009,551.6378879000113,551.136318600009,551.6378879000113,551.136318600009,551.6378879000113,549.9847395000106,None,551.6378879000113,552.5218402000028,1.1700000000000008,552.5384805000067,None,553.2897589000058,None,,,,,,,[0.88454545],2.5100000000000016,0.8068181818181818,11044,002,2024_Mar_24_1504,MFTM_A_new1021,2021.2.3,59.710689769994,
,,,,,,,,stim/Instruction_adaptive.png,conditions/adaptive.xlsx,test,0.6,0.6,0.6,-0.6,-0.6,right,R,,,,,0,1,1,1,0,88,88,70,,,,,,,,,,,,,,,,,,,,,,,,,,,,,,,,,,,,,,,,,,,,553.790590500008,None,right,1,1.443009599999641,554.2910286000115,555.9443840000022,554.2910286000115,555.4434316000115,554.2910286000115,555.4434316000115,554.2910286000115,555.4434316000115,554.2910286000115,555.4434316000115,554.2910286000115,555.4434316000115,555.4270650000108,555.9279817000061,555.4270650000108,555.9279817000061,555.4270650000108,555.9279817000061,555.4270650000108,555.9279817000061,555.4270650000108,555.9279817000061,555.4270650000108,555.9279817000061,555.4270650000108,555.9279817000061,555.4270650000108,555.9279817000061,554.2910286000115,None,555.9279817000061,556.8284659000055,1.1500000000000008,556.84498970001,None,557.596151100006,None,,,,,,,[0.88977528],2.530000000000002,0.8089887640449438,11044,002,2024_Mar_24_1504,MFTM_A_new1021,2021.2.3,59.710689769994,
,,,,,,,,stim/Instruction_adaptive.png,conditions/adaptive.xlsx,test,-0.6,-0.6,-0.6,0.6,0.6,left,L,,,,,0,1,1,1,0,89,89,7,,,,,,,,,,,,,,,,,,,,,,,,,,,,,,,,,,,,,,,,,,,,558.0968627000111,None,left,1,1.600705899996683,558.5976501000114,560.2502964000014,558.5976501000114,559.7493891000049,558.5976501000114,559.7493891000049,558.5976501000114,559.7493891000049,558.5976501000114,559.7493891000049,558.5976501000114,559.7493891000049,559.7161329000082,560.2167449999979,559.7161329000082,560.2167449999979,559.7161329000082,560.2167449999979,559.7161329000082,560.2167449999979,559.7161329000082,560.2167449999979,559.7161329000082,560.2167449999979,559.7161329000082,560.2167449999979,559.7161329000082,560.2167449999979,558.5976501000114,None,560.2167449999979,561.1181032000022,1.1400000000000008,561.1348340999975,None,561.8859358000045,None,,,,,,,[0.895],2.540000000000002,0.8111111111111111,11044,002,2024_Mar_24_1504,MFTM_A_new1021,2021.2.3,59.710689769994,
,,,,,,,,stim/Instruction_adaptive.png,conditions/adaptive.xlsx,test,0.6,0.6,0.6,-0.6,-0.6,right,R,,,,,0,1,1,1,0,90,90,24,,,,,,,,,,,,,,,,,,,,,,,,,,,,,,,,,,,,,,,,,,,,562.3870946000097,None,right,1,1.6149624999961816,562.8873881000036,564.5235668000096,562.8873881000036,564.0226165000058,562.8873881000036,564.0226165000058,562.8873881000036,564.0226165000058,562.8873881000036,564.0226165000058,562.8873881000036,564.0226165000058,564.0057618999999,564.5067950000084,564.0057618999999,564.5067950000084,564.0057618999999,564.5067950000084,564.0057618999999,564.5067950000084,564.0057618999999,564.5067950000084,564.0057618999999,564.5067950000084,564.0057618999999,564.5067950000084,564.0057618999999,564.5067950000084,562.8873881000036,None,564.5067950000084,565.4080421000108,1.1300000000000008,565.4247393999976,None,566.1764598000009,None,,,,,,,[0.90021978],2.560000000000002,0.8131868131868132,11044,002,2024_Mar_24_1504,MFTM_A_new1021,2021.2.3,59.710689769994,
,,,,,,,,stim/Instruction_adaptive.png,conditions/adaptive.xlsx,test,-0.6,-0.6,-0.6,0.6,0.6,left,L,,,,,0,1,1,1,0,91,91,81,,,,,,,,,,,,,,,,,,,,,,,,,,,,,,,,,,,,,,,,,,,,566.6766601999989,None,left,1,1.589101200006553,567.1773547000048,568.8130501999985,567.1773547000048,568.3124087000033,567.1773547000048,568.3124087000033,567.1773547000048,568.3124087000033,567.1773547000048,568.3124087000033,567.1773547000048,568.3124087000033,568.2789921000076,568.7795302000013,568.2789921000076,568.7795302000013,568.2789921000076,568.7795302000013,568.2789921000076,568.7795302000013,568.2789921000076,568.7795302000013,568.2789921000076,568.7795302000013,568.2789921000076,568.7795302000013,568.2789921000076,568.7795302000013,567.1773547000048,None,568.7795302000013,569.6976976000005,1.1200000000000008,569.7143881000084,None,570.4661322000029,None,,,,,,,[0.90543478],2.580000000000002,0.8152173913043478,11044,002,2024_Mar_24_1504,MFTM_A_new1021,2021.2.3,59.710689769994,
,,,,,,,,stim/Instruction_adaptive.png,conditions/adaptive.xlsx,test,0.6,0.6,0.6,-0.6,-0.6,right,R,,,,,0,1,1,1,0,92,92,86,,,,,,,,,,,,,,,,,,,,,,,,,,,,,,,,,,,,,,,,,,,,570.9673494000017,None,right,1,1.6593608000112,571.4671157999983,573.0701541000017,571.4671157999983,572.5690903000068,571.4671157999983,572.5690903000068,571.4671157999983,572.5690903000068,571.4671157999983,572.5690903000068,571.4671157999983,572.5690903000068,572.552136600003,573.0533888000064,572.552136600003,573.0533888000064,572.552136600003,573.0533888000064,572.552136600003,573.0533888000064,572.552136600003,573.0533888000064,572.552136600003,573.0533888000064,572.552136600003,573.0533888000064,572.552136600003,573.0533888000064,571.4671157999983,None,573.0533888000064,573.9708553000091,1.1000000000000008,573.9882653000095,None,574.7387911999976,None,,,,,,,[0.91075269],2.5900000000000016,0.8172043010752689,11044,002,2024_Mar_24_1504,MFTM_A_new1021,2021.2.3,59.710689769994,
,,,,,,,,stim/Instruction_adaptive.png,conditions/adaptive.xlsx,test,-0.6,-0.6,-0.6,0.6,0.6,left,L,,,,,0,1,1,1,0,93,93,71,,,,,,,,,,,,,,,,,,,,,,,,,,,,,,,,,,,,,,,,,,,,575.2394377000019,None,left,1,1.5544943999993848,575.7402703000116,577.3427530000044,575.7402703000116,576.8417252000072,575.7402703000116,576.8417252000072,575.7402703000116,576.8417252000072,575.7402703000116,576.8417252000072,575.7402703000116,576.8417252000072,576.8083411000116,577.3093289000099,576.8083411000116,577.3093289000099,576.8083411000116,577.3093289000099,576.8083411000116,577.3093289000099,576.8083411000116,577.3093289000099,576.8083411000116,577.3093289000099,576.8083411000116,577.3093289000099,576.8083411000116,577.3093289000099,575.7402703000116,None,577.3093289000099,578.2274298999982,1.0900000000000007,578.2604607000103,None,579.0122117999999,None,,,,,,,[0.91606383],2.610000000000002,0.8191489361702128,11044,002,2024_Mar_24_1504,MFTM_A_new1021,2021.2.3,59.710689769994,
