arrwidth1,arrwidth2,arrwidth3,arrwidth4,arrwidth5,keyb,type,orientation,instruction_image,block_filename,block_type,arrow11,arrow22,arrow33,arrow44,arrow55,keyb_3,orientation3,trials.thisRepN,trials.thisTrialN,trials.thisN,trials.thisIndex,trials_3.thisRepN,trials_3.thisTrialN,trials_3.thisN,trials_3.thisIndex,trials_2.thisRepN,trials_2.thisTrialN,trials_2.thisN,trials_2.thisIndex,welcome.started,welcome.stopped,key_resp.keys,key_resp.rt,key_resp.started,key_resp.stopped,instruction_example.started,instruction_example.stopped,key_resp_3.keys,key_resp_3.rt,key_resp_3.started,key_resp_3.stopped,instruction_task.started,instruction_task.stopped,key_resp_2.keys,key_resp_2.rt,key_resp_2.started,key_resp_2.stopped,text_2.started,text_2.stopped,A1.started,A1.stopped,A2.started,A2.stopped,A3.started,A3.stopped,A4.started,A4.stopped,A5.started,A5.stopped,key_resp_4.keys,key_resp_4.corr,key_resp_4.rt,key_resp_4.started,key_resp_4.stopped,fb.started,fb.stopped,instruction_block.started,instruction_block.stopped,key_resp_8.keys,key_resp_8.rt,key_resp_8.started,key_resp_8.stopped,text_8.started,text_8.stopped,key_resp_9.keys,key_resp_9.corr,key_resp_9.rt,text_5.started,text_5.stopped,A11_3.started,A11_3.stopped,A22_2.started,A22_2.stopped,A33_2.started,A33_2.stopped,A44_2.started,A44_2.stopped,A55_2.started,A55_2.stopped,M1_3.started,M1_3.stopped,M2_2.started,M2_2.stopped,M3_2.started,M3_2.stopped,M4_2.started,M4_2.stopped,M5_2.started,M5_2.stopped,M6_2.started,M6_2.stopped,M7_2.started,M7_2.stopped,M8_2.started,M8_2.stopped,key_resp_9.started,key_resp_9.stopped,fixation.started,fixation.stopped,ET,fb_3.started,fb_3.stopped,text_9.started,text_9.stopped,fb_4.started,fb_4.stopped,text_7.started,text_7.stopped,endtext.started,endtext.stopped,fixation_ITI,CCC,Acc,participant,session,date,expName,psychopyVersion,frameRate,
,,,,,,,,,,,,,,,,,,,,,,,,,,,,,,13.059566400013864,None,space,12.506793499924242,13.059566400013864,None,,,,,,,,,,,,,,,,,,,,,,,,,,,,,,,,,,,,,,,,,,,,,,,,,,,,,,,,,,,,,,,,,,,,,,,,,,,,,,,,,,,,,,,,,11046,002,2024_Apr_15_1629,MFTM_A_new1021,2021.2.3,59.86281835229971,
,,,,,,,,,,,,,,,,,,,,,,,,,,,,,,,,,,,,25.594903899822384,None,space,17.820839599939063,25.594903899822384,None,,,,,,,,,,,,,,,,,,,,,,,,,,,,,,,,,,,,,,,,,,,,,,,,,,,,,,,,,,,,,,,,,,,,,,,,,,,,,,,,,,,11046,002,2024_Apr_15_1629,MFTM_A_new1021,2021.2.3,59.86281835229971,
,,,,,,,,,,,,,,,,,,,,,,,,,,,,,,,,,,,,,,,,,,43.43955129990354,None,space,3.7428288001101464,43.43955129990354,None,,,,,,,,,,,,,,,,,,,,,,,,,,,,,,,,,,,,,,,,,,,,,,,,,,,,,,,,,,,,,,,,,,,,,,,,,,,,,11046,002,2024_Apr_15_1629,MFTM_A_new1021,2021.2.3,59.86281835229971,
0.6,0.6,0.6,-0.6,-0.6,right,3:2,R,,,,,,,,,,,0,0,0,0,,,,,,,,,,,,,,,,,,,,,,,,,,,47.23005439992994,None,47.23005439992994,None,47.23005439992994,None,47.23005439992994,None,47.23005439992994,None,47.23005439992994,None,right,1,4.745110900141299,47.23005439992994,None,52.01960129989311,None,,,,,,,,,,,,,,,,,,,,,,,,,,,,,,,,,,,,,,,,,,,,,,,,,,,,,,,,,,11046,002,2024_Apr_15_1629,MFTM_A_new1021,2021.2.3,59.86281835229971,
-0.6,-0.6,-0.6,0.6,0.6,left,3:2,L,,,,,,,,,,,0,1,1,1,,,,,,,,,,,,,,,,,,,,,,,,,,,52.769609599839896,None,52.769609599839896,None,52.769609599839896,None,52.769609599839896,None,52.769609599839896,None,52.769609599839896,None,left,1,1.7336963000707328,52.769609599839896,None,54.52289339993149,None,,,,,,,,,,,,,,,,,,,,,,,,,,,,,,,,,,,,,,,,,,,,,,,,,,,,,,,,,,11046,002,2024_Apr_15_1629,MFTM_A_new1021,2021.2.3,59.86281835229971,
-0.6,-0.6,-0.6,0.6,0.6,left,3:2,L,,,,,,,,,,,1,0,2,1,,,,,,,,,,,,,,,,,,,,,,,,,,,55.27376799983904,None,55.27376799983904,None,55.27376799983904,None,55.27376799983904,None,55.27376799983904,None,55.27376799983904,None,left,1,4.005790499970317,55.27376799983904,None,59.296022799797356,None,,,,,,,,,,,,,,,,,,,,,,,,,,,,,,,,,,,,,,,,,,,,,,,,,,,,,,,,,,11046,002,2024_Apr_15_1629,MFTM_A_new1021,2021.2.3,59.86281835229971,
0.6,0.6,0.6,-0.6,-0.6,right,3:2,R,,,,,,,,,,,1,1,3,0,,,,,,,,,,,,,,,,,,,,,,,,,,,60.04732919996604,None,60.04732919996604,None,60.04732919996604,None,60.04732919996604,None,60.04732919996604,None,60.04732919996604,None,left,0,3.7121850000694394,60.04732919996604,None,63.785680499859154,None,,,,,,,,,,,,,,,,,,,,,,,,,,,,,,,,,,,,,,,,,,,,,,,,,,,,,,,,,,11046,002,2024_Apr_15_1629,MFTM_A_new1021,2021.2.3,59.86281835229971,
,,,,,,,,stim/Instruction_mask.png,conditions/adaptive.xlsx,practice,0.6,0.6,0.6,-0.6,-0.6,right,R,,,,,0,0,0,0,0,0,0,60,,,,,,,,,,,,,,,,,,,,,,,,,,,,,,,,,,,,,,64.82062339992262,None,space,2.1781792999245226,64.82062339992262,None,67.10820149979554,None,right,1,1.481269899988547,67.54182009981014,None,67.54182009981014,70.54593179980293,67.54182009981014,70.54593179980293,67.54182009981014,70.54593179980293,67.54182009981014,70.54593179980293,67.54182009981014,70.54593179980293,70.52993179997429,71.030297299847,70.52993179997429,71.030297299847,70.52993179997429,71.030297299847,70.52993179997429,71.030297299847,70.52993179997429,71.030297299847,70.52993179997429,71.030297299847,70.52993179997429,71.030297299847,70.52993179997429,71.030297299847,67.54182009981014,None,71.030297299847,71.030297299847,3,71.04694079980254,None,71.79826810001396,None,,,,,,,,,,11046,002,2024_Apr_15_1629,MFTM_A_new1021,2021.2.3,59.86281835229971,
,,,,,,,,stim/Instruction_mask.png,conditions/adaptive.xlsx,practice,-0.6,-0.6,-0.6,0.6,0.6,left,L,,,,,0,0,0,0,0,1,1,27,,,,,,,,,,,,,,,,,,,,,,,,,,,,,,,,,,,,,,,,,,,,72.29928169981577,None,left,1,2.3736459999345243,72.81770929996856,74.81970809982158,72.81770929996856,74.31913620000705,72.81770929996856,74.31913620000705,72.81770929996856,74.31913620000705,72.81770929996856,74.31913620000705,72.81770929996856,74.31913620000705,74.28583369986154,74.7865902998019,74.28583369986154,74.7865902998019,74.28583369986154,74.7865902998019,74.28583369986154,74.7865902998019,74.28583369986154,74.7865902998019,74.28583369986154,74.7865902998019,74.28583369986154,74.7865902998019,74.28583369986154,74.7865902998019,72.81770929996856,None,74.7865902998019,76.28949130000547,1.5,76.3220515998546,None,77.07341929990798,None,,,,,,,,,,11046,002,2024_Apr_15_1629,MFTM_A_new1021,2021.2.3,59.86281835229971,
,,,,,,,,stim/Instruction_mask.png,conditions/adaptive.xlsx,practice,0.6,0.6,0.6,-0.6,-0.6,right,R,,,,,0,0,0,0,0,2,2,40,,,,,,,,,,,,,,,,,,,,,,,,,,,,,,,,,,,,,,,,,,,,77.57398179988377,None,left,0,1.5420391000807285,78.07422909978777,79.37789959996007,78.07422909978777,78.87652079993859,78.07422909978777,78.87652079993859,78.07422909978777,78.87652079993859,78.07422909978777,78.87652079993859,78.07422909978777,78.87652079993859,78.86011439980939,79.36015219986439,78.86011439980939,79.36015219986439,78.86011439980939,79.36015219986439,78.86011439980939,79.36015219986439,78.86011439980939,79.36015219986439,78.86011439980939,79.36015219986439,78.86011439980939,79.36015219986439,78.86011439980939,79.36015219986439,78.07422909978777,None,79.36015219986439,81.56298359995708,0.8,81.57982099987566,None,82.33062119991519,None,,,,,,,,,,11046,002,2024_Apr_15_1629,MFTM_A_new1021,2021.2.3,59.86281835229971,
,,,,,,,,stim/Instruction_mask.png,conditions/adaptive.xlsx,practice,-0.6,-0.6,-0.6,0.6,0.6,left,L,,,,,0,0,0,0,0,3,3,77,,,,,,,,,,,,,,,,,,,,,,,,,,,,,,,,,,,,,,,,,,,,82.83227789984085,None,right,0,1.1718172000255436,83.33230459992774,84.08321139984764,83.33230459992774,83.58255229983479,83.33230459992774,83.58255229983479,83.33230459992774,83.58255229983479,83.33230459992774,83.58255229983479,83.33230459992774,83.58255229983479,83.56657239980996,84.06700459984131,83.56657239980996,84.06700459984131,83.56657239980996,84.06700459984131,83.56657239980996,84.06700459984131,83.56657239980996,84.06700459984131,83.56657239980996,84.06700459984131,83.56657239980996,84.06700459984131,83.56657239980996,84.06700459984131,83.33230459992774,None,84.06700459984131,86.82094929995947,3,86.83797569992021,None,87.58844049996696,None,,,,,,,,,,11046,002,2024_Apr_15_1629,MFTM_A_new1021,2021.2.3,59.86281835229971,
,,,,,,,,stim/Instruction_mask.png,conditions/adaptive.xlsx,practice,,,,,,,,,,,,0,0,0,0,,,,,,,,,,,,,,,,,,,,,,,,,,,,,,,,,,,,,,,,,,,,,,,,,,,,,,,,,,,,,,,,,,,,,,,,,,,,,,,,,,,,,,,,,,88.10654719988815,89.1081397999078,89.09165559988469,89.09165559988469,89.09165559988469,None,,,,11046,002,2024_Apr_15_1629,MFTM_A_new1021,2021.2.3,59.86281835229971,
,,,,,,,,stim/Instruction_adaptive.png,conditions/adaptive.xlsx,test,0.6,0.6,0.6,-0.6,-0.6,right,R,,,,,0,1,1,1,0,0,0,8,,,,,,,,,,,,,,,,,,,,,,,,,,,,,,,,,,,,,,92.3791435000021,None,left,5.276809599949047,92.3791435000021,None,97.72087879991159,None,left,0,1.5787722000386566,98.20526609988883,None,98.20526609988883,101.20923089981079,98.20526609988883,101.20923089981079,98.20526609988883,101.20923089981079,98.20526609988883,101.20923089981079,98.20526609988883,101.20923089981079,101.19241389981471,101.69331129989587,101.19241389981471,101.69331129989587,101.19241389981471,101.69331129989587,101.19241389981471,101.69331129989587,101.19241389981471,101.69331129989587,101.19241389981471,101.69331129989587,101.19241389981471,101.69331129989587,101.19241389981471,101.69331129989587,98.20526609988883,None,101.69331129989587,101.69331129989587,3,101.7108930000104,None,102.46169999986887,None,,,,,,,0,0.5,0.0,11046,002,2024_Apr_15_1629,MFTM_A_new1021,2021.2.3,59.86281835229971,
,,,,,,,,stim/Instruction_adaptive.png,conditions/adaptive.xlsx,test,-0.6,-0.6,-0.6,0.6,0.6,left,L,,,,,0,1,1,1,0,1,1,5,,,,,,,,,,,,,,,,,,,,,,,,,,,,,,,,,,,,,,,,,,,,102.96183719998226,None,left,1,1.4816559997852892,103.4626558998134,None,103.4626558998134,106.4678172999993,103.4626558998134,106.4678172999993,103.4626558998134,106.4678172999993,103.4626558998134,106.4678172999993,103.4626558998134,106.4678172999993,106.45110729988664,106.9512941997964,106.45110729988664,106.9512941997964,106.45110729988664,106.9512941997964,106.45110729988664,106.9512941997964,106.45110729988664,106.9512941997964,106.45110729988664,106.9512941997964,106.45110729988664,106.9512941997964,106.45110729988664,106.9512941997964,103.4626558998134,None,106.9512941997964,106.9512941997964,3.0000000000000027,106.9686777999159,None,107.71974550001323,None,,,,,,,0,0.5,0.5,11046,002,2024_Apr_15_1629,MFTM_A_new1021,2021.2.3,59.86281835229971,
,,,,,,,,stim/Instruction_adaptive.png,conditions/adaptive.xlsx,test,-0.6,-0.6,-0.6,0.6,0.6,left,L,,,,,0,1,1,1,0,2,2,97,,,,,,,,,,,,,,,,,,,,,,,,,,,,,,,,,,,,,,,,,,,,108.22100379993208,None,left,1,2.9745670000556856,108.72180569986813,None,108.72180569986813,111.7264880000148,108.72180569986813,111.7264880000148,108.72180569986813,111.7264880000148,108.72180569986813,111.7264880000148,108.72180569986813,111.7264880000148,111.70889779995196,112.20942809991539,111.70889779995196,112.20942809991539,111.70889779995196,112.20942809991539,111.70889779995196,112.20942809991539,111.70889779995196,112.20942809991539,111.70889779995196,112.20942809991539,111.70889779995196,112.20942809991539,111.70889779995196,112.20942809991539,108.72180569986813,None,112.20942809991539,112.20942809991539,3.0000000000000027,112.22702159988694,None,112.97799809998833,None,,,,,,,0,0.5,0.6666666666666666,11046,002,2024_Apr_15_1629,MFTM_A_new1021,2021.2.3,59.86281835229971,
,,,,,,,,stim/Instruction_adaptive.png,conditions/adaptive.xlsx,test,-0.6,-0.6,-0.6,0.6,0.6,left,L,,,,,0,1,1,1,0,3,3,59,,,,,,,,,,,,,,,,,,,,,,,,,,,,,,,,,,,,,,,,,,,,113.47885590000078,None,left,1,2.3502040000166744,113.97879219986498,None,113.97879219986498,116.9836168999318,113.97879219986498,116.9836168999318,113.97879219986498,116.9836168999318,113.97879219986498,116.9836168999318,113.97879219986498,116.9836168999318,116.96742609981447,117.4675859999843,116.96742609981447,117.4675859999843,116.96742609981447,117.4675859999843,116.96742609981447,117.4675859999843,116.96742609981447,117.4675859999843,116.96742609981447,117.4675859999843,116.96742609981447,117.4675859999843,116.96742609981447,117.4675859999843,113.97879219986498,None,117.4675859999843,117.4675859999843,3.0000000000000027,117.48340379982255,None,118.23564789979719,None,,,,,,,0,1.1300000000000006,0.75,11046,002,2024_Apr_15_1629,MFTM_A_new1021,2021.2.3,59.86281835229971,
,,,,,,,,stim/Instruction_adaptive.png,conditions/adaptive.xlsx,test,-0.6,-0.6,-0.6,0.6,0.6,left,L,,,,,0,1,1,1,0,4,4,41,,,,,,,,,,,,,,,,,,,,,,,,,,,,,,,,,,,,,,,,,,,,118.73608989990316,None,left,1,2.6750596999190748,119.23768139979802,None,119.23768139979802,122.24149339995347,119.23768139979802,122.24149339995347,119.23768139979802,122.24149339995347,119.23768139979802,122.24149339995347,119.23768139979802,122.24149339995347,122.22481629997492,122.72550649987534,122.22481629997492,122.72550649987534,122.22481629997492,122.72550649987534,122.22481629997492,122.72550649987534,122.22481629997492,122.72550649987534,122.22481629997492,122.72550649987534,122.22481629997492,122.72550649987534,122.22481629997492,122.72550649987534,119.23768139979802,None,122.72550649987534,122.72550649987534,3.0000000000000027,122.74174059997313,None,123.49311969988048,None,,,,,,,0,1.540000000000001,0.8,11046,002,2024_Apr_15_1629,MFTM_A_new1021,2021.2.3,59.86281835229971,
,,,,,,,,stim/Instruction_adaptive.png,conditions/adaptive.xlsx,test,0.6,0.6,0.6,-0.6,-0.6,right,R,,,,,0,1,1,1,0,5,5,80,,,,,,,,,,,,,,,,,,,,,,,,,,,,,,,,,,,,,,,,,,,,123.99389829998836,None,right,1,1.6983123999089003,124.49444179981947,None,124.49444179981947,126.76517679984681,124.49444179981947,126.76517679984681,124.49444179981947,126.76517679984681,124.49444179981947,126.76517679984681,124.49444179981947,126.76517679984681,126.7313555998262,127.23226899979636,126.7313555998262,127.23226899979636,126.7313555998262,127.23226899979636,126.7313555998262,127.23226899979636,126.7313555998262,127.23226899979636,126.7313555998262,127.23226899979636,126.7313555998262,127.23226899979636,126.7313555998262,127.23226899979636,124.49444179981947,None,127.23226899979636,127.23226899979636,2.2600000000000016,127.26552999997512,None,128.01725069992244,None,,,,,,,0,1.8100000000000012,0.8333333333333334,11046,002,2024_Apr_15_1629,MFTM_A_new1021,2021.2.3,59.86281835229971,
,,,,,,,,stim/Instruction_adaptive.png,conditions/adaptive.xlsx,test,-0.6,-0.6,-0.6,0.6,0.6,left,L,,,,,0,1,1,1,0,6,6,95,,,,,,,,,,,,,,,,,,,,,,,,,,,,,,,,,,,,,,,,,,,,128.51804889994673,None,left,1,1.9678704000543803,129.01781989983283,None,129.01781989983283,130.90562749980018,129.01781989983283,130.90562749980018,129.01781989983283,130.90562749980018,129.01781989983283,130.90562749980018,129.01781989983283,130.90562749980018,130.8872492997907,131.38943989994004,130.8872492997907,131.38943989994004,130.8872492997907,131.38943989994004,130.8872492997907,131.38943989994004,130.8872492997907,131.38943989994004,130.8872492997907,131.38943989994004,130.8872492997907,131.38943989994004,130.8872492997907,131.38943989994004,129.01781989983283,None,131.38943989994004,131.38943989994004,1.8800000000000014,131.4052923999261,None,132.15640329988673,None,,,,,,,0,2.0200000000000014,0.8571428571428571,11046,002,2024_Apr_15_1629,MFTM_A_new1021,2021.2.3,59.86281835229971,
,,,,,,,,stim/Instruction_adaptive.png,conditions/adaptive.xlsx,test,-0.6,-0.6,-0.6,0.6,0.6,left,L,,,,,0,1,1,1,0,7,7,53,,,,,,,,,,,,,,,,,,,,,,,,,,,,,,,,,,,,,,,,,,,,132.65731839998625,None,left,1,1.5312632999848574,133.15769399981946,None,133.15769399981946,134.77803259994835,133.15769399981946,134.77803259994835,133.15769399981946,134.77803259994835,133.15769399981946,134.77803259994835,133.15769399981946,134.77803259994835,134.76142539991997,135.26107669994235,134.76142539991997,135.26107669994235,134.76142539991997,135.26107669994235,134.76142539991997,135.26107669994235,134.76142539991997,135.26107669994235,134.76142539991997,135.26107669994235,134.76142539991997,135.26107669994235,134.76142539991997,135.26107669994235,133.15769399981946,None,135.26107669994235,135.26107669994235,1.6200000000000012,135.2776921999175,None,136.02914080000482,None,,,,,,,0,2.2000000000000015,0.875,11046,002,2024_Apr_15_1629,MFTM_A_new1021,2021.2.3,59.86281835229971,
,,,,,,,,stim/Instruction_adaptive.png,conditions/adaptive.xlsx,test,0.6,0.6,0.6,-0.6,-0.6,right,R,,,,,0,1,1,1,0,8,8,44,,,,,,,,,,,,,,,,,,,,,,,,,,,,,,,,,,,,,,,,,,,,136.5292328998912,None,right,1,1.6910295998677611,137.02996979979798,138.96668599988334,137.02996979979798,138.46465269988403,137.02996979979798,138.46465269988403,137.02996979979798,138.46465269988403,137.02996979979798,138.46465269988403,137.02996979979798,138.46465269988403,138.44866519980133,138.94996739993803,138.44866519980133,138.94996739993803,138.44866519980133,138.94996739993803,138.44866519980133,138.94996739993803,138.44866519980133,138.94996739993803,138.44866519980133,138.94996739993803,138.44866519980133,138.94996739993803,138.44866519980133,138.94996739993803,137.02996979979798,None,138.94996739993803,None,1.430000000000001,138.99970029992983,None,139.75119409989566,None,,,,,,,[0.03444444],2.3500000000000014,0.8888888888888888,11046,002,2024_Apr_15_1629,MFTM_A_new1021,2021.2.3,59.86281835229971,
,,,,,,,,stim/Instruction_adaptive.png,conditions/adaptive.xlsx,test,0.6,0.6,0.6,-0.6,-0.6,right,R,,,,,0,1,1,1,0,9,9,92,,,,,,,,,,,,,,,,,,,,,,,,,,,,,,,,,,,,,,,,,,,,140.2523263997864,None,right,1,1.4579336000606418,140.75230089994147,142.5558415998239,140.75230089994147,142.05480629997328,140.75230089994147,142.05480629997328,140.75230089994147,142.05480629997328,140.75230089994147,142.05480629997328,140.75230089994147,142.05480629997328,142.0212265998125,142.5221430999227,142.0212265998125,142.5221430999227,142.0212265998125,142.5221430999227,142.0212265998125,142.5221430999227,142.0212265998125,142.5221430999227,142.0212265998125,142.5221430999227,142.0212265998125,142.5221430999227,142.0212265998125,142.5221430999227,140.75230089994147,None,142.5221430999227,142.68844029982574,1.290000000000001,142.70511409989558,None,143.45729439985007,None,,,,,,,[0.152],2.490000000000002,0.9,11046,002,2024_Apr_15_1629,MFTM_A_new1021,2021.2.3,59.86281835229971,
,,,,,,,,stim/Instruction_adaptive.png,conditions/adaptive.xlsx,test,-0.6,-0.6,-0.6,0.6,0.6,left,L,,,,,0,1,1,1,0,10,10,27,,,,,,,,,,,,,,,,,,,,,,,,,,,,,,,,,,,,,,,,,,,,143.9579735000152,None,left,1,1.6625530000310391,144.45890359999612,146.14380329987034,144.45890359999612,145.64290450001135,144.45890359999612,145.64290450001135,144.45890359999612,145.64290450001135,144.45890359999612,145.64290450001135,144.45890359999612,145.64290450001135,145.60973109980114,146.1111764998641,145.60973109980114,146.1111764998641,145.60973109980114,146.1111764998641,145.60973109980114,146.1111764998641,145.60973109980114,146.1111764998641,145.60973109980114,146.1111764998641,145.60973109980114,146.1111764998641,145.60973109980114,146.1111764998641,144.45890359999612,None,146.1111764998641,146.37951539992355,1.1700000000000008,146.3946551999543,None,147.14581379992887,None,,,,,,,[0.25909091],2.610000000000002,0.9090909090909091,11046,002,2024_Apr_15_1629,MFTM_A_new1021,2021.2.3,59.86281835229971,
,,,,,,,,stim/Instruction_adaptive.png,conditions/adaptive.xlsx,test,0.6,0.6,0.6,-0.6,-0.6,right,R,,,,,0,1,1,1,0,11,11,30,,,,,,,,,,,,,,,,,,,,,,,,,,,,,,,,,,,,,,,,,,,,147.6462055000011,None,right,1,1.4788083999883384,148.147142799804,149.73282089992426,148.147142799804,149.23167110001668,148.147142799804,149.23167110001668,148.147142799804,149.23167110001668,148.147142799804,149.23167110001668,148.147142799804,149.23167110001668,149.2155321999453,149.71636069985107,149.2155321999453,149.71636069985107,149.2155321999453,149.71636069985107,149.2155321999453,149.71636069985107,149.2155321999453,149.71636069985107,149.2155321999453,149.71636069985107,149.2155321999453,149.71636069985107,149.2155321999453,149.71636069985107,148.147142799804,None,149.71636069985107,None,1.0800000000000007,150.0831092998851,None,150.8347019997891,None,,,,,,,[0.35583333],2.720000000000002,0.9166666666666666,11046,002,2024_Apr_15_1629,MFTM_A_new1021,2021.2.3,59.86281835229971,
,,,,,,,,stim/Instruction_adaptive.png,conditions/adaptive.xlsx,test,-0.6,-0.6,-0.6,0.6,0.6,left,L,,,,,0,1,1,1,0,12,12,9,,,,,,,,,,,,,,,,,,,,,,,,,,,,,,,,,,,,,,,,,,,,151.33680049981922,None,left,1,1.5811482998542488,151.8363037998788,153.33815819979645,151.8363037998788,152.83808010001667,151.8363037998788,152.83808010001667,151.8363037998788,152.83808010001667,151.8363037998788,152.83808010001667,151.8363037998788,152.83808010001667,152.82104629999958,153.3211721999105,152.82104629999958,153.3211721999105,152.82104629999958,153.3211721999105,152.82104629999958,153.3211721999105,152.82104629999958,153.3211721999105,152.82104629999958,153.3211721999105,152.82104629999958,153.3211721999105,152.82104629999958,153.3211721999105,151.8363037998788,None,153.3211721999105,153.77248719986528,1.0000000000000007,153.788692999864,None,154.54042919981293,None,,,,,,,[0.44384615],2.820000000000002,0.9230769230769231,11046,002,2024_Apr_15_1629,MFTM_A_new1021,2021.2.3,59.86281835229971,
,,,,,,,,stim/Instruction_adaptive.png,conditions/adaptive.xlsx,test,0.6,0.6,0.6,-0.6,-0.6,right,R,,,,,0,1,1,1,0,13,13,88,,,,,,,,,,,,,,,,,,,,,,,,,,,,,,,,,,,,,,,,,,,,155.04074919992127,None,left,0,1.6278355000540614,155.54168449994177,156.97847019997425,155.54168449994177,156.4771111998707,155.54168449994177,156.4771111998707,155.54168449994177,156.4771111998707,155.54168449994177,156.4771111998707,155.54168449994177,156.4771111998707,156.4600701997988,156.96164139988832,156.4600701997988,156.96164139988832,156.4600701997988,156.96164139988832,156.4600701997988,156.96164139988832,156.4600701997988,156.96164139988832,156.4600701997988,156.96164139988832,156.4600701997988,156.96164139988832,156.4600701997988,156.96164139988832,155.54168449994177,None,156.96164139988832,157.49448729981668,0.9300000000000006,157.51042259996757,None,158.2620775999967,None,,,,,,,[0.52428571],2.5500000000000016,0.8571428571428571,11046,002,2024_Apr_15_1629,MFTM_A_new1021,2021.2.3,59.86281835229971,
,,,,,,,,stim/Instruction_adaptive.png,conditions/adaptive.xlsx,test,0.6,0.6,0.6,-0.6,-0.6,right,R,,,,,0,1,1,1,0,14,14,20,,,,,,,,,,,,,,,,,,,,,,,,,,,,,,,,,,,,,,,,,,,,158.76346319983713,None,right,1,1.7286229999735951,159.26494439993985,160.89991959999315,159.26494439993985,160.39951829984784,159.26494439993985,160.39951829984784,159.26494439993985,160.39951829984784,159.26494439993985,160.39951829984784,159.26494439993985,160.39951829984784,160.36587539990433,160.86676019988954,160.36587539990433,160.86676019988954,160.36587539990433,160.86676019988954,160.36587539990433,160.86676019988954,160.36587539990433,160.86676019988954,160.36587539990433,160.86676019988954,160.36587539990433,160.86676019988954,160.36587539990433,160.86676019988954,159.26494439993985,None,160.86676019988954,161.45070759998634,1.1200000000000008,161.46750639984384,None,162.21802769997157,None,,,,,,,[0.58133333],2.650000000000002,0.8666666666666667,11046,002,2024_Apr_15_1629,MFTM_A_new1021,2021.2.3,59.86281835229971,
,,,,,,,,stim/Instruction_adaptive.png,conditions/adaptive.xlsx,test,-0.6,-0.6,-0.6,0.6,0.6,left,L,,,,,0,1,1,1,0,15,15,49,,,,,,,,,,,,,,,,,,,,,,,,,,,,,,,,,,,,,,,,,,,,162.7192748999223,None,left,1,1.3528783998917788,163.21993579994887,164.77202669996768,163.21993579994887,164.27190749999136,163.21993579994887,164.27190749999136,163.21993579994887,164.27190749999136,163.21993579994887,164.27190749999136,163.21993579994887,164.27190749999136,164.25453239982016,164.7553273998201,164.25453239982016,164.7553273998201,164.25453239982016,164.7553273998201,164.25453239982016,164.7553273998201,164.25453239982016,164.7553273998201,164.25453239982016,164.7553273998201,164.25453239982016,164.7553273998201,164.25453239982016,164.7553273998201,163.21993579994887,None,164.7553273998201,165.390095599927,1.0500000000000007,165.40650469996035,None,166.15759079996496,None,,,,,,,[0.635625],2.740000000000002,0.875,11046,002,2024_Apr_15_1629,MFTM_A_new1021,2021.2.3,59.86281835229971,
,,,,,,,,stim/Instruction_adaptive.png,conditions/adaptive.xlsx,test,-0.6,-0.6,-0.6,0.6,0.6,left,L,,,,,0,1,1,1,0,16,16,79,,,,,,,,,,,,,,,,,,,,,,,,,,,,,,,,,,,,,,,,,,,,166.65801089978777,None,right,0,1.4117326000705361,167.15899949986488,168.64468139992096,167.15899949986488,168.14404589985497,167.15899949986488,168.14404589985497,167.15899949986488,168.14404589985497,167.15899949986488,168.14404589985497,167.15899949986488,168.14404589985497,168.1270611998625,168.6278831998352,168.1270611998625,168.6278831998352,168.1270611998625,168.6278831998352,168.1270611998625,168.6278831998352,168.1270611998625,168.6278831998352,168.1270611998625,168.6278831998352,168.1270611998625,168.6278831998352,168.1270611998625,168.6278831998352,167.15899949986488,None,168.6278831998352,None,0.9800000000000006,169.3294146999251,None,170.08041329984553,None,,,,,,,[0.68764706],2.490000000000002,0.8235294117647058,11046,002,2024_Apr_15_1629,MFTM_A_new1021,2021.2.3,59.86281835229971,
,,,,,,,,stim/Instruction_adaptive.png,conditions/adaptive.xlsx,test,0.6,0.6,0.6,-0.6,-0.6,right,R,,,,,0,1,1,1,0,17,17,48,,,,,,,,,,,,,,,,,,,,,,,,,,,,,,,,,,,,,,,,,,,,170.58159359986894,None,right,1,1.8886635000817478,171.08167939982377,172.768182199914,171.08167939982377,172.26759089995176,171.08167939982377,172.26759089995176,171.08167939982377,172.26759089995176,171.08167939982377,172.26759089995176,171.08167939982377,172.26759089995176,172.23389819986187,172.7339994998183,172.23389819986187,172.7339994998183,172.23389819986187,172.7339994998183,172.23389819986187,172.7339994998183,172.23389819986187,172.7339994998183,172.23389819986187,172.7339994998183,172.23389819986187,172.7339994998183,172.23389819986187,172.7339994998183,171.08167939982377,None,172.7339994998183,173.4701809999533,1.1700000000000008,173.50307149998844,None,174.25400409987196,None,,,,,,,[0.72333333],2.580000000000002,0.8333333333333334,11046,002,2024_Apr_15_1629,MFTM_A_new1021,2021.2.3,59.86281835229971,
,,,,,,,,stim/Instruction_adaptive.png,conditions/adaptive.xlsx,test,0.6,0.6,0.6,-0.6,-0.6,right,R,,,,,0,1,1,1,0,18,18,32,,,,,,,,,,,,,,,,,,,,,,,,,,,,,,,,,,,,,,,,,,,,174.75385349988937,None,right,1,1.9956916000228375,175.25518450001255,176.85835959995165,175.25518450001255,176.3558334999252,175.25518450001255,176.3558334999252,175.25518450001255,176.3558334999252,175.25518450001255,176.3558334999252,175.25518450001255,176.3558334999252,176.33923579985276,176.8406974999234,176.33923579985276,176.8406974999234,176.33923579985276,176.8406974999234,176.33923579985276,176.8406974999234,176.33923579985276,176.8406974999234,176.33923579985276,176.8406974999234,176.33923579985276,176.8406974999234,176.33923579985276,176.8406974999234,175.25518450001255,None,176.8406974999234,177.6083744999487,1.1000000000000008,177.64218549989164,None,178.39325509988703,None,,,,,,,[0.75894737],2.660000000000002,0.8421052631578947,11046,002,2024_Apr_15_1629,MFTM_A_new1021,2021.2.3,59.86281835229971,
,,,,,,,,stim/Instruction_adaptive.png,conditions/adaptive.xlsx,test,-0.6,-0.6,-0.6,0.6,0.6,left,L,,,,,0,1,1,1,0,19,19,15,,,,,,,,,,,,,,,,,,,,,,,,,,,,,,,,,,,,,,,,,,,,178.89376679994166,None,left,1,1.8090050001628697,179.39399529993534,180.9462694998365,179.39399529993534,180.44538139994256,179.39399529993534,180.44538139994256,179.39399529993534,180.44538139994256,179.39399529993534,180.44538139994256,179.39399529993534,180.44538139994256,180.41239349986427,180.91305049997754,180.41239349986427,180.91305049997754,180.41239349986427,180.91305049997754,180.41239349986427,180.91305049997754,180.41239349986427,180.91305049997754,180.41239349986427,180.91305049997754,180.41239349986427,180.91305049997754,180.41239349986427,180.91305049997754,179.39399529993534,None,180.91305049997754,181.71405529999174,1.0400000000000007,181.7306189998053,None,182.48197599989362,None,,,,,,,[0.794],2.740000000000002,0.85,11046,002,2024_Apr_15_1629,MFTM_A_new1021,2021.2.3,59.86281835229971,
,,,,,,,,stim/Instruction_adaptive.png,conditions/adaptive.xlsx,test,0.6,0.6,0.6,-0.6,-0.6,right,R,,,,,0,1,1,1,0,20,20,60,,,,,,,,,,,,,,,,,,,,,,,,,,,,,,,,,,,,,,,,,,,,182.98286689980887,None,left,0,1.6960847000591457,183.48347249999642,184.96966629987583,183.48347249999642,184.46933379978873,183.48347249999642,184.46933379978873,183.48347249999642,184.46933379978873,183.48347249999642,184.46933379978873,183.48347249999642,184.46933379978873,184.4521593998652,184.95269820000976,184.4521593998652,184.95269820000976,184.4521593998652,184.95269820000976,184.4521593998652,184.95269820000976,184.4521593998652,184.95269820000976,184.4521593998652,184.95269820000976,184.4521593998652,184.95269820000976,184.4521593998652,184.95269820000976,183.48347249999642,None,184.95269820000976,185.78703379980288,0.9800000000000006,185.80335309985094,None,186.55477859987877,None,,,,,,,[0.82857143],2.530000000000002,0.8095238095238095,11046,002,2024_Apr_15_1629,MFTM_A_new1021,2021.2.3,59.86281835229971,
,,,,,,,,stim/Instruction_adaptive.png,conditions/adaptive.xlsx,test,0.6,0.6,0.6,-0.6,-0.6,right,R,,,,,0,1,1,1,0,21,21,82,,,,,,,,,,,,,,,,,,,,,,,,,,,,,,,,,,,,,,,,,,,,187.0553670998197,None,right,1,1.8867353999521583,187.55648939986713,189.20867789979093,187.55648939986713,188.70798349985853,187.55648939986713,188.70798349985853,187.55648939986713,188.70798349985853,187.55648939986713,188.70798349985853,187.55648939986713,188.70798349985853,188.6743917998392,189.17562239989638,188.6743917998392,189.17562239989638,188.6743917998392,189.17562239989638,188.6743917998392,189.17562239989638,188.6743917998392,189.17562239989638,188.6743917998392,189.17562239989638,188.6743917998392,189.17562239989638,188.6743917998392,189.17562239989638,187.55648939986713,None,189.17562239989638,190.04322159988806,1.1400000000000008,190.05993969994597,None,190.8110487998929,None,,,,,,,[0.85272727],2.600000000000002,0.8181818181818182,11046,002,2024_Apr_15_1629,MFTM_A_new1021,2021.2.3,59.86281835229971,
,,,,,,,,stim/Instruction_adaptive.png,conditions/adaptive.xlsx,test,0.6,0.6,0.6,-0.6,-0.6,right,R,,,,,0,1,1,1,0,22,22,70,,,,,,,,,,,,,,,,,,,,,,,,,,,,,,,,,,,,,,,,,,,,191.31184039986692,None,right,1,1.8457859999034554,191.81282729981467,193.41549389995635,191.81282729981467,192.9147167999763,191.81282729981467,192.9147167999763,191.81282729981467,192.9147167999763,191.81282729981467,192.9147167999763,191.81282729981467,192.9147167999763,192.88168839993887,193.38275819993578,192.88168839993887,193.38275819993578,192.88168839993887,193.38275819993578,192.88168839993887,193.38275819993578,192.88168839993887,193.38275819993578,192.88168839993887,193.38275819993578,192.88168839993887,193.38275819993578,192.88168839993887,193.38275819993578,191.81282729981467,None,193.38275819993578,194.26682759984396,1.0900000000000007,194.28352559986524,None,195.03408809984103,None,,,,,,,[0.87695652],2.6700000000000017,0.8260869565217391,11046,002,2024_Apr_15_1629,MFTM_A_new1021,2021.2.3,59.86281835229971,
,,,,,,,,stim/Instruction_adaptive.png,conditions/adaptive.xlsx,test,0.6,0.6,0.6,-0.6,-0.6,right,R,,,,,0,1,1,1,0,23,23,98,,,,,,,,,,,,,,,,,,,,,,,,,,,,,,,,,,,,,,,,,,,,195.53494029981084,None,right,1,2.0003247000277042,196.03588759992272,197.57189679984003,196.03588759992272,197.0709659999702,196.03588759992272,197.0709659999702,196.03588759992272,197.0709659999702,196.03588759992272,197.0709659999702,196.03588759992272,197.0709659999702,197.053980599856,197.55496689979918,197.053980599856,197.55496689979918,197.053980599856,197.55496689979918,197.053980599856,197.55496689979918,197.053980599856,197.55496689979918,197.053980599856,197.55496689979918,197.053980599856,197.55496689979918,197.053980599856,197.55496689979918,196.03588759992272,None,197.55496689979918,198.45592569978908,1.0300000000000007,198.4726766999811,None,199.22464169980958,None,,,,,,,[0.90166667],2.740000000000002,0.8333333333333334,11046,002,2024_Apr_15_1629,MFTM_A_new1021,2021.2.3,59.86281835229971,
,,,,,,,,stim/Instruction_adaptive.png,conditions/adaptive.xlsx,test,-0.6,-0.6,-0.6,0.6,0.6,left,L,,,,,0,1,1,1,0,24,24,43,,,,,,,,,,,,,,,,,,,,,,,,,,,,,,,,,,,,,,,,,,,,199.72638809983619,None,right,0,1.6822302001528442,200.22515979991294,201.71195159992203,200.22515979991294,201.21089779981412,200.22515979991294,201.21089779981412,200.22515979991294,201.21089779981412,200.22515979991294,201.21089779981412,200.22515979991294,201.21089779981412,201.19385369983502,201.69469859986566,201.19385369983502,201.69469859986566,201.19385369983502,201.69469859986566,201.19385369983502,201.69469859986566,201.19385369983502,201.69469859986566,201.19385369983502,201.69469859986566,201.19385369983502,201.69469859986566,201.19385369983502,201.69469859986566,200.22515979991294,None,201.69469859986566,202.6303565998096,0.9800000000000006,202.64540559984744,None,203.3972689998336,None,,,,,,,[0.9264],2.560000000000002,0.8,11046,002,2024_Apr_15_1629,MFTM_A_new1021,2021.2.3,59.86281835229971,
,,,,,,,,stim/Instruction_adaptive.png,conditions/adaptive.xlsx,test,-0.6,-0.6,-0.6,0.6,0.6,left,L,,,,,0,1,1,1,0,25,25,71,,,,,,,,,,,,,,,,,,,,,,,,,,,,,,,,,,,,,,,,,,,,203.89744309987873,None,left,1,1.5876589000690728,204.39931179978885,206.03440919984132,204.39931179978885,205.53353429981507,204.39931179978885,205.53353429981507,204.39931179978885,205.53353429981507,204.39931179978885,205.53353429981507,204.39931179978885,205.53353429981507,205.50007179984823,206.0013572999742,205.50007179984823,206.0013572999742,205.50007179984823,206.0013572999742,205.50007179984823,206.0013572999742,205.50007179984823,206.0013572999742,205.50007179984823,206.0013572999742,205.50007179984823,206.0013572999742,205.50007179984823,206.0013572999742,204.39931179978885,None,206.0013572999742,206.95231579989195,1.1200000000000008,206.9700029999949,None,207.72036059992388,None,,,,,,,[0.94384615],2.620000000000002,0.8076923076923077,11046,002,2024_Apr_15_1629,MFTM_A_new1021,2021.2.3,59.86281835229971,
,,,,,,,,stim/Instruction_adaptive.png,conditions/adaptive.xlsx,test,-0.6,-0.6,-0.6,0.6,0.6,left,L,,,,,0,1,1,1,0,26,26,25,,,,,,,,,,,,,,,,,,,,,,,,,,,,,,,,,,,,,,,,,,,,208.22134539997205,None,left,1,1.4175221000332385,208.7220224000048,210.3077352999244,208.7220224000048,209.80740259983577,208.7220224000048,209.80740259983577,208.7220224000048,209.80740259983577,208.7220224000048,209.80740259983577,208.7220224000048,209.80740259983577,209.77401069994085,210.2743649999611,209.77401069994085,210.2743649999611,209.77401069994085,210.2743649999611,209.77401069994085,210.2743649999611,209.77401069994085,210.2743649999611,209.77401069994085,210.2743649999611,209.77401069994085,210.2743649999611,209.77401069994085,210.2743649999611,208.7220224000048,None,210.2743649999611,211.24260779982433,1.0700000000000007,211.25950259994715,None,212.00978969992138,None,,,,,,,[0.96185185],2.680000000000002,0.8148148148148148,11046,002,2024_Apr_15_1629,MFTM_A_new1021,2021.2.3,59.86281835229971,
,,,,,,,,stim/Instruction_adaptive.png,conditions/adaptive.xlsx,test,0.6,0.6,0.6,-0.6,-0.6,right,R,,,,,0,1,1,1,0,27,27,68,,,,,,,,,,,,,,,,,,,,,,,,,,,,,,,,,,,,,,,,,,,,212.51068839989603,None,right,1,1.5928543999325484,213.01131669990718,214.54699279996566,213.01131669990718,214.04627169994637,213.01131669990718,214.04627169994637,213.01131669990718,214.04627169994637,213.01131669990718,214.04627169994637,213.01131669990718,214.04627169994637,214.02951309992932,214.53084829985164,214.02951309992932,214.53084829985164,214.02951309992932,214.53084829985164,214.02951309992932,214.53084829985164,214.02951309992932,214.53084829985164,214.02951309992932,214.53084829985164,214.02951309992932,214.53084829985164,214.02951309992932,214.53084829985164,213.01131669990718,None,214.53084829985164,215.51518449978903,1.0300000000000007,215.53167989989743,None,216.28312919987366,None,,,,,,,[0.98],2.740000000000002,0.8214285714285714,11046,002,2024_Apr_15_1629,MFTM_A_new1021,2021.2.3,59.86281835229971,
,,,,,,,,stim/Instruction_adaptive.png,conditions/adaptive.xlsx,test,0.6,0.6,0.6,-0.6,-0.6,right,R,,,,,0,1,1,1,0,28,28,24,,,,,,,,,,,,,,,,,,,,,,,,,,,,,,,,,,,,,,,,,,,,216.78413429996,None,right,1,2.0235168000217527,217.28440319979563,218.7700143000111,217.28440319979563,218.26967899990268,217.28440319979563,218.26967899990268,217.28440319979563,218.26967899990268,217.28440319979563,218.26967899990268,217.28440319979563,218.26967899990268,218.253134700004,218.75297159980983,218.253134700004,218.75297159980983,218.253134700004,218.75297159980983,218.253134700004,218.75297159980983,218.253134700004,218.75297159980983,218.253134700004,218.75297159980983,218.253134700004,218.75297159980983,218.253134700004,218.75297159980983,217.28440319979563,None,218.75297159980983,219.7556331998203,0.9800000000000006,219.77184930001386,None,220.52345500001684,None,,,,,,,[0.99862069],2.800000000000002,0.8275862068965517,11046,002,2024_Apr_15_1629,MFTM_A_new1021,2021.2.3,59.86281835229971,
,,,,,,,,stim/Instruction_adaptive.png,conditions/adaptive.xlsx,test,0.6,0.6,0.6,-0.6,-0.6,right,R,,,,,0,1,1,1,0,29,29,40,,,,,,,,,,,,,,,,,,,,,,,,,,,,,,,,,,,,,,,,,,,,221.0238407999277,None,right,1,1.7106338001322001,221.5249445999507,222.97717959992588,221.5249445999507,222.47611609986052,221.5249445999507,222.47611609986052,221.5249445999507,222.47611609986052,221.5249445999507,222.47611609986052,221.5249445999507,222.47611609986052,222.44219859992154,222.94359419983812,222.44219859992154,222.94359419983812,222.44219859992154,222.94359419983812,222.44219859992154,222.94359419983812,222.44219859992154,222.94359419983812,222.44219859992154,222.94359419983812,222.44219859992154,222.94359419983812,222.44219859992154,222.94359419983812,221.5249445999507,None,222.94359419983812,223.9614910997916,0.9400000000000006,223.9943958998192,None,224.74583199992776,None,,,,,,,[1.01733333],2.8500000000000023,0.8333333333333334,11046,002,2024_Apr_15_1629,MFTM_A_new1021,2021.2.3,59.86281835229971,
,,,,,,,,stim/Instruction_adaptive.png,conditions/adaptive.xlsx,test,0.6,0.6,0.6,-0.6,-0.6,right,R,,,,,0,1,1,1,0,30,30,84,,,,,,,,,,,,,,,,,,,,,,,,,,,,,,,,,,,,,,,,,,,,225.2464018999599,None,right,1,1.3192823000717908,225.74835000000894,227.1664532998111,225.74835000000894,226.66519239987247,225.74835000000894,226.66519239987247,225.74835000000894,226.66519239987247,225.74835000000894,226.66519239987247,225.74835000000894,226.66519239987247,226.64935889979824,227.15036199986935,226.64935889979824,227.15036199986935,226.64935889979824,227.15036199986935,226.64935889979824,227.15036199986935,226.64935889979824,227.15036199986935,226.64935889979824,227.15036199986935,226.64935889979824,227.15036199986935,226.64935889979824,227.15036199986935,225.74835000000894,None,227.15036199986935,None,0.9100000000000006,228.2009893998038,None,228.95279159978963,None,,,,,,,[1.03580645],2.900000000000002,0.8387096774193549,11046,002,2024_Apr_15_1629,MFTM_A_new1021,2021.2.3,59.86281835229971,
,,,,,,,,stim/Instruction_adaptive.png,conditions/adaptive.xlsx,test,0.6,0.6,0.6,-0.6,-0.6,right,R,,,,,0,1,1,1,0,31,31,14,,,,,,,,,,,,,,,,,,,,,,,,,,,,,,,,,,,,,,,,,,,,229.45278179994784,None,left,0,1.5462134000845253,229.9537934998516,231.34020119998604,229.9537934998516,230.83874999987893,229.9537934998516,230.83874999987893,229.9537934998516,230.83874999987893,229.9537934998516,230.83874999987893,229.9537934998516,230.83874999987893,230.82228640001267,231.32316589984111,230.82228640001267,231.32316589984111,230.82228640001267,231.32316589984111,230.82228640001267,231.32316589984111,230.82228640001267,231.32316589984111,230.82228640001267,231.32316589984111,230.82228640001267,231.32316589984111,230.82228640001267,231.32316589984111,229.9537934998516,None,231.32316589984111,None,0.8800000000000006,232.40774009982124,None,233.15936129982583,None,,,,,,,[1.0540625],2.760000000000002,0.8125,11046,002,2024_Apr_15_1629,MFTM_A_new1021,2021.2.3,59.86281835229971,
,,,,,,,,stim/Instruction_adaptive.png,conditions/adaptive.xlsx,test,-0.6,-0.6,-0.6,0.6,0.6,left,L,,,,,0,1,1,1,0,32,32,39,,,,,,,,,,,,,,,,,,,,,,,,,,,,,,,,,,,,,,,,,,,,233.660223999992,None,left,1,2.0359541000798345,234.16069209994748,235.6304862999823,234.16069209994748,235.1450969998259,234.16069209994748,235.1450969998259,234.16069209994748,235.1450969998259,234.16069209994748,235.1450969998259,234.16069209994748,235.1450969998259,235.11210729996674,235.61352999997325,235.11210729996674,235.61352999997325,235.11210729996674,235.61352999997325,235.11210729996674,235.61352999997325,235.11210729996674,235.61352999997325,235.11210729996674,235.61352999997325,235.11210729996674,235.61352999997325,235.11210729996674,235.61352999997325,234.16069209994748,None,235.61352999997325,236.69791390001774,0.9700000000000006,236.73135009990074,None,237.4823045998346,None,,,,,,,[1.06848485],2.8100000000000023,0.8181818181818182,11046,002,2024_Apr_15_1629,MFTM_A_new1021,2021.2.3,59.86281835229971,
,,,,,,,,stim/Instruction_adaptive.png,conditions/adaptive.xlsx,test,-0.6,-0.6,-0.6,0.6,0.6,left,L,,,,,0,1,1,1,0,33,33,13,,,,,,,,,,,,,,,,,,,,,,,,,,,,,,,,,,,,,,,,,,,,237.9821874999907,None,left,1,1.7127916000317782,238.4832917000167,239.9354642999824,238.4832917000167,239.43594959983602,238.4832917000167,239.43594959983602,238.4832917000167,239.43594959983602,238.4832917000167,239.43594959983602,238.4832917000167,239.43594959983602,239.40100790001452,239.90189979993738,239.40100790001452,239.90189979993738,239.40100790001452,239.90189979993738,239.40100790001452,239.90189979993738,239.40100790001452,239.90189979993738,239.40100790001452,239.90189979993738,239.40100790001452,239.90189979993738,239.40100790001452,239.90189979993738,238.4832917000167,None,239.90189979993738,240.9869644998107,0.9400000000000006,241.0205945998896,None,241.77137759979814,None,,,,,,,[1.08294118],2.8500000000000023,0.8235294117647058,11046,002,2024_Apr_15_1629,MFTM_A_new1021,2021.2.3,59.86281835229971,
,,,,,,,,stim/Instruction_adaptive.png,conditions/adaptive.xlsx,test,0.6,0.6,0.6,-0.6,-0.6,right,R,,,,,0,1,1,1,0,34,34,52,,,,,,,,,,,,,,,,,,,,,,,,,,,,,,,,,,,,,,,,,,,,242.27203759993427,None,right,1,1.4066302999854088,242.77400039997883,244.19255309994332,242.77400039997883,243.69083229987882,242.77400039997883,243.69083229987882,242.77400039997883,243.69083229987882,242.77400039997883,243.69083229987882,242.77400039997883,243.69083229987882,243.67446889984421,244.17572359996848,243.67446889984421,244.17572359996848,243.67446889984421,244.17572359996848,243.67446889984421,244.17572359996848,243.67446889984421,244.17572359996848,243.67446889984421,244.17572359996848,243.67446889984421,244.17572359996848,243.67446889984421,244.17572359996848,242.77400039997883,None,244.15858579985797,245.26040419982746,0.9100000000000006,245.29307059990242,None,246.04450959991664,None,,,,,,,[1.09742857],2.900000000000002,0.8285714285714286,11046,002,2024_Apr_15_1629,MFTM_A_new1021,2021.2.3,59.86281835229971,
,,,,,,,,stim/Instruction_adaptive.png,conditions/adaptive.xlsx,test,0.6,0.6,0.6,-0.6,-0.6,right,R,,,,,0,1,1,1,0,35,35,6,,,,,,,,,,,,,,,,,,,,,,,,,,,,,,,,,,,,,,,,,,,,246.54570179991424,None,right,1,1.4712128001265228,247.04618399986066,248.43183499993756,247.04618399986066,247.93179119983688,247.04618399986066,247.93179119983688,247.04618399986066,247.93179119983688,247.04618399986066,247.93179119983688,247.04618399986066,247.93179119983688,247.91394759994,248.41573109989986,247.91394759994,248.41573109989986,247.91394759994,248.41573109989986,247.91394759994,248.41573109989986,247.91394759994,248.41573109989986,247.91394759994,248.41573109989986,247.91394759994,248.41573109989986,247.91394759994,248.41573109989986,247.04618399986066,None,248.41573109989986,249.53391129989177,0.8800000000000006,249.54961889982224,None,250.30195539980195,None,,,,,,,[1.11194444],2.940000000000002,0.8333333333333334,11046,002,2024_Apr_15_1629,MFTM_A_new1021,2021.2.3,59.86281835229971,
,,,,,,,,stim/Instruction_adaptive.png,conditions/adaptive.xlsx,test,0.6,0.6,0.6,-0.6,-0.6,right,R,,,,,0,1,1,1,0,36,36,64,,,,,,,,,,,,,,,,,,,,,,,,,,,,,,,,,,,,,,,,,,,,250.8016194999218,None,right,1,1.181606400059536,251.3030178998597,252.67235549981706,251.3030178998597,252.17048539989628,251.3030178998597,252.17048539989628,251.3030178998597,252.17048539989628,251.3030178998597,252.17048539989628,251.3030178998597,252.17048539989628,252.13714889995754,252.638364699902,252.13714889995754,252.638364699902,252.13714889995754,252.638364699902,252.13714889995754,252.638364699902,252.13714889995754,252.638364699902,252.13714889995754,252.638364699902,252.13714889995754,252.638364699902,252.13714889995754,252.638364699902,251.3030178998597,None,252.638364699902,253.77393539994955,0.8600000000000005,253.8072092998773,None,254.5573874998372,None,,,,,,,[1.12621622],2.980000000000002,0.8378378378378378,11046,002,2024_Apr_15_1629,MFTM_A_new1021,2021.2.3,59.86281835229971,
,,,,,,,,stim/Instruction_adaptive.png,conditions/adaptive.xlsx,test,0.6,0.6,0.6,-0.6,-0.6,right,R,,,,,0,1,1,1,0,37,37,2,,,,,,,,,,,,,,,,,,,,,,,,,,,,,,,,,,,,,,,,,,,,255.05859699985012,None,left,0,1.3822476000059396,255.5594259998761,256.8946181999054,255.5594259998761,256.39330290001817,255.5594259998761,256.39330290001817,255.5594259998761,256.39330290001817,255.5594259998761,256.39330290001817,255.5594259998761,256.39330290001817,256.37671420001425,256.87841139989905,256.37671420001425,256.87841139989905,256.37671420001425,256.87841139989905,256.37671420001425,256.87841139989905,256.37671420001425,256.87841139989905,256.37671420001425,256.87841139989905,256.37671420001425,256.87841139989905,256.37671420001425,256.87841139989905,255.5594259998761,None,256.8617730999831,258.01336280000396,0.8300000000000005,258.04718869994394,None,258.7970668999478,None,,,,,,,[1.14052632],2.870000000000002,0.8157894736842105,11046,002,2024_Apr_15_1629,MFTM_A_new1021,2021.2.3,59.86281835229971,
,,,,,,,,stim/Instruction_adaptive.png,conditions/adaptive.xlsx,test,-0.6,-0.6,-0.6,0.6,0.6,left,L,,,,,0,1,1,1,0,38,38,89,,,,,,,,,,,,,,,,,,,,,,,,,,,,,,,,,,,,,,,,,,,,259.2981045998167,None,left,1,1.3742006998509169,259.79867429984733,261.2011208999902,259.79867429984733,260.70046700001694,259.79867429984733,260.70046700001694,259.79867429984733,260.70046700001694,259.79867429984733,260.70046700001694,259.79867429984733,260.70046700001694,260.68450119998306,261.1846004999243,260.68450119998306,261.1846004999243,260.68450119998306,261.1846004999243,260.68450119998306,261.1846004999243,260.68450119998306,261.1846004999243,260.68450119998306,261.1846004999243,260.68450119998306,261.1846004999243,260.68450119998306,261.1846004999243,259.79867429984733,None,261.1846004999243,262.3360109999776,0.9000000000000006,262.35305309994146,None,263.1044117999263,None,,,,,,,[1.15230769],2.910000000000002,0.8205128205128205,11046,002,2024_Apr_15_1629,MFTM_A_new1021,2021.2.3,59.86281835229971,
,,,,,,,,stim/Instruction_adaptive.png,conditions/adaptive.xlsx,test,-0.6,-0.6,-0.6,0.6,0.6,left,L,,,,,0,1,1,1,0,39,39,69,,,,,,,,,,,,,,,,,,,,,,,,,,,,,,,,,,,,,,,,,,,,263.604771199869,None,right,0,1.5081575000658631,264.10511669982225,265.4915928998962,264.10511669982225,264.99084459990263,264.10511669982225,264.99084459990263,264.10511669982225,264.99084459990263,264.10511669982225,264.99084459990263,264.10511669982225,264.99084459990263,264.97429459984414,265.4743770000059,264.97429459984414,265.4743770000059,264.97429459984414,265.4743770000059,264.97429459984414,265.4743770000059,264.97429459984414,265.4743770000059,264.97429459984414,265.4743770000059,264.97429459984414,265.4743770000059,264.97429459984414,265.4743770000059,264.10511669982225,None,265.4743770000059,266.64302999991924,0.8800000000000006,266.6767852997873,None,267.42672049999237,None,,,,,,,[1.164],2.790000000000002,0.8,11046,002,2024_Apr_15_1629,MFTM_A_new1021,2021.2.3,59.86281835229971,
,,,,,,,,stim/Instruction_adaptive.png,conditions/adaptive.xlsx,test,-0.6,-0.6,-0.6,0.6,0.6,left,L,,,,,0,1,1,1,0,40,40,31,,,,,,,,,,,,,,,,,,,,,,,,,,,,,,,,,,,,,,,,,,,,267.92805889993906,None,left,1,1.4638209000695497,268.42917429981753,269.8825259997975,268.42917429981753,269.3806843999773,268.42917429981753,269.3806843999773,268.42917429981753,269.3806843999773,268.42917429981753,269.3806843999773,268.42917429981753,269.3806843999773,269.36302029993385,269.86468130000867,269.36302029993385,269.86468130000867,269.36302029993385,269.86468130000867,269.36302029993385,269.86468130000867,269.36302029993385,269.86468130000867,269.36302029993385,269.86468130000867,269.36302029993385,269.86468130000867,269.36302029993385,269.86468130000867,268.42917429981753,None,269.86468130000867,271.04888669983484,0.9500000000000006,271.08367499988526,None,271.8347543999553,None,,,,,,,[1.17341463],2.830000000000002,0.8048780487804879,11046,002,2024_Apr_15_1629,MFTM_A_new1021,2021.2.3,59.86281835229971,
,,,,,,,,stim/Instruction_adaptive.png,conditions/adaptive.xlsx,test,0.6,0.6,0.6,-0.6,-0.6,right,R,,,,,0,1,1,1,0,41,41,54,,,,,,,,,,,,,,,,,,,,,,,,,,,,,,,,,,,,,,,,,,,,272.3349257998634,None,left,0,1.802642999915406,272.8352186998818,274.2715192998294,272.8352186998818,273.7701073999051,272.8352186998818,273.7701073999051,272.8352186998818,273.7701073999051,272.8352186998818,273.7701073999051,272.8352186998818,273.7701073999051,273.7536870997865,274.25421629985794,273.7536870997865,274.25421629985794,273.7536870997865,274.25421629985794,273.7536870997865,274.25421629985794,273.7536870997865,274.25421629985794,273.7536870997865,274.25421629985794,273.7536870997865,274.25421629985794,273.7536870997865,274.25421629985794,272.8352186998818,None,274.25421629985794,275.43923379993066,0.9300000000000006,275.45541359996423,None,276.2081875000149,None,,,,,,,[1.18285714],2.7100000000000017,0.7857142857142857,11046,002,2024_Apr_15_1629,MFTM_A_new1021,2021.2.3,59.86281835229971,
,,,,,,,,stim/Instruction_adaptive.png,conditions/adaptive.xlsx,test,-0.6,-0.6,-0.6,0.6,0.6,left,L,,,,,0,1,1,1,0,42,42,45,,,,,,,,,,,,,,,,,,,,,,,,,,,,,,,,,,,,,,,,,,,,276.7076414998155,None,left,1,1.588965600123629,277.2082204998005,278.7279621998314,277.2082204998005,278.22660659998655,277.2082204998005,278.22660659998655,277.2082204998005,278.22660659998655,277.2082204998005,278.22660659998655,277.2082204998005,278.22660659998655,278.21014819992706,278.71180699998513,278.21014819992706,278.71180699998513,278.21014819992706,278.71180699998513,278.21014819992706,278.71180699998513,278.21014819992706,278.71180699998513,278.21014819992706,278.71180699998513,278.21014819992706,278.71180699998513,278.21014819992706,278.71180699998513,277.2082204998005,None,278.69492549984716,279.89595559984446,1.0100000000000007,279.91345639992505,None,280.66354279988445,None,,,,,,,[1.19],2.7500000000000018,0.7906976744186046,11046,002,2024_Apr_15_1629,MFTM_A_new1021,2021.2.3,59.86281835229971,
,,,,,,,,stim/Instruction_adaptive.png,conditions/adaptive.xlsx,test,-0.6,-0.6,-0.6,0.6,0.6,left,L,,,,,0,1,1,1,0,43,43,91,,,,,,,,,,,,,,,,,,,,,,,,,,,,,,,,,,,,,,,,,,,,281.16428689984605,None,left,1,1.7088883998803794,281.6652140999213,283.15095419995487,281.6652140999213,282.65120209986344,281.6652140999213,282.65120209986344,281.6652140999213,282.65120209986344,281.6652140999213,282.65120209986344,281.6652140999213,282.65120209986344,282.63425909983926,283.1349308998324,282.63425909983926,283.1349308998324,282.63425909983926,283.1349308998324,282.63425909983926,283.1349308998324,282.63425909983926,283.1349308998324,282.63425909983926,283.1349308998324,282.63425909983926,283.1349308998324,282.63425909983926,283.1349308998324,281.6652140999213,None,283.1349308998324,284.3359720997978,0.9800000000000006,284.3527690998744,None,285.10385619988665,None,,,,,,,[1.1975],2.790000000000002,0.7954545454545454,11046,002,2024_Apr_15_1629,MFTM_A_new1021,2021.2.3,59.86281835229971,
,,,,,,,,stim/Instruction_adaptive.png,conditions/adaptive.xlsx,test,0.6,0.6,0.6,-0.6,-0.6,right,R,,,,,0,1,1,1,0,44,44,66,,,,,,,,,,,,,,,,,,,,,,,,,,,,,,,,,,,,,,,,,,,,285.6047713998705,None,right,1,1.2702156000304967,286.1047708999831,287.55722359986976,286.1047708999831,287.05661819991656,286.1047708999831,287.05661819991656,286.1047708999831,287.05661819991656,286.1047708999831,287.05661819991656,286.1047708999831,287.05661819991656,287.0404025998432,287.54061129991896,287.0404025998432,287.54061129991896,287.0404025998432,287.54061129991896,287.0404025998432,287.54061129991896,287.0404025998432,287.54061129991896,287.0404025998432,287.54061129991896,287.0404025998432,287.54061129991896,287.0404025998432,287.54061129991896,286.1047708999831,None,287.54061129991896,288.7594643998891,0.9500000000000006,288.77715909993276,None,289.52676479984075,None,,,,,,,[1.20533333],2.830000000000002,0.8,11046,002,2024_Apr_15_1629,MFTM_A_new1021,2021.2.3,59.86281835229971,
,,,,,,,,stim/Instruction_adaptive.png,conditions/adaptive.xlsx,test,0.6,0.6,0.6,-0.6,-0.6,right,R,,,,,0,1,1,1,0,45,45,22,,,,,,,,,,,,,,,,,,,,,,,,,,,,,,,,,,,,,,,,,,,,290.02773199998774,None,right,1,1.4203612001147121,290.5457297998946,291.98112859996036,290.5457297998946,291.4813428998459,290.5457297998946,291.4813428998459,290.5457297998946,291.4813428998459,290.5457297998946,291.4813428998459,290.5457297998946,291.4813428998459,291.44705559988506,291.9471797000151,291.44705559988506,291.9471797000151,291.44705559988506,291.9471797000151,291.44705559988506,291.9471797000151,291.44705559988506,291.9471797000151,291.44705559988506,291.9471797000151,291.44705559988506,291.9471797000151,291.44705559988506,291.9471797000151,290.5457297998946,None,291.9471797000151,293.1660095998086,0.9300000000000006,293.20019549992867,None,293.95095159998164,None,,,,,,,[1.21326087],2.870000000000002,0.8043478260869565,11046,002,2024_Apr_15_1629,MFTM_A_new1021,2021.2.3,59.86281835229971,
,,,,,,,,stim/Instruction_adaptive.png,conditions/adaptive.xlsx,test,-0.6,-0.6,-0.6,0.6,0.6,left,L,,,,,0,1,1,1,0,46,46,75,,,,,,,,,,,,,,,,,,,,,,,,,,,,,,,,,,,,,,,,,,,,294.45184819982387,None,right,0,1.4780749999918044,294.9516515999567,296.3544241997879,294.9516515999567,295.85403939988464,294.9516515999567,295.85403939988464,294.9516515999567,295.85403939988464,294.9516515999567,295.85403939988464,294.9516515999567,295.85403939988464,295.83781829988584,296.3371466000099,295.83781829988584,296.3371466000099,295.83781829988584,296.3371466000099,295.83781829988584,296.3371466000099,295.83781829988584,296.3371466000099,295.83781829988584,296.3371466000099,295.83781829988584,296.3371466000099,295.83781829988584,296.3371466000099,294.9516515999567,None,296.3371466000099,None,0.9000000000000006,297.59061670000665,None,298.34025749983266,None,,,,,,,[1.22148936],2.760000000000002,0.7872340425531915,11046,002,2024_Apr_15_1629,MFTM_A_new1021,2021.2.3,59.86281835229971,
,,,,,,,,stim/Instruction_adaptive.png,conditions/adaptive.xlsx,test,0.6,0.6,0.6,-0.6,-0.6,right,R,,,,,0,1,1,1,0,47,47,42,,,,,,,,,,,,,,,,,,,,,,,,,,,,,,,,,,,,,,,,,,,,298.8410803999286,None,right,1,1.5841750998515636,299.3423160999082,300.8272887999192,299.3423160999082,300.32711709989235,299.3423160999082,300.32711709989235,299.3423160999082,300.32711709989235,299.3423160999082,300.32711709989235,299.3423160999082,300.32711709989235,300.2940829999279,300.7943002998363,300.2940829999279,300.7943002998363,300.2940829999279,300.7943002998363,300.2940829999279,300.7943002998363,300.2940829999279,300.7943002998363,300.2940829999279,300.7943002998363,300.2940829999279,300.7943002998363,300.2940829999279,300.7943002998363,299.3423160999082,None,300.7943002998363,302.03010370000266,0.9700000000000006,302.0456141999457,None,302.79743259982206,None,,,,,,,[1.22791667],2.800000000000002,0.7916666666666666,11046,002,2024_Apr_15_1629,MFTM_A_new1021,2021.2.3,59.86281835229971,
,,,,,,,,stim/Instruction_adaptive.png,conditions/adaptive.xlsx,test,-0.6,-0.6,-0.6,0.6,0.6,left,L,,,,,0,1,1,1,0,48,48,81,,,,,,,,,,,,,,,,,,,,,,,,,,,,,,,,,,,,,,,,,,,,303.2982645998709,None,right,0,1.672635099850595,303.79819479980506,305.251520199934,303.79819479980506,304.75092429993674,303.79819479980506,304.75092429993674,303.79819479980506,304.75092429993674,303.79819479980506,304.75092429993674,303.79819479980506,304.75092429993674,304.7172363998834,305.21748389978893,304.7172363998834,305.21748389978893,304.7172363998834,305.21748389978893,304.7172363998834,305.21748389978893,304.7172363998834,305.21748389978893,304.7172363998834,305.21748389978893,304.7172363998834,305.21748389978893,304.7172363998834,305.21748389978893,303.79819479980506,None,305.21748389978893,306.45322099979967,0.9400000000000006,306.4865068998188,None,307.2373298997991,None,,,,,,,[1.23469388],2.690000000000002,0.7755102040816326,11046,002,2024_Apr_15_1629,MFTM_A_new1021,2021.2.3,59.86281835229971,
,,,,,,,,stim/Instruction_adaptive.png,conditions/adaptive.xlsx,test,0.6,0.6,0.6,-0.6,-0.6,right,R,,,,,0,1,1,1,0,49,49,50,,,,,,,,,,,,,,,,,,,,,,,,,,,,,,,,,,,,,,,,,,,,307.73780869995244,None,left,0,1.7833779000211507,308.2391786999069,309.77483969996683,308.2391786999069,309.27474389993586,308.2391786999069,309.27474389993586,308.2391786999069,309.27474389993586,308.2391786999069,309.27474389993586,308.2391786999069,309.27474389993586,309.2404164997861,309.7415167000145,309.2404164997861,309.7415167000145,309.2404164997861,309.7415167000145,309.2404164997861,309.7415167000145,309.2404164997861,309.7415167000145,309.2404164997861,309.7415167000145,309.2404164997861,309.7415167000145,309.2404164997861,309.7415167000145,308.2391786999069,None,309.7415167000145,310.99324499978684,1.0200000000000007,311.009192999918,None,311.761208999902,None,,,,,,,[1.2396],2.580000000000002,0.76,11046,002,2024_Apr_15_1629,MFTM_A_new1021,2021.2.3,59.86281835229971,
,,,,,,,,stim/Instruction_adaptive.png,conditions/adaptive.xlsx,test,0.6,0.6,0.6,-0.6,-0.6,right,R,,,,,0,1,1,1,0,50,50,28,,,,,,,,,,,,,,,,,,,,,,,,,,,,,,,,,,,,,,,,,,,,312.2614470999688,None,right,1,1.9473342997953296,312.7629564998206,314.36443529999815,312.7629564998206,313.8647486998234,312.7629564998206,313.8647486998234,312.7629564998206,313.8647486998234,312.7629564998206,313.8647486998234,312.7629564998206,313.8647486998234,313.84690949996,314.34783210000023,313.84690949996,314.34783210000023,313.84690949996,314.34783210000023,313.84690949996,314.34783210000023,313.84690949996,314.34783210000023,313.84690949996,314.34783210000023,313.84690949996,314.34783210000023,313.84690949996,314.34783210000023,312.7629564998206,None,314.34783210000023,315.60029089986347,1.1000000000000008,315.634230799973,None,316.38502369984053,None,,,,,,,[1.2427451],2.620000000000002,0.7647058823529411,11046,002,2024_Apr_15_1629,MFTM_A_new1021,2021.2.3,59.86281835229971,
,,,,,,,,stim/Instruction_adaptive.png,conditions/adaptive.xlsx,test,-0.6,-0.6,-0.6,0.6,0.6,left,L,,,,,0,1,1,1,0,51,51,37,,,,,,,,,,,,,,,,,,,,,,,,,,,,,,,,,,,,,,,,,,,,316.88577159983106,None,left,1,1.6923483000136912,317.38636519992724,318.9721660998184,317.38636519992724,318.4704699998256,317.38636519992724,318.4704699998256,317.38636519992724,318.4704699998256,317.38636519992724,318.4704699998256,317.38636519992724,318.4704699998256,318.43731880001724,318.9377731999848,318.43731880001724,318.9377731999848,318.43731880001724,318.9377731999848,318.43731880001724,318.9377731999848,318.43731880001724,318.9377731999848,318.43731880001724,318.9377731999848,318.43731880001724,318.9377731999848,318.43731880001724,318.9377731999848,317.38636519992724,None,318.9377731999848,320.1902705999091,1.0700000000000007,320.20660599996336,None,320.95919139985926,None,,,,,,,[1.24634615],2.650000000000002,0.7692307692307693,11046,002,2024_Apr_15_1629,MFTM_A_new1021,2021.2.3,59.86281835229971,
,,,,,,,,stim/Instruction_adaptive.png,conditions/adaptive.xlsx,test,0.6,0.6,0.6,-0.6,-0.6,right,R,,,,,0,1,1,1,0,52,52,56,,,,,,,,,,,,,,,,,,,,,,,,,,,,,,,,,,,,,,,,,,,,321.4593733998481,None,right,1,1.855162100167945,321.95947649981827,323.5122663998045,321.95947649981827,323.01126319984905,321.95947649981827,323.01126319984905,321.95947649981827,323.01126319984905,321.95947649981827,323.01126319984905,321.95947649981827,323.01126319984905,322.9948624998797,323.49493549996987,322.9948624998797,323.49493549996987,322.9948624998797,323.49493549996987,322.9948624998797,323.49493549996987,322.9948624998797,323.49493549996987,322.9948624998797,323.49493549996987,322.9948624998797,323.49493549996987,322.9948624998797,323.49493549996987,321.95947649981827,None,323.49493549996987,324.7476456000004,1.0500000000000007,324.7630947998259,None,325.5146916999947,None,,,,,,,[1.25018868],2.690000000000002,0.7735849056603774,11046,002,2024_Apr_15_1629,MFTM_A_new1021,2021.2.3,59.86281835229971,
,,,,,,,,stim/Instruction_adaptive.png,conditions/adaptive.xlsx,test,0.6,0.6,0.6,-0.6,-0.6,right,R,,,,,0,1,1,1,0,53,53,94,,,,,,,,,,,,,,,,,,,,,,,,,,,,,,,,,,,,,,,,,,,,326.0162029999774,None,right,1,1.6274037000257522,326.5163876998704,328.0522765999194,326.5163876998704,327.55102639994584,326.5163876998704,327.55102639994584,326.5163876998704,327.55102639994584,326.5163876998704,327.55102639994584,326.5163876998704,327.55102639994584,327.51760669983923,328.01837149984203,327.51760669983923,328.01837149984203,327.51760669983923,328.01837149984203,327.51760669983923,328.01837149984203,327.51760669983923,328.01837149984203,327.51760669983923,328.01837149984203,327.51760669983923,328.01837149984203,327.51760669983923,328.01837149984203,326.5163876998704,None,328.01837149984203,329.28709719982,1.0200000000000007,329.30404570000246,None,330.0548289997969,None,,,,,,,[1.25444444],2.720000000000002,0.7777777777777778,11046,002,2024_Apr_15_1629,MFTM_A_new1021,2021.2.3,59.86281835229971,
,,,,,,,,stim/Instruction_adaptive.png,conditions/adaptive.xlsx,test,0.6,0.6,0.6,-0.6,-0.6,right,R,,,,,0,1,1,1,0,54,54,10,,,,,,,,,,,,,,,,,,,,,,,,,,,,,,,,,,,,,,,,,,,,330.55552880000323,None,left,0,1.3981759999878705,331.0566113998648,332.55844950000755,331.0566113998648,332.05852729990147,331.0566113998648,332.05852729990147,331.0566113998648,332.05852729990147,331.0566113998648,332.05852729990147,331.0566113998648,332.05852729990147,332.0414069998078,332.5425067998003,332.0414069998078,332.5425067998003,332.0414069998078,332.5425067998003,332.0414069998078,332.5425067998003,332.0414069998078,332.5425067998003,332.0414069998078,332.5425067998003,332.0414069998078,332.5425067998003,332.0414069998078,332.5425067998003,331.0566113998648,None,332.5425067998003,333.81013019988313,1.0000000000000007,333.82675409992225,None,334.5784800997935,None,,,,,,,[1.25890909],2.620000000000002,0.7636363636363637,11046,002,2024_Apr_15_1629,MFTM_A_new1021,2021.2.3,59.86281835229971,
,,,,,,,,stim/Instruction_adaptive.png,conditions/adaptive.xlsx,test,0.6,0.6,0.6,-0.6,-0.6,right,R,,,,,0,1,1,1,0,55,55,96,,,,,,,,,,,,,,,,,,,,,,,,,,,,,,,,,,,,,,,,,,,,335.0791318998672,None,right,1,1.5158361999783665,335.580286399927,337.14895790000446,335.580286399927,336.6660519000143,335.580286399927,336.6660519000143,335.580286399927,336.6660519000143,335.580286399927,336.6660519000143,335.580286399927,336.6660519000143,336.63184519996867,337.13296239986084,336.63184519996867,337.13296239986084,336.63184519996867,337.13296239986084,336.63184519996867,337.13296239986084,336.63184519996867,337.13296239986084,336.63184519996867,337.13296239986084,336.63184519996867,337.13296239986084,336.63184519996867,337.13296239986084,335.580286399927,None,337.13296239986084,338.40130589995533,1.0700000000000007,338.41735409991816,None,339.16858589998446,None,,,,,,,[1.26196429],2.660000000000002,0.7678571428571429,11046,002,2024_Apr_15_1629,MFTM_A_new1021,2021.2.3,59.86281835229971,
,,,,,,,,stim/Instruction_adaptive.png,conditions/adaptive.xlsx,test,0.6,0.6,0.6,-0.6,-0.6,right,R,,,,,0,1,1,1,0,56,56,76,,,,,,,,,,,,,,,,,,,,,,,,,,,,,,,,,,,,,,,,,,,,339.67051989980973,None,left,0,1.7484510000795126,340.17059979983605,341.7229684998747,340.17059979983605,341.2226114999503,340.17059979983605,341.2226114999503,340.17059979983605,341.2226114999503,340.17059979983605,341.2226114999503,340.17059979983605,341.2226114999503,341.1880145999603,341.68921320000663,341.1880145999603,341.68921320000663,341.1880145999603,341.68921320000663,341.1880145999603,341.68921320000663,341.1880145999603,341.68921320000663,341.1880145999603,341.68921320000663,341.1880145999603,341.68921320000663,341.1880145999603,341.68921320000663,340.17059979983605,None,341.68921320000663,342.9575840998441,1.0400000000000007,343.0084930998273,None,343.7587122998666,None,,,,,,,[1.2654386],2.560000000000002,0.7543859649122807,11046,002,2024_Apr_15_1629,MFTM_A_new1021,2021.2.3,59.86281835229971,
,,,,,,,,stim/Instruction_adaptive.png,conditions/adaptive.xlsx,test,-0.6,-0.6,-0.6,0.6,0.6,left,L,,,,,0,1,1,1,0,57,57,85,,,,,,,,,,,,,,,,,,,,,,,,,,,,,,,,,,,,,,,,,,,,344.2603404999245,None,right,0,2.037498800083995,344.76157450000755,346.39620139985345,344.76157450000755,345.8959730998613,344.76157450000755,345.8959730998613,344.76157450000755,345.8959730998613,344.76157450000755,345.8959730998613,344.76157450000755,345.8959730998613,345.8620604998432,346.3638744999189,345.8620604998432,346.3638744999189,345.8620604998432,346.3638744999189,345.8620604998432,346.3638744999189,345.8620604998432,346.3638744999189,345.8620604998432,346.3638744999189,345.8620604998432,346.3638744999189,345.8620604998432,346.3638744999189,344.76157450000755,None,346.3638744999189,347.6320850998163,1.1200000000000008,347.64777579996735,None,348.3991404999979,None,,,,,,,[1.26741379],2.450000000000002,0.7413793103448276,11046,002,2024_Apr_15_1629,MFTM_A_new1021,2021.2.3,59.86281835229971,
,,,,,,,,stim/Instruction_adaptive.png,conditions/adaptive.xlsx,test,-0.6,-0.6,-0.6,0.6,0.6,left,L,,,,,0,1,1,1,0,58,58,57,,,,,,,,,,,,,,,,,,,,,,,,,,,,,,,,,,,,,,,,,,,,348.9005685998127,None,left,1,2.056112499907613,349.40042359987274,351.1032371998299,349.40042359987274,350.6026751999743,349.40042359987274,350.6026751999743,349.40042359987274,350.6026751999743,349.40042359987274,350.6026751999743,349.40042359987274,350.6026751999743,350.5856999999378,351.0863040999975,350.5856999999378,351.0863040999975,350.5856999999378,351.0863040999975,350.5856999999378,351.0863040999975,350.5856999999378,351.0863040999975,350.5856999999378,351.0863040999975,350.5856999999378,351.0863040999975,350.5856999999378,351.0863040999975,349.40042359987274,None,351.0863040999975,352.3557964998763,1.2000000000000008,352.37205549981445,None,353.123379800003,None,,,,,,,[1.2679661],2.490000000000002,0.7457627118644068,11046,002,2024_Apr_15_1629,MFTM_A_new1021,2021.2.3,59.86281835229971,
,,,,,,,,stim/Instruction_adaptive.png,conditions/adaptive.xlsx,test,0.6,0.6,0.6,-0.6,-0.6,right,R,,,,,0,1,1,1,0,59,59,46,,,,,,,,,,,,,,,,,,,,,,,,,,,,,,,,,,,,,,,,,,,,353.6240544000175,None,right,1,1.6527915999758989,354.1244283998385,355.7935763997957,354.1244283998385,355.30930510000326,354.1244283998385,355.30930510000326,354.1244283998385,355.30930510000326,354.1244283998385,355.30930510000326,354.1244283998385,355.30930510000326,355.27599559980445,355.7770155998878,355.27599559980445,355.7770155998878,355.27599559980445,355.7770155998878,355.27599559980445,355.7770155998878,355.27599559980445,355.7770155998878,355.27599559980445,355.7770155998878,355.27599559980445,355.7770155998878,355.27599559980445,355.7770155998878,354.1244283998385,None,355.7770155998878,357.04562749993056,1.1700000000000008,357.0970815999899,None,357.8474784998689,None,,,,,,,[1.269],2.520000000000002,0.75,11046,002,2024_Apr_15_1629,MFTM_A_new1021,2021.2.3,59.86281835229971,
,,,,,,,,stim/Instruction_adaptive.png,conditions/adaptive.xlsx,test,-0.6,-0.6,-0.6,0.6,0.6,left,L,,,,,0,1,1,1,0,60,60,29,,,,,,,,,,,,,,,,,,,,,,,,,,,,,,,,,,,,,,,,,,,,358.3480853999499,None,left,1,1.7910335999913514,358.84885479998775,360.501680099871,358.84885479998775,360.00061349989846,358.84885479998775,360.00061349989846,358.84885479998775,360.00061349989846,358.84885479998775,360.00061349989846,358.84885479998775,360.00061349989846,359.9839188000187,360.4843907998875,359.9839188000187,360.4843907998875,359.9839188000187,360.4843907998875,359.9839188000187,360.4843907998875,359.9839188000187,360.4843907998875,359.9839188000187,360.4843907998875,359.9839188000187,360.4843907998875,359.9839188000187,360.4843907998875,358.84885479998775,None,360.4843907998875,None,1.1500000000000008,361.7690802998841,None,362.52140629990026,None,,,,,,,[1.27032787],2.560000000000002,0.7540983606557377,11046,002,2024_Apr_15_1629,MFTM_A_new1021,2021.2.3,59.86281835229971,
,,,,,,,,stim/Instruction_adaptive.png,conditions/adaptive.xlsx,test,0.6,0.6,0.6,-0.6,-0.6,right,R,,,,,0,1,1,1,0,61,61,26,,,,,,,,,,,,,,,,,,,,,,,,,,,,,,,,,,,,,,,,,,,,363.02163039986044,None,left,0,1.7513373999390751,363.5224739999976,365.1586615999695,363.5224739999976,364.6577107999474,363.5224739999976,364.6577107999474,363.5224739999976,364.6577107999474,363.5224739999976,364.6577107999474,363.5224739999976,364.6577107999474,364.62456909986213,365.12466089986265,364.62456909986213,365.12466089986265,364.62456909986213,365.12466089986265,364.62456909986213,365.12466089986265,364.62456909986213,365.12466089986265,364.62456909986213,365.12466089986265,364.62456909986213,365.12466089986265,364.62456909986213,365.12466089986265,363.5224739999976,None,365.12466089986265,366.4106743999291,1.1200000000000008,366.426177599933,None,367.17724829982035,None,,,,,,,[1.27209677],2.4600000000000017,0.7419354838709677,11046,002,2024_Apr_15_1629,MFTM_A_new1021,2021.2.3,59.86281835229971,
,,,,,,,,stim/Instruction_adaptive.png,conditions/adaptive.xlsx,test,0.6,0.6,0.6,-0.6,-0.6,right,R,,,,,0,1,1,1,0,62,62,58,,,,,,,,,,,,,,,,,,,,,,,,,,,,,,,,,,,,,,,,,,,,367.67869509989396,None,right,1,2.0385910000186414,368.1788484000135,369.88171279989183,368.1788484000135,369.3814991998952,368.1788484000135,369.3814991998952,368.1788484000135,369.3814991998952,368.1788484000135,369.3814991998952,368.1788484000135,369.3814991998952,369.36461429996416,369.8649877998978,369.36461429996416,369.8649877998978,369.36461429996416,369.8649877998978,369.36461429996416,369.8649877998978,369.36461429996416,369.8649877998978,369.36461429996416,369.8649877998978,369.36461429996416,369.8649877998978,369.36461429996416,369.8649877998978,368.1788484000135,None,369.8649877998978,None,1.2000000000000008,371.1683049998246,None,371.9185130998958,None,,,,,,,[1.27253968],2.490000000000002,0.746031746031746,11046,002,2024_Apr_15_1629,MFTM_A_new1021,2021.2.3,59.86281835229971,
,,,,,,,,stim/Instruction_adaptive.png,conditions/adaptive.xlsx,test,-0.6,-0.6,-0.6,0.6,0.6,left,L,,,,,0,1,1,1,0,63,63,61,,,,,,,,,,,,,,,,,,,,,,,,,,,,,,,,,,,,,,,,,,,,372.4197562998161,None,left,1,1.769107500091195,372.9193309999537,374.58854759996757,372.9193309999537,374.08840009989217,372.9193309999537,374.08840009989217,372.9193309999537,374.08840009989217,372.9193309999537,374.08840009989217,372.9193309999537,374.08840009989217,374.07322919997387,374.572407099884,374.07322919997387,374.572407099884,374.07322919997387,374.572407099884,374.07322919997387,374.572407099884,374.07322919997387,374.572407099884,374.07322919997387,374.572407099884,374.07322919997387,374.572407099884,374.07322919997387,374.572407099884,372.9193309999537,None,374.572407099884,375.8571050998289,1.1700000000000008,375.8744118998293,None,376.62542669987306,None,,,,,,,[1.2734375],2.530000000000002,0.75,11046,002,2024_Apr_15_1629,MFTM_A_new1021,2021.2.3,59.86281835229971,
,,,,,,,,stim/Instruction_adaptive.png,conditions/adaptive.xlsx,test,0.6,0.6,0.6,-0.6,-0.6,right,R,,,,,0,1,1,1,0,64,64,74,,,,,,,,,,,,,,,,,,,,,,,,,,,,,,,,,,,,,,,,,,,,377.12582359998487,None,right,1,1.869575799908489,377.6446121998597,379.29591270000674,377.6446121998597,378.79574600001797,377.6446121998597,378.79574600001797,377.6446121998597,378.79574600001797,377.6446121998597,378.79574600001797,377.6446121998597,378.79574600001797,378.7627342999913,379.2630419000052,378.7627342999913,379.2630419000052,378.7627342999913,379.2630419000052,378.7627342999913,379.2630419000052,378.7627342999913,379.2630419000052,378.7627342999913,379.2630419000052,378.7627342999913,379.2630419000052,378.7627342999913,379.2630419000052,377.6446121998597,None,379.2459981997963,380.53192819980904,1.1400000000000008,380.5648977998644,None,381.31616759998724,None,,,,,,,[1.27476923],2.560000000000002,0.7538461538461538,11046,002,2024_Apr_15_1629,MFTM_A_new1021,2021.2.3,59.86281835229971,
,,,,,,,,stim/Instruction_adaptive.png,conditions/adaptive.xlsx,test,-0.6,-0.6,-0.6,0.6,0.6,left,L,,,,,0,1,1,1,0,65,65,11,,,,,,,,,,,,,,,,,,,,,,,,,,,,,,,,,,,,,,,,,,,,381.8164400998503,None,left,1,1.602924200007692,382.31688729999587,383.95257919980213,382.31688729999587,383.4524364999961,382.31688729999587,383.4524364999961,382.31688729999587,383.4524364999961,382.31688729999587,383.4524364999961,382.31688729999587,383.4524364999961,383.4185507998336,383.91907910001464,383.4185507998336,383.91907910001464,383.4185507998336,383.91907910001464,383.4185507998336,383.91907910001464,383.4185507998336,383.91907910001464,383.4185507998336,383.91907910001464,383.4185507998336,383.91907910001464,383.4185507998336,383.91907910001464,382.31688729999587,None,383.91907910001464,385.20627949992195,1.1200000000000008,385.22113839979284,None,385.9745112999808,None,,,,,,,[1.27636364],2.5900000000000016,0.7575757575757576,11046,002,2024_Apr_15_1629,MFTM_A_new1021,2021.2.3,59.86281835229971,
,,,,,,,,stim/Instruction_adaptive.png,conditions/adaptive.xlsx,test,-0.6,-0.6,-0.6,0.6,0.6,left,L,,,,,0,1,1,1,0,66,66,7,,,,,,,,,,,,,,,,,,,,,,,,,,,,,,,,,,,,,,,,,,,,386.490390899824,None,left,1,1.57758569996804,386.9914834999945,388.5934001998976,386.9914834999945,388.09290950000286,386.9914834999945,388.09290950000286,386.9914834999945,388.09290950000286,386.9914834999945,388.09290950000286,386.9914834999945,388.09290950000286,388.06004070001654,388.56028899992816,388.06004070001654,388.56028899992816,388.06004070001654,388.56028899992816,388.06004070001654,388.56028899992816,388.06004070001654,388.56028899992816,388.06004070001654,388.56028899992816,388.06004070001654,388.56028899992816,388.06004070001654,388.56028899992816,386.9914834999945,None,388.56028899992816,389.8458523999434,1.0900000000000007,389.86159370001405,None,390.61392609984614,None,,,,,,,[1.27835821],2.620000000000002,0.7611940298507462,11046,002,2024_Apr_15_1629,MFTM_A_new1021,2021.2.3,59.86281835229971,
,,,,,,,,stim/Instruction_adaptive.png,conditions/adaptive.xlsx,test,-0.6,-0.6,-0.6,0.6,0.6,left,L,,,,,0,1,1,1,0,67,67,87,,,,,,,,,,,,,,,,,,,,,,,,,,,,,,,,,,,,,,,,,,,,391.1136330999434,None,right,0,1.842246200190857,391.6147512998432,393.20039319992065,391.6147512998432,392.70082219992764,391.6147512998432,392.70082219992764,391.6147512998432,392.70082219992764,391.6147512998432,392.70082219992764,391.6147512998432,392.70082219992764,392.6663438999094,393.1668274998665,392.6663438999094,393.1668274998665,392.6663438999094,393.1668274998665,392.6663438999094,393.1668274998665,392.6663438999094,393.1668274998665,392.6663438999094,393.1668274998665,392.6663438999094,393.1668274998665,392.6663438999094,393.1668274998665,391.6147512998432,None,393.1668274998665,394.4520824998617,1.0700000000000007,394.48611219995655,None,395.2370668000076,None,,,,,,,[1.28058824],2.530000000000002,0.75,11046,002,2024_Apr_15_1629,MFTM_A_new1021,2021.2.3,59.86281835229971,
,,,,,,,,stim/Instruction_adaptive.png,conditions/adaptive.xlsx,test,-0.6,-0.6,-0.6,0.6,0.6,left,L,,,,,0,1,1,1,0,68,68,21,,,,,,,,,,,,,,,,,,,,,,,,,,,,,,,,,,,,,,,,,,,,395.7211649999954,None,left,1,1.9240946001373231,396.22113939980045,397.87435269984417,396.22113939980045,397.37369319982827,396.22113939980045,397.37369319982827,396.22113939980045,397.37369319982827,396.22113939980045,397.37369319982827,396.22113939980045,397.37369319982827,397.3398589999415,397.84060029988177,397.3398589999415,397.84060029988177,397.3398589999415,397.84060029988177,397.3398589999415,397.84060029988177,397.3398589999415,397.84060029988177,397.3398589999415,397.84060029988177,397.3398589999415,397.84060029988177,397.3398589999415,397.84060029988177,396.22113939980045,None,397.84060029988177,399.12610769993626,1.1400000000000008,399.1424391998444,None,399.893775699893,None,,,,,,,[1.28173913],2.560000000000002,0.7536231884057971,11046,002,2024_Apr_15_1629,MFTM_A_new1021,2021.2.3,59.86281835229971,
,,,,,,,,stim/Instruction_adaptive.png,conditions/adaptive.xlsx,test,0.6,0.6,0.6,-0.6,-0.6,right,R,,,,,0,1,1,1,0,69,69,86,,,,,,,,,,,,,,,,,,,,,,,,,,,,,,,,,,,,,,,,,,,,400.3949070998933,None,right,1,1.9858615000266582,400.89505529985763,402.530759899877,400.89505529985763,402.02980639995076,400.89505529985763,402.02980639995076,400.89505529985763,402.02980639995076,400.89505529985763,402.02980639995076,400.89505529985763,402.02980639995076,401.99660329986364,402.4972917998675,401.99660329986364,402.4972917998675,401.99660329986364,402.4972917998675,401.99660329986364,402.4972917998675,401.99660329986364,402.4972917998675,401.99660329986364,402.4972917998675,401.99660329986364,402.4972917998675,401.99660329986364,402.4972917998675,400.89505529985763,None,402.4972917998675,403.782915599877,1.1200000000000008,403.79907609988004,None,404.55069989990443,None,,,,,,,[1.28314286],2.5900000000000016,0.7571428571428571,11046,002,2024_Apr_15_1629,MFTM_A_new1021,2021.2.3,59.86281835229971,
,,,,,,,,stim/Instruction_adaptive.png,conditions/adaptive.xlsx,test,-0.6,-0.6,-0.6,0.6,0.6,left,L,,,,,0,1,1,1,0,70,70,47,,,,,,,,,,,,,,,,,,,,,,,,,,,,,,,,,,,,,,,,,,,,405.05122169991955,None,left,1,1.889149900060147,405.5518325997982,407.1546893999912,405.5518325997982,406.6539852998685,405.5518325997982,406.6539852998685,405.5518325997982,406.6539852998685,405.5518325997982,406.6539852998685,405.5518325997982,406.6539852998685,406.6210163999349,407.1211345999036,406.6210163999349,407.1211345999036,406.6210163999349,407.1211345999036,406.6210163999349,407.1211345999036,406.6210163999349,407.1211345999036,406.6210163999349,407.1211345999036,406.6210163999349,407.1211345999036,406.6210163999349,407.1211345999036,405.5518325997982,None,407.1211345999036,408.4071240997873,1.0900000000000007,408.44108009990305,None,409.19110049982555,None,,,,,,,[1.28492958],2.620000000000002,0.7605633802816901,11046,002,2024_Apr_15_1629,MFTM_A_new1021,2021.2.3,59.86281835229971,
,,,,,,,,stim/Instruction_adaptive.png,conditions/adaptive.xlsx,test,-0.6,-0.6,-0.6,0.6,0.6,left,L,,,,,0,1,1,1,0,71,71,73,,,,,,,,,,,,,,,,,,,,,,,,,,,,,,,,,,,,,,,,,,,,409.6916697998531,None,left,1,1.785066899843514,410.192250699969,411.761781899957,410.192250699969,411.27873009978794,410.192250699969,411.27873009978794,410.192250699969,411.27873009978794,410.192250699969,411.27873009978794,410.192250699969,411.27873009978794,411.2446727999486,411.7451712000184,411.2446727999486,411.7451712000184,411.2446727999486,411.7451712000184,411.2446727999486,411.7451712000184,411.2446727999486,411.7451712000184,411.2446727999486,411.7451712000184,411.2446727999486,411.7451712000184,411.2446727999486,411.7451712000184,410.192250699969,None,411.7451712000184,413.04687089985237,1.0700000000000007,413.0636250998359,None,413.81555589986965,None,,,,,,,[1.28694444],2.650000000000002,0.7638888888888888,11046,002,2024_Apr_15_1629,MFTM_A_new1021,2021.2.3,59.86281835229971,
,,,,,,,,stim/Instruction_adaptive.png,conditions/adaptive.xlsx,test,-0.6,-0.6,-0.6,0.6,0.6,left,L,,,,,0,1,1,1,0,72,72,3,,,,,,,,,,,,,,,,,,,,,,,,,,,,,,,,,,,,,,,,,,,,414.31600609980524,None,left,1,1.4571816001553088,414.81593629997224,416.3693087999709,414.81593629997224,415.8674508999102,414.81593629997224,415.8674508999102,414.81593629997224,415.8674508999102,414.81593629997224,415.8674508999102,414.81593629997224,415.8674508999102,415.8507976999972,416.35224639996886,415.8507976999972,416.35224639996886,415.8507976999972,416.35224639996886,415.8507976999972,416.35224639996886,415.8507976999972,416.35224639996886,415.8507976999972,416.35224639996886,415.8507976999972,416.35224639996886,415.8507976999972,416.35224639996886,414.81593629997224,None,416.35224639996886,None,1.0500000000000007,417.6550131000113,None,418.40628709993325,None,,,,,,,[1.28917808],2.6700000000000017,0.7671232876712328,11046,002,2024_Apr_15_1629,MFTM_A_new1021,2021.2.3,59.86281835229971,
,,,,,,,,stim/Instruction_adaptive.png,conditions/adaptive.xlsx,test,-0.6,-0.6,-0.6,0.6,0.6,left,L,,,,,0,1,1,1,0,73,73,35,,,,,,,,,,,,,,,,,,,,,,,,,,,,,,,,,,,,,,,,,,,,418.90641029994003,None,left,1,1.6345472000539303,419.40714839985594,420.9421134998556,419.40714839985594,420.44142269995064,419.40714839985594,420.44142269995064,419.40714839985594,420.44142269995064,419.40714839985594,420.44142269995064,419.40714839985594,420.44142269995064,420.4246792998165,420.92544189980254,420.4246792998165,420.92544189980254,420.4246792998165,420.92544189980254,420.4246792998165,420.92544189980254,420.4246792998165,420.92544189980254,420.4246792998165,420.92544189980254,420.4246792998165,420.92544189980254,420.4246792998165,420.92544189980254,419.40714839985594,None,420.92544189980254,422.2279186998494,1.0300000000000007,422.2443342998158,None,422.9958786999341,None,,,,,,,[1.29162162],2.700000000000002,0.7702702702702703,11046,002,2024_Apr_15_1629,MFTM_A_new1021,2021.2.3,59.86281835229971,
,,,,,,,,stim/Instruction_adaptive.png,conditions/adaptive.xlsx,test,0.6,0.6,0.6,-0.6,-0.6,right,R,,,,,0,1,1,1,0,74,74,16,,,,,,,,,,,,,,,,,,,,,,,,,,,,,,,,,,,,,,,,,,,,423.49633909994736,None,right,1,1.7167917001061141,423.9964428998064,425.5165742998943,423.9964428998064,425.01505119982176,423.9964428998064,425.01505119982176,423.9964428998064,425.01505119982176,423.9964428998064,425.01505119982176,423.9964428998064,425.01505119982176,424.99848319985904,425.4995158999227,424.99848319985904,425.4995158999227,424.99848319985904,425.4995158999227,424.99848319985904,425.4995158999227,424.99848319985904,425.4995158999227,424.99848319985904,425.4995158999227,424.99848319985904,425.4995158999227,424.99848319985904,425.4995158999227,423.9964428998064,None,425.4995158999227,None,1.0100000000000007,426.8009822999593,None,427.55185659998097,None,,,,,,,[1.29426667],2.720000000000002,0.7733333333333333,11046,002,2024_Apr_15_1629,MFTM_A_new1021,2021.2.3,59.86281835229971,
,,,,,,,,stim/Instruction_adaptive.png,conditions/adaptive.xlsx,test,0.6,0.6,0.6,-0.6,-0.6,right,R,,,,,0,1,1,1,0,75,75,90,,,,,,,,,,,,,,,,,,,,,,,,,,,,,,,,,,,,,,,,,,,,428.0528097997885,None,left,0,1.8395013997796923,428.5540737998672,430.0559865999967,428.5540737998672,429.55555949988775,428.5540737998672,429.55555949988775,428.5540737998672,429.55555949988775,428.5540737998672,429.55555949988775,428.5540737998672,429.55555949988775,429.5382513999939,430.03911739983596,429.5382513999939,430.03911739983596,429.5382513999939,430.03911739983596,429.5382513999939,430.03911739983596,429.5382513999939,430.03911739983596,429.5382513999939,430.03911739983596,429.5382513999939,430.03911739983596,429.5382513999939,430.03911739983596,428.5540737998672,None,430.03911739983596,431.3421796998009,1.0000000000000007,431.37567579979077,None,432.12611209996976,None,,,,,,,[1.29697368],2.650000000000002,0.7631578947368421,11046,002,2024_Apr_15_1629,MFTM_A_new1021,2021.2.3,59.86281835229971,
,,,,,,,,stim/Instruction_adaptive.png,conditions/adaptive.xlsx,test,-0.6,-0.6,-0.6,0.6,0.6,left,L,,,,,0,1,1,1,0,76,76,99,,,,,,,,,,,,,,,,,,,,,,,,,,,,,,,,,,,,,,,,,,,,432.6262699998915,None,left,1,1.5232953999657184,433.1269551999867,434.67991709988564,433.1269551999867,434.1797419998329,433.1269551999867,434.1797419998329,433.1269551999867,434.1797419998329,433.1269551999867,434.1797419998329,433.1269551999867,434.1797419998329,434.1623685997911,434.6632373998873,434.1623685997911,434.6632373998873,434.1623685997911,434.6632373998873,434.1623685997911,434.6632373998873,434.1623685997911,434.6632373998873,434.1623685997911,434.6632373998873,434.1623685997911,434.6632373998873,434.1623685997911,434.6632373998873,433.1269551999867,None,434.6632373998873,435.96587929991074,1.0500000000000007,435.9993760997895,None,436.7491813998204,None,,,,,,,[1.29896104],2.6700000000000017,0.7662337662337663,11046,002,2024_Apr_15_1629,MFTM_A_new1021,2021.2.3,59.86281835229971,
,,,,,,,,stim/Instruction_adaptive.png,conditions/adaptive.xlsx,test,-0.6,-0.6,-0.6,0.6,0.6,left,L,,,,,0,1,1,1,0,77,77,1,,,,,,,,,,,,,,,,,,,,,,,,,,,,,,,,,,,,,,,,,,,,437.2505238999147,None,left,1,1.6767050998751074,437.7338916999288,439.27001949981786,437.7338916999288,438.769527599914,437.7338916999288,438.769527599914,437.7338916999288,438.769527599914,437.7338916999288,438.769527599914,437.7338916999288,438.769527599914,438.7520832999144,439.25346909998916,438.7520832999144,439.25346909998916,438.7520832999144,439.25346909998916,438.7520832999144,439.25346909998916,438.7520832999144,439.25346909998916,438.7520832999144,439.25346909998916,438.7520832999144,439.25346909998916,438.7520832999144,439.25346909998916,437.7338916999288,None,439.25346909998916,440.5550040998496,1.0300000000000007,440.5713231000118,None,441.3226075998973,None,,,,,,,[1.30115385],2.700000000000002,0.7692307692307693,11046,002,2024_Apr_15_1629,MFTM_A_new1021,2021.2.3,59.86281835229971,
,,,,,,,,stim/Instruction_adaptive.png,conditions/adaptive.xlsx,test,-0.6,-0.6,-0.6,0.6,0.6,left,L,,,,,0,1,1,1,0,78,78,77,,,,,,,,,,,,,,,,,,,,,,,,,,,,,,,,,,,,,,,,,,,,441.8239725998137,None,right,0,1.565809499938041,442.3251495999284,443.8438249998726,442.3251495999284,443.3423066998366,442.3251495999284,443.3423066998366,442.3251495999284,443.3423066998366,442.3251495999284,443.3423066998366,442.3251495999284,443.3423066998366,443.3266545999795,443.82721589994617,443.3266545999795,443.82721589994617,443.3266545999795,443.82721589994617,443.3266545999795,443.82721589994617,443.3266545999795,443.82721589994617,443.3266545999795,443.82721589994617,443.3266545999795,443.82721589994617,443.3266545999795,443.82721589994617,442.3251495999284,None,443.81004559993744,445.1289731999859,1.0100000000000007,445.1624665998388,None,445.91403390001506,None,,,,,,,[1.3035443],2.6300000000000017,0.759493670886076,11046,002,2024_Apr_15_1629,MFTM_A_new1021,2021.2.3,59.86281835229971,
,,,,,,,,stim/Instruction_adaptive.png,conditions/adaptive.xlsx,test,0.6,0.6,0.6,-0.6,-0.6,right,R,,,,,0,1,1,1,0,79,79,78,,,,,,,,,,,,,,,,,,,,,,,,,,,,,,,,,,,,,,,,,,,,446.41404059994966,None,None,0,0,446.9149591999594,448.4842706997879,446.9149591999594,447.98269729991443,446.9149591999594,447.98269729991443,446.9149591999594,447.98269729991443,446.9149591999594,447.98269729991443,446.9149591999594,447.98269729991443,447.95027959998697,448.45018329983577,447.95027959998697,448.45018329983577,447.95027959998697,448.45018329983577,447.95027959998697,448.45018329983577,447.95027959998697,448.45018329983577,447.95027959998697,448.45018329983577,447.95027959998697,448.45018329983577,447.95027959998697,448.45018329983577,446.9149591999594,None,448.45018329983577,450.403859899845,1.0600000000000007,450.43758159992285,None,451.1882805998903,None,,,,,,,[[1.94]],2.5500000000000016,0.75,11046,002,2024_Apr_15_1629,MFTM_A_new1021,2021.2.3,59.86281835229971,
,,,,,,,,stim/Instruction_adaptive.png,conditions/adaptive.xlsx,test,-0.6,-0.6,-0.6,0.6,0.6,left,L,,,,,0,1,1,1,0,80,80,33,,,,,,,,,,,,,,,,,,,,,,,,,,,,,,,,,,,,,,,,,,,,451.68874299991876,None,right,0,1.5013358001597226,452.1894419998862,453.80830509983934,452.1894419998862,453.3095574998297,452.1894419998862,453.3095574998297,452.1894419998862,453.3095574998297,452.1894419998862,453.3095574998297,452.1894419998862,453.3095574998297,453.2920414998662,453.79193339985795,453.2920414998662,453.79193339985795,453.2920414998662,453.79193339985795,453.2920414998662,453.79193339985795,453.2920414998662,453.79193339985795,453.2920414998662,453.79193339985795,453.2920414998662,453.79193339985795,453.2920414998662,453.79193339985795,452.1894419998862,None,453.79193339985795,455.11055489978753,1.1200000000000008,455.1441461998038,None,455.89725679997355,None,,,,,,,[1.30617284],2.4800000000000018,0.7407407407407407,11046,002,2024_Apr_15_1629,MFTM_A_new1021,2021.2.3,59.86281835229971,
,,,,,,,,stim/Instruction_adaptive.png,conditions/adaptive.xlsx,test,-0.6,-0.6,-0.6,0.6,0.6,left,L,,,,,0,1,1,1,0,81,81,55,,,,,,,,,,,,,,,,,,,,,,,,,,,,,,,,,,,,,,,,,,,,456.3956517998595,None,left,1,1.5144894998520613,456.8968211999163,458.5821473998949,456.8968211999163,458.08180079981685,456.8968211999163,458.08180079981685,456.8968211999163,458.08180079981685,456.8968211999163,458.08180079981685,456.8968211999163,458.08180079981685,458.06548479991034,458.5656171999872,458.06548479991034,458.5656171999872,458.06548479991034,458.5656171999872,458.06548479991034,458.5656171999872,458.06548479991034,458.5656171999872,458.06548479991034,458.5656171999872,458.06548479991034,458.5656171999872,458.06548479991034,458.5656171999872,456.8968211999163,None,458.5656171999872,None,1.1800000000000008,459.8852144998964,None,460.63524669990875,None,,,,,,,[1.30634146],2.5000000000000018,0.7439024390243902,11046,002,2024_Apr_15_1629,MFTM_A_new1021,2021.2.3,59.86281835229971,
,,,,,,,,stim/Instruction_adaptive.png,conditions/adaptive.xlsx,test,-0.6,-0.6,-0.6,0.6,0.6,left,L,,,,,0,1,1,1,0,82,82,51,,,,,,,,,,,,,,,,,,,,,,,,,,,,,,,,,,,,,,,,,,,,461.13672839989886,None,left,1,1.6868807999417186,461.6364829998929,463.30623789993115,461.6364829998929,462.80543919978663,461.6364829998929,462.80543919978663,461.6364829998929,462.80543919978663,461.6364829998929,462.80543919978663,461.6364829998929,462.80543919978663,462.77235409989953,463.27250179997645,462.77235409989953,463.27250179997645,462.77235409989953,463.27250179997645,462.77235409989953,463.27250179997645,462.77235409989953,463.27250179997645,462.77235409989953,463.27250179997645,462.77235409989953,463.27250179997645,462.77235409989953,463.27250179997645,461.6364829998929,None,463.27250179997645,464.59157469985075,1.1600000000000008,464.6080223999452,None,465.3603542998899,None,,,,,,,[1.30674699],2.530000000000002,0.7469879518072289,11046,002,2024_Apr_15_1629,MFTM_A_new1021,2021.2.3,59.86281835229971,
,,,,,,,,stim/Instruction_adaptive.png,conditions/adaptive.xlsx,test,0.6,0.6,0.6,-0.6,-0.6,right,R,,,,,0,1,1,1,0,83,83,0,,,,,,,,,,,,,,,,,,,,,,,,,,,,,,,,,,,,,,,,,,,,465.86036419984885,None,right,1,1.9065604999195784,466.3612248999998,468.0139972998295,466.3612248999998,467.51233769999817,466.3612248999998,467.51233769999817,466.3612248999998,467.51233769999817,466.3612248999998,467.51233769999817,466.3612248999998,467.51233769999817,467.4794792998582,467.98006580001675,467.4794792998582,467.98006580001675,467.4794792998582,467.98006580001675,467.4794792998582,467.98006580001675,467.4794792998582,467.98006580001675,467.4794792998582,467.98006580001675,467.4794792998582,467.98006580001675,467.4794792998582,467.98006580001675,466.3612248999998,None,467.98006580001675,469.29847939987667,1.1400000000000008,469.3152426998131,None,470.06657859985717,None,,,,,,,[1.30738095],2.5500000000000016,0.75,11046,002,2024_Apr_15_1629,MFTM_A_new1021,2021.2.3,59.86281835229971,
,,,,,,,,stim/Instruction_adaptive.png,conditions/adaptive.xlsx,test,-0.6,-0.6,-0.6,0.6,0.6,left,L,,,,,0,1,1,1,0,84,84,63,,,,,,,,,,,,,,,,,,,,,,,,,,,,,,,,,,,,,,,,,,,,470.5670535999816,None,right,0,1.607449300121516,471.0672659999691,472.6870246999897,471.0672659999691,472.20330359996296,471.0672659999691,472.20330359996296,471.0672659999691,472.20330359996296,471.0672659999691,472.20330359996296,471.0672659999691,472.20330359996296,472.16929429979064,472.6708938998636,472.16929429979064,472.6708938998636,472.16929429979064,472.6708938998636,472.16929429979064,472.6708938998636,472.16929429979064,472.6708938998636,472.16929429979064,472.6708938998636,472.16929429979064,472.6708938998636,472.16929429979064,472.6708938998636,471.0672659999691,None,472.6708938998636,473.989848600002,1.1200000000000008,474.02435710001737,None,474.77331929979846,None,,,,,,,[1.30823529],2.4800000000000018,0.7411764705882353,11046,002,2024_Apr_15_1629,MFTM_A_new1021,2021.2.3,59.86281835229971,
,,,,,,,,stim/Instruction_adaptive.png,conditions/adaptive.xlsx,test,-0.6,-0.6,-0.6,0.6,0.6,left,L,,,,,0,1,1,1,0,85,85,23,,,,,,,,,,,,,,,,,,,,,,,,,,,,,,,,,,,,,,,,,,,,475.2742786000017,None,left,1,1.7327093998901546,475.7584214999806,477.4438006998971,475.7584214999806,476.94365779985674,475.7584214999806,476.94365779985674,475.7584214999806,476.94365779985674,475.7584214999806,476.94365779985674,475.7584214999806,476.94365779985674,476.9266522999387,477.42767579993233,476.9266522999387,477.42767579993233,476.9266522999387,477.42767579993233,476.9266522999387,477.42767579993233,476.9266522999387,477.42767579993233,476.9266522999387,477.42767579993233,476.9266522999387,477.42767579993233,476.9266522999387,477.42767579993233,475.7584214999806,None,477.42767579993233,None,1.1800000000000008,478.74610809981823,None,479.49812849983573,None,,,,,,,[1.30837209],2.5100000000000016,0.7441860465116279,11046,002,2024_Apr_15_1629,MFTM_A_new1021,2021.2.3,59.86281835229971,
,,,,,,,,stim/Instruction_adaptive.png,conditions/adaptive.xlsx,test,-0.6,-0.6,-0.6,0.6,0.6,left,L,,,,,0,1,1,1,0,86,86,17,,,,,,,,,,,,,,,,,,,,,,,,,,,,,,,,,,,,,,,,,,,,479.9992591999471,None,left,1,1.5527251998428255,480.499248099979,482.151115299901,480.499248099979,481.6502063998487,480.499248099979,481.6502063998487,480.499248099979,481.6502063998487,480.499248099979,481.6502063998487,480.499248099979,481.6502063998487,481.6337073999457,482.1344374998007,481.6337073999457,482.1344374998007,481.6337073999457,482.1344374998007,481.6337073999457,482.1344374998007,481.6337073999457,482.1344374998007,481.6337073999457,482.1344374998007,481.6337073999457,482.1344374998007,481.6337073999457,482.1344374998007,480.499248099979,None,482.1344374998007,483.454213099787,1.1500000000000008,483.48757369979285,None,484.23825569986366,None,,,,,,,[1.30885057],2.530000000000002,0.7471264367816092,11046,002,2024_Apr_15_1629,MFTM_A_new1021,2021.2.3,59.86281835229971,
,,,,,,,,stim/Instruction_adaptive.png,conditions/adaptive.xlsx,test,-0.6,-0.6,-0.6,0.6,0.6,left,L,,,,,0,1,1,1,0,87,87,83,,,,,,,,,,,,,,,,,,,,,,,,,,,,,,,,,,,,,,,,,,,,484.7394888999406,None,left,1,1.8204407000448555,485.2395289000124,486.8918903998565,485.2395289000124,486.39079809980467,485.2395289000124,486.39079809980467,485.2395289000124,486.39079809980467,485.2395289000124,486.39079809980467,485.2395289000124,486.39079809980467,486.35763719980605,486.85893919994123,486.35763719980605,486.85893919994123,486.35763719980605,486.85893919994123,486.35763719980605,486.85893919994123,486.35763719980605,486.85893919994123,486.35763719980605,486.85893919994123,486.35763719980605,486.85893919994123,486.35763719980605,486.85893919994123,485.2395289000124,None,486.85893919994123,488.17679869988933,1.1400000000000008,488.19344830000773,None,488.9446906999219,None,,,,,,,[1.30943182],2.5500000000000016,0.75,11046,002,2024_Apr_15_1629,MFTM_A_new1021,2021.2.3,59.86281835229971,
,,,,,,,,stim/Instruction_adaptive.png,conditions/adaptive.xlsx,test,-0.6,-0.6,-0.6,0.6,0.6,left,L,,,,,0,1,1,1,0,88,88,65,,,,,,,,,,,,,,,,,,,,,,,,,,,,,,,,,,,,,,,,,,,,489.445628099842,None,left,1,1.5047337000723928,489.9466428000014,491.582789799897,489.9466428000014,491.0810572998598,489.9466428000014,491.0810572998598,489.9466428000014,491.0810572998598,489.9466428000014,491.0810572998598,489.9466428000014,491.0810572998598,491.0479609000031,491.5486945998855,491.0479609000031,491.5486945998855,491.0479609000031,491.5486945998855,491.0479609000031,491.5486945998855,491.0479609000031,491.5486945998855,491.0479609000031,491.5486945998855,491.0479609000031,491.5486945998855,491.0479609000031,491.5486945998855,489.9466428000014,None,491.5486945998855,492.86787299998105,1.1200000000000008,492.9008174999617,None,493.6529309998732,None,,,,,,,[1.31022472],2.580000000000002,0.7528089887640449,11046,002,2024_Apr_15_1629,MFTM_A_new1021,2021.2.3,59.86281835229971,
,,,,,,,,stim/Instruction_adaptive.png,conditions/adaptive.xlsx,test,0.6,0.6,0.6,-0.6,-0.6,right,R,,,,,0,1,1,1,0,89,89,34,,,,,,,,,,,,,,,,,,,,,,,,,,,,,,,,,,,,,,,,,,,,494.153699999908,None,right,1,1.4944839000236243,494.65363289997913,496.25644859997556,494.65363289997913,495.75540259992704,494.65363289997913,495.75540259992704,494.65363289997913,495.75540259992704,494.65363289997913,495.75540259992704,494.65363289997913,495.75540259992704,495.7383151999675,496.23964659986086,495.7383151999675,496.23964659986086,495.7383151999675,496.23964659986086,495.7383151999675,496.23964659986086,495.7383151999675,496.23964659986086,495.7383151999675,496.23964659986086,495.7383151999675,496.23964659986086,495.7383151999675,496.23964659986086,494.65363289997913,None,496.23964659986086,497.5579711999744,1.1000000000000008,497.5750267999247,None,498.326283399947,None,,,,,,,[1.31122222],2.600000000000002,0.7555555555555555,11046,002,2024_Apr_15_1629,MFTM_A_new1021,2021.2.3,59.86281835229971,
,,,,,,,,stim/Instruction_adaptive.png,conditions/adaptive.xlsx,test,0.6,0.6,0.6,-0.6,-0.6,right,R,,,,,0,1,1,1,0,90,90,36,,,,,,,,,,,,,,,,,,,,,,,,,,,,,,,,,,,,,,,,,,,,498.82624599989504,None,right,1,1.6213924000039697,499.3271689999383,500.92950009997,499.3271689999383,500.42871369980276,499.3271689999383,500.42871369980276,499.3271689999383,500.42871369980276,499.3271689999383,500.42871369980276,499.3271689999383,500.42871369980276,500.3959062998183,500.8965546998661,500.3959062998183,500.8965546998661,500.3959062998183,500.8965546998661,500.3959062998183,500.8965546998661,500.3959062998183,500.8965546998661,500.3959062998183,500.8965546998661,500.3959062998183,500.8965546998661,500.3959062998183,500.8965546998661,499.3271689999383,None,500.8965546998661,502.2148027999792,1.0900000000000007,502.2311167998705,None,502.982354799984,None,,,,,,,[1.31230769],2.620000000000002,0.7582417582417582,11046,002,2024_Apr_15_1629,MFTM_A_new1021,2021.2.3,59.86281835229971,
,,,,,,,,stim/Instruction_adaptive.png,conditions/adaptive.xlsx,test,-0.6,-0.6,-0.6,0.6,0.6,left,L,,,,,0,1,1,1,0,91,91,67,,,,,,,,,,,,,,,,,,,,,,,,,,,,,,,,,,,,,,,,,,,,503.48312289989553,None,left,1,1.8291235999204218,503.98368169995956,505.5530890999362,503.98368169995956,505.05230729980394,503.98368169995956,505.05230729980394,503.98368169995956,505.05230729980394,503.98368169995956,505.05230729980394,503.98368169995956,505.05230729980394,505.03622030001134,505.53688129992224,505.03622030001134,505.53688129992224,505.03622030001134,505.53688129992224,505.03622030001134,505.53688129992224,505.03622030001134,505.53688129992224,505.03622030001134,505.53688129992224,505.03622030001134,505.53688129992224,505.03622030001134,505.53688129992224,503.98368169995956,None,505.53688129992224,506.8549722000025,1.0700000000000007,506.8715321999043,None,507.62384819984436,None,,,,,,,[1.31358696],2.640000000000002,0.7608695652173914,11046,002,2024_Apr_15_1629,MFTM_A_new1021,2021.2.3,59.86281835229971,
,,,,,,,,stim/Instruction_adaptive.png,conditions/adaptive.xlsx,test,0.6,0.6,0.6,-0.6,-0.6,right,R,,,,,0,1,1,1,0,92,92,72,,,,,,,,,,,,,,,,,,,,,,,,,,,,,,,,,,,,,,,,,,,,508.12371729989536,None,right,1,1.315980900079012,508.6241295998916,510.19328959984705,508.6241295998916,509.69338219985366,508.6241295998916,509.69338219985366,508.6241295998916,509.69338219985366,508.6241295998916,509.69338219985366,508.6241295998916,509.69338219985366,509.67651169979945,510.17731900000945,509.67651169979945,510.17731900000945,509.67651169979945,510.17731900000945,509.67651169979945,510.17731900000945,509.67651169979945,510.17731900000945,509.67651169979945,510.17731900000945,509.67651169979945,510.17731900000945,509.67651169979945,510.17731900000945,508.6241295998916,None,510.17731900000945,511.4955743998289,1.0600000000000007,511.5124976998195,None,512.2632883000188,None,,,,,,,[1.31494624],2.660000000000002,0.7634408602150538,11046,002,2024_Apr_15_1629,MFTM_A_new1021,2021.2.3,59.86281835229971,
