arrwidth1,arrwidth2,arrwidth3,arrwidth4,arrwidth5,keyb,type,orientation,instruction_image,block_filename,block_type,arrow11,arrow22,arrow33,arrow44,arrow55,keyb_3,orientation3,trials.thisRepN,trials.thisTrialN,trials.thisN,trials.thisIndex,trials_3.thisRepN,trials_3.thisTrialN,trials_3.thisN,trials_3.thisIndex,trials_2.thisRepN,trials_2.thisTrialN,trials_2.thisN,trials_2.thisIndex,welcome.started,welcome.stopped,key_resp.keys,key_resp.rt,key_resp.started,key_resp.stopped,instruction_example.started,instruction_example.stopped,key_resp_3.keys,key_resp_3.rt,key_resp_3.started,key_resp_3.stopped,instruction_task.started,instruction_task.stopped,key_resp_2.keys,key_resp_2.rt,key_resp_2.started,key_resp_2.stopped,text_2.started,text_2.stopped,A1.started,A1.stopped,A2.started,A2.stopped,A3.started,A3.stopped,A4.started,A4.stopped,A5.started,A5.stopped,key_resp_4.keys,key_resp_4.corr,key_resp_4.rt,key_resp_4.started,key_resp_4.stopped,fb.started,fb.stopped,instruction_block.started,instruction_block.stopped,key_resp_8.keys,key_resp_8.rt,key_resp_8.started,key_resp_8.stopped,text_8.started,text_8.stopped,key_resp_9.keys,key_resp_9.corr,key_resp_9.rt,text_5.started,text_5.stopped,A11_3.started,A11_3.stopped,A22_2.started,A22_2.stopped,A33_2.started,A33_2.stopped,A44_2.started,A44_2.stopped,A55_2.started,A55_2.stopped,M1_3.started,M1_3.stopped,M2_2.started,M2_2.stopped,M3_2.started,M3_2.stopped,M4_2.started,M4_2.stopped,M5_2.started,M5_2.stopped,M6_2.started,M6_2.stopped,M7_2.started,M7_2.stopped,M8_2.started,M8_2.stopped,key_resp_9.started,key_resp_9.stopped,fixation.started,fixation.stopped,ET,fb_3.started,fb_3.stopped,text_9.started,text_9.stopped,fb_4.started,fb_4.stopped,text_7.started,text_7.stopped,endtext.started,endtext.stopped,fixation_ITI,CCC,Acc,participant,session,date,expName,psychopyVersion,frameRate,
,,,,,,,,,,,,,,,,,,,,,,,,,,,,,,9.015908400004264,None,right,4.13379750000604,9.015908400004264,None,,,,,,,,,,,,,,,,,,,,,,,,,,,,,,,,,,,,,,,,,,,,,,,,,,,,,,,,,,,,,,,,,,,,,,,,,,,,,,,,,,,,,,,,,11044,001,2024_Mar_24_0958,MFTM_A_new1021,2021.2.3,59.892182090332355,
,,,,,,,,,,,,,,,,,,,,,,,,,,,,,,,,,,,,13.171983699998236,None,right,4.809680799997295,13.171983699998236,None,,,,,,,,,,,,,,,,,,,,,,,,,,,,,,,,,,,,,,,,,,,,,,,,,,,,,,,,,,,,,,,,,,,,,,,,,,,,,,,,,,,11044,001,2024_Mar_24_0958,MFTM_A_new1021,2021.2.3,59.892182090332355,
,,,,,,,,,,,,,,,,,,,,,,,,,,,,,,,,,,,,,,,,,,18.012810899992473,None,right,3.4577462000015657,18.012810899992473,None,,,,,,,,,,,,,,,,,,,,,,,,,,,,,,,,,,,,,,,,,,,,,,,,,,,,,,,,,,,,,,,,,,,,,,,,,,,,,11044,001,2024_Mar_24_0958,MFTM_A_new1021,2021.2.3,59.892182090332355,
0.6,0.6,0.6,-0.6,-0.6,right,3:2,R,,,,,,,,,,,0,0,0,0,,,,,,,,,,,,,,,,,,,,,,,,,,,21.501404099995852,None,21.501404099995852,None,21.501404099995852,None,21.501404099995852,None,21.501404099995852,None,21.501404099995852,None,right,1,2.12864389999595,21.501404099995852,None,23.67242269999406,None,,,,,,,,,,,,,,,,,,,,,,,,,,,,,,,,,,,,,,,,,,,,,,,,,,,,,,,,,,11044,001,2024_Mar_24_0958,MFTM_A_new1021,2021.2.3,59.892182090332355,
-0.6,-0.6,-0.6,0.6,0.6,left,3:2,L,,,,,,,,,,,0,1,1,1,,,,,,,,,,,,,,,,,,,,,,,,,,,24.422436699998798,None,24.422436699998798,None,24.422436699998798,None,24.422436699998798,None,24.422436699998798,None,24.422436699998798,None,right,0,1.487366600005771,24.422436699998798,None,25.940870099992026,None,,,,,,,,,,,,,,,,,,,,,,,,,,,,,,,,,,,,,,,,,,,,,,,,,,,,,,,,,,11044,001,2024_Mar_24_0958,MFTM_A_new1021,2021.2.3,59.892182090332355,
0.6,0.6,0.6,-0.6,-0.6,right,3:2,R,,,,,,,,,,,1,0,2,0,,,,,,,,,,,,,,,,,,,,,,,,,,,26.69281520000368,None,26.69281520000368,None,26.69281520000368,None,26.69281520000368,None,26.69281520000368,None,26.69281520000368,None,right,1,2.057465299993055,26.69281520000368,None,28.778963099990506,None,,,,,,,,,,,,,,,,,,,,,,,,,,,,,,,,,,,,,,,,,,,,,,,,,,,,,,,,,,11044,001,2024_Mar_24_0958,MFTM_A_new1021,2021.2.3,59.892182090332355,
-0.6,-0.6,-0.6,0.6,0.6,left,3:2,L,,,,,,,,,,,1,1,3,1,,,,,,,,,,,,,,,,,,,,,,,,,,,29.530255899997428,None,29.530255899997428,None,29.530255899997428,None,29.530255899997428,None,29.530255899997428,None,29.530255899997428,None,left,1,1.0436366999929305,29.530255899997428,None,30.59855979999702,None,,,,,,,,,,,,,,,,,,,,,,,,,,,,,,,,,,,,,,,,,,,,,,,,,,,,,,,,,,11044,001,2024_Mar_24_0958,MFTM_A_new1021,2021.2.3,59.892182090332355,
,,,,,,,,stim/Instruction_mask.png,conditions/adaptive.xlsx,practice,0.6,0.6,0.6,-0.6,-0.6,right,R,,,,,0,0,0,0,0,0,0,94,,,,,,,,,,,,,,,,,,,,,,,,,,,,,,,,,,,,,,31.565798800002085,None,right,29.809477599992533,31.565798800002085,None,61.461129799994524,None,right,1,2.222347200004151,61.912510699999984,None,61.912510699999984,64.91690199999721,61.912510699999984,64.91690199999721,61.912510699999984,64.91690199999721,61.912510699999984,64.91690199999721,61.912510699999984,64.91690199999721,64.90045469999313,65.4013522000023,64.90045469999313,65.4013522000023,64.90045469999313,65.4013522000023,64.90045469999313,65.4013522000023,64.90045469999313,65.4013522000023,64.90045469999313,65.4013522000023,64.90045469999313,65.4013522000023,64.90045469999313,65.4013522000023,61.912510699999984,None,65.4013522000023,65.4013522000023,3,65.41783530000248,None,66.16903059999458,None,,,,,,,,,,11044,001,2024_Mar_24_0958,MFTM_A_new1021,2021.2.3,59.892182090332355,
,,,,,,,,stim/Instruction_mask.png,conditions/adaptive.xlsx,practice,0.6,0.6,0.6,-0.6,-0.6,right,R,,,,,0,0,0,0,0,1,1,70,,,,,,,,,,,,,,,,,,,,,,,,,,,,,,,,,,,,,,,,,,,,66.67030149999482,None,left,0,2.3726388000068255,67.17035780000151,69.17343840000103,67.17035780000151,68.6726362999907,67.17035780000151,68.6726362999907,67.17035780000151,68.6726362999907,67.17035780000151,68.6726362999907,67.17035780000151,68.6726362999907,68.65592039999319,69.15684630000032,68.65592039999319,69.15684630000032,68.65592039999319,69.15684630000032,68.65592039999319,69.15684630000032,68.65592039999319,69.15684630000032,68.65592039999319,69.15684630000032,68.65592039999319,69.15684630000032,68.65592039999319,69.15684630000032,67.17035780000151,None,69.15684630000032,70.65908749999653,1.5,70.67564230000426,None,71.42685239999264,None,,,,,,,,,,11044,001,2024_Mar_24_0958,MFTM_A_new1021,2021.2.3,59.892182090332355,
,,,,,,,,stim/Instruction_mask.png,conditions/adaptive.xlsx,practice,-0.6,-0.6,-0.6,0.6,0.6,left,L,,,,,0,0,0,0,0,2,2,85,,,,,,,,,,,,,,,,,,,,,,,,,,,,,,,,,,,,,,,,,,,,71.92752359999577,None,right,0,1.1869643999962136,72.42826430000423,73.73019619999104,72.42826430000423,73.22952939999232,72.42826430000423,73.22952939999232,72.42826430000423,73.22952939999232,72.42826430000423,73.22952939999232,72.42826430000423,73.22952939999232,73.21306490000279,73.71352479999769,73.21306490000279,73.71352479999769,73.21306490000279,73.71352479999769,73.21306490000279,73.71352479999769,73.21306490000279,73.71352479999769,73.21306490000279,73.71352479999769,73.21306490000279,73.71352479999769,73.21306490000279,73.71352479999769,72.42826430000423,None,73.71352479999769,75.91687249999086,0.8,75.93340660000104,None,76.68491509999149,None,,,,,,,,,,11044,001,2024_Mar_24_0958,MFTM_A_new1021,2021.2.3,59.892182090332355,
,,,,,,,,stim/Instruction_mask.png,conditions/adaptive.xlsx,practice,-0.6,-0.6,-0.6,0.6,0.6,left,L,,,,,0,0,0,0,0,3,3,73,,,,,,,,,,,,,,,,,,,,,,,,,,,,,,,,,,,,,,,,,,,,77.18541879999975,None,left,1,1.5452084999997169,77.68637619999936,78.43767549999757,77.68637619999936,77.93795969999337,77.68637619999936,77.93795969999337,77.68637619999936,77.93795969999337,77.68637619999936,77.93795969999337,77.68637619999936,77.93795969999337,77.92007849999936,78.42086749999726,77.92007849999936,78.42086749999726,77.92007849999936,78.42086749999726,77.92007849999936,78.42086749999726,77.92007849999936,78.42086749999726,77.92007849999936,78.42086749999726,77.92007849999936,78.42086749999726,77.92007849999936,78.42086749999726,77.68637619999936,None,78.42086749999726,81.17511450000165,3,81.19205969999894,None,81.94279709999682,None,,,,,,,,,,11044,001,2024_Mar_24_0958,MFTM_A_new1021,2021.2.3,59.892182090332355,
,,,,,,,,stim/Instruction_mask.png,conditions/adaptive.xlsx,practice,,,,,,,,,,,,0,0,0,0,,,,,,,,,,,,,,,,,,,,,,,,,,,,,,,,,,,,,,,,,,,,,,,,,,,,,,,,,,,,,,,,,,,,,,,,,,,,,,,,,,,,,,,,,,82.47773519999464,83.48015059999307,83.46157649999077,83.46157649999077,83.46157649999077,None,,,,11044,001,2024_Mar_24_0958,MFTM_A_new1021,2021.2.3,59.892182090332355,
,,,,,,,,stim/Instruction_adaptive.png,conditions/adaptive.xlsx,test,-0.6,-0.6,-0.6,0.6,0.6,left,L,,,,,0,1,1,1,0,0,0,11,,,,,,,,,,,,,,,,,,,,,,,,,,,,,,,,,,,,,,86.61738739999419,None,right,22.399029899999732,86.61738739999419,None,109.04981519999274,None,left,1,1.8410278999945149,109.5513432000007,None,109.5513432000007,112.55567950000113,109.5513432000007,112.55567950000113,109.5513432000007,112.55567950000113,109.5513432000007,112.55567950000113,109.5513432000007,112.55567950000113,112.53902620000008,113.04006139999547,112.53902620000008,113.04006139999547,112.53902620000008,113.04006139999547,112.53902620000008,113.04006139999547,112.53902620000008,113.04006139999547,112.53902620000008,113.04006139999547,112.53902620000008,113.04006139999547,112.53902620000008,113.04006139999547,109.5513432000007,None,113.02361049999308,113.02361049999308,3,113.05631020000146,None,113.80757989999256,None,,,,,,,0,6.000000000000005,1.0,11044,001,2024_Mar_24_0958,MFTM_A_new1021,2021.2.3,59.892182090332355,
,,,,,,,,stim/Instruction_adaptive.png,conditions/adaptive.xlsx,test,0.6,0.6,0.6,-0.6,-0.6,right,R,,,,,0,1,1,1,0,1,1,90,,,,,,,,,,,,,,,,,,,,,,,,,,,,,,,,,,,,,,,,,,,,114.30816410000261,None,right,1,1.6476489000051515,114.80887009999424,115.5600931999943,114.80887009999424,115.05940509999346,114.80887009999424,115.05940509999346,114.80887009999424,115.05940509999346,114.80887009999424,115.05940509999346,114.80887009999424,115.05940509999346,115.04287239999394,115.5433852999995,115.04287239999394,115.5433852999995,115.04287239999394,115.5433852999995,115.04287239999394,115.5433852999995,115.04287239999394,115.5433852999995,115.04287239999394,115.5433852999995,115.04287239999394,115.5433852999995,115.04287239999394,115.5433852999995,114.80887009999424,None,115.5433852999995,116.47836059999827,0.25,116.49465079999936,None,117.24600679999276,None,,,,,,,[0.875],6.000000000000005,1.0,11044,001,2024_Mar_24_0958,MFTM_A_new1021,2021.2.3,59.892182090332355,
,,,,,,,,stim/Instruction_adaptive.png,conditions/adaptive.xlsx,test,0.6,0.6,0.6,-0.6,-0.6,right,R,,,,,0,1,1,1,0,2,2,96,,,,,,,,,,,,,,,,,,,,,,,,,,,,,,,,,,,,,,,,,,,,117.74692520000099,None,right,1,1.2411281999957282,118.24766619999718,118.99874509999063,118.24766619999718,118.49805219999689,118.24766619999718,118.49805219999689,118.24766619999718,118.49805219999689,118.24766619999718,118.49805219999689,118.24766619999718,118.49805219999689,118.48113469999225,118.98212960000092,118.48113469999225,118.98212960000092,118.48113469999225,118.98212960000092,118.48113469999225,118.98212960000092,118.48113469999225,118.98212960000092,118.48113469999225,118.98212960000092,118.48113469999225,118.98212960000092,118.48113469999225,118.98212960000092,118.24766619999718,None,118.98212960000092,120.31713049999962,0.25,120.33392609999282,None,121.08555999999226,None,,,,,,,[1.33333333],6.000000000000005,1.0,11044,001,2024_Mar_24_0958,MFTM_A_new1021,2021.2.3,59.892182090332355,
,,,,,,,,stim/Instruction_adaptive.png,conditions/adaptive.xlsx,test,0.6,0.6,0.6,-0.6,-0.6,right,R,,,,,0,1,1,1,0,3,3,64,,,,,,,,,,,,,,,,,,,,,,,,,,,,,,,,,,,,,,,,,,,,121.58585770000354,None,left,0,1.1300951999874087,122.08677399999578,122.83788999999524,122.08677399999578,122.33708739999565,122.08677399999578,122.33708739999565,122.08677399999578,122.33708739999565,122.08677399999578,122.33708739999565,122.08677399999578,122.33708739999565,122.3205037000007,122.8210992999957,122.3205037000007,122.8210992999957,122.3205037000007,122.8210992999957,122.3205037000007,122.8210992999957,122.3205037000007,122.8210992999957,122.3205037000007,122.8210992999957,122.3205037000007,122.8210992999957,122.3205037000007,122.8210992999957,122.08677399999578,None,122.8210992999957,124.39020619999792,0.25,124.40665170000284,None,125.15800070000114,None,,,,,,,[1.5625],4.030000000000003,0.75,11044,001,2024_Mar_24_0958,MFTM_A_new1021,2021.2.3,59.892182090332355,
,,,,,,,,stim/Instruction_adaptive.png,conditions/adaptive.xlsx,test,0.6,0.6,0.6,-0.6,-0.6,right,R,,,,,0,1,1,1,0,4,4,4,,,,,,,,,,,,,,,,,,,,,,,,,,,,,,,,,,,,,,,,,,,,125.65876730000309,None,right,1,0.9936728000029689,126.15923360000306,127.06099479999102,126.15923360000306,126.56014139999752,126.15923360000306,126.56014139999752,126.15923360000306,126.56014139999752,126.15923360000306,126.56014139999752,126.15923360000306,126.56014139999752,126.54491319999215,127.04425099999935,126.54491319999215,127.04425099999935,126.54491319999215,127.04425099999935,126.54491319999215,127.04425099999935,126.54491319999215,127.04425099999935,126.54491319999215,127.04425099999935,126.54491319999215,127.04425099999935,126.54491319999215,127.04425099999935,126.15923360000306,None,127.04425099999935,128.7134373000008,0.40000000000000013,128.73003489999974,None,129.48093259999587,None,,,,,,,[1.67],4.700000000000004,0.8,11044,001,2024_Mar_24_0958,MFTM_A_new1021,2021.2.3,59.892182090332355,
,,,,,,,,stim/Instruction_adaptive.png,conditions/adaptive.xlsx,test,0.6,0.6,0.6,-0.6,-0.6,right,R,,,,,0,1,1,1,0,5,5,46,,,,,,,,,,,,,,,,,,,,,,,,,,,,,,,,,,,,,,,,,,,,129.98200760000327,None,right,1,1.5029628999909619,130.4826042999921,131.23380339999858,130.4826042999921,130.7331780999957,130.4826042999921,130.7331780999957,130.4826042999921,130.7331780999957,130.4826042999921,130.7331780999957,130.4826042999921,130.7331780999957,130.71635669999523,131.21706059999997,130.71635669999523,131.21706059999997,130.71635669999523,131.21706059999997,130.71635669999523,131.21706059999997,130.71635669999523,131.21706059999997,130.71635669999523,131.21706059999997,130.71635669999523,131.21706059999997,130.71635669999523,131.21706059999997,130.4826042999921,None,131.21706059999997,132.9864857999928,0.25,133.00321460000123,None,133.75441149999097,None,,,,,,,[1.76666667],5.070000000000004,0.8333333333333334,11044,001,2024_Mar_24_0958,MFTM_A_new1021,2021.2.3,59.892182090332355,
,,,,,,,,stim/Instruction_adaptive.png,conditions/adaptive.xlsx,test,0.6,0.6,0.6,-0.6,-0.6,right,R,,,,,0,1,1,1,0,6,6,62,,,,,,,,,,,,,,,,,,,,,,,,,,,,,,,,,,,,,,,,,,,,134.25490279999212,None,right,1,1.0693763000017498,134.75581210000382,135.50703169999178,134.75581210000382,135.006238499991,134.75581210000382,135.006238499991,134.75581210000382,135.006238499991,134.75581210000382,135.006238499991,134.75581210000382,135.006238499991,134.98945389999426,135.490389899991,134.98945389999426,135.490389899991,134.98945389999426,135.490389899991,134.98945389999426,135.490389899991,134.98945389999426,135.490389899991,134.98945389999426,135.490389899991,134.98945389999426,135.490389899991,134.98945389999426,135.490389899991,134.75581210000382,None,135.490389899991,137.32637609999801,0.25,137.34318899999198,None,138.09406069999386,None,,,,,,,[1.83571429],5.3300000000000045,0.8571428571428571,11044,001,2024_Mar_24_0958,MFTM_A_new1021,2021.2.3,59.892182090332355,
,,,,,,,,stim/Instruction_adaptive.png,conditions/adaptive.xlsx,test,0.6,0.6,0.6,-0.6,-0.6,right,R,,,,,0,1,1,1,0,7,7,70,,,,,,,,,,,,,,,,,,,,,,,,,,,,,,,,,,,,,,,,,,,,138.59567779999634,None,right,1,0.8739778000017395,139.09567019999668,139.8468922000029,139.09567019999668,139.34611840000434,139.09567019999668,139.34611840000434,139.09567019999668,139.34611840000434,139.09567019999668,139.34611840000434,139.09567019999668,139.34611840000434,139.3294404999906,139.83005219999177,139.3294404999906,139.83005219999177,139.3294404999906,139.83005219999177,139.3294404999906,139.83005219999177,139.3294404999906,139.83005219999177,139.3294404999906,139.83005219999177,139.3294404999906,139.83005219999177,139.3294404999906,139.83005219999177,139.09567019999668,None,139.83005219999177,None,0.25,141.73305169999367,None,142.48405859999184,None,,,,,,,[1.8875],5.520000000000005,0.875,11044,001,2024_Mar_24_0958,MFTM_A_new1021,2021.2.3,59.892182090332355,
,,,,,,,,stim/Instruction_adaptive.png,conditions/adaptive.xlsx,test,0.6,0.6,0.6,-0.6,-0.6,right,R,,,,,0,1,1,1,0,8,8,36,,,,,,,,,,,,,,,,,,,,,,,,,,,,,,,,,,,,,,,,,,,,142.98491939999803,None,left,0,1.7708755000057863,143.48657189999358,144.23689410000225,143.48657189999358,143.7361014999915,143.48657189999358,143.7361014999915,143.48657189999358,143.7361014999915,143.48657189999358,143.7361014999915,143.48657189999358,143.7361014999915,143.71962319999875,144.22149640000134,143.71962319999875,144.22149640000134,143.71962319999875,144.22149640000134,143.71962319999875,144.22149640000134,143.71962319999875,144.22149640000134,143.71962319999875,144.22149640000134,143.71962319999875,144.22149640000134,143.71962319999875,144.22149640000134,143.48657189999358,None,144.22149640000134,146.15734979999252,0.25,146.17289940000046,None,146.92430269999022,None,,,,,,,[1.92777778],4.7100000000000035,0.7777777777777778,11044,001,2024_Mar_24_0958,MFTM_A_new1021,2021.2.3,59.892182090332355,
,,,,,,,,stim/Instruction_adaptive.png,conditions/adaptive.xlsx,test,-0.6,-0.6,-0.6,0.6,0.6,left,L,,,,,0,1,1,1,0,9,9,33,,,,,,,,,,,,,,,,,,,,,,,,,,,,,,,,,,,,,,,,,,,,147.42510150000453,None,left,1,1.4360507000092184,147.92567329999292,148.67679209999915,147.92567329999292,148.1759216999926,147.92567329999292,148.1759216999926,147.92567329999292,148.1759216999926,147.92567329999292,148.1759216999926,147.92567329999292,148.1759216999926,148.1594552000024,148.6600913000002,148.1594552000024,148.6600913000002,148.1594552000024,148.6600913000002,148.1594552000024,148.6600913000002,148.1594552000024,148.6600913000002,148.1594552000024,148.6600913000002,148.1594552000024,148.6600913000002,148.1594552000024,148.6600913000002,147.92567329999292,None,148.6600913000002,150.62964759999886,0.25,150.64632309999433,None,151.39767279999796,None,,,,,,,[1.96],4.9200000000000035,0.8,11044,001,2024_Mar_24_0958,MFTM_A_new1021,2021.2.3,59.892182090332355,
,,,,,,,,stim/Instruction_adaptive.png,conditions/adaptive.xlsx,test,0.6,0.6,0.6,-0.6,-0.6,right,R,,,,,0,1,1,1,0,10,10,54,,,,,,,,,,,,,,,,,,,,,,,,,,,,,,,,,,,,,,,,,,,,151.89849639999738,None,right,1,1.3788675999967381,152.3991684999928,153.15015040000435,152.3991684999928,152.6493502999947,152.3991684999928,152.6493502999947,152.3991684999928,152.6493502999947,152.3991684999928,152.6493502999947,152.3991684999928,152.6493502999947,152.63265539999702,153.13421960000414,152.63265539999702,153.13421960000414,152.63265539999702,153.13421960000414,152.63265539999702,153.13421960000414,152.63265539999702,153.13421960000414,152.63265539999702,153.13421960000414,152.63265539999702,153.13421960000414,152.63265539999702,153.13421960000414,152.3991684999928,None,153.13421960000414,155.11999169999035,0.25,155.13671199999226,None,155.88757819999591,None,,,,,,,[1.98636364],5.100000000000004,0.8181818181818182,11044,001,2024_Mar_24_0958,MFTM_A_new1021,2021.2.3,59.892182090332355,
,,,,,,,,stim/Instruction_adaptive.png,conditions/adaptive.xlsx,test,-0.6,-0.6,-0.6,0.6,0.6,left,L,,,,,0,1,1,1,0,11,11,13,,,,,,,,,,,,,,,,,,,,,,,,,,,,,,,,,,,,,,,,,,,,156.3884584000043,None,left,1,1.152554300002521,156.88939159999427,157.64036969999142,156.88939159999427,157.13967639999464,156.88939159999427,157.13967639999464,156.88939159999427,157.13967639999464,156.88939159999427,157.13967639999464,156.88939159999427,157.13967639999464,157.12326619999658,157.6236438999913,157.12326619999658,157.6236438999913,157.12326619999658,157.6236438999913,157.12326619999658,157.6236438999913,157.12326619999658,157.6236438999913,157.12326619999658,157.6236438999913,157.12326619999658,157.6236438999913,157.12326619999658,157.6236438999913,156.88939159999427,None,157.6236438999913,159.64347690000432,0.25,159.65996389999054,None,160.41142760000366,None,,,,,,,[2.00833333],5.240000000000004,0.8333333333333334,11044,001,2024_Mar_24_0958,MFTM_A_new1021,2021.2.3,59.892182090332355,
,,,,,,,,stim/Instruction_adaptive.png,conditions/adaptive.xlsx,test,0.6,0.6,0.6,-0.6,-0.6,right,R,,,,,0,1,1,1,0,12,12,98,,,,,,,,,,,,,,,,,,,,,,,,,,,,,,,,,,,,,,,,,,,,160.91195909999078,None,left,0,1.1815658999985317,161.41259999999602,162.16478479999932,161.41259999999602,161.66331429999263,161.41259999999602,161.66331429999263,161.41259999999602,161.66331429999263,161.41259999999602,161.66331429999263,161.41259999999602,161.66331429999263,161.64647399999376,162.14805669999623,161.64647399999376,162.14805669999623,161.64647399999376,162.14805669999623,161.64647399999376,162.14805669999623,161.64647399999376,162.14805669999623,161.64647399999376,162.14805669999623,161.64647399999376,162.14805669999623,161.64647399999376,162.14805669999623,161.41259999999602,None,162.14805669999623,164.1834797999909,0.25,164.20024799999373,None,164.9513777999964,None,,,,,,,[2.02692308],4.7100000000000035,0.7692307692307693,11044,001,2024_Mar_24_0958,MFTM_A_new1021,2021.2.3,59.892182090332355,
,,,,,,,,stim/Instruction_adaptive.png,conditions/adaptive.xlsx,test,0.6,0.6,0.6,-0.6,-0.6,right,R,,,,,0,1,1,1,0,13,13,74,,,,,,,,,,,,,,,,,,,,,,,,,,,,,,,,,,,,,,,,,,,,165.4520446999959,None,left,0,1.5209729000052903,165.95304629999737,166.70387889999256,165.95304629999737,166.20318739999493,165.95304629999737,166.20318739999493,165.95304629999737,166.20318739999493,165.95304629999737,166.20318739999493,165.95304629999737,166.20318739999493,166.1864435000025,166.68748870000127,166.1864435000025,166.68748870000127,166.1864435000025,166.68748870000127,166.1864435000025,166.68748870000127,166.1864435000025,166.68748870000127,166.1864435000025,166.68748870000127,166.1864435000025,166.68748870000127,166.1864435000025,166.68748870000127,165.95304629999737,None,166.68748870000127,168.7413899999956,0.25,168.7570071999944,None,169.50832819999778,None,,,,,,,[2.04285714],4.230000000000003,0.7142857142857143,11044,001,2024_Mar_24_0958,MFTM_A_new1021,2021.2.3,59.892182090332355,
,,,,,,,,stim/Instruction_adaptive.png,conditions/adaptive.xlsx,test,0.6,0.6,0.6,-0.6,-0.6,right,R,,,,,0,1,1,1,0,14,14,40,,,,,,,,,,,,,,,,,,,,,,,,,,,,,,,,,,,,,,,,,,,,170.0104022000014,None,right,1,1.4283763999992516,170.509739599991,171.36108950000198,170.509739599991,170.86038250000274,170.509739599991,170.86038250000274,170.509739599991,170.86038250000274,170.509739599991,170.86038250000274,170.509739599991,170.86038250000274,170.84349780000048,171.34412389999488,170.84349780000048,171.34412389999488,170.84349780000048,171.34412389999488,170.84349780000048,171.34412389999488,170.84349780000048,171.34412389999488,170.84349780000048,171.34412389999488,170.84349780000048,171.34412389999488,170.84349780000048,171.34412389999488,170.509739599991,None,171.34412389999488,173.39757810000447,0.3500000000000001,173.41457500000251,None,174.16528879999532,None,,,,,,,[2.05],4.4200000000000035,0.7333333333333333,11044,001,2024_Mar_24_0958,MFTM_A_new1021,2021.2.3,59.892182090332355,
,,,,,,,,stim/Instruction_adaptive.png,conditions/adaptive.xlsx,test,0.6,0.6,0.6,-0.6,-0.6,right,R,,,,,0,1,1,1,0,15,15,88,,,,,,,,,,,,,,,,,,,,,,,,,,,,,,,,,,,,,,,,,,,,174.66682379999838,None,right,1,1.5878894000052242,175.16653960000258,175.98477529999218,175.16653960000258,175.4840996999992,175.16653960000258,175.4840996999992,175.16653960000258,175.4840996999992,175.16653960000258,175.4840996999992,175.16653960000258,175.4840996999992,175.46736339999188,175.96805309999036,175.46736339999188,175.96805309999036,175.46736339999188,175.96805309999036,175.46736339999188,175.96805309999036,175.46736339999188,175.96805309999036,175.46736339999188,175.96805309999036,175.46736339999188,175.96805309999036,175.46736339999188,175.96805309999036,175.16653960000258,None,175.96805309999036,None,0.31000000000000005,178.03792129999783,None,178.78909399999247,None,,,,,,,[2.05875],4.580000000000004,0.75,11044,001,2024_Mar_24_0958,MFTM_A_new1021,2021.2.3,59.892182090332355,
,,,,,,,,stim/Instruction_adaptive.png,conditions/adaptive.xlsx,test,-0.6,-0.6,-0.6,0.6,0.6,left,L,,,,,0,1,1,1,0,16,16,43,,,,,,,,,,,,,,,,,,,,,,,,,,,,,,,,,,,,,,,,,,,,179.28974729999027,None,left,1,1.9084386999893468,179.79037839999364,180.5750105999905,179.79037839999364,180.07426189999387,179.79037839999364,180.07426189999387,179.79037839999364,180.07426189999387,179.79037839999364,180.07426189999387,179.79037839999364,180.07426189999387,180.0576655999903,180.55815349999466,180.0576655999903,180.55815349999466,180.0576655999903,180.55815349999466,180.0576655999903,180.55815349999466,180.0576655999903,180.55815349999466,180.0576655999903,180.55815349999466,180.0576655999903,180.55815349999466,180.0576655999903,180.55815349999466,179.79037839999364,None,180.55815349999466,182.62823119999666,0.28,182.6449353999924,None,183.39741160000267,None,,,,,,,[2.06823529],4.7100000000000035,0.7647058823529411,11044,001,2024_Mar_24_0958,MFTM_A_new1021,2021.2.3,59.892182090332355,
,,,,,,,,stim/Instruction_adaptive.png,conditions/adaptive.xlsx,test,-0.6,-0.6,-0.6,0.6,0.6,left,L,,,,,0,1,1,1,0,17,17,73,,,,,,,,,,,,,,,,,,,,,,,,,,,,,,,,,,,,,,,,,,,,183.89682480000192,None,left,1,1.7014892000006512,184.3973258999904,185.1485335000034,184.3973258999904,184.64849049999611,184.3973258999904,184.64849049999611,184.3973258999904,184.64849049999611,184.3973258999904,184.64849049999611,184.3973258999904,184.64849049999611,184.63110549999692,185.13183169999684,184.63110549999692,185.13183169999684,184.63110549999692,185.13183169999684,184.63110549999692,185.13183169999684,184.63110549999692,185.13183169999684,184.63110549999692,185.13183169999684,184.63110549999692,185.13183169999684,184.63110549999692,185.13183169999684,184.3973258999904,None,185.13183169999684,187.21958550000272,0.25,187.23486139999295,None,187.98634719999973,None,,,,,,,[2.07833333],4.820000000000004,0.7777777777777778,11044,001,2024_Mar_24_0958,MFTM_A_new1021,2021.2.3,59.892182090332355,
,,,,,,,,stim/Instruction_adaptive.png,conditions/adaptive.xlsx,test,-0.6,-0.6,-0.6,0.6,0.6,left,L,,,,,0,1,1,1,0,18,18,91,,,,,,,,,,,,,,,,,,,,,,,,,,,,,,,,,,,,,,,,,,,,188.48716109999805,None,left,1,1.0944871999963652,188.9884036000003,189.7388873000018,188.9884036000003,189.2382132999919,188.9884036000003,189.2382132999919,188.9884036000003,189.2382132999919,188.9884036000003,189.2382132999919,188.9884036000003,189.2382132999919,189.22146010000142,189.72215349999897,189.22146010000142,189.72215349999897,189.22146010000142,189.72215349999897,189.22146010000142,189.72215349999897,189.22146010000142,189.72215349999897,189.22146010000142,189.72215349999897,189.22146010000142,189.72215349999897,189.22146010000142,189.72215349999897,188.9884036000003,None,189.72215349999897,191.8086301000003,0.25,191.8252158999967,None,192.57636160000402,None,,,,,,,[2.08736842],4.9200000000000035,0.7894736842105263,11044,001,2024_Mar_24_0958,MFTM_A_new1021,2021.2.3,59.892182090332355,
,,,,,,,,stim/Instruction_adaptive.png,conditions/adaptive.xlsx,test,-0.6,-0.6,-0.6,0.6,0.6,left,L,,,,,0,1,1,1,0,19,19,45,,,,,,,,,,,,,,,,,,,,,,,,,,,,,,,,,,,,,,,,,,,,193.0773679999984,None,right,0,2.2728677000122843,193.57782730000326,194.32910000000265,193.57782730000326,193.82835959999647,193.57782730000326,193.82835959999647,193.57782730000326,193.82835959999647,193.57782730000326,193.82835959999647,193.57782730000326,193.82835959999647,193.81178560000262,194.31230869999854,193.81178560000262,194.31230869999854,193.81178560000262,194.31230869999854,193.81178560000262,194.31230869999854,193.81178560000262,194.31230869999854,193.81178560000262,194.31230869999854,193.81178560000262,194.31230869999854,193.81178560000262,194.31230869999854,193.57782730000326,None,194.31230869999854,196.41529989999253,0.25,196.43204810000316,None,197.1831763999944,None,,,,,,,[2.0955],4.610000000000004,0.75,11044,001,2024_Mar_24_0958,MFTM_A_new1021,2021.2.3,59.892182090332355,
,,,,,,,,stim/Instruction_adaptive.png,conditions/adaptive.xlsx,test,-0.6,-0.6,-0.6,0.6,0.6,left,L,,,,,0,1,1,1,0,20,20,99,,,,,,,,,,,,,,,,,,,,,,,,,,,,,,,,,,,,,,,,,,,,197.68409460000112,None,left,1,1.042221999989124,198.18484249999165,198.97021679999307,198.18484249999165,198.46867249999195,198.18484249999165,198.46867249999195,198.18484249999165,198.46867249999195,198.18484249999165,198.46867249999195,198.18484249999165,198.46867249999195,198.4350051999936,198.93605370000296,198.4350051999936,198.93605370000296,198.4350051999936,198.93605370000296,198.4350051999936,198.93605370000296,198.4350051999936,198.93605370000296,198.4350051999936,198.93605370000296,198.4350051999936,198.93605370000296,198.4350051999936,198.93605370000296,198.18484249999165,None,198.93605370000296,201.039054199995,0.27,201.0727440999908,None,201.82368869999482,None,,,,,,,[2.10190476],4.7100000000000035,0.7619047619047619,11044,001,2024_Mar_24_0958,MFTM_A_new1021,2021.2.3,59.892182090332355,
,,,,,,,,stim/Instruction_adaptive.png,conditions/adaptive.xlsx,test,-0.6,-0.6,-0.6,0.6,0.6,left,L,,,,,0,1,1,1,0,21,21,27,,,,,,,,,,,,,,,,,,,,,,,,,,,,,,,,,,,,,,,,,,,,202.32436949999828,None,left,1,2.26622839999618,202.82543159999477,203.57623829999648,202.82543159999477,203.0755533999909,202.82543159999477,203.0755533999909,202.82543159999477,203.0755533999909,202.82543159999477,203.0755533999909,202.82543159999477,203.0755533999909,203.05877459999465,203.55979289999232,203.05877459999465,203.55979289999232,203.05877459999465,203.55979289999232,203.05877459999465,203.55979289999232,203.05877459999465,203.55979289999232,203.05877459999465,203.55979289999232,203.05877459999465,203.55979289999232,203.05877459999465,203.55979289999232,202.82543159999477,None,203.55979289999232,205.67957269999897,0.25,205.6962530000019,None,206.44742670000414,None,,,,,,,[2.10863636],4.800000000000004,0.7727272727272727,11044,001,2024_Mar_24_0958,MFTM_A_new1021,2021.2.3,59.892182090332355,
,,,,,,,,stim/Instruction_adaptive.png,conditions/adaptive.xlsx,test,-0.6,-0.6,-0.6,0.6,0.6,left,L,,,,,0,1,1,1,0,22,22,75,,,,,,,,,,,,,,,,,,,,,,,,,,,,,,,,,,,,,,,,,,,,206.94835920000332,None,right,0,1.2585097999981372,207.4487866999989,208.20030009999755,207.4487866999989,207.6992237999948,207.4487866999989,207.6992237999948,207.4487866999989,207.6992237999948,207.4487866999989,207.6992237999948,207.4487866999989,207.6992237999948,207.6828158999997,208.1832674000034,207.6828158999997,208.1832674000034,207.6828158999997,208.1832674000034,207.6828158999997,208.1832674000034,207.6828158999997,208.1832674000034,207.6828158999997,208.1832674000034,207.6828158999997,208.1832674000034,207.6828158999997,208.1832674000034,207.4487866999989,None,208.1832674000034,210.30325409999932,0.25,210.31990220000444,None,211.071125699993,None,,,,,,,[2.11478261],4.530000000000004,0.7391304347826086,11044,001,2024_Mar_24_0958,MFTM_A_new1021,2021.2.3,59.892182090332355,
,,,,,,,,stim/Instruction_adaptive.png,conditions/adaptive.xlsx,test,0.6,0.6,0.6,-0.6,-0.6,right,R,,,,,0,1,1,1,0,23,23,20,,,,,,,,,,,,,,,,,,,,,,,,,,,,,,,,,,,,,,,,,,,,211.57167540000228,None,left,0,1.7469312000030186,212.07260450000467,212.85710850000032,212.07260450000467,212.35731049999595,212.07260450000467,212.35731049999595,212.07260450000467,212.35731049999595,212.07260450000467,212.35731049999595,212.07260450000467,212.35731049999595,212.33966749999672,212.8402814000001,212.33966749999672,212.8402814000001,212.33966749999672,212.8402814000001,212.33966749999672,212.8402814000001,212.33966749999672,212.8402814000001,212.33966749999672,212.8402814000001,212.33966749999672,212.8402814000001,212.33966749999672,212.8402814000001,212.07260450000467,None,212.8402814000001,214.96015970000008,0.28,214.97673369999393,None,215.72793169999204,None,,,,,,,[2.11916667],4.240000000000004,0.7083333333333334,11044,001,2024_Mar_24_0958,MFTM_A_new1021,2021.2.3,59.892182090332355,
,,,,,,,,stim/Instruction_adaptive.png,conditions/adaptive.xlsx,test,0.6,0.6,0.6,-0.6,-0.6,right,R,,,,,0,1,1,1,0,24,24,52,,,,,,,,,,,,,,,,,,,,,,,,,,,,,,,,,,,,,,,,,,,,216.22856249999313,None,right,1,2.7540397999982815,216.72959469999478,217.58085479999136,216.72959469999478,217.08009010000387,216.72959469999478,217.08009010000387,216.72959469999478,217.08009010000387,216.72959469999478,217.08009010000387,216.72959469999478,217.08009010000387,217.06341269999393,217.56403959999443,217.06341269999393,217.56403959999443,217.06341269999393,217.56403959999443,217.06341269999393,217.56403959999443,217.06341269999393,217.56403959999443,217.06341269999393,217.56403959999443,217.06341269999393,217.56403959999443,217.06341269999393,217.56403959999443,216.72959469999478,None,217.56403959999443,219.68404670000018,0.3500000000000001,219.70064919999277,None,220.4520613999921,None,,,,,,,[2.1204],4.350000000000003,0.72,11044,001,2024_Mar_24_0958,MFTM_A_new1021,2021.2.3,59.892182090332355,
,,,,,,,,stim/Instruction_adaptive.png,conditions/adaptive.xlsx,test,0.6,0.6,0.6,-0.6,-0.6,right,R,,,,,0,1,1,1,0,25,25,32,,,,,,,,,,,,,,,,,,,,,,,,,,,,,,,,,,,,,,,,,,,,220.95269429999462,None,right,1,1.5263964000041597,221.45334769999317,222.2884608000022,221.45334769999317,221.78711619999376,221.45334769999317,221.78711619999376,221.45334769999317,221.78711619999376,221.45334769999317,221.78711619999376,221.45334769999317,221.78711619999376,221.75502739999502,222.2546779999975,221.75502739999502,222.2546779999975,221.75502739999502,222.2546779999975,221.75502739999502,222.2546779999975,221.75502739999502,222.2546779999975,221.75502739999502,222.2546779999975,221.75502739999502,222.2546779999975,221.75502739999502,222.2546779999975,221.45334769999317,None,222.2546779999975,224.39133489999222,0.32000000000000006,224.40773799999442,None,225.15889500000048,None,,,,,,,[2.12269231],4.450000000000004,0.7307692307692307,11044,001,2024_Mar_24_0958,MFTM_A_new1021,2021.2.3,59.892182090332355,
,,,,,,,,stim/Instruction_adaptive.png,conditions/adaptive.xlsx,test,0.6,0.6,0.6,-0.6,-0.6,right,R,,,,,0,1,1,1,0,26,26,84,,,,,,,,,,,,,,,,,,,,,,,,,,,,,,,,,,,,,,,,,,,,225.65958690000116,None,right,1,1.3219582000019727,226.1618129999988,226.9623036999983,226.1618129999988,226.46160619999864,226.1618129999988,226.46160619999864,226.1618129999988,226.46160619999864,226.1618129999988,226.46160619999864,226.1618129999988,226.46160619999864,226.4443009999959,226.94506149999506,226.4443009999959,226.94506149999506,226.4443009999959,226.94506149999506,226.4443009999959,226.94506149999506,226.4443009999959,226.94506149999506,226.4443009999959,226.94506149999506,226.4443009999959,226.94506149999506,226.4443009999959,226.94506149999506,226.1618129999988,None,226.94506149999506,229.08144490000268,0.30000000000000004,229.09940710000228,None,229.84925630000362,None,,,,,,,[2.12555556],4.540000000000004,0.7407407407407407,11044,001,2024_Mar_24_0958,MFTM_A_new1021,2021.2.3,59.892182090332355,
,,,,,,,,stim/Instruction_adaptive.png,conditions/adaptive.xlsx,test,0.6,0.6,0.6,-0.6,-0.6,right,R,,,,,0,1,1,1,0,27,27,58,,,,,,,,,,,,,,,,,,,,,,,,,,,,,,,,,,,,,,,,,,,,230.35162610000407,None,right,1,1.473694100001012,230.85107429999334,231.63578039999993,230.85107429999334,231.13480240000354,230.85107429999334,231.13480240000354,230.85107429999334,231.13480240000354,230.85107429999334,231.13480240000354,230.85107429999334,231.13480240000354,231.11792530000093,231.61876669999037,231.11792530000093,231.61876669999037,231.11792530000093,231.61876669999037,231.11792530000093,231.61876669999037,231.11792530000093,231.61876669999037,231.11792530000093,231.61876669999037,231.11792530000093,231.61876669999037,231.11792530000093,231.61876669999037,230.85107429999334,None,231.61876669999037,233.75534019999031,0.28,233.77189550000185,None,234.52306549999048,None,,,,,,,[2.12892857],4.620000000000004,0.75,11044,001,2024_Mar_24_0958,MFTM_A_new1021,2021.2.3,59.892182090332355,
,,,,,,,,stim/Instruction_adaptive.png,conditions/adaptive.xlsx,test,-0.6,-0.6,-0.6,0.6,0.6,left,L,,,,,0,1,1,1,0,28,28,77,,,,,,,,,,,,,,,,,,,,,,,,,,,,,,,,,,,,,,,,,,,,235.02389290000428,None,right,0,1.7037292000022717,235.52448639999784,236.30906299999333,235.52448639999784,235.80839740000374,235.52448639999784,235.80839740000374,235.52448639999784,235.80839740000374,235.52448639999784,235.80839740000374,235.52448639999784,235.80839740000374,235.77496009999595,236.27560700000322,235.77496009999595,236.27560700000322,235.77496009999595,236.27560700000322,235.77496009999595,236.27560700000322,235.77496009999595,236.27560700000322,235.77496009999595,236.27560700000322,235.77496009999595,236.27560700000322,235.77496009999595,236.27560700000322,235.52448639999784,None,236.27560700000322,238.41310639999574,0.27,238.42877879999287,None,239.17990879999707,None,,,,,,,[2.13241379],4.390000000000003,0.7241379310344828,11044,001,2024_Mar_24_0958,MFTM_A_new1021,2021.2.3,59.892182090332355,
,,,,,,,,stim/Instruction_adaptive.png,conditions/adaptive.xlsx,test,-0.6,-0.6,-0.6,0.6,0.6,left,L,,,,,0,1,1,1,0,29,29,65,,,,,,,,,,,,,,,,,,,,,,,,,,,,,,,,,,,,,,,,,,,,239.68089239999244,None,right,0,1.3346703999995952,240.18162699999812,240.99948709999444,240.18162699999812,240.49865429999772,240.18162699999812,240.49865429999772,240.18162699999812,240.49865429999772,240.18162699999812,240.49865429999772,240.18162699999812,240.49865429999772,240.4819698999927,240.9828267999983,240.4819698999927,240.9828267999983,240.4819698999927,240.9828267999983,240.4819698999927,240.9828267999983,240.4819698999927,240.9828267999983,240.4819698999927,240.9828267999983,240.4819698999927,240.9828267999983,240.4819698999927,240.9828267999983,240.18162699999812,None,240.9828267999983,243.11939910000365,0.31000000000000005,243.1361762000015,None,243.88735079999606,None,,,,,,,[2.13433333],4.140000000000003,0.7,11044,001,2024_Mar_24_0958,MFTM_A_new1021,2021.2.3,59.892182090332355,
,,,,,,,,stim/Instruction_adaptive.png,conditions/adaptive.xlsx,test,-0.6,-0.6,-0.6,0.6,0.6,left,L,,,,,0,1,1,1,0,30,30,5,,,,,,,,,,,,,,,,,,,,,,,,,,,,,,,,,,,,,,,,,,,,244.3879964999942,None,right,0,2.307638800004497,244.88866470000357,245.77328829999897,244.88866470000357,245.2724659999949,244.88866470000357,245.2724659999949,244.88866470000357,245.2724659999949,244.88866470000357,245.2724659999949,244.88866470000357,245.2724659999949,245.23913809999067,245.74011329999485,245.23913809999067,245.74011329999485,245.23913809999067,245.74011329999485,245.23913809999067,245.74011329999485,245.23913809999067,245.74011329999485,245.23913809999067,245.74011329999485,245.23913809999067,245.74011329999485,245.23913809999067,245.74011329999485,244.88866470000357,None,245.74011329999485,247.87662640000053,0.3700000000000001,247.89363419999427,None,248.64439570000104,None,,,,,,,[[2.13]],3.840000000000003,0.6774193548387096,11044,001,2024_Mar_24_0958,MFTM_A_new1021,2021.2.3,59.892182090332355,
,,,,,,,,stim/Instruction_adaptive.png,conditions/adaptive.xlsx,test,0.6,0.6,0.6,-0.6,-0.6,right,R,,,,,0,1,1,1,0,31,31,50,,,,,,,,,,,,,,,,,,,,,,,,,,,,,,,,,,,,,,,,,,,,249.14507199999935,None,right,1,1.8471839999983786,249.6457492999907,250.6140080000041,249.6457492999907,250.11329529999057,249.6457492999907,250.11329529999057,249.6457492999907,250.11329529999057,249.6457492999907,250.11329529999057,249.6457492999907,250.11329529999057,250.09660629999416,250.59732149999763,250.09660629999416,250.59732149999763,250.09660629999416,250.59732149999763,250.09660629999416,250.59732149999763,250.09660629999416,250.59732149999763,250.09660629999416,250.59732149999763,250.09660629999416,250.59732149999763,250.09660629999416,250.59732149999763,249.6457492999907,None,250.59732149999763,None,0.4600000000000002,252.6501394999941,None,253.40156019999995,None,,,,,,,[[2.04]],3.950000000000003,0.6875,11044,001,2024_Mar_24_0958,MFTM_A_new1021,2021.2.3,59.892182090332355,
,,,,,,,,stim/Instruction_adaptive.png,conditions/adaptive.xlsx,test,0.6,0.6,0.6,-0.6,-0.6,right,R,,,,,0,1,1,1,0,32,32,80,,,,,,,,,,,,,,,,,,,,,,,,,,,,,,,,,,,,,,,,,,,,253.9025021999987,None,right,1,1.6415608000097563,254.4029831999942,255.33779609999328,254.4029831999942,254.83697779999056,254.4029831999942,254.83697779999056,254.4029831999942,254.83697779999056,254.4029831999942,254.83697779999056,254.4029831999942,254.83697779999056,254.82050610000442,255.3213071999926,254.82050610000442,255.3213071999926,254.82050610000442,255.3213071999926,254.82050610000442,255.3213071999926,254.82050610000442,255.3213071999926,254.82050610000442,255.3213071999926,254.82050610000442,255.3213071999926,254.82050610000442,255.3213071999926,254.4029831999942,None,255.3213071999926,257.3909599000035,0.43000000000000016,257.4075615000038,None,258.1588260999997,None,,,,,,,[[2.07]],4.050000000000003,0.696969696969697,11044,001,2024_Mar_24_0958,MFTM_A_new1021,2021.2.3,59.892182090332355,
,,,,,,,,stim/Instruction_adaptive.png,conditions/adaptive.xlsx,test,0.6,0.6,0.6,-0.6,-0.6,right,R,,,,,0,1,1,1,0,33,33,42,,,,,,,,,,,,,,,,,,,,,,,,,,,,,,,,,,,,,,,,,,,,258.65952810000454,None,right,1,1.4443538000050467,259.16037339999457,260.0615395999921,259.16037339999457,259.5609564999904,259.16037339999457,259.5609564999904,259.16037339999457,259.5609564999904,259.16037339999457,259.5609564999904,259.16037339999457,259.5609564999904,259.54417189999367,260.045117799993,259.54417189999367,260.045117799993,259.54417189999367,260.045117799993,259.54417189999367,260.045117799993,259.54417189999367,260.045117799993,259.54417189999367,260.045117799993,259.54417189999367,260.045117799993,259.54417189999367,260.045117799993,259.16037339999457,None,260.045117799993,262.1483592000004,0.40000000000000013,262.1648901000008,None,262.9159893000033,None,,,,,,,[[2.1]],4.140000000000003,0.7058823529411765,11044,001,2024_Mar_24_0958,MFTM_A_new1021,2021.2.3,59.892182090332355,
,,,,,,,,stim/Instruction_adaptive.png,conditions/adaptive.xlsx,test,-0.6,-0.6,-0.6,0.6,0.6,left,L,,,,,0,1,1,1,0,34,34,31,,,,,,,,,,,,,,,,,,,,,,,,,,,,,,,,,,,,,,,,,,,,263.41682499999297,None,right,0,2.095814699991024,263.9173133000004,264.8042368000024,263.9173133000004,264.30123230000027,263.9173133000004,264.30123230000027,263.9173133000004,264.30123230000027,263.9173133000004,264.30123230000027,263.9173133000004,264.30123230000027,264.2680443999998,264.76889209999354,264.2680443999998,264.76889209999354,264.2680443999998,264.76889209999354,264.2680443999998,264.76889209999354,264.2680443999998,264.76889209999354,264.2680443999998,264.76889209999354,264.2680443999998,264.76889209999354,264.2680443999998,264.76889209999354,263.9173133000004,None,264.76889209999354,266.90518239999074,0.3700000000000001,266.922049899993,None,267.6732275999966,None,,,,,,,[2.12857143],3.8900000000000032,0.6857142857142857,11044,001,2024_Mar_24_0958,MFTM_A_new1021,2021.2.3,59.892182090332355,
,,,,,,,,stim/Instruction_adaptive.png,conditions/adaptive.xlsx,test,-0.6,-0.6,-0.6,0.6,0.6,left,L,,,,,0,1,1,1,0,35,35,1,,,,,,,,,,,,,,,,,,,,,,,,,,,,,,,,,,,,,,,,,,,,268.1738910999993,None,left,1,2.0812625999969896,268.67594570000074,269.62604449999344,268.67594570000074,269.12548249999236,268.67594570000074,269.12548249999236,268.67594570000074,269.12548249999236,268.67594570000074,269.12548249999236,268.67594570000074,269.12548249999236,269.09181399999943,269.5935743000009,269.09181399999943,269.5935743000009,269.09181399999943,269.5935743000009,269.09181399999943,269.5935743000009,269.09181399999943,269.5935743000009,269.09181399999943,269.5935743000009,269.09181399999943,269.5935743000009,269.09181399999943,269.5935743000009,268.67594570000074,None,269.5935743000009,271.66252969999914,0.44000000000000017,271.67907689999265,None,272.4303477999929,None,,,,,,,[[2.06]],3.990000000000003,0.6944444444444444,11044,001,2024_Mar_24_0958,MFTM_A_new1021,2021.2.3,59.892182090332355,
,,,,,,,,stim/Instruction_adaptive.png,conditions/adaptive.xlsx,test,0.6,0.6,0.6,-0.6,-0.6,right,R,,,,,0,1,1,1,0,36,36,78,,,,,,,,,,,,,,,,,,,,,,,,,,,,,,,,,,,,,,,,,,,,272.9313517999981,None,left,0,1.6611351000028662,273.432123999999,274.35024449999037,273.432123999999,273.8489263999945,273.432123999999,273.8489263999945,273.432123999999,273.8489263999945,273.432123999999,273.8489263999945,273.432123999999,273.8489263999945,273.83225500000117,274.33322169999883,273.83225500000117,274.33322169999883,273.83225500000117,274.33322169999883,273.83225500000117,274.33322169999883,273.83225500000117,274.33322169999883,273.83225500000117,274.33322169999883,273.83225500000117,274.33322169999883,273.83225500000117,274.33322169999883,273.432123999999,None,274.33322169999883,None,0.41000000000000014,276.4361617999966,None,277.18802829999186,None,,,,,,,[[2.09]],3.730000000000003,0.6756756756756757,11044,001,2024_Mar_24_0958,MFTM_A_new1021,2021.2.3,59.892182090332355,
,,,,,,,,stim/Instruction_adaptive.png,conditions/adaptive.xlsx,test,0.6,0.6,0.6,-0.6,-0.6,right,R,,,,,0,1,1,1,0,37,37,38,,,,,,,,,,,,,,,,,,,,,,,,,,,,,,,,,,,,,,,,,,,,277.6880400999944,None,right,1,1.6803251999954227,278.1890897999983,279.1905822999979,278.1890897999983,278.6897328999912,278.1890897999983,278.6897328999912,278.1890897999983,278.6897328999912,278.1890897999983,278.6897328999912,278.1890897999983,278.6897328999912,278.67298219999066,279.173775999996,278.67298219999066,279.173775999996,278.67298219999066,279.173775999996,278.67298219999066,279.173775999996,278.67298219999066,279.173775999996,278.67298219999066,279.173775999996,278.67298219999066,279.173775999996,278.67298219999066,279.173775999996,278.1890897999983,None,279.173775999996,281.1767914999946,0.5000000000000002,281.19344329999876,None,281.944814699993,None,,,,,,,[[2.]],3.8300000000000027,0.6842105263157895,11044,001,2024_Mar_24_0958,MFTM_A_new1021,2021.2.3,59.892182090332355,
,,,,,,,,stim/Instruction_adaptive.png,conditions/adaptive.xlsx,test,-0.6,-0.6,-0.6,0.6,0.6,left,L,,,,,0,1,1,1,0,38,38,37,,,,,,,,,,,,,,,,,,,,,,,,,,,,,,,,,,,,,,,,,,,,282.4453458999924,None,right,0,1.2272975999949267,282.94630110000435,283.91522260000056,282.94630110000435,283.41345599999477,282.94630110000435,283.41345599999477,282.94630110000435,283.41345599999477,282.94630110000435,283.41345599999477,282.94630110000435,283.41345599999477,283.3967230999988,283.899087999991,283.3967230999988,283.899087999991,283.3967230999988,283.899087999991,283.3967230999988,283.899087999991,283.3967230999988,283.899087999991,283.3967230999988,283.899087999991,283.3967230999988,283.899087999991,283.3967230999988,283.899087999991,282.94630110000435,None,283.88111010000284,285.9340535999945,0.4600000000000002,285.9505228999915,None,286.70202229999995,None,,,,,,,[[2.04]],3.5600000000000027,0.6666666666666666,11044,001,2024_Mar_24_0958,MFTM_A_new1021,2021.2.3,59.892182090332355,
,,,,,,,,stim/Instruction_adaptive.png,conditions/adaptive.xlsx,test,-0.6,-0.6,-0.6,0.6,0.6,left,L,,,,,0,1,1,1,0,39,39,29,,,,,,,,,,,,,,,,,,,,,,,,,,,,,,,,,,,,,,,,,,,,287.2029329999932,None,right,0,1.7185399000009056,287.7034200999915,288.77155530000164,287.7034200999915,288.27098859999387,287.7034200999915,288.27098859999387,287.7034200999915,288.27098859999387,287.7034200999915,288.27098859999387,287.7034200999915,288.27098859999387,288.2542444999999,288.7549341999984,288.2542444999999,288.7549341999984,288.2542444999999,288.7549341999984,288.2542444999999,288.7549341999984,288.2542444999999,288.7549341999984,288.2542444999999,288.7549341999984,288.2542444999999,288.7549341999984,288.2542444999999,288.7549341999984,287.7034200999915,None,288.7549341999984,None,0.5600000000000003,290.70765119999123,None,291.4590167999995,None,,,,,,,[[1.94]],3.230000000000002,0.65,11044,001,2024_Mar_24_0958,MFTM_A_new1021,2021.2.3,59.892182090332355,
,,,,,,,,stim/Instruction_adaptive.png,conditions/adaptive.xlsx,test,-0.6,-0.6,-0.6,0.6,0.6,left,L,,,,,0,1,1,1,0,40,40,23,,,,,,,,,,,,,,,,,,,,,,,,,,,,,,,,,,,,,,,,,,,,291.96001239999896,None,left,1,1.6973693000036292,292.4604660999903,293.66236659999413,292.4604660999903,293.1628847999964,292.4604660999903,293.1628847999964,292.4604660999903,293.1628847999964,292.4604660999903,293.1628847999964,292.4604660999903,293.1628847999964,293.14481529999466,293.64557399999467,293.14481529999466,293.64557399999467,293.14481529999466,293.64557399999467,293.14481529999466,293.64557399999467,293.14481529999466,293.64557399999467,293.14481529999466,293.64557399999467,293.14481529999466,293.64557399999467,293.14481529999466,293.64557399999467,292.4604660999903,None,293.64557399999467,295.4483526999975,0.7000000000000004,295.46545419999165,None,296.2158982999972,None,,,,,,,[[1.8]],3.3600000000000025,0.6585365853658537,11044,001,2024_Mar_24_0958,MFTM_A_new1021,2021.2.3,59.892182090332355,
,,,,,,,,stim/Instruction_adaptive.png,conditions/adaptive.xlsx,test,0.6,0.6,0.6,-0.6,-0.6,right,R,,,,,0,1,1,1,0,41,41,72,,,,,,,,,,,,,,,,,,,,,,,,,,,,,,,,,,,,,,,,,,,,296.71702379999624,None,left,0,2.2122445999993943,297.2178491999948,298.3699517999921,297.2178491999948,297.86866700000246,297.2178491999948,297.86866700000246,297.2178491999948,297.86866700000246,297.2178491999948,297.86866700000246,297.2178491999948,297.86866700000246,297.83532299999206,298.3361455999984,297.83532299999206,298.3361455999984,297.83532299999206,298.3361455999984,297.83532299999206,298.3361455999984,297.83532299999206,298.3361455999984,297.83532299999206,298.3361455999984,297.83532299999206,298.3361455999984,297.83532299999206,298.3361455999984,297.2178491999948,None,298.3361455999984,300.2056464999914,0.6400000000000003,300.22227369999746,None,300.97417990000395,None,,,,,,,[[1.86]],3.0100000000000025,0.6428571428571429,11044,001,2024_Mar_24_0958,MFTM_A_new1021,2021.2.3,59.892182090332355,
,,,,,,,,stim/Instruction_adaptive.png,conditions/adaptive.xlsx,test,0.6,0.6,0.6,-0.6,-0.6,right,R,,,,,0,1,1,1,0,42,42,76,,,,,,,,,,,,,,,,,,,,,,,,,,,,,,,,,,,,,,,,,,,,301.47427510000125,None,left,0,1.5028526999958558,301.97495920000074,303.31095939999796,301.97495920000074,302.8093091000046,301.97495920000074,302.8093091000046,301.97495920000074,302.8093091000046,301.97495920000074,302.8093091000046,301.97495920000074,302.8093091000046,302.776142799994,303.27681100000336,302.776142799994,303.27681100000336,302.776142799994,303.27681100000336,302.776142799994,303.27681100000336,302.776142799994,303.27681100000336,302.776142799994,303.27681100000336,302.776142799994,303.27681100000336,302.776142799994,303.27681100000336,301.97495920000074,None,303.27681100000336,304.96316970000044,0.8200000000000005,304.9807172000001,None,305.7306687999953,None,,,,,,,[[1.68]],2.560000000000002,0.627906976744186,11044,001,2024_Mar_24_0958,MFTM_A_new1021,2021.2.3,59.892182090332355,
,,,,,,,,stim/Instruction_adaptive.png,conditions/adaptive.xlsx,test,-0.6,-0.6,-0.6,0.6,0.6,left,L,,,,,0,1,1,1,0,43,43,81,,,,,,,,,,,,,,,,,,,,,,,,,,,,,,,,,,,,,,,,,,,,306.2313381999993,None,left,1,1.6345503000047756,306.7320219999965,308.35133399999177,306.7320219999965,307.8676401999983,306.7320219999965,307.8676401999983,306.7320219999965,307.8676401999983,306.7320219999965,307.8676401999983,306.7320219999965,307.8676401999983,307.83385699999053,308.3344234999968,307.83385699999053,308.3344234999968,307.83385699999053,308.3344234999968,307.83385699999053,308.3344234999968,307.83385699999053,308.3344234999968,307.83385699999053,308.3344234999968,307.83385699999053,308.3344234999968,307.83385699999053,308.3344234999968,306.7320219999965,None,308.3344234999968,309.7200826000044,1.1200000000000008,309.7365260999941,None,310.48770119999244,None,,,,,,,[[1.38]],2.740000000000002,0.6363636363636364,11044,001,2024_Mar_24_0958,MFTM_A_new1021,2021.2.3,59.892182090332355,
,,,,,,,,stim/Instruction_adaptive.png,conditions/adaptive.xlsx,test,0.6,0.6,0.6,-0.6,-0.6,right,R,,,,,0,1,1,1,0,44,44,12,,,,,,,,,,,,,,,,,,,,,,,,,,,,,,,,,,,,,,,,,,,,310.9894953000039,None,left,0,1.741218499999377,311.48917749999964,312.97606420000375,311.48917749999964,312.47423049999634,311.48917749999964,312.47423049999634,311.48917749999964,312.47423049999634,311.48917749999964,312.47423049999634,311.48917749999964,312.47423049999634,312.45749319999595,312.95825219999824,312.45749319999595,312.95825219999824,312.45749319999595,312.95825219999824,312.45749319999595,312.95825219999824,312.45749319999595,312.95825219999824,312.45749319999595,312.95825219999824,312.45749319999595,312.95825219999824,312.45749319999595,312.95825219999824,311.48917749999964,None,312.95825219999824,314.4771861999907,0.9800000000000006,314.49396680000063,None,315.2449887999974,None,,,,,,,[[1.52]],2.2500000000000018,0.6222222222222222,11044,001,2024_Mar_24_0958,MFTM_A_new1021,2021.2.3,59.892182090332355,
,,,,,,,,stim/Instruction_adaptive.png,conditions/adaptive.xlsx,test,0.6,0.6,0.6,-0.6,-0.6,right,R,,,,,0,1,1,1,0,45,45,16,,,,,,,,,,,,,,,,,,,,,,,,,,,,,,,,,,,,,,,,,,,,315.74573179999425,None,right,1,2.6163341000064975,316.24645249999594,318.1326754000038,316.24645249999594,317.63198259999626,316.24645249999594,317.63198259999626,316.24645249999594,317.63198259999626,316.24645249999594,317.63198259999626,316.24645249999594,317.63198259999626,317.6158407000039,318.1159561999957,317.6158407000039,318.1159561999957,317.6158407000039,318.1159561999957,317.6158407000039,318.1159561999957,317.6158407000039,318.1159561999957,317.6158407000039,318.1159561999957,317.6158407000039,318.1159561999957,317.6158407000039,318.1159561999957,316.24645249999594,None,318.1159561999957,None,1.380000000000001,319.2509577000019,None,320.00214559999586,None,,,,,,,[[1.12]],2.4600000000000017,0.6304347826086957,11044,001,2024_Mar_24_0958,MFTM_A_new1021,2021.2.3,59.892182090332355,
,,,,,,,,stim/Instruction_adaptive.png,conditions/adaptive.xlsx,test,0.6,0.6,0.6,-0.6,-0.6,right,R,,,,,0,1,1,1,0,46,46,94,,,,,,,,,,,,,,,,,,,,,,,,,,,,,,,,,,,,,,,,,,,,320.5027793999907,None,right,1,2.7153003999992507,321.0034466999932,322.70616479999444,321.0034466999932,322.2055557999993,321.0034466999932,322.2055557999993,321.0034466999932,322.2055557999993,321.0034466999932,322.2055557999993,321.0034466999932,322.2055557999993,322.1891680999979,322.68931459999294,322.1891680999979,322.68931459999294,322.1891680999979,322.68931459999294,322.1891680999979,322.68931459999294,322.1891680999979,322.68931459999294,322.1891680999979,322.68931459999294,322.1891680999979,322.68931459999294,322.1891680999979,322.68931459999294,321.0034466999932,None,322.68931459999294,323.99176469999657,1.2000000000000008,324.0082052999933,None,324.7593169000029,None,,,,,,,[[1.3]],2.610000000000002,0.6382978723404256,11044,001,2024_Mar_24_0958,MFTM_A_new1021,2021.2.3,59.892182090332355,
,,,,,,,,stim/Instruction_adaptive.png,conditions/adaptive.xlsx,test,0.6,0.6,0.6,-0.6,-0.6,right,R,,,,,0,1,1,1,0,47,47,14,,,,,,,,,,,,,,,,,,,,,,,,,,,,,,,,,,,,,,,,,,,,325.2601009999926,None,left,0,1.9419370999967214,325.7608707000036,327.34676479999325,325.7608707000036,326.84567640000023,325.7608707000036,326.84567640000023,325.7608707000036,326.84567640000023,325.7608707000036,326.84567640000023,325.7608707000036,326.84567640000023,326.829138599991,327.3300065999938,326.829138599991,327.3300065999938,326.829138599991,327.3300065999938,326.829138599991,327.3300065999938,326.829138599991,327.3300065999938,326.829138599991,327.3300065999938,326.829138599991,327.3300065999938,326.829138599991,327.3300065999938,325.7608707000036,None,327.3300065999938,None,1.0800000000000007,328.76561600000423,None,329.51657500000147,None,,,,,,,[[1.42]],2.1900000000000013,0.625,11044,001,2024_Mar_24_0958,MFTM_A_new1021,2021.2.3,59.892182090332355,
,,,,,,,,stim/Instruction_adaptive.png,conditions/adaptive.xlsx,test,0.6,0.6,0.6,-0.6,-0.6,right,R,,,,,0,1,1,1,0,48,48,24,,,,,,,,,,,,,,,,,,,,,,,,,,,,,,,,,,,,,,,,,,,,330.01732189999893,None,right,1,1.9594272999966051,330.5195725999947,332.4709603999945,330.5195725999947,331.97020260000136,330.5195725999947,331.97020260000136,330.5195725999947,331.97020260000136,330.5195725999947,331.97020260000136,330.5195725999947,331.97020260000136,331.9369363000005,332.4375730000029,331.9369363000005,332.4375730000029,331.9369363000005,332.4375730000029,331.9369363000005,332.4375730000029,331.9369363000005,332.4375730000029,331.9369363000005,332.4375730000029,331.9369363000005,332.4375730000029,331.9369363000005,332.4375730000029,330.5195725999947,None,332.4375730000029,333.50563289999263,1.440000000000001,333.5223882999999,None,334.2736736999941,None,,,,,,,[[1.06]],2.3600000000000017,0.6326530612244898,11044,001,2024_Mar_24_0958,MFTM_A_new1021,2021.2.3,59.892182090332355,
,,,,,,,,stim/Instruction_adaptive.png,conditions/adaptive.xlsx,test,0.6,0.6,0.6,-0.6,-0.6,right,R,,,,,0,1,1,1,0,49,49,44,,,,,,,,,,,,,,,,,,,,,,,,,,,,,,,,,,,,,,,,,,,,334.7742164999945,None,right,1,1.8521403999911854,335.2751280999946,337.0612362999964,335.2751280999946,336.56015320000006,335.2751280999946,336.56015320000006,335.2751280999946,336.56015320000006,335.2751280999946,336.56015320000006,335.2751280999946,336.56015320000006,336.54385600000387,337.0445166999998,336.54385600000387,337.0445166999998,336.54385600000387,337.0445166999998,336.54385600000387,337.0445166999998,336.54385600000387,337.0445166999998,336.54385600000387,337.0445166999998,336.54385600000387,337.0445166999998,336.54385600000387,337.0445166999998,335.2751280999946,None,337.0445166999998,None,1.280000000000001,338.2796021999966,None,339.0307621999964,None,,,,,,,[[1.22]],2.490000000000002,0.64,11044,001,2024_Mar_24_0958,MFTM_A_new1021,2021.2.3,59.892182090332355,
,,,,,,,,stim/Instruction_adaptive.png,conditions/adaptive.xlsx,test,-0.6,-0.6,-0.6,0.6,0.6,left,L,,,,,0,1,1,1,0,50,50,57,,,,,,,,,,,,,,,,,,,,,,,,,,,,,,,,,,,,,,,,,,,,339.53151879999496,None,right,0,1.422970899991924,340.03229499999725,341.7013391999935,340.03229499999725,341.2173613999912,340.03229499999725,341.2173613999912,340.03229499999725,341.2173613999912,340.03229499999725,341.2173613999912,340.03229499999725,341.2173613999912,341.18416979999165,341.6847238000046,341.18416979999165,341.6847238000046,341.18416979999165,341.6847238000046,341.18416979999165,341.6847238000046,341.18416979999165,341.6847238000046,341.18416979999165,341.6847238000046,341.18416979999165,341.6847238000046,341.18416979999165,341.6847238000046,340.03229499999725,None,341.6847238000046,343.02020379999885,1.1700000000000008,343.036752,None,343.7885710999981,None,,,,,,,[[1.33]],2.1200000000000014,0.6274509803921569,11044,001,2024_Mar_24_0958,MFTM_A_new1021,2021.2.3,59.892182090332355,
,,,,,,,,stim/Instruction_adaptive.png,conditions/adaptive.xlsx,test,-0.6,-0.6,-0.6,0.6,0.6,left,L,,,,,0,1,1,1,0,51,51,25,,,,,,,,,,,,,,,,,,,,,,,,,,,,,,,,,,,,,,,,,,,,344.2885252999986,None,left,1,1.921744299994316,344.78950359999726,346.80958109999483,344.78950359999726,346.30832889999147,344.78950359999726,346.30832889999147,344.78950359999726,346.30832889999147,344.78950359999726,346.30832889999147,344.78950359999726,346.30832889999147,346.2749019000039,346.7758554000029,346.2749019000039,346.7758554000029,346.2749019000039,346.7758554000029,346.2749019000039,346.7758554000029,346.2749019000039,346.7758554000029,346.2749019000039,346.7758554000029,346.2749019000039,346.7758554000029,346.2749019000039,346.7758554000029,344.78950359999726,None,346.7758554000029,347.77755250000337,1.5100000000000011,347.7939139999944,None,348.54512460000115,None,,,,,,,[[0.99]],2.2700000000000014,0.6346153846153846,11044,001,2024_Mar_24_0958,MFTM_A_new1021,2021.2.3,59.892182090332355,
,,,,,,,,stim/Instruction_adaptive.png,conditions/adaptive.xlsx,test,-0.6,-0.6,-0.6,0.6,0.6,left,L,,,,,0,1,1,1,0,52,52,71,,,,,,,,,,,,,,,,,,,,,,,,,,,,,,,,,,,,,,,,,,,,349.0461068000004,None,left,1,1.7164533000031952,349.54678829999466,351.41678220000176,349.54678829999466,350.9154791000037,349.54678829999466,350.9154791000037,349.54678829999466,350.9154791000037,349.54678829999466,350.9154791000037,349.54678829999466,350.9154791000037,350.88197930000024,351.3829742999951,350.88197930000024,351.3829742999951,350.88197930000024,351.3829742999951,350.88197930000024,351.3829742999951,350.88197930000024,351.3829742999951,350.88197930000024,351.3829742999951,350.88197930000024,351.3829742999951,350.88197930000024,351.3829742999951,349.54678829999466,None,351.3829742999951,352.53450399999565,1.360000000000001,352.55109609999636,None,353.3026050999906,None,,,,,,,[[1.14]],2.3900000000000015,0.6415094339622641,11044,001,2024_Mar_24_0958,MFTM_A_new1021,2021.2.3,59.892182090332355,
,,,,,,,,stim/Instruction_adaptive.png,conditions/adaptive.xlsx,test,-0.6,-0.6,-0.6,0.6,0.6,left,L,,,,,0,1,1,1,0,53,53,85,,,,,,,,,,,,,,,,,,,,,,,,,,,,,,,,,,,,,,,,,,,,353.8030926999927,None,left,1,1.6309875000006286,354.3044141999999,356.07320430000254,354.3044141999999,355.5724656999955,354.3044141999999,355.5724656999955,354.3044141999999,355.5724656999955,354.3044141999999,355.5724656999955,354.3044141999999,355.5724656999955,355.5391294000001,356.0396303000016,355.5391294000001,356.0396303000016,355.5391294000001,356.0396303000016,355.5391294000001,356.0396303000016,355.5391294000001,356.0396303000016,355.5391294000001,356.0396303000016,355.5391294000001,356.0396303000016,355.5391294000001,356.0396303000016,354.3044141999999,None,356.0396303000016,357.29157800000394,1.260000000000001,357.30832119999104,None,358.0594082000025,None,,,,,,,[[1.24]],2.490000000000002,0.6481481481481481,11044,001,2024_Mar_24_0958,MFTM_A_new1021,2021.2.3,59.892182090332355,
,,,,,,,,stim/Instruction_adaptive.png,conditions/adaptive.xlsx,test,-0.6,-0.6,-0.6,0.6,0.6,left,L,,,,,0,1,1,1,0,54,54,51,,,,,,,,,,,,,,,,,,,,,,,,,,,,,,,,,,,,,,,,,,,,358.56035410000186,None,left,1,1.7309349999995902,359.06108679999306,360.7302994999918,359.06108679999306,360.2462571999931,359.06108679999306,360.2462571999931,359.06108679999306,360.2462571999931,359.06108679999306,360.2462571999931,359.06108679999306,360.2462571999931,360.212829600001,360.71362110000337,360.212829600001,360.71362110000337,360.212829600001,360.71362110000337,360.212829600001,360.71362110000337,360.212829600001,360.71362110000337,360.212829600001,360.71362110000337,360.212829600001,360.71362110000337,360.212829600001,360.71362110000337,359.06108679999306,None,360.71362110000337,362.0489275,1.1700000000000008,362.06555339999613,None,362.81664229999296,None,,,,,,,[[1.33]],2.5900000000000016,0.6545454545454545,11044,001,2024_Mar_24_0958,MFTM_A_new1021,2021.2.3,59.892182090332355,
,,,,,,,,stim/Instruction_adaptive.png,conditions/adaptive.xlsx,test,-0.6,-0.6,-0.6,0.6,0.6,left,L,,,,,0,1,1,1,0,55,55,47,,,,,,,,,,,,,,,,,,,,,,,,,,,,,,,,,,,,,,,,,,,,363.3175404999929,None,left,1,1.7738518999976804,363.8183347000013,365.42064969999774,363.8183347000013,364.9200023000012,363.8183347000013,364.9200023000012,363.8183347000013,364.9200023000012,363.8183347000013,364.9200023000012,363.8183347000013,364.9200023000012,364.88647119999223,365.3873072999995,364.88647119999223,365.3873072999995,364.88647119999223,365.3873072999995,364.88647119999223,365.3873072999995,364.88647119999223,365.3873072999995,364.88647119999223,365.3873072999995,364.88647119999223,365.3873072999995,364.88647119999223,365.3873072999995,363.8183347000013,None,365.3873072999995,366.80718469999556,1.0900000000000007,366.82206649999716,None,367.57371699999203,None,,,,,,,[[1.41]],2.6700000000000017,0.6607142857142857,11044,001,2024_Mar_24_0958,MFTM_A_new1021,2021.2.3,59.892182090332355,
,,,,,,,,stim/Instruction_adaptive.png,conditions/adaptive.xlsx,test,-0.6,-0.6,-0.6,0.6,0.6,left,L,,,,,0,1,1,1,0,56,56,95,,,,,,,,,,,,,,,,,,,,,,,,,,,,,,,,,,,,,,,,,,,,368.074707199994,None,left,1,1.6964619000063976,368.57571999999345,370.1126549000037,368.57571999999345,369.610199200004,368.57571999999345,369.610199200004,368.57571999999345,369.610199200004,368.57571999999345,369.610199200004,368.57571999999345,369.610199200004,369.5935279999976,370.094503100001,369.5935279999976,370.094503100001,369.5935279999976,370.094503100001,369.5935279999976,370.094503100001,369.5935279999976,370.094503100001,369.5935279999976,370.094503100001,369.5935279999976,370.094503100001,369.5935279999976,370.094503100001,368.57571999999345,None,370.094503100001,None,1.0300000000000007,371.5800271999906,None,372.33105989999603,None,,,,,,,[[1.47]],2.7500000000000018,0.6666666666666666,11044,001,2024_Mar_24_0958,MFTM_A_new1021,2021.2.3,59.892182090332355,
,,,,,,,,stim/Instruction_adaptive.png,conditions/adaptive.xlsx,test,-0.6,-0.6,-0.6,0.6,0.6,left,L,,,,,0,1,1,1,0,57,57,15,,,,,,,,,,,,,,,,,,,,,,,,,,,,,,,,,,,,,,,,,,,,372.8326612999954,None,right,0,1.4676008999958867,373.33269989999826,374.8182278000022,373.33269989999826,374.31746839999687,373.33269989999826,374.31746839999687,373.33269989999826,374.31746839999687,373.33269989999826,374.31746839999687,373.33269989999826,374.31746839999687,374.3008587999939,374.80147099999886,374.3008587999939,374.80147099999886,374.3008587999939,374.80147099999886,374.3008587999939,374.80147099999886,374.3008587999939,374.80147099999886,374.3008587999939,374.80147099999886,374.3008587999939,374.80147099999886,374.3008587999939,374.80147099999886,373.33269989999826,None,374.80147099999886,376.32081079999625,0.9800000000000006,376.3371526999981,None,377.0883259999973,None,,,,,,,[[1.52]],2.530000000000002,0.6551724137931034,11044,001,2024_Mar_24_0958,MFTM_A_new1021,2021.2.3,59.892182090332355,
,,,,,,,,stim/Instruction_adaptive.png,conditions/adaptive.xlsx,test,0.6,0.6,0.6,-0.6,-0.6,right,R,,,,,0,1,1,1,0,58,58,66,,,,,,,,,,,,,,,,,,,,,,,,,,,,,,,,,,,,,,,,,,,,377.5894480999996,None,right,1,1.6704781000007642,378.0896953999909,379.74235990000307,378.0896953999909,379.24169979999715,378.0896953999909,379.24169979999715,378.0896953999909,379.24169979999715,378.0896953999909,379.24169979999715,378.0896953999909,379.24169979999715,379.2082015999913,379.70879520000017,379.2082015999913,379.70879520000017,379.2082015999913,379.70879520000017,379.2082015999913,379.70879520000017,379.2082015999913,379.70879520000017,379.2082015999913,379.70879520000017,379.2082015999913,379.70879520000017,379.2082015999913,379.70879520000017,378.0896953999909,None,379.70879520000017,381.07761890000256,1.1400000000000008,381.0948580999975,None,381.8456318999961,None,,,,,,,[[1.36]],2.610000000000002,0.6610169491525424,11044,001,2024_Mar_24_0958,MFTM_A_new1021,2021.2.3,59.892182090332355,
,,,,,,,,stim/Instruction_adaptive.png,conditions/adaptive.xlsx,test,0.6,0.6,0.6,-0.6,-0.6,right,R,,,,,0,1,1,1,0,59,59,28,,,,,,,,,,,,,,,,,,,,,,,,,,,,,,,,,,,,,,,,,,,,382.34638319999794,None,right,1,2.449907699992764,382.8468109999958,384.43256249999104,382.8468109999958,383.9318185000011,382.8468109999958,383.9318185000011,382.8468109999958,383.9318185000011,382.8468109999958,383.9318185000011,382.8468109999958,383.9318185000011,383.91518159999396,384.4160942000017,383.91518159999396,384.4160942000017,383.91518159999396,384.4160942000017,383.91518159999396,384.4160942000017,383.91518159999396,384.4160942000017,383.91518159999396,384.4160942000017,383.91518159999396,384.4160942000017,383.91518159999396,384.4160942000017,382.8468109999958,None,384.4160942000017,None,1.0800000000000007,385.8516138999985,None,386.60272599999735,None,,,,,,,[[1.42]],2.680000000000002,0.6666666666666666,11044,001,2024_Mar_24_0958,MFTM_A_new1021,2021.2.3,59.892182090332355,
,,,,,,,,stim/Instruction_adaptive.png,conditions/adaptive.xlsx,test,0.6,0.6,0.6,-0.6,-0.6,right,R,,,,,0,1,1,1,0,60,60,8,,,,,,,,,,,,,,,,,,,,,,,,,,,,,,,,,,,,,,,,,,,,387.1037845999963,None,left,0,1.996590800001286,387.6041375999921,389.1401665000012,387.6041375999921,388.63911740000185,387.6041375999921,388.63911740000185,387.6041375999921,388.63911740000185,387.6041375999921,388.63911740000185,387.6041375999921,388.63911740000185,388.62253829999827,389.1235627999995,388.62253829999827,389.1235627999995,388.62253829999827,389.1235627999995,388.62253829999827,389.1235627999995,388.62253829999827,389.1235627999995,388.62253829999827,389.1235627999995,388.62253829999827,389.1235627999995,388.62253829999827,389.1235627999995,387.6041375999921,None,389.1235627999995,None,1.0300000000000007,390.6086060999951,None,391.3598867999972,None,,,,,,,[[1.47]],2.4800000000000018,0.6557377049180327,11044,001,2024_Mar_24_0958,MFTM_A_new1021,2021.2.3,59.892182090332355,
,,,,,,,,stim/Instruction_adaptive.png,conditions/adaptive.xlsx,test,0.6,0.6,0.6,-0.6,-0.6,right,R,,,,,0,1,1,1,0,61,61,22,,,,,,,,,,,,,,,,,,,,,,,,,,,,,,,,,,,,,,,,,,,,391.86062120000133,None,right,1,1.870952799989027,392.3615145999938,394.04718019999564,392.3615145999938,393.5474838999944,392.3615145999938,393.5474838999944,392.3615145999938,393.5474838999944,392.3615145999938,393.5474838999944,392.3615145999938,393.5474838999944,393.5300630999991,394.03050720000465,393.5300630999991,394.03050720000465,393.5300630999991,394.03050720000465,393.5300630999991,394.03050720000465,393.5300630999991,394.03050720000465,393.5300630999991,394.03050720000465,393.5300630999991,394.03050720000465,393.5300630999991,394.03050720000465,392.3615145999938,None,394.03050720000465,None,1.1800000000000008,395.3659265000024,None,396.11710859999584,None,,,,,,,[[1.32]],2.5500000000000016,0.6612903225806451,11044,001,2024_Mar_24_0958,MFTM_A_new1021,2021.2.3,59.892182090332355,
,,,,,,,,stim/Instruction_adaptive.png,conditions/adaptive.xlsx,test,0.6,0.6,0.6,-0.6,-0.6,right,R,,,,,0,1,1,1,0,62,62,92,,,,,,,,,,,,,,,,,,,,,,,,,,,,,,,,,,,,,,,,,,,,396.6178365999949,None,right,1,1.6507109999947716,397.1184229999926,398.73777249999694,397.1184229999926,398.25352289999137,397.1184229999926,398.25352289999137,397.1184229999926,398.25352289999137,397.1184229999926,398.25352289999137,397.1184229999926,398.25352289999137,398.220229700004,398.72111849999055,398.220229700004,398.72111849999055,398.220229700004,398.72111849999055,398.220229700004,398.72111849999055,398.220229700004,398.72111849999055,398.220229700004,398.72111849999055,398.220229700004,398.72111849999055,398.220229700004,398.72111849999055,397.1184229999926,None,398.72111849999055,400.10652099999425,1.1200000000000008,400.1231826000003,None,400.8743151999952,None,,,,,,,[[1.38]],2.620000000000002,0.6666666666666666,11044,001,2024_Mar_24_0958,MFTM_A_new1021,2021.2.3,59.892182090332355,
,,,,,,,,stim/Instruction_adaptive.png,conditions/adaptive.xlsx,test,-0.6,-0.6,-0.6,0.6,0.6,left,L,,,,,0,1,1,1,0,63,63,19,,,,,,,,,,,,,,,,,,,,,,,,,,,,,,,,,,,,,,,,,,,,401.37504260000424,None,left,1,1.4457110000075772,401.8755134999956,403.44484860000375,401.8755134999956,402.96054359999835,401.8755134999956,402.96054359999835,401.8755134999956,402.96054359999835,401.8755134999956,402.96054359999835,401.8755134999956,402.96054359999835,402.92760159999307,403.42807759999414,402.92760159999307,403.42807759999414,402.92760159999307,403.42807759999414,402.92760159999307,403.42807759999414,402.92760159999307,403.42807759999414,402.92760159999307,403.42807759999414,402.92760159999307,403.42807759999414,402.92760159999307,403.42807759999414,401.8755134999956,None,403.42807759999414,404.86350839999795,1.0700000000000007,404.8803695999959,None,405.63125469999795,None,,,,,,,[[1.43]],2.680000000000002,0.671875,11044,001,2024_Mar_24_0958,MFTM_A_new1021,2021.2.3,59.892182090332355,
,,,,,,,,stim/Instruction_adaptive.png,conditions/adaptive.xlsx,test,-0.6,-0.6,-0.6,0.6,0.6,left,L,,,,,0,1,1,1,0,64,64,83,,,,,,,,,,,,,,,,,,,,,,,,,,,,,,,,,,,,,,,,,,,,406.13196959999914,None,right,0,1.8565222000033827,406.6327605999977,408.16831860000093,406.6327605999977,407.6677725000045,406.6327605999977,407.6677725000045,406.6327605999977,407.6677725000045,406.6327605999977,407.6677725000045,406.6327605999977,407.6677725000045,407.6510533999972,408.15209940000204,407.6510533999972,408.15209940000204,407.6510533999972,408.15209940000204,407.6510533999972,408.15209940000204,407.6510533999972,408.15209940000204,407.6510533999972,408.15209940000204,407.6510533999972,408.15209940000204,407.6510533999972,408.15209940000204,406.6327605999977,None,408.15209940000204,None,1.0300000000000007,409.6373009999952,None,410.3886324999912,None,,,,,,,[[1.47]],2.5000000000000018,0.6615384615384615,11044,001,2024_Mar_24_0958,MFTM_A_new1021,2021.2.3,59.892182090332355,
,,,,,,,,stim/Instruction_adaptive.png,conditions/adaptive.xlsx,test,-0.6,-0.6,-0.6,0.6,0.6,left,L,,,,,0,1,1,1,0,65,65,97,,,,,,,,,,,,,,,,,,,,,,,,,,,,,,,,,,,,,,,,,,,,410.88924560000305,None,right,0,1.8573875000001863,411.3916581999947,413.05914369999664,411.3916581999947,412.558632100001,411.3916581999947,412.558632100001,411.3916581999947,412.558632100001,411.3916581999947,412.558632100001,411.3916581999947,412.558632100001,412.52515849999327,413.0259545000008,412.52515849999327,413.0259545000008,412.52515849999327,413.0259545000008,412.52515849999327,413.0259545000008,412.52515849999327,413.0259545000008,412.52515849999327,413.0259545000008,412.52515849999327,413.0259545000008,412.52515849999327,413.0259545000008,411.3916581999947,None,413.0259545000008,414.3780807000003,1.1600000000000008,414.3944695999962,None,415.14579439999943,None,,,,,,,[[1.34]],2.3100000000000014,0.6515151515151515,11044,001,2024_Mar_24_0958,MFTM_A_new1021,2021.2.3,59.892182090332355,
,,,,,,,,stim/Instruction_adaptive.png,conditions/adaptive.xlsx,test,0.6,0.6,0.6,-0.6,-0.6,right,R,,,,,0,1,1,1,0,66,66,26,,,,,,,,,,,,,,,,,,,,,,,,,,,,,,,,,,,,,,,,,,,,415.64630279999983,None,left,0,2.637908500008052,416.14763449999737,417.9834147999936,416.14763449999737,417.4828087999922,416.14763449999737,417.4828087999922,416.14763449999737,417.4828087999922,416.14763449999737,417.4828087999922,416.14763449999737,417.4828087999922,417.4660689000011,417.9666165999952,417.4660689000011,417.9666165999952,417.4660689000011,417.9666165999952,417.4660689000011,417.9666165999952,417.4660689000011,417.9666165999952,417.4660689000011,417.9666165999952,417.4660689000011,417.9666165999952,417.4660689000011,417.9666165999952,416.14763449999737,None,417.9666165999952,None,1.330000000000001,419.1516651999991,None,419.9030772999977,None,,,,,,,[[1.17]],2.0800000000000014,0.6417910447761194,11044,001,2024_Mar_24_0958,MFTM_A_new1021,2021.2.3,59.892182090332355,
,,,,,,,,stim/Instruction_adaptive.png,conditions/adaptive.xlsx,test,-0.6,-0.6,-0.6,0.6,0.6,left,L,,,,,0,1,1,1,0,67,67,79,,,,,,,,,,,,,,,,,,,,,,,,,,,,,,,,,,,,,,,,,,,,420.4036577999941,None,left,1,1.9533854999899631,420.9045439000038,422.9741558999958,420.9045439000038,422.4735764999932,420.9045439000038,422.4735764999932,420.9045439000038,422.4735764999932,420.9045439000038,422.4735764999932,420.9045439000038,422.4735764999932,422.4410771999974,422.94076640000276,422.4410771999974,422.94076640000276,422.4410771999974,422.94076640000276,422.4410771999974,422.94076640000276,422.4410771999974,422.94076640000276,422.4410771999974,422.94076640000276,422.4410771999974,422.94076640000276,422.4410771999974,422.94076640000276,420.9045439000038,None,422.94076640000276,423.89244470000267,1.5600000000000012,423.9090828000044,None,424.6604901999963,None,,,,,,,[[0.94]],2.1600000000000015,0.6470588235294118,11044,001,2024_Mar_24_0958,MFTM_A_new1021,2021.2.3,59.892182090332355,
,,,,,,,,stim/Instruction_adaptive.png,conditions/adaptive.xlsx,test,-0.6,-0.6,-0.6,0.6,0.6,left,L,,,,,0,1,1,1,0,68,68,55,,,,,,,,,,,,,,,,,,,,,,,,,,,,,,,,,,,,,,,,,,,,425.1609782000014,None,left,1,2.1006196000089403,425.6615616999916,427.6311214000016,425.6615616999916,427.147507200003,425.6615616999916,427.147507200003,425.6615616999916,427.147507200003,425.6615616999916,427.147507200003,425.6615616999916,427.147507200003,427.11381500000425,427.6144942999963,427.11381500000425,427.6144942999963,427.11381500000425,427.6144942999963,427.11381500000425,427.6144942999963,427.11381500000425,427.6144942999963,427.11381500000425,427.6144942999963,427.11381500000425,427.6144942999963,427.11381500000425,427.6144942999963,425.6615616999916,None,427.6144942999963,428.64946639999107,1.470000000000001,428.66621119999036,None,429.41713329999766,None,,,,,,,[[1.03]],2.2400000000000015,0.6521739130434783,11044,001,2024_Mar_24_0958,MFTM_A_new1021,2021.2.3,59.892182090332355,
,,,,,,,,stim/Instruction_adaptive.png,conditions/adaptive.xlsx,test,-0.6,-0.6,-0.6,0.6,0.6,left,L,,,,,0,1,1,1,0,69,69,7,,,,,,,,,,,,,,,,,,,,,,,,,,,,,,,,,,,,,,,,,,,,429.91777879999427,None,right,0,2.118455300005735,430.41931099999056,432.32265010000265,430.41931099999056,431.8208153000014,430.41931099999056,431.8208153000014,430.41931099999056,431.8208153000014,430.41931099999056,431.8208153000014,430.41931099999056,431.8208153000014,431.7876405999996,432.2884486999974,431.7876405999996,432.2884486999974,431.7876405999996,432.2884486999974,431.7876405999996,432.2884486999974,431.7876405999996,432.2884486999974,431.7876405999996,432.2884486999974,431.7876405999996,432.2884486999974,431.7876405999996,432.2884486999974,430.41931099999056,None,432.2884486999974,433.4071011999913,1.390000000000001,433.42313709999144,None,434.1744456000015,None,,,,,,,[[1.11]],2.030000000000001,0.6428571428571429,11044,001,2024_Mar_24_0958,MFTM_A_new1021,2021.2.3,59.892182090332355,
,,,,,,,,stim/Instruction_adaptive.png,conditions/adaptive.xlsx,test,-0.6,-0.6,-0.6,0.6,0.6,left,L,,,,,0,1,1,1,0,70,70,53,,,,,,,,,,,,,,,,,,,,,,,,,,,,,,,,,,,,,,,,,,,,434.67560109999613,None,left,1,2.705681299994467,435.1761228999967,437.29562419999274,435.1761228999967,436.7950287999993,435.1761228999967,436.7950287999993,435.1761228999967,436.7950287999993,435.1761228999967,436.7950287999993,435.1761228999967,436.7950287999993,436.7618843999953,437.2622985999915,436.7618843999953,437.2622985999915,436.7618843999953,437.2622985999915,436.7618843999953,437.2622985999915,436.7618843999953,437.2622985999915,436.7618843999953,437.2622985999915,436.7618843999953,437.2622985999915,436.7618843999953,437.2622985999915,435.1761228999967,None,437.2622985999915,438.1636943999911,1.6100000000000012,438.1805499000038,None,438.9316292000003,None,,,,,,,[[0.89]],2.1000000000000014,0.647887323943662,11044,001,2024_Mar_24_0958,MFTM_A_new1021,2021.2.3,59.892182090332355,
,,,,,,,,stim/Instruction_adaptive.png,conditions/adaptive.xlsx,test,-0.6,-0.6,-0.6,0.6,0.6,left,L,,,,,0,1,1,1,0,71,71,35,,,,,,,,,,,,,,,,,,,,,,,,,,,,,,,,,,,,,,,,,,,,439.4335277999926,None,left,1,2.132990600002813,439.93324420000135,441.9696355999913,439.93324420000135,441.468907699993,439.93324420000135,441.468907699993,439.93324420000135,441.468907699993,439.93324420000135,441.468907699993,439.93324420000135,441.468907699993,441.45215050000115,441.9527547000034,441.45215050000115,441.9527547000034,441.45215050000115,441.9527547000034,441.45215050000115,441.9527547000034,441.45215050000115,441.9527547000034,441.45215050000115,441.9527547000034,441.45215050000115,441.9527547000034,441.45215050000115,441.9527547000034,439.93324420000135,None,441.9527547000034,442.9211409999989,1.5300000000000011,442.93759919999866,None,443.68878319999203,None,,,,,,,[[0.97]],2.1800000000000015,0.6527777777777778,11044,001,2024_Mar_24_0958,MFTM_A_new1021,2021.2.3,59.892182090332355,
,,,,,,,,stim/Instruction_adaptive.png,conditions/adaptive.xlsx,test,-0.6,-0.6,-0.6,0.6,0.6,left,L,,,,,0,1,1,1,0,72,72,59,,,,,,,,,,,,,,,,,,,,,,,,,,,,,,,,,,,,,,,,,,,,444.1896573999984,None,left,1,1.8321333000058075,444.6903864999913,446.6431783000007,444.6903864999913,446.14247229999455,444.6903864999913,446.14247229999455,444.6903864999913,446.14247229999455,444.6903864999913,446.14247229999455,444.6903864999913,446.14247229999455,446.12594250000257,446.6263761000009,446.12594250000257,446.6263761000009,446.12594250000257,446.6263761000009,446.12594250000257,446.6263761000009,446.12594250000257,446.6263761000009,446.12594250000257,446.6263761000009,446.12594250000257,446.6263761000009,446.12594250000257,446.6263761000009,444.6903864999913,None,446.6263761000009,447.67816769999627,1.450000000000001,447.6949475000001,None,448.445971299996,None,,,,,,,[[1.05]],2.2400000000000015,0.6575342465753424,11044,001,2024_Mar_24_0958,MFTM_A_new1021,2021.2.3,59.892182090332355,
,,,,,,,,stim/Instruction_adaptive.png,conditions/adaptive.xlsx,test,0.6,0.6,0.6,-0.6,-0.6,right,R,,,,,0,1,1,1,0,73,73,86,,,,,,,,,,,,,,,,,,,,,,,,,,,,,,,,,,,,,,,,,,,,448.9468460999924,None,left,0,2.4426499999972293,449.44763650000095,451.35053229999903,449.44763650000095,450.84954909999215,449.44763650000095,450.84954909999215,449.44763650000095,450.84954909999215,449.44763650000095,450.84954909999215,449.44763650000095,450.84954909999215,450.8162694999919,451.31722119999176,450.8162694999919,451.31722119999176,450.8162694999919,451.31722119999176,450.8162694999919,451.31722119999176,450.8162694999919,451.31722119999176,450.8162694999919,451.31722119999176,450.8162694999919,451.31722119999176,450.8162694999919,451.31722119999176,449.44763650000095,None,451.31722119999176,452.43551650000154,1.390000000000001,452.4521536999964,None,453.20363659999566,None,,,,,,,[[1.11]],2.0600000000000014,0.6486486486486487,11044,001,2024_Mar_24_0958,MFTM_A_new1021,2021.2.3,59.892182090332355,
,,,,,,,,stim/Instruction_adaptive.png,conditions/adaptive.xlsx,test,0.6,0.6,0.6,-0.6,-0.6,right,R,,,,,0,1,1,1,0,74,74,56,,,,,,,,,,,,,,,,,,,,,,,,,,,,,,,,,,,,,,,,,,,,453.7039802999934,None,right,1,2.5335116000060225,454.2048636999971,456.29141959999106,454.2048636999971,455.7902486999956,454.2048636999971,455.7902486999956,454.2048636999971,455.7902486999956,454.2048636999971,455.7902486999956,454.2048636999971,455.7902486999956,455.77381779999996,456.27455269999336,455.77381779999996,456.27455269999336,455.77381779999996,456.27455269999336,455.77381779999996,456.27455269999336,455.77381779999996,456.27455269999336,455.77381779999996,456.27455269999336,455.77381779999996,456.27455269999336,455.77381779999996,456.27455269999336,454.2048636999971,None,456.2582096999977,457.19253139999637,1.5800000000000012,457.209231300003,None,457.9606361000042,None,,,,,,,[[0.92]],2.1200000000000014,0.6533333333333333,11044,001,2024_Mar_24_0958,MFTM_A_new1021,2021.2.3,59.892182090332355,
,,,,,,,,stim/Instruction_adaptive.png,conditions/adaptive.xlsx,test,-0.6,-0.6,-0.6,0.6,0.6,left,L,,,,,0,1,1,1,0,75,75,63,,,,,,,,,,,,,,,,,,,,,,,,,,,,,,,,,,,,,,,,,,,,458.46130729999277,None,None,0,0,458.96173889999045,460.98152200000186,458.96173889999045,460.4807850999932,458.96173889999045,460.4807850999932,458.96173889999045,460.4807850999932,458.96173889999045,460.4807850999932,458.96173889999045,460.4807850999932,460.4641546999919,460.9649892000016,460.4641546999919,460.9649892000016,460.4641546999919,460.9649892000016,460.4641546999919,460.9649892000016,460.4641546999919,460.9649892000016,460.4641546999919,460.9649892000016,460.4641546999919,460.9649892000016,460.4641546999919,460.9649892000016,458.96173889999045,None,460.9649892000016,None,1.5100000000000011,462.48457469999266,None,463.2357871999993,None,,,,,,,[[1.49]],1.9300000000000013,0.6447368421052632,11044,001,2024_Mar_24_0958,MFTM_A_new1021,2021.2.3,59.892182090332355,
,,,,,,,,stim/Instruction_adaptive.png,conditions/adaptive.xlsx,test,0.6,0.6,0.6,-0.6,-0.6,right,R,,,,,0,1,1,1,0,76,76,6,,,,,,,,,,,,,,,,,,,,,,,,,,,,,,,,,,,,,,,,,,,,463.71971599999233,None,right,1,2.0863833999901544,464.2207616999949,466.4564343999955,464.2207616999949,465.95594909999636,464.2207616999949,465.95594909999636,464.2207616999949,465.95594909999636,464.2207616999949,465.95594909999636,464.2207616999949,465.95594909999636,465.9391479999904,466.43968300000415,465.9391479999904,466.43968300000415,465.9391479999904,466.43968300000415,465.9391479999904,466.43968300000415,465.9391479999904,466.43968300000415,465.9391479999904,466.43968300000415,465.9391479999904,466.43968300000415,465.9391479999904,466.43968300000415,464.2207616999949,None,466.43968300000415,None,1.7300000000000013,467.22424789999786,None,467.9755504999921,None,,,,,,,[[0.77]],2.0000000000000013,0.6493506493506493,11044,001,2024_Mar_24_0958,MFTM_A_new1021,2021.2.3,59.892182090332355,
,,,,,,,,stim/Instruction_adaptive.png,conditions/adaptive.xlsx,test,-0.6,-0.6,-0.6,0.6,0.6,left,L,,,,,0,1,1,1,0,77,77,87,,,,,,,,,,,,,,,,,,,,,,,,,,,,,,,,,,,,,,,,,,,,468.47612500000105,None,left,1,1.242417800007388,468.97712019999744,471.1302966999938,468.97712019999744,470.62945589999435,468.97712019999744,470.62945589999435,468.97712019999744,470.62945589999435,468.97712019999744,470.62945589999435,468.97712019999744,470.62945589999435,470.59625999999116,471.09769080000115,470.59625999999116,471.09769080000115,470.59625999999116,471.09769080000115,470.59625999999116,471.09769080000115,470.59625999999116,471.09769080000115,470.59625999999116,471.09769080000115,470.59625999999116,471.09769080000115,470.59625999999116,471.09769080000115,468.97712019999744,None,471.09769080000115,471.96482999999716,1.6400000000000012,471.98169059999054,None,472.7328880999994,None,,,,,,,[[0.86]],2.0600000000000014,0.6538461538461539,11044,001,2024_Mar_24_0958,MFTM_A_new1021,2021.2.3,59.892182090332355,
,,,,,,,,stim/Instruction_adaptive.png,conditions/adaptive.xlsx,test,-0.6,-0.6,-0.6,0.6,0.6,left,L,,,,,0,1,1,1,0,78,78,69,,,,,,,,,,,,,,,,,,,,,,,,,,,,,,,,,,,,,,,,,,,,473.2334802999976,None,right,0,1.4129304999951273,473.7343247999961,475.82085659999575,473.7343247999961,475.3199009999953,473.7343247999961,475.3199009999953,473.7343247999961,475.3199009999953,473.7343247999961,475.3199009999953,473.7343247999961,475.3199009999953,475.2865557999903,475.7872634999949,475.2865557999903,475.7872634999949,475.2865557999903,475.7872634999949,475.2865557999903,475.7872634999949,475.2865557999903,475.7872634999949,475.2865557999903,475.7872634999949,475.2865557999903,475.7872634999949,475.2865557999903,475.7872634999949,473.7343247999961,None,475.7872634999949,476.7220280000038,1.5800000000000012,476.7387366000039,None,477.4907069000037,None,,,,,,,[[0.92]],1.8800000000000012,0.6455696202531646,11044,001,2024_Mar_24_0958,MFTM_A_new1021,2021.2.3,59.892182090332355,
,,,,,,,,stim/Instruction_adaptive.png,conditions/adaptive.xlsx,test,-0.6,-0.6,-0.6,0.6,0.6,left,L,,,,,0,1,1,1,0,79,79,67,,,,,,,,,,,,,,,,,,,,,,,,,,,,,,,,,,,,,,,,,,,,477.99046960000123,None,left,1,2.4554745000059484,478.49147589999484,480.7947056999983,478.49147589999484,480.29409539999324,478.49147589999484,480.29409539999324,478.49147589999484,480.29409539999324,478.49147589999484,480.29409539999324,478.49147589999484,480.29409539999324,480.260884599993,480.76140889999806,480.260884599993,480.76140889999806,480.260884599993,480.76140889999806,480.260884599993,480.76140889999806,480.260884599993,480.76140889999806,480.260884599993,480.76140889999806,480.260884599993,480.76140889999806,480.260884599993,480.76140889999806,478.49147589999484,None,480.76140889999806,481.4791130999947,1.7900000000000014,481.49584609999147,None,482.24704109999584,None,,,,,,,[[0.71]],1.9500000000000013,0.65,11044,001,2024_Mar_24_0958,MFTM_A_new1021,2021.2.3,59.892182090332355,
,,,,,,,,stim/Instruction_adaptive.png,conditions/adaptive.xlsx,test,0.6,0.6,0.6,-0.6,-0.6,right,R,,,,,0,1,1,1,0,80,80,30,,,,,,,,,,,,,,,,,,,,,,,,,,,,,,,,,,,,,,,,,,,,482.74770120000176,None,right,1,1.7547090000007302,483.24868000000424,485.4545780000044,483.24868000000424,484.950923299999,483.24868000000424,484.950923299999,483.24868000000424,484.950923299999,483.24868000000424,484.950923299999,483.24868000000424,484.950923299999,484.9344635000016,485.4352097999945,484.9344635000016,485.4352097999945,484.9344635000016,485.4352097999945,484.9344635000016,485.4352097999945,484.9344635000016,485.4352097999945,484.9344635000016,485.4352097999945,484.9344635000016,485.4352097999945,484.9344635000016,485.4352097999945,483.24868000000424,None,485.4352097999945,486.23656979999214,1.7000000000000013,486.2530848000024,None,487.00432599999476,None,,,,,,,[[0.8]],2.0100000000000016,0.654320987654321,11044,001,2024_Mar_24_0958,MFTM_A_new1021,2021.2.3,59.892182090332355,
,,,,,,,,stim/Instruction_adaptive.png,conditions/adaptive.xlsx,test,-0.6,-0.6,-0.6,0.6,0.6,left,L,,,,,0,1,1,1,0,81,81,41,,,,,,,,,,,,,,,,,,,,,,,,,,,,,,,,,,,,,,,,,,,,487.50522510000155,None,left,1,2.4535328000056325,488.0058233000018,490.14228359999834,488.0058233000018,489.6416326000035,488.0058233000018,489.6416326000035,488.0058233000018,489.6416326000035,488.0058233000018,489.6416326000035,488.0058233000018,489.6416326000035,489.62488970000413,490.1256941000029,489.62488970000413,490.1256941000029,489.62488970000413,490.1256941000029,489.62488970000413,490.1256941000029,489.62488970000413,490.1256941000029,489.62488970000413,490.1256941000029,489.62488970000413,490.1256941000029,489.62488970000413,490.1256941000029,488.0058233000018,None,490.1256941000029,None,1.6300000000000012,491.0103330999991,None,491.76135509999585,None,,,,,,,[[0.87]],2.0600000000000014,0.6585365853658537,11044,001,2024_Mar_24_0958,MFTM_A_new1021,2021.2.3,59.892182090332355,
,,,,,,,,stim/Instruction_adaptive.png,conditions/adaptive.xlsx,test,0.6,0.6,0.6,-0.6,-0.6,right,R,,,,,0,1,1,1,0,82,82,60,,,,,,,,,,,,,,,,,,,,,,,,,,,,,,,,,,,,,,,,,,,,492.2624408999982,None,right,1,2.464696399998502,492.7632253000047,494.84940979999374,492.7632253000047,494.3488567000022,492.7632253000047,494.3488567000022,492.7632253000047,494.3488567000022,492.7632253000047,494.3488567000022,492.7632253000047,494.3488567000022,494.3318283999979,494.8327569999965,494.3318283999979,494.8327569999965,494.3318283999979,494.8327569999965,494.3318283999979,494.8327569999965,494.3318283999979,494.8327569999965,494.3318283999979,494.8327569999965,494.3318283999979,494.8327569999965,494.3318283999979,494.8327569999965,492.7632253000047,None,494.8327569999965,None,1.5800000000000012,495.767190700004,None,496.51858839999477,None,,,,,,,[[0.92]],2.1200000000000014,0.6626506024096386,11044,001,2024_Mar_24_0958,MFTM_A_new1021,2021.2.3,59.892182090332355,
,,,,,,,,stim/Instruction_adaptive.png,conditions/adaptive.xlsx,test,0.6,0.6,0.6,-0.6,-0.6,right,R,,,,,0,1,1,1,0,83,83,34,,,,,,,,,,,,,,,,,,,,,,,,,,,,,,,,,,,,,,,,,,,,497.020302799996,None,right,1,1.7718132000009064,497.5199971999973,499.54109980000067,497.5199971999973,499.03913229999307,497.5199971999973,499.03913229999307,497.5199971999973,499.03913229999307,497.5199971999973,499.03913229999307,497.5199971999973,499.03913229999307,499.0229202999908,499.52317539999785,499.0229202999908,499.52317539999785,499.0229202999908,499.52317539999785,499.0229202999908,499.52317539999785,499.0229202999908,499.52317539999785,499.0229202999908,499.52317539999785,499.0229202999908,499.52317539999785,499.0229202999908,499.52317539999785,497.5199971999973,None,499.50638269999763,500.5087945999985,1.5100000000000011,500.52458850000403,None,501.27550780000456,None,,,,,,,[[0.99]],2.1700000000000017,0.6666666666666666,11044,001,2024_Mar_24_0958,MFTM_A_new1021,2021.2.3,59.892182090332355,
,,,,,,,,stim/Instruction_adaptive.png,conditions/adaptive.xlsx,test,0.6,0.6,0.6,-0.6,-0.6,right,R,,,,,0,1,1,1,0,84,84,2,,,,,,,,,,,,,,,,,,,,,,,,,,,,,,,,,,,,,,,,,,,,501.77656109999225,None,left,0,2.1666717999905813,502.27732399999513,504.24703719999525,502.27732399999513,503.746112599998,502.27732399999513,503.746112599998,502.27732399999513,503.746112599998,502.27732399999513,503.746112599998,502.27732399999513,503.746112599998,503.712704199992,504.2134892000031,503.712704199992,504.2134892000031,503.712704199992,504.2134892000031,503.712704199992,504.2134892000031,503.712704199992,504.2134892000031,503.712704199992,504.2134892000031,503.712704199992,504.2134892000031,503.712704199992,504.2134892000031,502.27732399999513,None,504.2134892000031,505.26521470000444,1.460000000000001,505.28213359999063,None,506.0328640999942,None,,,,,,,[[1.04]],2.0200000000000014,0.6588235294117647,11044,001,2024_Mar_24_0958,MFTM_A_new1021,2021.2.3,59.892182090332355,
,,,,,,,,stim/Instruction_adaptive.png,conditions/adaptive.xlsx,test,-0.6,-0.6,-0.6,0.6,0.6,left,L,,,,,0,1,1,1,0,85,85,89,,,,,,,,,,,,,,,,,,,,,,,,,,,,,,,,,,,,,,,,,,,,506.5338722000015,None,left,1,2.2177006999991136,507.0343913999968,509.15429340000264,507.0343913999968,508.65348090000043,507.0343913999968,508.65348090000043,507.0343913999968,508.65348090000043,507.0343913999968,508.65348090000043,507.0343913999968,508.65348090000043,508.6368358000036,509.1377940999955,508.6368358000036,509.1377940999955,508.6368358000036,509.1377940999955,508.6368358000036,509.1377940999955,508.6368358000036,509.1377940999955,508.6368358000036,509.1377940999955,508.6368358000036,509.1377940999955,508.6368358000036,509.1377940999955,507.0343913999968,None,509.1377940999955,510.02227380000113,1.6200000000000012,510.0389465000044,None,510.79038029999356,None,,,,,,,[[0.88]],2.070000000000001,0.6627906976744186,11044,001,2024_Mar_24_0958,MFTM_A_new1021,2021.2.3,59.892182090332355,
,,,,,,,,stim/Instruction_adaptive.png,conditions/adaptive.xlsx,test,-0.6,-0.6,-0.6,0.6,0.6,left,L,,,,,0,1,1,1,0,86,86,61,,,,,,,,,,,,,,,,,,,,,,,,,,,,,,,,,,,,,,,,,,,,511.2911899000028,None,left,1,2.1486279999953695,511.7914652000036,513.8614859999943,511.7914652000036,513.3606332999916,511.7914652000036,513.3606332999916,511.7914652000036,513.3606332999916,511.7914652000036,513.3606332999916,511.7914652000036,513.3606332999916,513.3440455999953,513.8448356000008,513.3440455999953,513.8448356000008,513.3440455999953,513.8448356000008,513.3440455999953,513.8448356000008,513.3440455999953,513.8448356000008,513.3440455999953,513.8448356000008,513.3440455999953,513.8448356000008,513.3440455999953,513.8448356000008,511.7914652000036,None,513.8448356000008,514.7795377000002,1.5700000000000012,514.7962726999976,None,515.5473410999984,None,,,,,,,[[0.93]],2.1200000000000014,0.6666666666666666,11044,001,2024_Mar_24_0958,MFTM_A_new1021,2021.2.3,59.892182090332355,
,,,,,,,,stim/Instruction_adaptive.png,conditions/adaptive.xlsx,test,0.6,0.6,0.6,-0.6,-0.6,right,R,,,,,0,1,1,1,0,87,87,82,,,,,,,,,,,,,,,,,,,,,,,,,,,,,,,,,,,,,,,,,,,,516.0487086999929,None,right,1,2.135156799995457,516.5489687999943,518.5693704000005,516.5489687999943,518.0677041000017,516.5489687999943,518.0677041000017,516.5489687999943,518.0677041000017,516.5489687999943,518.0677041000017,516.5489687999943,518.0677041000017,518.0346247999987,518.5350993000029,518.0346247999987,518.5350993000029,518.0346247999987,518.5350993000029,518.0346247999987,518.5350993000029,518.0346247999987,518.5350993000029,518.0346247999987,518.5350993000029,518.0346247999987,518.5350993000029,518.0346247999987,518.5350993000029,516.5489687999943,None,518.5350993000029,519.5378093000036,1.5100000000000011,519.5533559000032,None,520.3045645999955,None,,,,,,,[[0.99]],2.1700000000000017,0.6704545454545454,11044,001,2024_Mar_24_0958,MFTM_A_new1021,2021.2.3,59.892182090332355,
,,,,,,,,stim/Instruction_adaptive.png,conditions/adaptive.xlsx,test,0.6,0.6,0.6,-0.6,-0.6,right,R,,,,,0,1,1,1,0,88,88,0,,,,,,,,,,,,,,,,,,,,,,,,,,,,,,,,,,,,,,,,,,,,520.8052423000045,None,right,1,1.8829414999927394,521.3058482999913,523.2756853000028,521.3058482999913,522.7748769000027,521.3058482999913,522.7748769000027,521.3058482999913,522.7748769000027,521.3058482999913,522.7748769000027,521.3058482999913,522.7748769000027,522.7413913999917,523.2430055000004,522.7413913999917,523.2430055000004,522.7413913999917,523.2430055000004,522.7413913999917,523.2430055000004,522.7413913999917,523.2430055000004,522.7413913999917,523.2430055000004,522.7413913999917,523.2430055000004,522.7413913999917,523.2430055000004,521.3058482999913,None,523.2430055000004,524.2939101999946,1.460000000000001,524.3105360999907,None,525.0619599999918,None,,,,,,,[[1.04]],2.2100000000000017,0.6741573033707865,11044,001,2024_Mar_24_0958,MFTM_A_new1021,2021.2.3,59.892182090332355,
,,,,,,,,stim/Instruction_adaptive.png,conditions/adaptive.xlsx,test,0.6,0.6,0.6,-0.6,-0.6,right,R,,,,,0,1,1,1,0,89,89,10,,,,,,,,,,,,,,,,,,,,,,,,,,,,,,,,,,,,,,,,,,,,525.5626082999952,None,left,0,2.1415307999996003,526.0631171999994,527.9827230999945,526.0631171999994,527.4987740999932,526.0631171999994,527.4987740999932,526.0631171999994,527.4987740999932,526.0631171999994,527.4987740999932,526.0631171999994,527.4987740999932,527.4654066999938,527.9660827999905,527.4654066999938,527.9660827999905,527.4654066999938,527.9660827999905,527.4654066999938,527.9660827999905,527.4654066999938,527.9660827999905,527.4654066999938,527.9660827999905,527.4654066999938,527.9660827999905,527.4654066999938,527.9660827999905,526.0631171999994,None,527.9660827999905,529.0510762999911,1.420000000000001,529.0676552999939,None,529.8189204999944,None,,,,,,,[[1.08]],2.0900000000000016,0.6666666666666666,11044,001,2024_Mar_24_0958,MFTM_A_new1021,2021.2.3,59.892182090332355,
,,,,,,,,stim/Instruction_adaptive.png,conditions/adaptive.xlsx,test,0.6,0.6,0.6,-0.6,-0.6,right,R,,,,,0,1,1,1,0,90,90,18,,,,,,,,,,,,,,,,,,,,,,,,,,,,,,,,,,,,,,,,,,,,530.3198520000005,None,right,1,2.7928639000019757,530.8203456999909,532.8734347999998,530.8203456999909,532.3727214999963,530.8203456999909,532.3727214999963,530.8203456999909,532.3727214999963,530.8203456999909,532.3727214999963,530.8203456999909,532.3727214999963,532.3560840999999,532.8566615000018,532.3560840999999,532.8566615000018,532.3560840999999,532.8566615000018,532.3560840999999,532.8566615000018,532.3560840999999,532.8566615000018,532.3560840999999,532.8566615000018,532.3560840999999,532.8566615000018,532.3560840999999,532.8566615000018,530.8203456999909,None,532.8566615000018,533.8090554999944,1.5500000000000012,533.8249190999923,None,534.5760887999932,None,,,,,,,[[0.95]],2.1300000000000017,0.6703296703296703,11044,001,2024_Mar_24_0958,MFTM_A_new1021,2021.2.3,59.892182090332355,
,,,,,,,,stim/Instruction_adaptive.png,conditions/adaptive.xlsx,test,-0.6,-0.6,-0.6,0.6,0.6,left,L,,,,,0,1,1,1,0,91,91,49,,,,,,,,,,,,,,,,,,,,,,,,,,,,,,,,,,,,,,,,,,,,535.0766365000018,None,right,0,1.9795545999950264,535.5773703000013,537.5809769999905,535.5773703000013,537.0798452000017,535.5773703000013,537.0798452000017,535.5773703000013,537.0798452000017,535.5773703000013,537.0798452000017,535.5773703000013,537.0798452000017,537.062943900004,537.5640168999962,537.062943900004,537.5640168999962,537.062943900004,537.5640168999962,537.062943900004,537.5640168999962,537.062943900004,537.5640168999962,537.062943900004,537.5640168999962,537.062943900004,537.5640168999962,537.062943900004,537.5640168999962,535.5773703000013,None,537.5640168999962,538.5652733000024,1.500000000000001,538.5814875999931,None,539.3339208999969,None,,,,,,,[[1.]],2.0000000000000013,0.6630434782608695,11044,001,2024_Mar_24_0958,MFTM_A_new1021,2021.2.3,59.892182090332355,
,,,,,,,,stim/Instruction_adaptive.png,conditions/adaptive.xlsx,test,-0.6,-0.6,-0.6,0.6,0.6,left,L,,,,,0,1,1,1,0,92,92,93,,,,,,,,,,,,,,,,,,,,,,,,,,,,,,,,,,,,,,,,,,,,539.8338694999984,None,left,1,2.6943535000027623,540.3347958999948,542.4879121999984,540.3347958999948,541.9873664000042,540.3347958999948,541.9873664000042,540.3347958999948,541.9873664000042,540.3347958999948,541.9873664000042,540.3347958999948,541.9873664000042,541.9538396999997,542.4544422000035,541.9538396999997,542.4544422000035,541.9538396999997,542.4544422000035,541.9538396999997,542.4544422000035,541.9538396999997,542.4544422000035,541.9538396999997,542.4544422000035,541.9538396999997,542.4544422000035,541.9538396999997,542.4544422000035,540.3347958999948,None,542.4544422000035,543.3227172000043,1.6400000000000012,543.3391993999976,None,544.0907133000001,None,,,,,,,[[0.86]],2.0500000000000016,0.6666666666666666,11044,001,2024_Mar_24_0958,MFTM_A_new1021,2021.2.3,59.892182090332355,
,,,,,,,,stim/Instruction_adaptive.png,conditions/adaptive.xlsx,test,-0.6,-0.6,-0.6,0.6,0.6,left,L,,,,,0,1,1,1,0,93,93,3,,,,,,,,,,,,,,,,,,,,,,,,,,,,,,,,,,,,,,,,,,,,544.5909550999932,None,left,1,2.3212468000128865,545.0921156999975,547.1950575999945,545.0921156999975,546.6943783000024,545.0921156999975,546.6943783000024,545.0921156999975,546.6943783000024,545.0921156999975,546.6943783000024,545.0921156999975,546.6943783000024,546.660864999998,547.1619089000014,546.660864999998,547.1619089000014,546.660864999998,547.1619089000014,546.660864999998,547.1619089000014,546.660864999998,547.1619089000014,546.660864999998,547.1619089000014,546.660864999998,547.1619089000014,546.660864999998,547.1619089000014,545.0921156999975,None,547.1619089000014,548.0796269999992,1.5900000000000012,548.0963081999944,None,548.8486616000009,None,,,,,,,[[0.91]],2.0900000000000016,0.6702127659574468,11044,001,2024_Mar_24_0958,MFTM_A_new1021,2021.2.3,59.892182090332355,
