arrwidth1,arrwidth2,arrwidth3,arrwidth4,arrwidth5,keyb,type,orientation,instruction_image,block_filename,block_type,arrow11,arrow22,arrow33,arrow44,arrow55,keyb_3,orientation3,trials.thisRepN,trials.thisTrialN,trials.thisN,trials.thisIndex,trials_3.thisRepN,trials_3.thisTrialN,trials_3.thisN,trials_3.thisIndex,trials_2.thisRepN,trials_2.thisTrialN,trials_2.thisN,trials_2.thisIndex,welcome.started,welcome.stopped,key_resp.keys,key_resp.rt,key_resp.started,key_resp.stopped,instruction_example.started,instruction_example.stopped,key_resp_3.keys,key_resp_3.rt,key_resp_3.started,key_resp_3.stopped,instruction_task.started,instruction_task.stopped,key_resp_2.keys,key_resp_2.rt,key_resp_2.started,key_resp_2.stopped,text_2.started,text_2.stopped,A1.started,A1.stopped,A2.started,A2.stopped,A3.started,A3.stopped,A4.started,A4.stopped,A5.started,A5.stopped,key_resp_4.keys,key_resp_4.corr,key_resp_4.rt,key_resp_4.started,key_resp_4.stopped,fb.started,fb.stopped,instruction_block.started,instruction_block.stopped,key_resp_8.keys,key_resp_8.rt,key_resp_8.started,key_resp_8.stopped,text_8.started,text_8.stopped,key_resp_9.keys,key_resp_9.corr,key_resp_9.rt,text_5.started,text_5.stopped,A11_3.started,A11_3.stopped,A22_2.started,A22_2.stopped,A33_2.started,A33_2.stopped,A44_2.started,A44_2.stopped,A55_2.started,A55_2.stopped,M1_3.started,M1_3.stopped,M2_2.started,M2_2.stopped,M3_2.started,M3_2.stopped,M4_2.started,M4_2.stopped,M5_2.started,M5_2.stopped,M6_2.started,M6_2.stopped,M7_2.started,M7_2.stopped,M8_2.started,M8_2.stopped,key_resp_9.started,key_resp_9.stopped,fixation.started,fixation.stopped,ET,fb_3.started,fb_3.stopped,text_9.started,text_9.stopped,fb_4.started,fb_4.stopped,text_7.started,text_7.stopped,endtext.started,endtext.stopped,fixation_ITI,CCC,Acc,participant,session,date,expName,psychopyVersion,frameRate,
,,,,,,,,,,,,,,,,,,,,,,,,,,,,,,1920.7904395000078,None,space,16.004655900062062,1920.7904395000078,None,,,,,,,,,,,,,,,,,,,,,,,,,,,,,,,,,,,,,,,,,,,,,,,,,,,,,,,,,,,,,,,,,,,,,,,,,,,,,,,,,,,,,,,,,11043,002,2024_Mar_21_1305,MFTM_A_new1021,2021.2.3,59.243285531449665,
,,,,,,,,,,,,,,,,,,,,,,,,,,,,,,,,,,,,1936.8152716999175,None,space,9.04374039999675,1936.8152716999175,None,,,,,,,,,,,,,,,,,,,,,,,,,,,,,,,,,,,,,,,,,,,,,,,,,,,,,,,,,,,,,,,,,,,,,,,,,,,,,,,,,,,11043,002,2024_Mar_21_1305,MFTM_A_new1021,2021.2.3,59.243285531449665,
,,,,,,,,,,,,,,,,,,,,,,,,,,,,,,,,,,,,,,,,,,1945.878026099992,None,space,7.613181299995631,1945.878026099992,None,,,,,,,,,,,,,,,,,,,,,,,,,,,,,,,,,,,,,,,,,,,,,,,,,,,,,,,,,,,,,,,,,,,,,,,,,,,,,11043,002,2024_Mar_21_1305,MFTM_A_new1021,2021.2.3,59.243285531449665,
-0.6,-0.6,-0.6,0.6,0.6,left,3:2,L,,,,,,,,,,,0,0,0,1,,,,,,,,,,,,,,,,,,,,,,,,,,,1953.5394592999946,None,1953.5394592999946,None,1953.5394592999946,None,1953.5394592999946,None,1953.5394592999946,None,1953.5394592999946,None,left,1,3.1597581000532955,1953.5394592999946,None,1956.7464414999122,None,,,,,,,,,,,,,,,,,,,,,,,,,,,,,,,,,,,,,,,,,,,,,,,,,,,,,,,,,,11043,002,2024_Mar_21_1305,MFTM_A_new1021,2021.2.3,59.243285531449665,
0.6,0.6,0.6,-0.6,-0.6,right,3:2,R,,,,,,,,,,,0,1,1,0,,,,,,,,,,,,,,,,,,,,,,,,,,,1957.495324099902,None,1957.495324099902,None,1957.495324099902,None,1957.495324099902,None,1957.495324099902,None,1957.495324099902,None,right,1,1.3481308999471366,1957.495324099902,None,1958.864306799951,None,,,,,,,,,,,,,,,,,,,,,,,,,,,,,,,,,,,,,,,,,,,,,,,,,,,,,,,,,,11043,002,2024_Mar_21_1305,MFTM_A_new1021,2021.2.3,59.243285531449665,
-0.6,-0.6,-0.6,0.6,0.6,left,3:2,L,,,,,,,,,,,1,0,2,1,,,,,,,,,,,,,,,,,,,,,,,,,,,1959.6154164999025,None,1959.6154164999025,None,1959.6154164999025,None,1959.6154164999025,None,1959.6154164999025,None,1959.6154164999025,None,left,1,1.4923591999104246,1959.6154164999025,None,1961.1343251999933,None,,,,,,,,,,,,,,,,,,,,,,,,,,,,,,,,,,,,,,,,,,,,,,,,,,,,,,,,,,11043,002,2024_Mar_21_1305,MFTM_A_new1021,2021.2.3,59.243285531449665,
0.6,0.6,0.6,-0.6,-0.6,right,3:2,R,,,,,,,,,,,1,1,3,0,,,,,,,,,,,,,,,,,,,,,,,,,,,1961.8862809999846,None,1961.8862809999846,None,1961.8862809999846,None,1961.8862809999846,None,1961.8862809999846,None,1961.8862809999846,None,right,1,2.6611277000047266,1961.8862809999846,None,1964.572772399988,None,,,,,,,,,,,,,,,,,,,,,,,,,,,,,,,,,,,,,,,,,,,,,,,,,,,,,,,,,,11043,002,2024_Mar_21_1305,MFTM_A_new1021,2021.2.3,59.243285531449665,
,,,,,,,,stim/Instruction_mask.png,conditions/adaptive.xlsx,practice,-0.6,-0.6,-0.6,0.6,0.6,left,L,,,,,0,0,0,0,0,0,0,21,,,,,,,,,,,,,,,,,,,,,,,,,,,,,,,,,,,,,,1965.6248965999112,None,space,6.2907302000094205,1965.6248965999112,None,1972.0171194999712,None,left,1,1.752369900001213,1972.4511769999517,None,1972.4511769999517,1975.4559526999947,1972.4511769999517,1975.4559526999947,1972.4511769999517,1975.4559526999947,1972.4511769999517,1975.4559526999947,1972.4511769999517,1975.4559526999947,1975.439257399994,1975.9399632000132,1975.439257399994,1975.9399632000132,1975.439257399994,1975.9399632000132,1975.439257399994,1975.9399632000132,1975.439257399994,1975.9399632000132,1975.439257399994,1975.9399632000132,1975.439257399994,1975.9399632000132,1975.439257399994,1975.9399632000132,1972.4511769999517,None,1975.9399632000132,1975.9399632000132,3,1975.9565535999136,None,1976.7077238999773,None,,,,,,,,,,11043,002,2024_Mar_21_1305,MFTM_A_new1021,2021.2.3,59.243285531449665,
,,,,,,,,stim/Instruction_mask.png,conditions/adaptive.xlsx,practice,0.6,0.6,0.6,-0.6,-0.6,right,R,,,,,0,0,0,0,0,1,1,52,,,,,,,,,,,,,,,,,,,,,,,,,,,,,,,,,,,,,,,,,,,,1977.2093478000024,None,right,1,1.341283299960196,1977.7267309000017,1979.7289537999313,1977.7267309000017,1979.2281642999733,1977.7267309000017,1979.2281642999733,1977.7267309000017,1979.2281642999733,1977.7267309000017,1979.2281642999733,1977.7267309000017,1979.2281642999733,1979.195350999944,1979.6961162999505,1979.195350999944,1979.6961162999505,1979.195350999944,1979.6961162999505,1979.195350999944,1979.6961162999505,1979.195350999944,1979.6961162999505,1979.195350999944,1979.6961162999505,1979.195350999944,1979.6961162999505,1979.195350999944,1979.6961162999505,1977.7267309000017,None,1979.6961162999505,1981.1976814999944,1.5,1981.2318367999978,None,1981.9830695999553,None,,,,,,,,,,11043,002,2024_Mar_21_1305,MFTM_A_new1021,2021.2.3,59.243285531449665,
,,,,,,,,stim/Instruction_mask.png,conditions/adaptive.xlsx,practice,-0.6,-0.6,-0.6,0.6,0.6,left,L,,,,,0,0,0,0,0,2,2,99,,,,,,,,,,,,,,,,,,,,,,,,,,,,,,,,,,,,,,,,,,,,1982.483018299914,None,left,1,1.1161466999910772,1982.983835299965,1984.2857629999053,1982.983835299965,1983.7857104999712,1982.983835299965,1983.7857104999712,1982.983835299965,1983.7857104999712,1982.983835299965,1983.7857104999712,1982.983835299965,1983.7857104999712,1983.768978399923,1984.2690781999845,1983.768978399923,1984.2690781999845,1983.768978399923,1984.2690781999845,1983.768978399923,1984.2690781999845,1983.768978399923,1984.2690781999845,1983.768978399923,1984.2690781999845,1983.768978399923,1984.2690781999845,1983.768978399923,1984.2690781999845,1982.983835299965,None,1984.2690781999845,1986.4729011999443,0.8,1986.4896977999015,None,1987.2410352999577,None,,,,,,,,,,11043,002,2024_Mar_21_1305,MFTM_A_new1021,2021.2.3,59.243285531449665,
,,,,,,,,stim/Instruction_mask.png,conditions/adaptive.xlsx,practice,-0.6,-0.6,-0.6,0.6,0.6,left,L,,,,,0,0,0,0,0,3,3,87,,,,,,,,,,,,,,,,,,,,,,,,,,,,,,,,,,,,,,,,,,,,1987.741879499983,None,left,1,1.4752015999983996,1988.2414933999535,1988.9941313999007,1988.2414933999535,1988.4922516999068,1988.2414933999535,1988.4922516999068,1988.2414933999535,1988.4922516999068,1988.2414933999535,1988.4922516999068,1988.2414933999535,1988.4922516999068,1988.4763218999142,1988.9762380999746,1988.4763218999142,1988.9762380999746,1988.4763218999142,1988.9762380999746,1988.4763218999142,1988.9762380999746,1988.4763218999142,1988.9762380999746,1988.4763218999142,1988.9762380999746,1988.4763218999142,1988.9762380999746,1988.4763218999142,1988.9762380999746,1988.2414933999535,None,1988.9762380999746,1991.7303710000124,3,1991.7470561999362,None,1992.4981829999015,None,,,,,,,,,,11043,002,2024_Mar_21_1305,MFTM_A_new1021,2021.2.3,59.243285531449665,
,,,,,,,,stim/Instruction_mask.png,conditions/adaptive.xlsx,practice,,,,,,,,,,,,0,0,0,0,,,,,,,,,,,,,,,,,,,,,,,,,,,,,,,,,,,,,,,,,,,,,,,,,,,,,,,,,,,,,,,,,,,,,,,,,,,,,,,,,,,,,,,,,,1993.0328776999377,1994.0342362999218,1994.0177704999223,1994.0177704999223,1994.0177704999223,None,,,,11043,002,2024_Mar_21_1305,MFTM_A_new1021,2021.2.3,59.243285531449665,
,,,,,,,,stim/Instruction_adaptive.png,conditions/adaptive.xlsx,test,-0.6,-0.6,-0.6,0.6,0.6,left,L,,,,,0,1,1,1,0,0,0,1,,,,,,,,,,,,,,,,,,,,,,,,,,,,,,,,,,,,,,1997.2393455998972,None,space,13.461584399919957,1997.2393455998972,None,2010.7589247999713,None,left,1,2.217511700000614,2011.2431995999068,None,2011.2431995999068,2014.247542399913,2011.2431995999068,2014.247542399913,2011.2431995999068,2014.247542399913,2011.2431995999068,2014.247542399913,2011.2431995999068,2014.247542399913,2014.230904199998,2014.7325733999023,2014.230904199998,2014.7325733999023,2014.230904199998,2014.7325733999023,2014.230904199998,2014.7325733999023,2014.230904199998,2014.7325733999023,2014.230904199998,2014.7325733999023,2014.230904199998,2014.7325733999023,2014.230904199998,2014.7325733999023,2011.2431995999068,None,2014.7325733999023,2014.7325733999023,3,2014.7662502999883,None,2015.5161412999732,None,,,,,,,0,6.000000000000005,1.0,11043,002,2024_Mar_21_1305,MFTM_A_new1021,2021.2.3,59.243285531449665,
,,,,,,,,stim/Instruction_adaptive.png,conditions/adaptive.xlsx,test,0.6,0.6,0.6,-0.6,-0.6,right,R,,,,,0,1,1,1,0,1,1,78,,,,,,,,,,,,,,,,,,,,,,,,,,,,,,,,,,,,,,,,,,,,2016.0168196999002,None,right,1,2.2153295999160036,2016.5176135000074,2017.2689853999764,2016.5176135000074,2016.768272999907,2016.5176135000074,2016.768272999907,2016.5176135000074,2016.768272999907,2016.5176135000074,2016.768272999907,2016.5176135000074,2016.768272999907,2016.7515011999058,2017.252275899984,2016.7515011999058,2017.252275899984,2016.7515011999058,2017.252275899984,2016.7515011999058,2017.252275899984,2016.7515011999058,2017.252275899984,2016.7515011999058,2017.252275899984,2016.7515011999058,2017.252275899984,2016.7515011999058,2017.252275899984,2016.5176135000074,None,2017.252275899984,2018.7545173999388,0.25,2018.771065399982,None,2019.522225099965,None,,,,,,,[0.875],6.000000000000005,1.0,11043,002,2024_Mar_21_1305,MFTM_A_new1021,2021.2.3,59.243285531449665,
,,,,,,,,stim/Instruction_adaptive.png,conditions/adaptive.xlsx,test,-0.6,-0.6,-0.6,0.6,0.6,left,L,,,,,0,1,1,1,0,2,2,49,,,,,,,,,,,,,,,,,,,,,,,,,,,,,,,,,,,,,,,,,,,,2020.023164199898,None,left,1,2.8899098000256345,2020.5236654999899,2021.2750970999477,2020.5236654999899,2020.7746684999438,2020.5236654999899,2020.7746684999438,2020.5236654999899,2020.7746684999438,2020.5236654999899,2020.7746684999438,2020.5236654999899,2020.7746684999438,2020.7580778999254,2021.2588078000117,2020.7580778999254,2021.2588078000117,2020.7580778999254,2021.2588078000117,2020.7580778999254,2021.2588078000117,2020.7580778999254,2021.2588078000117,2020.7580778999254,2021.2588078000117,2020.7580778999254,2021.2588078000117,2020.7580778999254,2021.2588078000117,2020.5236654999899,None,2021.2588078000117,2023.4281661999412,0.25,2023.444810399902,None,2024.1961875999114,None,,,,,,,[1.33333333],6.000000000000005,1.0,11043,002,2024_Mar_21_1305,MFTM_A_new1021,2021.2.3,59.243285531449665,
,,,,,,,,stim/Instruction_adaptive.png,conditions/adaptive.xlsx,test,-0.6,-0.6,-0.6,0.6,0.6,left,L,,,,,0,1,1,1,0,3,3,5,,,,,,,,,,,,,,,,,,,,,,,,,,,,,,,,,,,,,,,,,,,,2024.6965904999524,None,right,0,2.528106000041589,2025.197999099968,2025.9489580999361,2025.197999099968,2025.4478581999429,2025.197999099968,2025.4478581999429,2025.197999099968,2025.4478581999429,2025.197999099968,2025.4478581999429,2025.197999099968,2025.4478581999429,2025.4314142999938,2025.931753499899,2025.4314142999938,2025.931753499899,2025.4314142999938,2025.931753499899,2025.4314142999938,2025.931753499899,2025.4314142999938,2025.931753499899,2025.4314142999938,2025.931753499899,2025.4314142999938,2025.931753499899,2025.4314142999938,2025.931753499899,2025.197999099968,None,2025.931753499899,2027.751448599971,0.25,2027.7850839999737,None,2028.5365883999038,None,,,,,,,[1.5625],4.030000000000003,0.75,11043,002,2024_Mar_21_1305,MFTM_A_new1021,2021.2.3,59.243285531449665,
,,,,,,,,stim/Instruction_adaptive.png,conditions/adaptive.xlsx,test,0.6,0.6,0.6,-0.6,-0.6,right,R,,,,,0,1,1,1,0,4,4,24,,,,,,,,,,,,,,,,,,,,,,,,,,,,,,,,,,,,,,,,,,,,2029.0368274999782,None,left,0,2.011261200066656,2029.5382022999693,2030.4387481999584,2029.5382022999693,2029.9380607999628,2029.5382022999693,2029.9380607999628,2029.5382022999693,2029.9380607999628,2029.5382022999693,2029.9380607999628,2029.5382022999693,2029.9380607999628,2029.9220679999562,2030.4220208999468,2029.9220679999562,2030.4220208999468,2029.9220679999562,2030.4220208999468,2029.9220679999562,2030.4220208999468,2029.9220679999562,2030.4220208999468,2029.9220679999562,2030.4220208999468,2029.9220679999562,2030.4220208999468,2029.9220679999562,2030.4220208999468,2029.5382022999693,None,2030.4220208999468,2032.0920510999858,0.40000000000000013,2032.1253444999456,None,2032.87576789991,None,,,,,,,[1.67],2.5100000000000016,0.6,11043,002,2024_Mar_21_1305,MFTM_A_new1021,2021.2.3,59.243285531449665,
,,,,,,,,stim/Instruction_adaptive.png,conditions/adaptive.xlsx,test,0.6,0.6,0.6,-0.6,-0.6,right,R,,,,,0,1,1,1,0,5,5,14,,,,,,,,,,,,,,,,,,,,,,,,,,,,,,,,,,,,,,,,,,,,2033.3774410999613,None,None,0,0,2033.8772176000057,2035.5309148000088,2033.8772176000057,2035.0293224999914,2033.8772176000057,2035.0293224999914,2033.8772176000057,2035.0293224999914,2033.8772176000057,2035.0293224999914,2033.8772176000057,2035.0293224999914,2035.012348099961,2035.5130042999517,2035.012348099961,2035.5130042999517,2035.012348099961,2035.5130042999517,2035.012348099961,2035.5130042999517,2035.012348099961,2035.5130042999517,2035.012348099961,2035.5130042999517,2035.012348099961,2035.5130042999517,2035.012348099961,2035.5130042999517,2033.8772176000057,None,2035.5130042999517,2037.3667597000021,1.1500000000000008,2037.400812299922,None,2038.1510832000058,None,,,,,,,[[1.85]],0.6100000000000001,0.5,11043,002,2024_Mar_21_1305,MFTM_A_new1021,2021.2.3,59.243285531449665,
,,,,,,,,stim/Instruction_adaptive.png,conditions/adaptive.xlsx,test,-0.6,-0.6,-0.6,0.6,0.6,left,L,,,,,0,1,1,1,0,6,6,3,,,,,,,,,,,,,,,,,,,,,,,,,,,,,,,,,,,,,,,,,,,,2038.6519085000036,None,left,1,1.8129439000040293,2039.1526034999406,None,2039.1526034999406,2042.1569697000086,2039.1526034999406,2042.1569697000086,2039.1526034999406,2042.1569697000086,2039.1526034999406,2042.1569697000086,2039.1526034999406,2042.1569697000086,2042.1395839999896,2042.6405534999212,2042.1395839999896,2042.6405534999212,2042.1395839999896,2042.6405534999212,2042.1395839999896,2042.6405534999212,2042.1395839999896,2042.6405534999212,2042.1395839999896,2042.6405534999212,2042.1395839999896,2042.6405534999212,2042.1395839999896,2042.6405534999212,2039.1526034999406,None,2042.6405534999212,2042.6405534999212,3.0000000000000027,2042.6741211999906,None,2043.425776299904,None,,,,,,,0,1.640000000000001,0.5714285714285714,11043,002,2024_Mar_21_1305,MFTM_A_new1021,2021.2.3,59.243285531449665,
,,,,,,,,stim/Instruction_adaptive.png,conditions/adaptive.xlsx,test,-0.6,-0.6,-0.6,0.6,0.6,left,L,,,,,0,1,1,1,0,7,7,19,,,,,,,,,,,,,,,,,,,,,,,,,,,,,,,,,,,,,,,,,,,,2043.9258701999206,None,left,1,1.7639921000227332,2044.4095974999946,2047.03044100001,2044.4095974999946,2046.529951900011,2044.4095974999946,2046.529951900011,2044.4095974999946,2046.529951900011,2044.4095974999946,2046.529951900011,2044.4095974999946,2046.529951900011,2046.4967142000096,2046.9977419999195,2046.4967142000096,2046.9977419999195,2046.4967142000096,2046.9977419999195,2046.4967142000096,2046.9977419999195,2046.4967142000096,2046.9977419999195,2046.4967142000096,2046.9977419999195,2046.4967142000096,2046.9977419999195,2046.4967142000096,2046.9977419999195,2044.4095974999946,None,2046.9977419999195,2047.3978271000087,2.1100000000000017,2047.413951399969,None,2048.1662792999996,None,,,,,,,[[0.39]],2.1000000000000014,0.625,11043,002,2024_Mar_21_1305,MFTM_A_new1021,2021.2.3,59.243285531449665,
,,,,,,,,stim/Instruction_adaptive.png,conditions/adaptive.xlsx,test,-0.6,-0.6,-0.6,0.6,0.6,left,L,,,,,0,1,1,1,0,8,8,81,,,,,,,,,,,,,,,,,,,,,,,,,,,,,,,,,,,,,,,,,,,,2048.666943499935,None,left,1,0.8857161999912933,2049.16781299992,2051.2042444999097,2049.16781299992,2050.70324860001,2049.16781299992,2050.70324860001,2049.16781299992,2050.70324860001,2049.16781299992,2050.70324860001,2049.16781299992,2050.70324860001,2050.6859121999005,2051.186971099931,2050.6859121999005,2051.186971099931,2050.6859121999005,2051.186971099931,2050.6859121999005,2051.186971099931,2050.6859121999005,2051.186971099931,2050.6859121999005,2051.186971099931,2050.6859121999005,2051.186971099931,2050.6859121999005,2051.186971099931,2049.16781299992,None,2051.1698784999317,2052.1387017999077,1.5300000000000011,2052.188575899927,None,2052.939740499947,None,,,,,,,[[0.97]],2.410000000000002,0.6666666666666666,11043,002,2024_Mar_21_1305,MFTM_A_new1021,2021.2.3,59.243285531449665,
,,,,,,,,stim/Instruction_adaptive.png,conditions/adaptive.xlsx,test,-0.6,-0.6,-0.6,0.6,0.6,left,L,,,,,0,1,1,1,0,9,9,61,,,,,,,,,,,,,,,,,,,,,,,,,,,,,,,,,,,,,,,,,,,,2053.4406591999577,None,left,1,0.737095299991779,2053.9407475999324,2055.6941659000004,2053.9407475999324,2055.1924703000113,2053.9407475999324,2055.1924703000113,2053.9407475999324,2055.1924703000113,2053.9407475999324,2055.1924703000113,2053.9407475999324,2055.1924703000113,2055.1591417999007,2055.6600615999196,2055.1591417999007,2055.6600615999196,2055.1591417999007,2055.6600615999196,2055.1591417999007,2055.6600615999196,2055.1591417999007,2055.6600615999196,2055.1591417999007,2055.6600615999196,2055.1591417999007,2055.6600615999196,2055.1591417999007,2055.6600615999196,2053.9407475999324,None,2055.6600615999196,2056.8450875999406,1.2400000000000009,2056.8618044999894,None,2057.6129436999327,None,,,,,,,[1.182],2.650000000000002,0.7,11043,002,2024_Mar_21_1305,MFTM_A_new1021,2021.2.3,59.243285531449665,
,,,,,,,,stim/Instruction_adaptive.png,conditions/adaptive.xlsx,test,-0.6,-0.6,-0.6,0.6,0.6,left,L,,,,,0,1,1,1,0,10,10,7,,,,,,,,,,,,,,,,,,,,,,,,,,,,,,,,,,,,,,,,,,,,2058.1150427999673,None,left,1,0.8475556999910623,2058.614816699992,2060.1670692999614,2058.614816699992,2059.6666302999947,2058.614816699992,2059.6666302999947,2058.614816699992,2059.6666302999947,2058.614816699992,2059.6666302999947,2058.614816699992,2059.6666302999947,2059.6498306998983,2060.14999299997,2059.6498306998983,2060.14999299997,2059.6498306998983,2060.14999299997,2059.6498306998983,2060.14999299997,2059.6498306998983,2060.14999299997,2059.6498306998983,2060.14999299997,2059.6498306998983,2060.14999299997,2059.6498306998983,2060.14999299997,2058.614816699992,None,2060.14999299997,2061.3689512999263,1.0500000000000007,2061.385423599975,None,2062.1374134999933,None,,,,,,,[1.20636364],2.8500000000000023,0.7272727272727273,11043,002,2024_Mar_21_1305,MFTM_A_new1021,2021.2.3,59.243285531449665,
,,,,,,,,stim/Instruction_adaptive.png,conditions/adaptive.xlsx,test,0.6,0.6,0.6,-0.6,-0.6,right,R,,,,,0,1,1,1,0,11,11,54,,,,,,,,,,,,,,,,,,,,,,,,,,,,,,,,,,,,,,,,,,,,2062.6372992999386,None,right,1,1.2603245999198407,2063.1380254999967,2064.557754499954,2063.1380254999967,2064.0566869999748,2063.1380254999967,2064.0566869999748,2063.1380254999967,2064.0566869999748,2063.1380254999967,2064.0566869999748,2063.1380254999967,2064.0566869999748,2064.0401448999764,2064.541019199998,2064.0401448999764,2064.541019199998,2064.0401448999764,2064.541019199998,2064.0401448999764,2064.541019199998,2064.0401448999764,2064.541019199998,2064.0401448999764,2064.541019199998,2064.0401448999764,2064.541019199998,2064.0401448999764,2064.541019199998,2063.1380254999967,None,2064.541019199998,None,0.9100000000000006,2065.8094710999867,None,2066.5607057999587,None,,,,,,,[1.23833333],3.0200000000000022,0.75,11043,002,2024_Mar_21_1305,MFTM_A_new1021,2021.2.3,59.243285531449665,
,,,,,,,,stim/Instruction_adaptive.png,conditions/adaptive.xlsx,test,0.6,0.6,0.6,-0.6,-0.6,right,R,,,,,0,1,1,1,0,12,12,36,,,,,,,,,,,,,,,,,,,,,,,,,,,,,,,,,,,,,,,,,,,,2067.0606385999126,None,right,1,2.5249514000024647,2067.5612575999694,2068.8805671999,2067.5612575999694,2068.379623399931,2067.5612575999694,2068.379623399931,2067.5612575999694,2068.379623399931,2067.5612575999694,2068.379623399931,2067.5612575999694,2068.379623399931,2068.3463984999107,2068.846765999915,2068.3463984999107,2068.846765999915,2068.3463984999107,2068.846765999915,2068.3463984999107,2068.846765999915,2068.3463984999107,2068.846765999915,2068.3463984999107,2068.846765999915,2068.3463984999107,2068.846765999915,2068.3463984999107,2068.846765999915,2067.5612575999694,None,2068.846765999915,2070.1326243999647,0.8100000000000005,2070.166295700008,None,2070.917186299921,None,,,,,,,[1.27307692],3.1800000000000024,0.7692307692307693,11043,002,2024_Mar_21_1305,MFTM_A_new1021,2021.2.3,59.243285531449665,
,,,,,,,,stim/Instruction_adaptive.png,conditions/adaptive.xlsx,test,0.6,0.6,0.6,-0.6,-0.6,right,R,,,,,0,1,1,1,0,13,13,2,,,,,,,,,,,,,,,,,,,,,,,,,,,,,,,,,,,,,,,,,,,,2071.4177628000034,None,right,1,3.176746299955994,2071.9179311000044,2073.1538509000093,2071.9179311000044,2072.652395299985,2071.9179311000044,2072.652395299985,2071.9179311000044,2072.652395299985,2071.9179311000044,2072.652395299985,2071.9179311000044,2072.652395299985,2072.636661699973,2073.1370904999785,2072.636661699973,2073.1370904999785,2072.636661699973,2073.1370904999785,2072.636661699973,2073.1370904999785,2072.636661699973,2073.1370904999785,2072.636661699973,2073.1370904999785,2072.636661699973,2073.1370904999785,2072.636661699973,2073.1370904999785,2071.9179311000044,None,2073.1370904999785,2075.122818399919,0.7300000000000004,2075.139270799933,None,2075.8911602000007,None,,,,,,,[1.30857143],3.3200000000000025,0.7857142857142857,11043,002,2024_Mar_21_1305,MFTM_A_new1021,2021.2.3,59.243285531449665,
,,,,,,,,stim/Instruction_adaptive.png,conditions/adaptive.xlsx,test,-0.6,-0.6,-0.6,0.6,0.6,left,L,,,,,0,1,1,1,0,14,14,99,,,,,,,,,,,,,,,,,,,,,,,,,,,,,,,,,,,,,,,,,,,,2076.39161349996,None,left,1,2.8664850998902693,2076.8919489999535,2078.061079100007,2076.8919489999535,2077.55976939993,2076.8919489999535,2077.55976939993,2076.8919489999535,2077.55976939993,2076.8919489999535,2077.55976939993,2076.8919489999535,2077.55976939993,2077.542921599932,2078.044705799897,2077.542921599932,2078.044705799897,2077.542921599932,2078.044705799897,2077.542921599932,2078.044705799897,2077.542921599932,2078.044705799897,2077.542921599932,2078.044705799897,2077.542921599932,2078.044705799897,2077.542921599932,2078.044705799897,2076.8919489999535,None,2078.044705799897,2079.7798089999706,0.6600000000000004,2079.7964124999708,None,2080.5480725999223,None,,,,,,,[1.344],3.4400000000000026,0.8,11043,002,2024_Mar_21_1305,MFTM_A_new1021,2021.2.3,59.243285531449665,
,,,,,,,,stim/Instruction_adaptive.png,conditions/adaptive.xlsx,test,0.6,0.6,0.6,-0.6,-0.6,right,R,,,,,0,1,1,1,0,15,15,80,,,,,,,,,,,,,,,,,,,,,,,,,,,,,,,,,,,,,,,,,,,,2081.04834749992,None,right,1,2.561043000081554,2081.549808999989,2082.6675506999018,2081.549808999989,2082.1675395999337,2081.549808999989,2082.1675395999337,2081.549808999989,2082.1675395999337,2081.549808999989,2082.1675395999337,2081.549808999989,2082.1675395999337,2082.1509197999258,2082.651574999909,2082.1509197999258,2082.651574999909,2082.1509197999258,2082.651574999909,2082.1509197999258,2082.651574999909,2082.1509197999258,2082.651574999909,2082.1509197999258,2082.651574999909,2082.1509197999258,2082.651574999909,2082.1509197999258,2082.651574999909,2081.549808999989,None,2082.6349988,2084.137060799985,0.6100000000000003,2084.1708677000133,None,2084.9207863999764,None,,,,,,,[1.378125],3.5600000000000027,0.8125,11043,002,2024_Mar_21_1305,MFTM_A_new1021,2021.2.3,59.243285531449665,
,,,,,,,,stim/Instruction_adaptive.png,conditions/adaptive.xlsx,test,0.6,0.6,0.6,-0.6,-0.6,right,R,,,,,0,1,1,1,0,16,16,62,,,,,,,,,,,,,,,,,,,,,,,,,,,,,,,,,,,,,,,,,,,,2085.4224261000054,None,right,1,2.636745600029826,2085.9221610999666,2086.9914957999717,2085.9221610999666,2086.490498399944,2085.9221610999666,2086.490498399944,2085.9221610999666,2086.490498399944,2085.9221610999666,2086.490498399944,2085.9221610999666,2086.490498399944,2086.457075299928,2086.9580684999237,2086.457075299928,2086.9580684999237,2086.457075299928,2086.9580684999237,2086.457075299928,2086.9580684999237,2086.457075299928,2086.9580684999237,2086.457075299928,2086.9580684999237,2086.457075299928,2086.9580684999237,2086.457075299928,2086.9580684999237,2085.9221610999666,None,2086.9580684999237,2088.5762491999194,0.5600000000000003,2088.5928929999936,None,2089.344687799923,None,,,,,,,[1.41117647],3.660000000000003,0.8235294117647058,11043,002,2024_Mar_21_1305,MFTM_A_new1021,2021.2.3,59.243285531449665,
,,,,,,,,stim/Instruction_adaptive.png,conditions/adaptive.xlsx,test,0.6,0.6,0.6,-0.6,-0.6,right,R,,,,,0,1,1,1,0,17,17,82,,,,,,,,,,,,,,,,,,,,,,,,,,,,,,,,,,,,,,,,,,,,2089.8453329999465,None,left,0,2.9564339000498876,2090.346416599932,2091.3814393999055,2090.346416599932,2090.8965951999417,2090.346416599932,2090.8965951999417,2090.346416599932,2090.8965951999417,2090.346416599932,2090.8965951999417,2090.346416599932,2090.8965951999417,2090.8470211999957,2091.347739699995,2090.8470211999957,2091.347739699995,2090.8470211999957,2091.347739699995,2090.8470211999957,2091.347739699995,2090.8470211999957,2091.347739699995,2090.8470211999957,2091.347739699995,2090.8470211999957,2091.347739699995,2090.8470211999957,2091.347739699995,2090.346416599932,None,2091.347739699995,2093.3343269999605,0.5200000000000002,2093.367337899981,None,2094.11818869994,None,,,,,,,[1.44277778],3.3800000000000026,0.7777777777777778,11043,002,2024_Mar_21_1305,MFTM_A_new1021,2021.2.3,59.243285531449665,
,,,,,,,,stim/Instruction_adaptive.png,conditions/adaptive.xlsx,test,0.6,0.6,0.6,-0.6,-0.6,right,R,,,,,0,1,1,1,0,18,18,56,,,,,,,,,,,,,,,,,,,,,,,,,,,,,,,,,,,,,,,,,,,,2094.618853299995,None,left,0,3.415603999979794,2095.1196314999834,2096.2549120999174,2095.1196314999834,2095.754572200007,2095.1196314999834,2095.754572200007,2095.1196314999834,2095.754572200007,2095.1196314999834,2095.754572200007,2095.1196314999834,2095.754572200007,2095.7378703999566,2096.2388285999186,2095.7378703999566,2096.2388285999186,2095.7378703999566,2096.2388285999186,2095.7378703999566,2096.2388285999186,2095.7378703999566,2096.2388285999186,2095.7378703999566,2096.2388285999186,2095.7378703999566,2096.2388285999186,2095.7378703999566,2096.2388285999186,2095.1196314999834,None,2096.2388285999186,2098.5581347999396,0.6300000000000003,2098.5748743999284,None,2099.3266743998975,None,,,,,,,[1.46526316],3.0900000000000025,0.7368421052631579,11043,002,2024_Mar_21_1305,MFTM_A_new1021,2021.2.3,59.243285531449665,
,,,,,,,,stim/Instruction_adaptive.png,conditions/adaptive.xlsx,test,-0.6,-0.6,-0.6,0.6,0.6,left,L,,,,,0,1,1,1,0,19,19,57,,,,,,,,,,,,,,,,,,,,,,,,,,,,,,,,,,,,,,,,,,,,2099.8267650000053,None,left,1,1.128156799939461,2100.327302499907,2101.5962820999557,2100.327302499907,2101.0952882999554,2100.327302499907,2101.0952882999554,2100.327302499907,2101.0952882999554,2100.327302499907,2101.0952882999554,2100.327302499907,2101.0952882999554,2101.0798838000046,2101.5797677999362,2101.0798838000046,2101.5797677999362,2101.0798838000046,2101.5797677999362,2101.0798838000046,2101.5797677999362,2101.0798838000046,2101.5797677999362,2101.0798838000046,2101.5797677999362,2101.0798838000046,2101.5797677999362,2101.0798838000046,2101.5797677999362,2100.327302499907,None,2101.5797677999362,2103.0647696999367,0.7700000000000005,2103.080906999996,None,2103.832725299988,None,,,,,,,[1.4785],3.2000000000000024,0.75,11043,002,2024_Mar_21_1305,MFTM_A_new1021,2021.2.3,59.243285531449665,
,,,,,,,,stim/Instruction_adaptive.png,conditions/adaptive.xlsx,test,0.6,0.6,0.6,-0.6,-0.6,right,R,,,,,0,1,1,1,0,20,20,90,,,,,,,,,,,,,,,,,,,,,,,,,,,,,,,,,,,,,,,,,,,,2104.3342469999334,None,right,1,1.5554877000395209,2104.852127799997,2106.0869799999055,2104.852127799997,2105.586213100003,2104.852127799997,2105.586213100003,2104.852127799997,2105.586213100003,2104.852127799997,2105.586213100003,2104.852127799997,2105.586213100003,2105.535314799985,2106.0360869999276,2105.535314799985,2106.0360869999276,2105.535314799985,2106.0360869999276,2105.535314799985,2106.0360869999276,2105.535314799985,2106.0360869999276,2105.535314799985,2106.0360869999276,2105.535314799985,2106.0360869999276,2105.535314799985,2106.0360869999276,2104.852127799997,None,2106.0360869999276,2107.5383413999807,0.7200000000000004,2107.5714106999803,None,2108.3226379000116,None,,,,,,,[1.49285714],3.2900000000000027,0.7619047619047619,11043,002,2024_Mar_21_1305,MFTM_A_new1021,2021.2.3,59.243285531449665,
,,,,,,,,stim/Instruction_adaptive.png,conditions/adaptive.xlsx,test,-0.6,-0.6,-0.6,0.6,0.6,left,L,,,,,0,1,1,1,0,21,21,47,,,,,,,,,,,,,,,,,,,,,,,,,,,,,,,,,,,,,,,,,,,,2108.8243488000007,None,left,1,1.7878522999817505,2109.3242210999597,2110.5102036999306,2109.3242210999597,2110.0086060999893,2109.3242210999597,2110.0086060999893,2109.3242210999597,2110.0086060999893,2109.3242210999597,2110.0086060999893,2109.3242210999597,2110.0086060999893,2109.9760564999888,2110.476028300007,2109.9760564999888,2110.476028300007,2109.9760564999888,2110.476028300007,2109.9760564999888,2110.476028300007,2109.9760564999888,2110.476028300007,2109.9760564999888,2110.476028300007,2109.9760564999888,2110.476028300007,2109.9760564999888,2110.476028300007,2109.3242210999597,None,2110.476028300007,2111.99496869999,0.6700000000000004,2112.0115809999406,None,2112.762590999948,None,,,,,,,[1.50818182],3.3800000000000026,0.7727272727272727,11043,002,2024_Mar_21_1305,MFTM_A_new1021,2021.2.3,59.243285531449665,
,,,,,,,,stim/Instruction_adaptive.png,conditions/adaptive.xlsx,test,-0.6,-0.6,-0.6,0.6,0.6,left,L,,,,,0,1,1,1,0,22,22,91,,,,,,,,,,,,,,,,,,,,,,,,,,,,,,,,,,,,,,,,,,,,2113.263297699974,None,right,0,2.75551639997866,2113.7642109999433,2114.899446299998,2113.7642109999433,2114.3984744999325,2113.7642109999433,2114.3984744999325,2113.7642109999433,2114.3984744999325,2113.7642109999433,2114.3984744999325,2113.7642109999433,2114.3984744999325,2114.381704999949,2114.8827194999903,2114.381704999949,2114.8827194999903,2114.381704999949,2114.8827194999903,2114.381704999949,2114.8827194999903,2114.381704999949,2114.8827194999903,2114.381704999949,2114.8827194999903,2114.381704999949,2114.8827194999903,2114.381704999949,2114.8827194999903,2113.7642109999433,None,2114.8827194999903,2116.5353053999133,0.6300000000000003,2116.5517542999005,None,2117.3028323999606,None,,,,,,,[1.52391304],3.1400000000000023,0.7391304347826086,11043,002,2024_Mar_21_1305,MFTM_A_new1021,2021.2.3,59.243285531449665,
,,,,,,,,stim/Instruction_adaptive.png,conditions/adaptive.xlsx,test,0.6,0.6,0.6,-0.6,-0.6,right,R,,,,,0,1,1,1,0,23,23,72,,,,,,,,,,,,,,,,,,,,,,,,,,,,,,,,,,,,,,,,,,,,2117.804727599956,None,right,1,1.2469641999341547,2118.3044164999155,2119.556285999948,2118.3044164999155,2119.0556859999197,2118.3044164999155,2119.0556859999197,2118.3044164999155,2119.0556859999197,2118.3044164999155,2119.0556859999197,2118.3044164999155,2119.0556859999197,2119.0388996999245,2119.540294199949,2119.0388996999245,2119.540294199949,2119.0388996999245,2119.540294199949,2119.0388996999245,2119.540294199949,2119.0388996999245,2119.540294199949,2119.0388996999245,2119.540294199949,2119.0388996999245,2119.540294199949,2119.0388996999245,2119.540294199949,2118.3044164999155,None,2119.540294199949,2121.0752406999236,0.7500000000000004,2121.091612899909,None,2121.843188999919,None,,,,,,,[1.53333333],3.230000000000002,0.75,11043,002,2024_Mar_21_1305,MFTM_A_new1021,2021.2.3,59.243285531449665,
,,,,,,,,stim/Instruction_adaptive.png,conditions/adaptive.xlsx,test,0.6,0.6,0.6,-0.6,-0.6,right,R,,,,,0,1,1,1,0,24,24,18,,,,,,,,,,,,,,,,,,,,,,,,,,,,,,,,,,,,,,,,,,,,2122.3444131999277,None,right,1,3.387092799996026,2122.844587199972,2124.0470561999828,2122.844587199972,2123.546788299922,2122.844587199972,2123.546788299922,2122.844587199972,2123.546788299922,2122.844587199972,2123.546788299922,2122.844587199972,2123.546788299922,2123.529320499976,2124.0301745999604,2123.529320499976,2124.0301745999604,2123.529320499976,2124.0301745999604,2123.529320499976,2124.0301745999604,2123.529320499976,2124.0301745999604,2123.529320499976,2124.0301745999604,2123.529320499976,2124.0301745999604,2123.529320499976,2124.0301745999604,2122.844587199972,None,2124.0301745999604,2126.250278799911,0.7000000000000004,2126.2661416999763,None,2127.0175351999933,None,,,,,,,[1.544],3.3100000000000023,0.76,11043,002,2024_Mar_21_1305,MFTM_A_new1021,2021.2.3,59.243285531449665,
,,,,,,,,stim/Instruction_adaptive.png,conditions/adaptive.xlsx,test,0.6,0.6,0.6,-0.6,-0.6,right,R,,,,,0,1,1,1,0,25,25,66,,,,,,,,,,,,,,,,,,,,,,,,,,,,,,,,,,,,,,,,,,,,2127.5194357999135,None,right,1,2.0448006000369787,2128.019174399902,2129.1877277999884,2128.019174399902,2128.6876812999835,2128.019174399902,2128.6876812999835,2128.019174399902,2128.6876812999835,2128.019174399902,2128.6876812999835,2128.019174399902,2128.6876812999835,2128.6709797999356,2129.1709964999463,2128.6709797999356,2129.1709964999463,2128.6709797999356,2129.1709964999463,2128.6709797999356,2129.1709964999463,2128.6709797999356,2129.1709964999463,2128.6709797999356,2129.1709964999463,2128.6709797999356,2129.1709964999463,2128.6709797999356,2129.1709964999463,2128.019174399902,None,2129.1709964999463,None,0.6600000000000004,2130.758604499977,None,2131.5087107999716,None,,,,,,,[1.55538462],3.3800000000000026,0.7692307692307693,11043,002,2024_Mar_21_1305,MFTM_A_new1021,2021.2.3,59.243285531449665,
,,,,,,,,stim/Instruction_adaptive.png,conditions/adaptive.xlsx,test,0.6,0.6,0.6,-0.6,-0.6,right,R,,,,,0,1,1,1,0,26,26,22,,,,,,,,,,,,,,,,,,,,,,,,,,,,,,,,,,,,,,,,,,,,2132.0091169999214,None,right,1,1.9948251000605524,2132.509120999952,2133.6453030999983,2132.509120999952,2133.1436006999575,2132.509120999952,2133.1436006999575,2132.509120999952,2133.1436006999575,2132.509120999952,2133.1436006999575,2132.509120999952,2133.1436006999575,2133.126633399981,2133.6282074999763,2133.126633399981,2133.6282074999763,2133.126633399981,2133.6282074999763,2133.126633399981,2133.6282074999763,2133.126633399981,2133.6282074999763,2133.126633399981,2133.6282074999763,2133.126633399981,2133.6282074999763,2133.126633399981,2133.6282074999763,2132.509120999952,None,2133.6282074999763,2135.1970871000085,0.6300000000000003,2135.231307799928,None,2135.9829181999667,None,,,,,,,[1.56703704],3.450000000000003,0.7777777777777778,11043,002,2024_Mar_21_1305,MFTM_A_new1021,2021.2.3,59.243285531449665,
,,,,,,,,stim/Instruction_adaptive.png,conditions/adaptive.xlsx,test,0.6,0.6,0.6,-0.6,-0.6,right,R,,,,,0,1,1,1,0,27,27,40,,,,,,,,,,,,,,,,,,,,,,,,,,,,,,,,,,,,,,,,,,,,2136.482258999953,None,right,1,2.273380700033158,2136.9825910999207,2138.0849578999914,2136.9825910999207,2137.5840699999826,2136.9825910999207,2137.5840699999826,2136.9825910999207,2137.5840699999826,2136.9825910999207,2137.5840699999826,2136.9825910999207,2137.5840699999826,2137.568043499952,2138.0683109000092,2137.568043499952,2138.0683109000092,2137.568043499952,2138.0683109000092,2137.568043499952,2138.0683109000092,2137.568043499952,2138.0683109000092,2137.568043499952,2138.0683109000092,2137.568043499952,2138.0683109000092,2137.568043499952,2138.0683109000092,2136.9825910999207,None,2138.0683109000092,2139.654004999902,0.6000000000000003,2139.6875974999275,None,2140.437620599987,None,,,,,,,[1.57892857],3.5200000000000027,0.7857142857142857,11043,002,2024_Mar_21_1305,MFTM_A_new1021,2021.2.3,59.243285531449665,
,,,,,,,,stim/Instruction_adaptive.png,conditions/adaptive.xlsx,test,0.6,0.6,0.6,-0.6,-0.6,right,R,,,,,0,1,1,1,0,28,28,64,,,,,,,,,,,,,,,,,,,,,,,,,,,,,,,,,,,,,,,,,,,,2140.939234899939,None,left,0,1.928781499969773,2141.4393829999026,2142.5247800999787,2141.4393829999026,2142.0236950999824,2141.4393829999026,2142.0236950999824,2141.4393829999026,2142.0236950999824,2141.4393829999026,2142.0236950999824,2141.4393829999026,2142.0236950999824,2141.990580499987,2142.4913131999783,2141.990580499987,2142.4913131999783,2141.990580499987,2142.4913131999783,2141.990580499987,2142.4913131999783,2141.990580499987,2142.4913131999783,2141.990580499987,2142.4913131999783,2141.990580499987,2142.4913131999783,2141.990580499987,2142.4913131999783,2141.4393829999026,None,2142.4913131999783,2144.093214099994,0.5700000000000003,2144.1092900999356,None,2144.862000999972,None,,,,,,,[1.59103448],3.3400000000000025,0.7586206896551724,11043,002,2024_Mar_21_1305,MFTM_A_new1021,2021.2.3,59.243285531449665,
,,,,,,,,stim/Instruction_adaptive.png,conditions/adaptive.xlsx,test,0.6,0.6,0.6,-0.6,-0.6,right,R,,,,,0,1,1,1,0,29,29,70,,,,,,,,,,,,,,,,,,,,,,,,,,,,,,,,,,,,,,,,,,,,2145.3619914999,None,right,1,2.9545488000148907,2145.862423299928,2147.0153233999154,2145.862423299928,2146.513686699909,2145.862423299928,2146.513686699909,2145.862423299928,2146.513686699909,2145.862423299928,2146.513686699909,2145.862423299928,2146.513686699909,2146.4969587000087,2146.9983007999836,2146.4969587000087,2146.9983007999836,2146.4969587000087,2146.9983007999836,2146.4969587000087,2146.9983007999836,2146.4969587000087,2146.9983007999836,2146.4969587000087,2146.9983007999836,2146.4969587000087,2146.9983007999836,2146.4969587000087,2146.9983007999836,2145.862423299928,None,2146.9983007999836,2148.8339567999355,0.6500000000000004,2148.850204099901,None,2149.6020745999413,None,,,,,,,[1.59966667],3.4000000000000026,0.7666666666666667,11043,002,2024_Mar_21_1305,MFTM_A_new1021,2021.2.3,59.243285531449665,
,,,,,,,,stim/Instruction_adaptive.png,conditions/adaptive.xlsx,test,-0.6,-0.6,-0.6,0.6,0.6,left,L,,,,,0,1,1,1,0,30,30,73,,,,,,,,,,,,,,,,,,,,,,,,,,,,,,,,,,,,,,,,,,,,2150.103360799956,None,left,1,1.1738430999685079,2150.603032899904,2151.7388600999257,2150.603032899904,2151.2375944999512,2150.603032899904,2151.2375944999512,2150.603032899904,2151.2375944999512,2150.603032899904,2151.2375944999512,2150.603032899904,2151.2375944999512,2151.2046772999456,2151.7053078999743,2151.2046772999456,2151.7053078999743,2151.2046772999456,2151.7053078999743,2151.2046772999456,2151.7053078999743,2151.2046772999456,2151.7053078999743,2151.2046772999456,2151.7053078999743,2151.2046772999456,2151.7053078999743,2151.2046772999456,2151.7053078999743,2150.603032899904,None,2151.7053078999743,2153.325824499945,0.6200000000000003,2153.340302299941,None,2154.0916582999052,None,,,,,,,[1.60870968],3.4600000000000026,0.7741935483870968,11043,002,2024_Mar_21_1305,MFTM_A_new1021,2021.2.3,59.243285531449665,
,,,,,,,,stim/Instruction_adaptive.png,conditions/adaptive.xlsx,test,0.6,0.6,0.6,-0.6,-0.6,right,R,,,,,0,1,1,1,0,31,31,44,,,,,,,,,,,,,,,,,,,,,,,,,,,,,,,,,,,,,,,,,,,,2154.59289859992,None,right,1,2.23595319991,2155.0931863998994,2156.1958257999504,2155.0931863998994,2155.6941193999955,2155.0931863998994,2155.6941193999955,2155.0931863998994,2155.6941193999955,2155.0931863998994,2155.6941193999955,2155.0931863998994,2155.6941193999955,2155.6773709999397,2156.1783334999345,2155.6773709999397,2156.1783334999345,2155.6773709999397,2156.1783334999345,2155.6773709999397,2156.1783334999345,2155.6773709999397,2156.1783334999345,2155.6773709999397,2156.1783334999345,2155.6773709999397,2156.1783334999345,2155.6773709999397,2156.1783334999345,2155.0931863998994,None,2156.1783334999345,2157.797313899966,0.6000000000000003,2157.813918699976,None,2158.5661849000026,None,,,,,,,[1.6178125],3.5200000000000027,0.78125,11043,002,2024_Mar_21_1305,MFTM_A_new1021,2021.2.3,59.243285531449665,
,,,,,,,,stim/Instruction_adaptive.png,conditions/adaptive.xlsx,test,-0.6,-0.6,-0.6,0.6,0.6,left,L,,,,,0,1,1,1,0,32,32,89,,,,,,,,,,,,,,,,,,,,,,,,,,,,,,,,,,,,,,,,,,,,2159.0658896999666,None,left,1,1.8255067999707535,2159.5672326999484,2160.652670499985,2159.5672326999484,2160.1508443999337,2159.5672326999484,2160.1508443999337,2159.5672326999484,2160.1508443999337,2159.5672326999484,2160.1508443999337,2159.5672326999484,2160.1508443999337,2160.11745219992,2160.618175499956,2160.11745219992,2160.618175499956,2160.11745219992,2160.618175499956,2160.11745219992,2160.618175499956,2160.11745219992,2160.618175499956,2160.11745219992,2160.618175499956,2160.11745219992,2160.618175499956,2160.11745219992,2160.618175499956,2159.5672326999484,None,2160.618175499956,2162.255257699988,0.5700000000000003,2162.289180499967,None,2163.0394593999954,None,,,,,,,[1.62727273],3.5800000000000027,0.7878787878787878,11043,002,2024_Mar_21_1305,MFTM_A_new1021,2021.2.3,59.243285531449665,
,,,,,,,,stim/Instruction_adaptive.png,conditions/adaptive.xlsx,test,-0.6,-0.6,-0.6,0.6,0.6,left,L,,,,,0,1,1,1,0,33,33,15,,,,,,,,,,,,,,,,,,,,,,,,,,,,,,,,,,,,,,,,,,,,2163.5393166999565,None,left,1,2.9758631999138743,2164.041040199925,2165.0916794999503,2164.041040199925,2164.5916971999686,2164.041040199925,2164.5916971999686,2164.041040199925,2164.5916971999686,2164.041040199925,2164.5916971999686,2164.041040199925,2164.5916971999686,2164.5750600999454,2165.0750214,2164.5750600999454,2165.0750214,2164.5750600999454,2165.0750214,2164.5750600999454,2165.0750214,2164.5750600999454,2165.0750214,2164.5750600999454,2165.0750214,2164.5750600999454,2165.0750214,2164.5750600999454,2165.0750214,2164.041040199925,None,2165.0750214,2167.0445814999985,0.5500000000000003,2167.061244499986,None,2167.8128710999154,None,,,,,,,[1.63676471],3.6300000000000026,0.7941176470588235,11043,002,2024_Mar_21_1305,MFTM_A_new1021,2021.2.3,59.243285531449665,
,,,,,,,,stim/Instruction_adaptive.png,conditions/adaptive.xlsx,test,0.6,0.6,0.6,-0.6,-0.6,right,R,,,,,0,1,1,1,0,34,34,88,,,,,,,,,,,,,,,,,,,,,,,,,,,,,,,,,,,,,,,,,,,,2168.3136872999603,None,left,0,2.643661900074221,2168.814043599996,2169.849699299899,2168.814043599996,2169.3480423999717,2168.814043599996,2169.3480423999717,2168.814043599996,2169.3480423999717,2168.814043599996,2169.3480423999717,2168.814043599996,2169.3480423999717,2169.3319483000087,2169.833174399915,2169.3319483000087,2169.833174399915,2169.3319483000087,2169.833174399915,2169.3319483000087,2169.833174399915,2169.3319483000087,2169.833174399915,2169.3319483000087,2169.833174399915,2169.3319483000087,2169.833174399915,2169.3319483000087,2169.833174399915,2168.814043599996,None,2169.833174399915,2171.4847029999364,0.5300000000000002,2171.518678399967,None,2172.2690663000103,None,,,,,,,[1.64628571],3.4800000000000026,0.7714285714285715,11043,002,2024_Mar_21_1305,MFTM_A_new1021,2021.2.3,59.243285531449665,
,,,,,,,,stim/Instruction_adaptive.png,conditions/adaptive.xlsx,test,-0.6,-0.6,-0.6,0.6,0.6,left,L,,,,,0,1,1,1,0,35,35,69,,,,,,,,,,,,,,,,,,,,,,,,,,,,,,,,,,,,,,,,,,,,2172.769821099937,None,left,1,1.9464737999951467,2173.270678299945,2174.372950899997,2173.270678299945,2173.871511699981,2173.270678299945,2173.871511699981,2173.270678299945,2173.871511699981,2173.270678299945,2173.871511699981,2173.270678299945,2173.871511699981,2173.83810980001,2174.339808099903,2173.83810980001,2174.339808099903,2173.83810980001,2174.339808099903,2173.83810980001,2174.339808099903,2173.83810980001,2174.339808099903,2173.83810980001,2174.339808099903,2173.83810980001,2174.339808099903,2173.83810980001,2174.339808099903,2173.270678299945,None,2174.339808099903,2176.0081336000003,0.5900000000000003,2176.024399899994,None,2176.7765925999265,None,,,,,,,[1.65361111],3.530000000000003,0.7777777777777778,11043,002,2024_Mar_21_1305,MFTM_A_new1021,2021.2.3,59.243285531449665,
,,,,,,,,stim/Instruction_adaptive.png,conditions/adaptive.xlsx,test,0.6,0.6,0.6,-0.6,-0.6,right,R,,,,,0,1,1,1,0,36,36,58,,,,,,,,,,,,,,,,,,,,,,,,,,,,,,,,,,,,,,,,,,,,2177.2767249000026,None,left,0,2.8383665999863297,2177.794997199904,2178.8791356999427,2177.794997199904,2178.3782776999287,2177.794997199904,2178.3782776999287,2177.794997199904,2178.3782776999287,2177.794997199904,2178.3782776999287,2177.794997199904,2178.3782776999287,2178.329326899955,2178.8293001999846,2178.329326899955,2178.8293001999846,2178.329326899955,2178.8293001999846,2178.329326899955,2178.8293001999846,2178.329326899955,2178.8293001999846,2178.329326899955,2178.8293001999846,2178.329326899955,2178.8293001999846,2178.329326899955,2178.8293001999846,2177.794997199904,None,2178.8293001999846,2180.6484266999178,0.5700000000000003,2180.6827465000097,None,2181.4338849999476,None,,,,,,,[1.66108108],3.3800000000000026,0.7567567567567568,11043,002,2024_Mar_21_1305,MFTM_A_new1021,2021.2.3,59.243285531449665,
,,,,,,,,stim/Instruction_adaptive.png,conditions/adaptive.xlsx,test,0.6,0.6,0.6,-0.6,-0.6,right,R,,,,,0,1,1,1,0,37,37,98,,,,,,,,,,,,,,,,,,,,,,,,,,,,,,,,,,,,,,,,,,,,2181.9341581999324,None,right,1,1.4143954999744892,2182.4344976999564,2183.5694019999355,2182.4344976999564,2183.068728199927,2182.4344976999564,2183.068728199927,2182.4344976999564,2183.068728199927,2182.4344976999564,2183.068728199927,2182.4344976999564,2183.068728199927,2183.052108899923,2183.5526757999323,2183.052108899923,2183.5526757999323,2183.052108899923,2183.5526757999323,2183.052108899923,2183.5526757999323,2183.052108899923,2183.5526757999323,2183.052108899923,2183.5526757999323,2183.052108899923,2183.5526757999323,2183.052108899923,2183.5526757999323,2182.4344976999564,None,2183.5526757999323,2185.222735999967,0.6300000000000003,2185.2382899000077,None,2185.9901412999025,None,,,,,,,[1.66657895],3.4400000000000026,0.7631578947368421,11043,002,2024_Mar_21_1305,MFTM_A_new1021,2021.2.3,59.243285531449665,
,,,,,,,,stim/Instruction_adaptive.png,conditions/adaptive.xlsx,test,-0.6,-0.6,-0.6,0.6,0.6,left,L,,,,,0,1,1,1,0,38,38,63,,,,,,,,,,,,,,,,,,,,,,,,,,,,,,,,,,,,,,,,,,,,2186.4905852999073,None,right,0,2.3526670000283048,2187.009520499967,2188.126928899903,2187.009520499967,2187.6264100999106,2187.009520499967,2187.6264100999106,2187.009520499967,2187.6264100999106,2187.009520499967,2187.6264100999106,2187.009520499967,2187.6264100999106,2187.5931498999707,2188.0937754999613,2187.5931498999707,2188.0937754999613,2187.5931498999707,2188.0937754999613,2187.5931498999707,2188.0937754999613,2187.5931498999707,2188.0937754999613,2187.5931498999707,2188.0937754999613,2187.5931498999707,2188.0937754999613,2187.5931498999707,2188.0937754999613,2187.009520499967,None,2188.0937754999613,2189.7789879000047,0.6100000000000003,2189.795256100013,None,2190.5475735999644,None,,,,,,,[1.67230769],3.2900000000000027,0.7435897435897436,11043,002,2024_Mar_21_1305,MFTM_A_new1021,2021.2.3,59.243285531449665,
,,,,,,,,stim/Instruction_adaptive.png,conditions/adaptive.xlsx,test,0.6,0.6,0.6,-0.6,-0.6,right,R,,,,,0,1,1,1,0,39,39,8,,,,,,,,,,,,,,,,,,,,,,,,,,,,,,,,,,,,,,,,,,,,2191.0474984999746,None,left,0,1.9180377000011504,2191.5479058999335,2192.7333769999677,2191.5479058999335,2192.2326413999544,2191.5479058999335,2192.2326413999544,2191.5479058999335,2192.2326413999544,2191.5479058999335,2192.2326413999544,2191.5479058999335,2192.2326413999544,2192.1995763999876,2192.6999485999113,2192.1995763999876,2192.6999485999113,2192.1995763999876,2192.6999485999113,2192.1995763999876,2192.6999485999113,2192.1995763999876,2192.6999485999113,2192.1995763999876,2192.6999485999113,2192.1995763999876,2192.6999485999113,2192.1995763999876,2192.6999485999113,2191.5479058999335,None,2192.6999485999113,2194.3866675999016,0.6700000000000004,2194.402410299983,None,2195.154062799993,None,,,,,,,[1.67625],3.1300000000000026,0.725,11043,002,2024_Mar_21_1305,MFTM_A_new1021,2021.2.3,59.243285531449665,
,,,,,,,,stim/Instruction_adaptive.png,conditions/adaptive.xlsx,test,0.6,0.6,0.6,-0.6,-0.6,right,R,,,,,0,1,1,1,0,40,40,12,,,,,,,,,,,,,,,,,,,,,,,,,,,,,,,,,,,,,,,,,,,,2195.6552296999143,None,right,1,1.1509003998944536,2196.1548043999355,2197.4069911999395,2196.1548043999355,2196.9070391999558,2196.1548043999355,2196.9070391999558,2196.1548043999355,2196.9070391999558,2196.1548043999355,2196.9070391999558,2196.1548043999355,2196.9070391999558,2196.8895515999757,2197.3903742999537,2196.8895515999757,2197.3903742999537,2196.8895515999757,2197.3903742999537,2196.8895515999757,2197.3903742999537,2196.8895515999757,2197.3903742999537,2196.8895515999757,2197.3903742999537,2196.8895515999757,2197.3903742999537,2196.8895515999757,2197.3903742999537,2196.1548043999355,None,2197.3903742999537,2199.076444700011,0.7500000000000004,2199.1101249000058,None,2199.8609494999982,None,,,,,,,[1.67804878],3.190000000000002,0.7317073170731707,11043,002,2024_Mar_21_1305,MFTM_A_new1021,2021.2.3,59.243285531449665,
,,,,,,,,stim/Instruction_adaptive.png,conditions/adaptive.xlsx,test,0.6,0.6,0.6,-0.6,-0.6,right,R,,,,,0,1,1,1,0,41,41,30,,,,,,,,,,,,,,,,,,,,,,,,,,,,,,,,,,,,,,,,,,,,2200.3624832999194,None,right,1,1.738872499903664,2200.8632488999283,2202.0981033999706,2200.8632488999283,2201.5972449999535,2200.8632488999283,2201.5972449999535,2200.8632488999283,2201.5972449999535,2200.8632488999283,2201.5972449999535,2200.8632488999283,2201.5972449999535,2201.5644591999007,2202.0645657998975,2201.5644591999007,2202.0645657998975,2201.5644591999007,2202.0645657998975,2201.5644591999007,2202.0645657998975,2201.5644591999007,2202.0645657998975,2201.5644591999007,2202.0645657998975,2201.5644591999007,2202.0645657998975,2201.5644591999007,2202.0645657998975,2200.8632488999283,None,2202.0645657998975,2203.750732299988,0.7200000000000004,2203.7845707999077,None,2204.5349396999227,None,,,,,,,[1.68047619],3.2400000000000024,0.7380952380952381,11043,002,2024_Mar_21_1305,MFTM_A_new1021,2021.2.3,59.243285531449665,
,,,,,,,,stim/Instruction_adaptive.png,conditions/adaptive.xlsx,test,0.6,0.6,0.6,-0.6,-0.6,right,R,,,,,0,1,1,1,0,42,42,20,,,,,,,,,,,,,,,,,,,,,,,,,,,,,,,,,,,,,,,,,,,,2205.0359237999655,None,right,1,1.2991533000022173,2205.519196999958,2206.7210555999773,2205.519196999958,2206.2204586999724,2205.519196999958,2206.2204586999724,2205.519196999958,2206.2204586999724,2205.519196999958,2206.2204586999724,2205.519196999958,2206.2204586999724,2206.2046155999415,2206.704384999932,2206.2046155999415,2206.704384999932,2206.2046155999415,2206.704384999932,2206.2046155999415,2206.704384999932,2206.2046155999415,2206.704384999932,2206.2046155999415,2206.704384999932,2206.2046155999415,2206.704384999932,2206.2046155999415,2206.704384999932,2205.519196999958,None,2206.704384999932,2208.39033929992,0.7000000000000004,2208.406895999913,None,2209.159110899898,None,,,,,,,[1.68325581],3.2900000000000027,0.7441860465116279,11043,002,2024_Mar_21_1305,MFTM_A_new1021,2021.2.3,59.243285531449665,
,,,,,,,,stim/Instruction_adaptive.png,conditions/adaptive.xlsx,test,0.6,0.6,0.6,-0.6,-0.6,right,R,,,,,0,1,1,1,0,43,43,52,,,,,,,,,,,,,,,,,,,,,,,,,,,,,,,,,,,,,,,,,,,,2209.658767099958,None,left,0,1.8507961001014337,2210.159675200004,2211.330573199899,2210.159675200004,2210.8440655999584,2210.159675200004,2210.8440655999584,2210.159675200004,2210.8440655999584,2210.159675200004,2210.8440655999584,2210.159675200004,2210.8440655999584,2210.8105720999883,2211.312083799974,2210.8105720999883,2211.312083799974,2210.8105720999883,2211.312083799974,2210.8105720999883,2211.312083799974,2210.8105720999883,2211.312083799974,2210.8105720999883,2211.312083799974,2210.8105720999883,2211.312083799974,2210.8105720999883,2211.312083799974,2210.159675200004,None,2211.312083799974,2212.99751929997,0.6700000000000004,2213.0478997000027,None,2213.7986692999257,None,,,,,,,[1.68659091],3.150000000000002,0.7272727272727273,11043,002,2024_Mar_21_1305,MFTM_A_new1021,2021.2.3,59.243285531449665,
,,,,,,,,stim/Instruction_adaptive.png,conditions/adaptive.xlsx,test,-0.6,-0.6,-0.6,0.6,0.6,left,L,,,,,0,1,1,1,0,44,44,59,,,,,,,,,,,,,,,,,,,,,,,,,,,,,,,,,,,,,,,,,,,,2214.3011538999854,None,left,1,1.8103823000565171,2214.800196999917,2216.0520591000095,2214.800196999917,2215.5513941999525,2214.800196999917,2215.5513941999525,2214.800196999917,2215.5513941999525,2214.800196999917,2215.5513941999525,2214.800196999917,2215.5513941999525,2215.51844419993,2216.018685699906,2215.51844419993,2216.018685699906,2215.51844419993,2216.018685699906,2215.51844419993,2216.018685699906,2215.51844419993,2216.018685699906,2215.51844419993,2216.018685699906,2215.51844419993,2216.018685699906,2215.51844419993,2216.018685699906,2214.800196999917,None,2216.018685699906,2217.721412099898,0.7400000000000004,2217.7373845999828,None,2218.488843399915,None,,,,,,,[1.68822222],3.2000000000000024,0.7333333333333333,11043,002,2024_Mar_21_1305,MFTM_A_new1021,2021.2.3,59.243285531449665,
,,,,,,,,stim/Instruction_adaptive.png,conditions/adaptive.xlsx,test,-0.6,-0.6,-0.6,0.6,0.6,left,L,,,,,0,1,1,1,0,45,45,79,,,,,,,,,,,,,,,,,,,,,,,,,,,,,,,,,,,,,,,,,,,,2218.9901586999185,None,right,0,3.2479597999481484,2219.490264099906,2220.7257848998997,2219.490264099906,2220.2247206999455,2219.490264099906,2220.2247206999455,2219.490264099906,2220.2247206999455,2219.490264099906,2220.2247206999455,2219.490264099906,2220.2247206999455,2220.1922701000003,2220.69224819995,2220.1922701000003,2220.69224819995,2220.1922701000003,2220.69224819995,2220.1922701000003,2220.69224819995,2220.1922701000003,2220.69224819995,2220.1922701000003,2220.69224819995,2220.1922701000003,2220.69224819995,2220.1922701000003,2220.69224819995,2219.490264099906,None,2220.69224819995,2222.7628004999133,0.7200000000000004,2222.7963038999587,None,2223.5471781999804,None,,,,,,,[1.69021739],3.0500000000000025,0.717391304347826,11043,002,2024_Mar_21_1305,MFTM_A_new1021,2021.2.3,59.243285531449665,
,,,,,,,,stim/Instruction_adaptive.png,conditions/adaptive.xlsx,test,-0.6,-0.6,-0.6,0.6,0.6,left,L,,,,,0,1,1,1,0,46,46,11,,,,,,,,,,,,,,,,,,,,,,,,,,,,,,,,,,,,,,,,,,,,2224.047622199985,None,left,1,2.2386484999442473,2224.5480079000117,2225.84993009991,2224.5480079000117,2225.349738399964,2224.5480079000117,2225.349738399964,2224.5480079000117,2225.349738399964,2224.5480079000117,2225.349738399964,2224.5480079000117,2225.349738399964,2225.3165710999165,2225.8165230999,2225.3165710999165,2225.8165230999,2225.3165710999165,2225.8165230999,2225.3165710999165,2225.8165230999,2225.3165710999165,2225.8165230999,2225.3165710999165,2225.8165230999,2225.3165710999165,2225.8165230999,2225.3165710999165,2225.8165230999,2224.5480079000117,None,2225.8165230999,2227.5200484999223,0.7900000000000005,2227.5533657999476,None,2228.3038275999716,None,,,,,,,[1.6906383],3.1000000000000023,0.723404255319149,11043,002,2024_Mar_21_1305,MFTM_A_new1021,2021.2.3,59.243285531449665,
,,,,,,,,stim/Instruction_adaptive.png,conditions/adaptive.xlsx,test,-0.6,-0.6,-0.6,0.6,0.6,left,L,,,,,0,1,1,1,0,47,47,75,,,,,,,,,,,,,,,,,,,,,,,,,,,,,,,,,,,,,,,,,,,,2228.804387399927,None,left,1,1.4653154000407085,2229.305112299975,2230.590431299992,2229.305112299975,2230.0904033000115,2229.305112299975,2230.0904033000115,2229.305112299975,2230.0904033000115,2229.305112299975,2230.0904033000115,2229.305112299975,2230.0904033000115,2230.056640099967,2230.5569887999445,2230.056640099967,2230.5569887999445,2230.056640099967,2230.5569887999445,2230.056640099967,2230.5569887999445,2230.056640099967,2230.5569887999445,2230.056640099967,2230.5569887999445,2230.056640099967,2230.5569887999445,2230.056640099967,2230.5569887999445,2229.305112299975,None,2230.5569887999445,2232.2598376999376,0.7700000000000005,2232.294076799997,None,2233.045617899974,None,,,,,,,[1.69145833],3.150000000000002,0.7291666666666666,11043,002,2024_Mar_21_1305,MFTM_A_new1021,2021.2.3,59.243285531449665,
,,,,,,,,stim/Instruction_adaptive.png,conditions/adaptive.xlsx,test,0.6,0.6,0.6,-0.6,-0.6,right,R,,,,,0,1,1,1,0,48,48,86,,,,,,,,,,,,,,,,,,,,,,,,,,,,,,,,,,,,,,,,,,,,2233.5449236999266,None,right,1,2.8210538999410346,2234.0457883999916,2235.2978258999065,2234.0457883999916,2234.7971769999713,2234.0457883999916,2234.7971769999713,2234.0457883999916,2234.7971769999713,2234.0457883999916,2234.7971769999713,2234.0457883999916,2234.7971769999713,2234.7632919999305,2235.265020199935,2234.7632919999305,2235.265020199935,2234.7632919999305,2235.265020199935,2234.7632919999305,2235.265020199935,2234.7632919999305,2235.265020199935,2234.7632919999305,2235.265020199935,2234.7632919999305,2235.265020199935,2234.7632919999305,2235.265020199935,2234.0457883999916,None,2235.265020199935,2236.9670269999187,0.7400000000000004,2236.9833480999805,None,2237.735315399943,None,,,,,,,[1.69285714],3.2000000000000024,0.7346938775510204,11043,002,2024_Mar_21_1305,MFTM_A_new1021,2021.2.3,59.243285531449665,
,,,,,,,,stim/Instruction_adaptive.png,conditions/adaptive.xlsx,test,0.6,0.6,0.6,-0.6,-0.6,right,R,,,,,0,1,1,1,0,49,49,32,,,,,,,,,,,,,,,,,,,,,,,,,,,,,,,,,,,,,,,,,,,,2238.23526039999,None,left,0,1.866770900087431,2238.7359691999154,2239.971264199936,2238.7359691999154,2239.4703740999103,2238.7359691999154,2239.4703740999103,2238.7359691999154,2239.4703740999103,2238.7359691999154,2239.4703740999103,2238.7359691999154,2239.4703740999103,2239.4375267999712,2239.9378921999596,2239.4375267999712,2239.9378921999596,2239.4375267999712,2239.9378921999596,2239.4375267999712,2239.9378921999596,2239.4375267999712,2239.9378921999596,2239.4375267999712,2239.9378921999596,2239.4375267999712,2239.9378921999596,2239.4375267999712,2239.9378921999596,2238.7359691999154,None,2239.9378921999596,2241.6402479999233,0.7200000000000004,2241.6566704999423,None,2242.4093790999614,None,,,,,,,[1.6946],3.070000000000002,0.72,11043,002,2024_Mar_21_1305,MFTM_A_new1021,2021.2.3,59.243285531449665,
,,,,,,,,stim/Instruction_adaptive.png,conditions/adaptive.xlsx,test,0.6,0.6,0.6,-0.6,-0.6,right,R,,,,,0,1,1,1,0,50,50,96,,,,,,,,,,,,,,,,,,,,,,,,,,,,,,,,,,,,,,,,,,,,2242.9088178999955,None,right,1,1.8471448000054806,2243.427599699935,2244.7125093999784,2243.427599699935,2244.2108580999775,2243.427599699935,2244.2108580999775,2243.427599699935,2244.2108580999775,2243.427599699935,2244.2108580999775,2243.427599699935,2244.2108580999775,2244.178503599949,2244.6787844999926,2244.178503599949,2244.6787844999926,2244.178503599949,2244.6787844999926,2244.178503599949,2244.6787844999926,2244.178503599949,2244.6787844999926,2244.178503599949,2244.6787844999926,2244.178503599949,2244.6787844999926,2244.178503599949,2244.6787844999926,2243.427599699935,None,2244.6787844999926,2246.3812710999046,0.7800000000000005,2246.4316977999406,None,2247.1844258999918,None,,,,,,,[1.69509804],3.110000000000002,0.7254901960784313,11043,002,2024_Mar_21_1305,MFTM_A_new1021,2021.2.3,59.243285531449665,
,,,,,,,,stim/Instruction_adaptive.png,conditions/adaptive.xlsx,test,0.6,0.6,0.6,-0.6,-0.6,right,R,,,,,0,1,1,1,0,51,51,4,,,,,,,,,,,,,,,,,,,,,,,,,,,,,,,,,,,,,,,,,,,,2247.683813199983,None,left,0,2.435610800050199,2248.183365599951,2249.452082599979,2248.183365599951,2248.9522203999804,2248.183365599951,2248.9522203999804,2248.183365599951,2248.9522203999804,2248.183365599951,2248.9522203999804,2248.183365599951,2248.9522203999804,2248.9347521999152,2249.4353953999234,2248.9347521999152,2249.4353953999234,2248.9347521999152,2249.4353953999234,2248.9347521999152,2249.4353953999234,2248.9347521999152,2249.4353953999234,2248.9347521999152,2249.4353953999234,2248.9347521999152,2249.4353953999234,2248.9347521999152,2249.4353953999234,2248.183365599951,None,2249.4353953999234,2251.1380797999445,0.7600000000000005,2251.1543348999694,None,2251.90591709991,None,,,,,,,[1.69596154],2.980000000000002,0.7115384615384616,11043,002,2024_Mar_21_1305,MFTM_A_new1021,2021.2.3,59.243285531449665,
,,,,,,,,stim/Instruction_adaptive.png,conditions/adaptive.xlsx,test,-0.6,-0.6,-0.6,0.6,0.6,left,L,,,,,0,1,1,1,0,52,52,29,,,,,,,,,,,,,,,,,,,,,,,,,,,,,,,,,,,,,,,,,,,,2252.407164299977,None,left,1,1.9913346999092028,2252.9080135999247,2254.2428502999246,2252.9080135999247,2253.742576099932,2252.9080135999247,2253.742576099932,2252.9080135999247,2253.742576099932,2252.9080135999247,2253.742576099932,2252.9080135999247,2253.742576099932,2253.725332699949,2254.2260587000055,2253.725332699949,2254.2260587000055,2253.725332699949,2254.2260587000055,2253.725332699949,2254.2260587000055,2253.725332699949,2254.2260587000055,2253.725332699949,2254.2260587000055,2253.725332699949,2254.2260587000055,2253.725332699949,2254.2260587000055,2252.9080135999247,None,2254.2260587000055,2255.8957671999233,0.8300000000000005,2255.9300746999215,None,2256.6796932999277,None,,,,,,,[[1.67]],3.030000000000002,0.7169811320754716,11043,002,2024_Mar_21_1305,MFTM_A_new1021,2021.2.3,59.243285531449665,
,,,,,,,,stim/Instruction_adaptive.png,conditions/adaptive.xlsx,test,-0.6,-0.6,-0.6,0.6,0.6,left,L,,,,,0,1,1,1,0,53,53,25,,,,,,,,,,,,,,,,,,,,,,,,,,,,,,,,,,,,,,,,,,,,2257.1811796999536,None,left,1,1.9869142000097781,2257.6812199999113,2259.000563299982,2257.6812199999113,2258.5003167999675,2257.6812199999113,2258.5003167999675,2257.6812199999113,2258.5003167999675,2257.6812199999113,2258.5003167999675,2257.6812199999113,2258.5003167999675,2258.4656883999705,2258.9671357999323,2258.4656883999705,2258.9671357999323,2258.4656883999705,2258.9671357999323,2258.4656883999705,2258.9671357999323,2258.4656883999705,2258.9671357999323,2258.4656883999705,2258.9671357999323,2258.4656883999705,2258.9671357999323,2258.4656883999705,2258.9671357999323,2257.6812199999113,None,2258.9671357999323,2260.670107499929,0.8100000000000005,2260.703774799942,None,2261.454316699994,None,,,,,,,[[1.69]],3.070000000000002,0.7222222222222222,11043,002,2024_Mar_21_1305,MFTM_A_new1021,2021.2.3,59.243285531449665,
,,,,,,,,stim/Instruction_adaptive.png,conditions/adaptive.xlsx,test,-0.6,-0.6,-0.6,0.6,0.6,left,L,,,,,0,1,1,1,0,54,54,17,,,,,,,,,,,,,,,,,,,,,,,,,,,,,,,,,,,,,,,,,,,,2261.955007799901,None,left,1,1.5802332001039758,2262.455115199904,2263.7404449000023,2262.455115199904,2263.240170300007,2262.455115199904,2263.240170300007,2262.455115199904,2263.240170300007,2262.455115199904,2263.240170300007,2262.455115199904,2263.240170300007,2263.223180399975,2263.723797699902,2263.223180399975,2263.723797699902,2263.223180399975,2263.723797699902,2263.223180399975,2263.723797699902,2263.223180399975,2263.723797699902,2263.223180399975,2263.723797699902,2263.223180399975,2263.723797699902,2263.223180399975,2263.723797699902,2262.455115199904,None,2263.723797699902,2265.4262365999166,0.7800000000000005,2265.44286760001,None,2266.19486649998,None,,,,,,,[1.69581818],3.110000000000002,0.7272727272727273,11043,002,2024_Mar_21_1305,MFTM_A_new1021,2021.2.3,59.243285531449665,
,,,,,,,,stim/Instruction_adaptive.png,conditions/adaptive.xlsx,test,-0.6,-0.6,-0.6,0.6,0.6,left,L,,,,,0,1,1,1,0,55,55,51,,,,,,,,,,,,,,,,,,,,,,,,,,,,,,,,,,,,,,,,,,,,2266.69485249999,None,left,1,3.176606300054118,2267.195455799927,2268.464143799967,2267.195455799927,2267.963367199991,2267.195455799927,2267.963367199991,2267.195455799927,2267.963367199991,2267.195455799927,2267.963367199991,2267.195455799927,2267.963367199991,2267.9466825999552,2268.447426699917,2267.9466825999552,2268.447426699917,2267.9466825999552,2268.447426699917,2267.9466825999552,2268.447426699917,2267.9466825999552,2268.447426699917,2267.9466825999552,2268.447426699917,2267.9466825999552,2268.447426699917,2267.9466825999552,2268.447426699917,2267.195455799927,None,2268.447426699917,2270.40077269997,0.7600000000000005,2270.416883799946,None,2271.169161799946,None,,,,,,,[1.69660714],3.150000000000002,0.7321428571428571,11043,002,2024_Mar_21_1305,MFTM_A_new1021,2021.2.3,59.243285531449665,
,,,,,,,,stim/Instruction_adaptive.png,conditions/adaptive.xlsx,test,0.6,0.6,0.6,-0.6,-0.6,right,R,,,,,0,1,1,1,0,56,56,16,,,,,,,,,,,,,,,,,,,,,,,,,,,,,,,,,,,,,,,,,,,,2271.6690387999406,None,right,1,1.3460073999594897,2272.1704418999143,2273.422510699951,2272.1704418999143,2272.9209097999847,2272.1704418999143,2272.9209097999847,2272.1704418999143,2272.9209097999847,2272.1704418999143,2272.9209097999847,2272.1704418999143,2272.9209097999847,2272.887497999938,2273.3887273999862,2272.887497999938,2273.3887273999862,2272.887497999938,2273.3887273999862,2272.887497999938,2273.3887273999862,2272.887497999938,2273.3887273999862,2272.887497999938,2273.3887273999862,2272.887497999938,2273.3887273999862,2272.887497999938,2273.3887273999862,2272.1704418999143,None,2273.3887273999862,2275.0915151999798,0.7400000000000004,2275.124821999925,None,2275.8757552999305,None,,,,,,,[1.6977193],3.190000000000002,0.7368421052631579,11043,002,2024_Mar_21_1305,MFTM_A_new1021,2021.2.3,59.243285531449665,
,,,,,,,,stim/Instruction_adaptive.png,conditions/adaptive.xlsx,test,-0.6,-0.6,-0.6,0.6,0.6,left,L,,,,,0,1,1,1,0,57,57,35,,,,,,,,,,,,,,,,,,,,,,,,,,,,,,,,,,,,,,,,,,,,2276.376316400012,None,left,1,0.9095102000283077,2276.878113099956,2278.1124364999123,2276.878113099956,2277.6115954999113,2276.878113099956,2277.6115954999113,2276.878113099956,2277.6115954999113,2276.878113099956,2277.6115954999113,2276.878113099956,2277.6115954999113,2277.578239799943,2278.0793185000075,2277.578239799943,2278.0793185000075,2277.578239799943,2278.0793185000075,2277.578239799943,2278.0793185000075,2277.578239799943,2278.0793185000075,2277.578239799943,2278.0793185000075,2277.578239799943,2278.0793185000075,2277.578239799943,2278.0793185000075,2276.878113099956,None,2278.0793185000075,2279.781849999912,0.7200000000000004,2279.7980120999273,None,2280.5498734998982,None,,,,,,,[1.69913793],3.230000000000002,0.7413793103448276,11043,002,2024_Mar_21_1305,MFTM_A_new1021,2021.2.3,59.243285531449665,
,,,,,,,,stim/Instruction_adaptive.png,conditions/adaptive.xlsx,test,0.6,0.6,0.6,-0.6,-0.6,right,R,,,,,0,1,1,1,0,58,58,42,,,,,,,,,,,,,,,,,,,,,,,,,,,,,,,,,,,,,,,,,,,,2281.0496878999984,None,right,1,1.1496280999854207,2281.5502050999785,2282.7523630999494,2281.5502050999785,2282.2522172000026,2281.5502050999785,2282.2522172000026,2281.5502050999785,2282.2522172000026,2281.5502050999785,2282.2522172000026,2281.5502050999785,2282.2522172000026,2282.235330699943,2282.735639599967,2282.235330699943,2282.735639599967,2282.235330699943,2282.735639599967,2282.235330699943,2282.735639599967,2282.235330699943,2282.735639599967,2282.235330699943,2282.735639599967,2282.235330699943,2282.735639599967,2282.235330699943,2282.735639599967,2281.5502050999785,None,2282.735639599967,2284.4392711999826,0.7000000000000004,2284.4726719999453,None,2285.222730199923,None,,,,,,,[1.70084746],3.2600000000000025,0.7457627118644068,11043,002,2024_Mar_21_1305,MFTM_A_new1021,2021.2.3,59.243285531449665,
,,,,,,,,stim/Instruction_adaptive.png,conditions/adaptive.xlsx,test,-0.6,-0.6,-0.6,0.6,0.6,left,L,,,,,0,1,1,1,0,59,59,39,,,,,,,,,,,,,,,,,,,,,,,,,,,,,,,,,,,,,,,,,,,,2285.723729399964,None,left,1,1.491741899983026,2286.224310499965,2287.4269001999637,2286.224310499965,2286.925239300006,2286.224310499965,2286.925239300006,2286.224310499965,2286.925239300006,2286.224310499965,2286.925239300006,2286.224310499965,2286.925239300006,2286.891875499976,2287.392964700004,2286.891875499976,2287.392964700004,2286.891875499976,2287.392964700004,2286.891875499976,2287.392964700004,2286.891875499976,2287.392964700004,2286.891875499976,2287.392964700004,2286.891875499976,2287.392964700004,2286.891875499976,2287.392964700004,2286.224310499965,None,2287.392964700004,2289.095223299926,0.6900000000000004,2289.1283334000036,None,2289.8805677999044,None,,,,,,,[1.70266667],3.3000000000000025,0.75,11043,002,2024_Mar_21_1305,MFTM_A_new1021,2021.2.3,59.243285531449665,
,,,,,,,,stim/Instruction_adaptive.png,conditions/adaptive.xlsx,test,-0.6,-0.6,-0.6,0.6,0.6,left,L,,,,,0,1,1,1,0,60,60,87,,,,,,,,,,,,,,,,,,,,,,,,,,,,,,,,,,,,,,,,,,,,2290.3812329999637,None,right,0,1.619658200070262,2290.8809425999643,2292.0501738999737,2290.8809425999643,2291.5657053999603,2290.8809425999643,2291.5657053999603,2290.8809425999643,2291.5657053999603,2290.8809425999643,2291.5657053999603,2290.8809425999643,2291.5657053999603,2291.5327073999215,2292.03378920001,2291.5327073999215,2292.03378920001,2291.5327073999215,2292.03378920001,2291.5327073999215,2292.03378920001,2291.5327073999215,2292.03378920001,2291.5327073999215,2292.03378920001,2291.5327073999215,2292.03378920001,2291.5327073999215,2292.03378920001,2290.8809425999643,None,2292.03378920001,2293.7524110999657,0.6700000000000004,2293.7860865999246,None,2294.5387986999704,None,,,,,,,[1.7047541],3.2000000000000024,0.7377049180327869,11043,002,2024_Mar_21_1305,MFTM_A_new1021,2021.2.3,59.243285531449665,
,,,,,,,,stim/Instruction_adaptive.png,conditions/adaptive.xlsx,test,-0.6,-0.6,-0.6,0.6,0.6,left,L,,,,,0,1,1,1,0,61,61,13,,,,,,,,,,,,,,,,,,,,,,,,,,,,,,,,,,,,,,,,,,,,2295.037604699959,None,left,1,1.66584969998803,2295.5382854999043,2296.75761109998,2295.5382854999043,2296.272709499928,2295.5382854999043,2296.272709499928,2295.5382854999043,2296.272709499928,2295.5382854999043,2296.272709499928,2295.5382854999043,2296.272709499928,2296.2393304998986,2296.740988699952,2296.2393304998986,2296.740988699952,2296.2393304998986,2296.740988699952,2296.2393304998986,2296.740988699952,2296.2393304998986,2296.740988699952,2296.2393304998986,2296.740988699952,2296.2393304998986,2296.740988699952,2296.2393304998986,2296.740988699952,2295.5382854999043,None,2296.740988699952,2298.4600000999635,0.7200000000000004,2298.4941657999298,None,2299.244710500003,None,,,,,,,[1.70596774],3.230000000000002,0.7419354838709677,11043,002,2024_Mar_21_1305,MFTM_A_new1021,2021.2.3,59.243285531449665,
,,,,,,,,stim/Instruction_adaptive.png,conditions/adaptive.xlsx,test,-0.6,-0.6,-0.6,0.6,0.6,left,L,,,,,0,1,1,1,0,62,62,97,,,,,,,,,,,,,,,,,,,,,,,,,,,,,,,,,,,,,,,,,,,,2299.7446404999355,None,left,1,1.6151053999783471,2300.245239299955,2301.447390599991,2300.245239299955,2300.9461681999965,2300.245239299955,2300.9461681999965,2300.245239299955,2300.9461681999965,2300.245239299955,2300.9461681999965,2300.245239299955,2300.9461681999965,2300.9302931999555,2301.43057289999,2300.9302931999555,2301.43057289999,2300.9302931999555,2301.43057289999,2300.9302931999555,2301.43057289999,2300.9302931999555,2301.43057289999,2300.9302931999555,2301.43057289999,2300.9302931999555,2301.43057289999,2300.9302931999555,2301.43057289999,2300.245239299955,None,2301.43057289999,2303.1505249999464,0.7000000000000004,2303.184421599959,None,2303.935718899942,None,,,,,,,[1.70746032],3.2700000000000022,0.746031746031746,11043,002,2024_Mar_21_1305,MFTM_A_new1021,2021.2.3,59.243285531449665,
,,,,,,,,stim/Instruction_adaptive.png,conditions/adaptive.xlsx,test,-0.6,-0.6,-0.6,0.6,0.6,left,L,,,,,0,1,1,1,0,63,63,41,,,,,,,,,,,,,,,,,,,,,,,,,,,,,,,,,,,,,,,,,,,,2304.4357215999626,None,left,1,1.6688920999877155,2304.9359229999827,2306.1210083999904,2304.9359229999827,2305.6203633999685,2304.9359229999827,2305.6203633999685,2304.9359229999827,2305.6203633999685,2304.9359229999827,2305.6203633999685,2304.9359229999827,2305.6203633999685,2305.603432999924,2306.1045691999607,2305.603432999924,2306.1045691999607,2305.603432999924,2306.1045691999607,2305.603432999924,2306.1045691999607,2305.603432999924,2306.1045691999607,2305.603432999924,2306.1045691999607,2305.603432999924,2306.1045691999607,2305.603432999924,2306.1045691999607,2304.9359229999827,None,2306.1045691999607,None,0.6800000000000004,2307.8409261999186,None,2308.5914071999723,None,,,,,,,[1.70921875],3.3000000000000025,0.75,11043,002,2024_Mar_21_1305,MFTM_A_new1021,2021.2.3,59.243285531449665,
,,,,,,,,stim/Instruction_adaptive.png,conditions/adaptive.xlsx,test,0.6,0.6,0.6,-0.6,-0.6,right,R,,,,,0,1,1,1,0,64,64,48,,,,,,,,,,,,,,,,,,,,,,,,,,,,,,,,,,,,,,,,,,,,2309.092661499977,None,right,1,1.4677179999416694,2309.592783399974,2310.7784926999593,2309.592783399974,2310.2775489999913,2309.592783399974,2310.2775489999913,2309.592783399974,2310.2775489999913,2309.592783399974,2310.2775489999913,2309.592783399974,2310.2775489999913,2310.2440004999517,2310.744309099973,2310.2440004999517,2310.744309099973,2310.2440004999517,2310.744309099973,2310.2440004999517,2310.744309099973,2310.2440004999517,2310.744309099973,2310.2440004999517,2310.744309099973,2310.2440004999517,2310.744309099973,2310.2440004999517,2310.744309099973,2309.592783399974,None,2310.744309099973,2312.4637180999853,0.6700000000000004,2312.480439799954,None,2313.2323299999116,None,,,,,,,[1.71107692],3.3300000000000027,0.7538461538461538,11043,002,2024_Mar_21_1305,MFTM_A_new1021,2021.2.3,59.243285531449665,
,,,,,,,,stim/Instruction_adaptive.png,conditions/adaptive.xlsx,test,-0.6,-0.6,-0.6,0.6,0.6,left,L,,,,,0,1,1,1,0,65,65,95,,,,,,,,,,,,,,,,,,,,,,,,,,,,,,,,,,,,,,,,,,,,2313.7322545999195,None,left,1,1.3558654999360442,2314.2330729999812,2315.385599399917,2314.2330729999812,2314.884662700002,2314.2330729999812,2314.884662700002,2314.2330729999812,2314.884662700002,2314.2330729999812,2314.884662700002,2314.2330729999812,2314.884662700002,2314.8674876999576,2315.3690469999565,2314.8674876999576,2315.3690469999565,2314.8674876999576,2315.3690469999565,2314.8674876999576,2315.3690469999565,2314.8674876999576,2315.3690469999565,2314.8674876999576,2315.3690469999565,2314.8674876999576,2315.3690469999565,2314.8674876999576,2315.3690469999565,2314.2330729999812,None,2315.3690469999565,2317.0883238000097,0.6500000000000004,2317.122194399941,None,2317.871863699984,None,,,,,,,[1.71318182],3.3600000000000025,0.7575757575757576,11043,002,2024_Mar_21_1305,MFTM_A_new1021,2021.2.3,59.243285531449665,
,,,,,,,,stim/Instruction_adaptive.png,conditions/adaptive.xlsx,test,0.6,0.6,0.6,-0.6,-0.6,right,R,,,,,0,1,1,1,0,66,66,60,,,,,,,,,,,,,,,,,,,,,,,,,,,,,,,,,,,,,,,,,,,,2318.3733200000133,None,right,1,1.2673291000537574,2318.873597199912,2320.025284399977,2318.873597199912,2319.5253297999734,2318.873597199912,2319.5253297999734,2318.873597199912,2319.5253297999734,2318.873597199912,2319.5253297999734,2318.873597199912,2319.5253297999734,2319.491286900011,2319.99189569999,2319.491286900011,2319.99189569999,2319.491286900011,2319.99189569999,2319.491286900011,2319.99189569999,2319.491286900011,2319.99189569999,2319.491286900011,2319.99189569999,2319.491286900011,2319.99189569999,2319.491286900011,2319.99189569999,2318.873597199912,None,2319.99189569999,2321.711048099911,0.6400000000000003,2321.761621100013,None,2322.5122640999034,None,,,,,,,[1.71537313],3.3900000000000023,0.7611940298507462,11043,002,2024_Mar_21_1305,MFTM_A_new1021,2021.2.3,59.243285531449665,
,,,,,,,,stim/Instruction_adaptive.png,conditions/adaptive.xlsx,test,-0.6,-0.6,-0.6,0.6,0.6,left,L,,,,,0,1,1,1,0,67,67,23,,,,,,,,,,,,,,,,,,,,,,,,,,,,,,,,,,,,,,,,,,,,2323.013863099972,None,left,1,1.370993799995631,2323.513884499902,2324.649727599928,2323.513884499902,2324.1488471999764,2323.513884499902,2324.1488471999764,2323.513884499902,2324.1488471999764,2323.513884499902,2324.1488471999764,2323.513884499902,2324.1488471999764,2324.1313354999293,2324.631970699993,2324.1313354999293,2324.631970699993,2324.1313354999293,2324.631970699993,2324.1313354999293,2324.631970699993,2324.1313354999293,2324.631970699993,2324.1313354999293,2324.631970699993,2324.1313354999293,2324.631970699993,2324.1313354999293,2324.631970699993,2323.513884499902,None,2324.631970699993,2326.3511908999644,0.6300000000000003,2326.3679124999326,None,2327.1199057999766,None,,,,,,,[1.71764706],3.410000000000003,0.7647058823529411,11043,002,2024_Mar_21_1305,MFTM_A_new1021,2021.2.3,59.243285531449665,
,,,,,,,,stim/Instruction_adaptive.png,conditions/adaptive.xlsx,test,-0.6,-0.6,-0.6,0.6,0.6,left,L,,,,,0,1,1,1,0,68,68,21,,,,,,,,,,,,,,,,,,,,,,,,,,,,,,,,,,,,,,,,,,,,2327.619937599986,None,left,1,2.1168778999708593,2328.1204073999543,2329.2399920999305,2328.1204073999543,2328.755065999925,2328.1204073999543,2328.755065999925,2328.1204073999543,2328.755065999925,2328.1204073999543,2328.755065999925,2328.1204073999543,2328.755065999925,2328.721673199907,2329.223383400007,2328.721673199907,2329.223383400007,2328.721673199907,2329.223383400007,2328.721673199907,2329.223383400007,2328.721673199907,2329.223383400007,2328.721673199907,2329.223383400007,2328.721673199907,2329.223383400007,2328.721673199907,2329.223383400007,2328.1204073999543,None,2329.223383400007,2330.9416762999026,0.6200000000000003,2330.9928996999515,None,2331.7432238999754,None,,,,,,,[1.72],3.4400000000000026,0.7681159420289855,11043,002,2024_Mar_21_1305,MFTM_A_new1021,2021.2.3,59.243285531449665,
,,,,,,,,stim/Instruction_adaptive.png,conditions/adaptive.xlsx,test,0.6,0.6,0.6,-0.6,-0.6,right,R,,,,,0,1,1,1,0,69,69,28,,,,,,,,,,,,,,,,,,,,,,,,,,,,,,,,,,,,,,,,,,,,2332.2444493999938,None,right,1,1.396126800100319,2332.745088899974,2333.862687099958,2332.745088899974,2333.3626341999043,2332.745088899974,2333.3626341999043,2332.745088899974,2333.3626341999043,2332.745088899974,2333.3626341999043,2332.745088899974,2333.3626341999043,2333.328931199969,2333.82932489994,2333.328931199969,2333.82932489994,2333.328931199969,2333.82932489994,2333.328931199969,2333.82932489994,2333.328931199969,2333.82932489994,2333.328931199969,2333.82932489994,2333.328931199969,2333.82932489994,2333.328931199969,2333.82932489994,2332.745088899974,None,2333.82932489994,2335.566090099979,0.6100000000000003,2335.5815910999663,None,2336.333007099922,None,,,,,,,[1.72242857],3.4700000000000024,0.7714285714285715,11043,002,2024_Mar_21_1305,MFTM_A_new1021,2021.2.3,59.243285531449665,
,,,,,,,,stim/Instruction_adaptive.png,conditions/adaptive.xlsx,test,-0.6,-0.6,-0.6,0.6,0.6,left,L,,,,,0,1,1,1,0,70,70,67,,,,,,,,,,,,,,,,,,,,,,,,,,,,,,,,,,,,,,,,,,,,2336.8346814999823,None,left,1,1.3351948000490665,2337.334614399937,2338.437167399912,2337.334614399937,2337.936078700004,2337.334614399937,2337.936078700004,2337.334614399937,2337.936078700004,2337.334614399937,2337.936078700004,2337.334614399937,2337.936078700004,2337.9022545999615,2338.4037529999623,2337.9022545999615,2338.4037529999623,2337.9022545999615,2338.4037529999623,2337.9022545999615,2338.4037529999623,2337.9022545999615,2338.4037529999623,2337.9022545999615,2338.4037529999623,2337.9022545999615,2338.4037529999623,2337.9022545999615,2338.4037529999623,2337.334614399937,None,2338.4037529999623,2340.138686699909,0.5900000000000003,2340.1555310999975,None,2340.907273399993,None,,,,,,,[1.72507042],3.490000000000003,0.7746478873239436,11043,002,2024_Mar_21_1305,MFTM_A_new1021,2021.2.3,59.243285531449665,
,,,,,,,,stim/Instruction_adaptive.png,conditions/adaptive.xlsx,test,-0.6,-0.6,-0.6,0.6,0.6,left,L,,,,,0,1,1,1,0,71,71,9,,,,,,,,,,,,,,,,,,,,,,,,,,,,,,,,,,,,,,,,,,,,2341.4074273000006,None,left,1,1.6412910999497399,2341.908227399923,2343.0104924999177,2341.908227399923,2342.510239999974,2341.908227399923,2342.510239999974,2341.908227399923,2342.510239999974,2341.908227399923,2342.510239999974,2341.908227399923,2342.510239999974,2342.475783300004,2342.9764435999095,2342.475783300004,2342.9764435999095,2342.475783300004,2342.9764435999095,2342.475783300004,2342.9764435999095,2342.475783300004,2342.9764435999095,2342.475783300004,2342.9764435999095,2342.475783300004,2342.9764435999095,2342.475783300004,2342.9764435999095,2341.908227399923,None,2342.9764435999095,2344.7131786999526,0.5900000000000003,2344.747655999963,None,2345.4975658999756,None,,,,,,,[1.72763889],3.5200000000000027,0.7777777777777778,11043,002,2024_Mar_21_1305,MFTM_A_new1021,2021.2.3,59.243285531449665,
,,,,,,,,stim/Instruction_adaptive.png,conditions/adaptive.xlsx,test,0.6,0.6,0.6,-0.6,-0.6,right,R,,,,,0,1,1,1,0,72,72,46,,,,,,,,,,,,,,,,,,,,,,,,,,,,,,,,,,,,,,,,,,,,2345.997515599942,None,right,1,1.3633615999715403,2346.4984738999046,2347.5833972999826,2346.4984738999046,2347.0827452999074,2346.4984738999046,2347.0827452999074,2346.4984738999046,2347.0827452999074,2346.4984738999046,2347.0827452999074,2346.4984738999046,2347.0827452999074,2347.049307100009,2347.54996809992,2347.049307100009,2347.54996809992,2347.049307100009,2347.54996809992,2347.049307100009,2347.54996809992,2347.049307100009,2347.54996809992,2347.049307100009,2347.54996809992,2347.049307100009,2347.54996809992,2347.049307100009,2347.54996809992,2346.4984738999046,None,2347.54996809992,2349.286073599942,0.5700000000000003,2349.3031856999733,None,2350.053676899988,None,,,,,,,[1.73041096],3.5400000000000027,0.7808219178082192,11043,002,2024_Mar_21_1305,MFTM_A_new1021,2021.2.3,59.243285531449665,
,,,,,,,,stim/Instruction_adaptive.png,conditions/adaptive.xlsx,test,-0.6,-0.6,-0.6,0.6,0.6,left,L,,,,,0,1,1,1,0,73,73,93,,,,,,,,,,,,,,,,,,,,,,,,,,,,,,,,,,,,,,,,,,,,2350.555418099975,None,left,1,1.4144898999948055,2351.055177800008,2352.1407683999278,2351.055177800008,2351.6397622999502,2351.055177800008,2351.6397622999502,2351.055177800008,2351.6397622999502,2351.055177800008,2351.6397622999502,2351.055177800008,2351.6397622999502,2351.606108399923,2352.107298699906,2351.606108399923,2352.107298699906,2351.606108399923,2352.107298699906,2351.606108399923,2352.107298699906,2351.606108399923,2352.107298699906,2351.606108399923,2352.107298699906,2351.606108399923,2352.107298699906,2351.606108399923,2352.107298699906,2351.055177800008,None,2352.107298699906,2353.843286199961,0.5700000000000003,2353.8595279,None,2354.6110917999176,None,,,,,,,[1.73310811],3.570000000000003,0.7837837837837838,11043,002,2024_Mar_21_1305,MFTM_A_new1021,2021.2.3,59.243285531449665,
,,,,,,,,stim/Instruction_adaptive.png,conditions/adaptive.xlsx,test,0.6,0.6,0.6,-0.6,-0.6,right,R,,,,,0,1,1,1,0,74,74,68,,,,,,,,,,,,,,,,,,,,,,,,,,,,,,,,,,,,,,,,,,,,2355.111458899919,None,right,1,1.6343216999666765,2355.612030099961,2356.6636972000124,2355.612030099961,2356.1637094999896,2355.612030099961,2356.1637094999896,2355.612030099961,2356.1637094999896,2355.612030099961,2356.1637094999896,2355.612030099961,2356.1637094999896,2356.146329699899,2356.648175199982,2356.146329699899,2356.648175199982,2356.146329699899,2356.648175199982,2356.146329699899,2356.648175199982,2356.146329699899,2356.648175199982,2356.146329699899,2356.648175199982,2356.146329699899,2356.648175199982,2356.146329699899,2356.648175199982,2355.612030099961,None,2356.648175199982,2358.38328119996,0.5500000000000003,2358.417360799969,None,2359.1676010999363,None,,,,,,,[1.736],3.5900000000000025,0.7866666666666666,11043,002,2024_Mar_21_1305,MFTM_A_new1021,2021.2.3,59.243285531449665,
,,,,,,,,stim/Instruction_adaptive.png,conditions/adaptive.xlsx,test,0.6,0.6,0.6,-0.6,-0.6,right,R,,,,,0,1,1,1,0,75,75,38,,,,,,,,,,,,,,,,,,,,,,,,,,,,,,,,,,,,,,,,,,,,2359.668188199983,None,right,1,1.4295405000448227,2360.1691448999336,2361.2205757999327,2360.1691448999336,2360.7197202999378,2360.1691448999336,2360.7197202999378,2360.1691448999336,2360.7197202999378,2360.1691448999336,2360.7197202999378,2360.1691448999336,2360.7197202999378,2360.7029434998985,2361.203870699974,2360.7029434998985,2361.203870699974,2360.7029434998985,2361.203870699974,2360.7029434998985,2361.203870699974,2360.7029434998985,2361.203870699974,2360.7029434998985,2361.203870699974,2360.7029434998985,2361.203870699974,2360.7029434998985,2361.203870699974,2360.1691448999336,None,2361.203870699974,2362.9572218999965,0.5500000000000003,2362.991532499902,None,2363.7410192999523,None,,,,,,,[1.73881579],3.610000000000003,0.7894736842105263,11043,002,2024_Mar_21_1305,MFTM_A_new1021,2021.2.3,59.243285531449665,
,,,,,,,,stim/Instruction_adaptive.png,conditions/adaptive.xlsx,test,0.6,0.6,0.6,-0.6,-0.6,right,R,,,,,0,1,1,1,0,76,76,94,,,,,,,,,,,,,,,,,,,,,,,,,,,,,,,,,,,,,,,,,,,,2364.242544699926,None,left,0,1.888390799984336,2364.742641699966,2365.7950061999727,2364.742641699966,2365.29404790001,2364.742641699966,2365.29404790001,2364.742641699966,2365.29404790001,2364.742641699966,2365.29404790001,2364.742641699966,2365.29404790001,2365.2606426998973,2365.761250599986,2365.2606426998973,2365.761250599986,2365.2606426998973,2365.761250599986,2365.2606426998973,2365.761250599986,2365.2606426998973,2365.761250599986,2365.2606426998973,2365.761250599986,2365.2606426998973,2365.761250599986,2365.2606426998973,2365.761250599986,2364.742641699966,None,2365.761250599986,2367.5134286999237,0.5400000000000003,2367.5299891999457,None,2368.2819211999886,None,,,,,,,[1.74168831],3.5500000000000025,0.7792207792207793,11043,002,2024_Mar_21_1305,MFTM_A_new1021,2021.2.3,59.243285531449665,
,,,,,,,,stim/Instruction_adaptive.png,conditions/adaptive.xlsx,test,-0.6,-0.6,-0.6,0.6,0.6,left,L,,,,,0,1,1,1,0,77,77,33,,,,,,,,,,,,,,,,,,,,,,,,,,,,,,,,,,,,,,,,,,,,2368.782039099955,None,left,1,1.3157731998944655,2369.2824179999297,2370.350826399983,2369.2824179999297,2369.850423399941,2369.2824179999297,2369.850423399941,2369.2824179999297,2369.850423399941,2369.2824179999297,2369.850423399941,2369.2824179999297,2369.850423399941,2369.8337394999107,2370.3342170999385,2369.8337394999107,2370.3342170999385,2369.8337394999107,2370.3342170999385,2369.8337394999107,2370.3342170999385,2369.8337394999107,2370.3342170999385,2369.8337394999107,2370.3342170999385,2369.8337394999107,2370.3342170999385,2369.8337394999107,2370.3342170999385,2369.2824179999297,None,2370.3342170999385,None,0.5600000000000003,2372.0864046999486,None,2372.8390487999422,None,,,,,,,[1.74423077],3.570000000000003,0.782051282051282,11043,002,2024_Mar_21_1305,MFTM_A_new1021,2021.2.3,59.243285531449665,
,,,,,,,,stim/Instruction_adaptive.png,conditions/adaptive.xlsx,test,-0.6,-0.6,-0.6,0.6,0.6,left,L,,,,,0,1,1,1,0,78,78,45,,,,,,,,,,,,,,,,,,,,,,,,,,,,,,,,,,,,,,,,,,,,2373.3393178000115,None,left,1,1.236807300010696,2373.8575322999386,2374.9078926999355,2373.8575322999386,2374.4080929999473,2373.8575322999386,2374.4080929999473,2373.8575322999386,2374.4080929999473,2373.8575322999386,2374.4080929999473,2373.8575322999386,2374.4080929999473,2374.3740215,2374.874474399956,2374.3740215,2374.874474399956,2374.3740215,2374.874474399956,2374.3740215,2374.874474399956,2374.3740215,2374.874474399956,2374.3740215,2374.874474399956,2374.3740215,2374.874474399956,2374.3740215,2374.874474399956,2373.8575322999386,None,2374.874474399956,2376.627623599954,0.5500000000000003,2376.679067699937,None,2377.4283015999245,None,,,,,,,[1.74683544],3.5900000000000025,0.7848101265822784,11043,002,2024_Mar_21_1305,MFTM_A_new1021,2021.2.3,59.243285531449665,
,,,,,,,,stim/Instruction_adaptive.png,conditions/adaptive.xlsx,test,-0.6,-0.6,-0.6,0.6,0.6,left,L,,,,,0,1,1,1,0,79,79,65,,,,,,,,,,,,,,,,,,,,,,,,,,,,,,,,,,,,,,,,,,,,2377.9299602999818,None,right,0,1.9443783999886364,2378.430265699979,2379.482118899934,2378.430265699979,2378.981205899967,2378.430265699979,2378.981205899967,2378.430265699979,2378.981205899967,2378.430265699979,2378.981205899967,2378.430265699979,2378.981205899967,2378.964052199968,2379.4647631999105,2378.964052199968,2379.4647631999105,2378.964052199968,2379.4647631999105,2378.964052199968,2379.4647631999105,2378.964052199968,2379.4647631999105,2378.964052199968,2379.4647631999105,2378.964052199968,2379.4647631999105,2378.964052199968,2379.4647631999105,2378.430265699979,None,2379.4647631999105,2381.2174568999326,0.5500000000000003,2381.2335626999848,None,2381.9859199000057,None,,,,,,,[1.749375],3.530000000000003,0.775,11043,002,2024_Mar_21_1305,MFTM_A_new1021,2021.2.3,59.243285531449665,
,,,,,,,,stim/Instruction_adaptive.png,conditions/adaptive.xlsx,test,-0.6,-0.6,-0.6,0.6,0.6,left,L,,,,,0,1,1,1,0,80,80,31,,,,,,,,,,,,,,,,,,,,,,,,,,,,,,,,,,,,,,,,,,,,2382.4860490999417,None,right,0,1.6032744999974966,2383.004512699903,2384.088936599903,2383.004512699903,2383.5877641999396,2383.004512699903,2383.5877641999396,2383.004512699903,2383.5877641999396,2383.004512699903,2383.5877641999396,2383.004512699903,2383.5877641999396,2383.53765199997,2384.0394939999096,2383.53765199997,2384.0394939999096,2383.53765199997,2384.0394939999096,2383.53765199997,2384.0394939999096,2383.53765199997,2384.0394939999096,2383.53765199997,2384.0394939999096,2383.53765199997,2384.0394939999096,2383.53765199997,2384.0394939999096,2383.004512699903,None,2384.0394939999096,2385.791940499912,0.5700000000000003,2385.8408698999556,None,2386.5927603999153,None,,,,,,,[1.75160494],3.4600000000000026,0.7654320987654321,11043,002,2024_Mar_21_1305,MFTM_A_new1021,2021.2.3,59.243285531449665,
,,,,,,,,stim/Instruction_adaptive.png,conditions/adaptive.xlsx,test,-0.6,-0.6,-0.6,0.6,0.6,left,L,,,,,0,1,1,1,0,81,81,27,,,,,,,,,,,,,,,,,,,,,,,,,,,,,,,,,,,,,,,,,,,,2387.093846899923,None,left,1,1.3498368998989463,2387.5935801999876,2388.6952495999867,2387.5935801999876,2388.1945506999036,2387.5935801999876,2388.1945506999036,2387.5935801999876,2388.1945506999036,2387.5935801999876,2388.1945506999036,2387.5935801999876,2388.1945506999036,2388.1785979999695,2388.678641699953,2388.1785979999695,2388.678641699953,2388.1785979999695,2388.678641699953,2388.1785979999695,2388.678641699953,2388.1785979999695,2388.678641699953,2388.1785979999695,2388.678641699953,2388.1785979999695,2388.678641699953,2388.1785979999695,2388.678641699953,2387.5935801999876,None,2388.678641699953,2390.4317130999407,0.6000000000000003,2390.4477215999505,None,2391.1989365000045,None,,,,,,,[1.75341463],3.4800000000000026,0.7682926829268293,11043,002,2024_Mar_21_1305,MFTM_A_new1021,2021.2.3,59.243285531449665,
,,,,,,,,stim/Instruction_adaptive.png,conditions/adaptive.xlsx,test,-0.6,-0.6,-0.6,0.6,0.6,left,L,,,,,0,1,1,1,0,82,82,53,,,,,,,,,,,,,,,,,,,,,,,,,,,,,,,,,,,,,,,,,,,,2391.700430799974,None,right,0,1.502333699958399,2392.2007417998975,2393.302615899942,2392.2007417998975,2392.8029828999424,2392.2007417998975,2392.8029828999424,2392.2007417998975,2392.8029828999424,2392.2007417998975,2392.8029828999424,2392.2007417998975,2392.8029828999424,2392.768300399999,2393.269652899937,2392.768300399999,2393.269652899937,2392.768300399999,2393.269652899937,2392.768300399999,2393.269652899937,2392.768300399999,2393.269652899937,2392.768300399999,2393.269652899937,2392.768300399999,2393.269652899937,2392.768300399999,2393.269652899937,2392.2007417998975,None,2393.269652899937,2395.0381744999904,0.5900000000000003,2395.0545203000074,None,2395.806996200001,None,,,,,,,[1.7553012],3.410000000000003,0.7590361445783133,11043,002,2024_Mar_21_1305,MFTM_A_new1021,2021.2.3,59.243285531449665,
,,,,,,,,stim/Instruction_adaptive.png,conditions/adaptive.xlsx,test,0.6,0.6,0.6,-0.6,-0.6,right,R,,,,,0,1,1,1,0,83,83,50,,,,,,,,,,,,,,,,,,,,,,,,,,,,,,,,,,,,,,,,,,,,2396.306735799997,None,left,0,2.198272099951282,2396.80922559998,2397.942510599969,2396.80922559998,2397.441773199942,2396.80922559998,2397.441773199942,2396.80922559998,2397.441773199942,2396.80922559998,2397.441773199942,2396.80922559998,2397.441773199942,2397.4083526999457,2397.909360899939,2397.4083526999457,2397.909360899939,2397.4083526999457,2397.909360899939,2397.4083526999457,2397.909360899939,2397.4083526999457,2397.909360899939,2397.4083526999457,2397.909360899939,2397.4083526999457,2397.909360899939,2397.4083526999457,2397.909360899939,2396.80922559998,None,2397.909360899939,2399.678627199959,0.6200000000000003,2399.695171199972,None,2400.4473389999475,None,,,,,,,[1.75678571],3.3400000000000025,0.75,11043,002,2024_Mar_21_1305,MFTM_A_new1021,2021.2.3,59.243285531449665,
,,,,,,,,stim/Instruction_adaptive.png,conditions/adaptive.xlsx,test,0.6,0.6,0.6,-0.6,-0.6,right,R,,,,,0,1,1,1,0,84,84,10,,,,,,,,,,,,,,,,,,,,,,,,,,,,,,,,,,,,,,,,,,,,2400.9471196999075,None,right,1,1.8311942999716848,2401.44822739996,2402.600401500007,2401.44822739996,2402.0989737999626,2401.44822739996,2402.0989737999626,2401.44822739996,2402.0989737999626,2401.44822739996,2402.0989737999626,2401.44822739996,2402.0989737999626,2402.082262699958,2402.5835647999775,2402.082262699958,2402.5835647999775,2402.082262699958,2402.5835647999775,2402.082262699958,2402.5835647999775,2402.082262699958,2402.5835647999775,2402.082262699958,2402.5835647999775,2402.082262699958,2402.5835647999775,2402.082262699958,2402.5835647999775,2401.44822739996,None,2402.5835647999775,2404.3522784999805,0.6500000000000004,2404.368636399973,None,2405.120799899916,None,,,,,,,[1.75788235],3.3700000000000028,0.7529411764705882,11043,002,2024_Mar_21_1305,MFTM_A_new1021,2021.2.3,59.243285531449665,
,,,,,,,,stim/Instruction_adaptive.png,conditions/adaptive.xlsx,test,0.6,0.6,0.6,-0.6,-0.6,right,R,,,,,0,1,1,1,0,85,85,6,,,,,,,,,,,,,,,,,,,,,,,,,,,,,,,,,,,,,,,,,,,,2405.6214451999404,None,right,1,2.094714400009252,2406.1212979999837,2407.273514200002,2406.1212979999837,2406.7730420998996,2406.1212979999837,2406.7730420998996,2406.1212979999837,2406.7730420998996,2406.1212979999837,2406.7730420998996,2406.1212979999837,2406.7730420998996,2406.755846599932,2407.2568335999968,2406.755846599932,2407.2568335999968,2406.755846599932,2407.2568335999968,2406.755846599932,2407.2568335999968,2406.755846599932,2407.2568335999968,2406.755846599932,2407.2568335999968,2406.755846599932,2407.2568335999968,2406.755846599932,2407.2568335999968,2406.1212979999837,None,2407.2568335999968,None,0.6400000000000003,2409.0256757999305,None,2409.777118399972,None,,,,,,,[1.75906977],3.3900000000000023,0.7558139534883721,11043,002,2024_Mar_21_1305,MFTM_A_new1021,2021.2.3,59.243285531449665,
,,,,,,,,stim/Instruction_adaptive.png,conditions/adaptive.xlsx,test,-0.6,-0.6,-0.6,0.6,0.6,left,L,,,,,0,1,1,1,0,86,86,37,,,,,,,,,,,,,,,,,,,,,,,,,,,,,,,,,,,,,,,,,,,,2410.278923899983,None,left,1,1.572719999938272,2410.778545600013,2411.9147078999085,2410.778545600013,2411.4138003999833,2410.778545600013,2411.4138003999833,2410.778545600013,2411.4138003999833,2410.778545600013,2411.4138003999833,2410.778545600013,2411.4138003999833,2411.396148599917,2411.896963599953,2411.396148599917,2411.896963599953,2411.396148599917,2411.896963599953,2411.396148599917,2411.896963599953,2411.396148599917,2411.896963599953,2411.396148599917,2411.896963599953,2411.396148599917,2411.896963599953,2411.396148599917,2411.896963599953,2410.778545600013,None,2411.896963599953,2413.6672429000027,0.6300000000000003,2413.6828625999624,None,2414.4349633000093,None,,,,,,,[1.76034483],3.410000000000003,0.7586206896551724,11043,002,2024_Mar_21_1305,MFTM_A_new1021,2021.2.3,59.243285531449665,
,,,,,,,,stim/Instruction_adaptive.png,conditions/adaptive.xlsx,test,-0.6,-0.6,-0.6,0.6,0.6,left,L,,,,,0,1,1,1,0,87,87,71,,,,,,,,,,,,,,,,,,,,,,,,,,,,,,,,,,,,,,,,,,,,2414.9356939999852,None,left,1,1.5163086000829935,2415.435601999983,2416.5714676999487,2415.435601999983,2416.0699743999867,2415.435601999983,2416.0699743999867,2415.435601999983,2416.0699743999867,2415.435601999983,2416.0699743999867,2415.435601999983,2416.0699743999867,2416.036555700004,2416.5376533999806,2416.036555700004,2416.5376533999806,2416.036555700004,2416.5376533999806,2416.036555700004,2416.5376533999806,2416.036555700004,2416.5376533999806,2416.036555700004,2416.5376533999806,2416.036555700004,2416.5376533999806,2416.036555700004,2416.5376533999806,2415.435601999983,None,2416.5376533999806,2418.3066457000095,0.6200000000000003,2418.323269199929,None,2419.0754681999097,None,,,,,,,[1.76170455],3.4400000000000026,0.7613636363636364,11043,002,2024_Mar_21_1305,MFTM_A_new1021,2021.2.3,59.243285531449665,
,,,,,,,,stim/Instruction_adaptive.png,conditions/adaptive.xlsx,test,-0.6,-0.6,-0.6,0.6,0.6,left,L,,,,,0,1,1,1,0,88,88,43,,,,,,,,,,,,,,,,,,,,,,,,,,,,,,,,,,,,,,,,,,,,2419.575341799995,None,left,1,1.6523552000289783,2420.0756899999687,2421.1944389999844,2420.0756899999687,2420.6934340998996,2420.0756899999687,2420.6934340998996,2420.0756899999687,2420.6934340998996,2420.0756899999687,2420.6934340998996,2420.0756899999687,2420.6934340998996,2420.677417799947,2421.1782688999083,2420.677417799947,2421.1782688999083,2420.677417799947,2421.1782688999083,2420.677417799947,2421.1782688999083,2420.677417799947,2421.1782688999083,2420.677417799947,2421.1782688999083,2420.677417799947,2421.1782688999083,2420.677417799947,2421.1782688999083,2420.0756899999687,None,2421.1782688999083,2422.946979500004,0.6100000000000003,2422.963683699956,None,2423.715251599904,None,,,,,,,[1.76314607],3.4600000000000026,0.7640449438202247,11043,002,2024_Mar_21_1305,MFTM_A_new1021,2021.2.3,59.243285531449665,
,,,,,,,,stim/Instruction_adaptive.png,conditions/adaptive.xlsx,test,-0.6,-0.6,-0.6,0.6,0.6,left,L,,,,,0,1,1,1,0,89,89,85,,,,,,,,,,,,,,,,,,,,,,,,,,,,,,,,,,,,,,,,,,,,2424.2162669999525,None,left,1,1.3957372000440955,2424.716096499935,2425.8179421999957,2424.716096499935,2425.3173176000128,2424.716096499935,2425.3173176000128,2424.716096499935,2425.3173176000128,2424.716096499935,2425.3173176000128,2424.716096499935,2425.3173176000128,2425.301324500004,2425.801330599934,2425.301324500004,2425.801330599934,2425.301324500004,2425.801330599934,2425.301324500004,2425.801330599934,2425.301324500004,2425.801330599934,2425.301324500004,2425.801330599934,2425.301324500004,2425.801330599934,2425.301324500004,2425.801330599934,2424.716096499935,None,2425.801330599934,2427.571595299989,0.6000000000000003,2427.606000699918,None,2428.3552012,None,,,,,,,[1.76466667],3.4800000000000026,0.7666666666666667,11043,002,2024_Mar_21_1305,MFTM_A_new1021,2021.2.3,59.243285531449665,
,,,,,,,,stim/Instruction_adaptive.png,conditions/adaptive.xlsx,test,-0.6,-0.6,-0.6,0.6,0.6,left,L,,,,,0,1,1,1,0,90,90,77,,,,,,,,,,,,,,,,,,,,,,,,,,,,,,,,,,,,,,,,,,,,2428.8567028999096,None,left,1,1.9304901999421418,2429.3573834999697,2430.459146899986,2429.3573834999697,2429.957470999914,2429.3573834999697,2429.957470999914,2429.3573834999697,2429.957470999914,2429.3573834999697,2429.957470999914,2429.3573834999697,2429.957470999914,2429.924996799906,2430.42546389997,2429.924996799906,2430.42546389997,2429.924996799906,2430.42546389997,2429.924996799906,2430.42546389997,2429.924996799906,2430.42546389997,2429.924996799906,2430.42546389997,2429.924996799906,2430.42546389997,2429.924996799906,2430.42546389997,2429.3573834999697,None,2430.42546389997,2432.194156399928,0.5900000000000003,2432.244869399932,None,2432.9954809999326,None,,,,,,,[1.76626374],3.5000000000000027,0.7692307692307693,11043,002,2024_Mar_21_1305,MFTM_A_new1021,2021.2.3,59.243285531449665,
,,,,,,,,stim/Instruction_adaptive.png,conditions/adaptive.xlsx,test,0.6,0.6,0.6,-0.6,-0.6,right,R,,,,,0,1,1,1,0,91,91,74,,,,,,,,,,,,,,,,,,,,,,,,,,,,,,,,,,,,,,,,,,,,2433.4964016999584,None,right,1,1.8670923000900075,2433.996818799991,2435.0830279999645,2433.996818799991,2434.581257699989,2433.996818799991,2434.581257699989,2433.996818799991,2434.581257699989,2433.996818799991,2434.581257699989,2433.996818799991,2434.581257699989,2434.5647237999365,2435.0655953999376,2434.5647237999365,2435.0655953999376,2434.5647237999365,2435.0655953999376,2434.5647237999365,2435.0655953999376,2434.5647237999365,2435.0655953999376,2434.5647237999365,2435.0655953999376,2434.5647237999365,2435.0655953999376,2434.5647237999365,2435.0655953999376,2433.996818799991,None,2435.0655953999376,2436.835396499955,0.5800000000000003,2436.8510344999377,None,2437.6033290999476,None,,,,,,,[1.76793478],3.5200000000000027,0.7717391304347826,11043,002,2024_Mar_21_1305,MFTM_A_new1021,2021.2.3,59.243285531449665,
,,,,,,,,stim/Instruction_adaptive.png,conditions/adaptive.xlsx,test,-0.6,-0.6,-0.6,0.6,0.6,left,L,,,,,0,1,1,1,0,92,92,83,,,,,,,,,,,,,,,,,,,,,,,,,,,,,,,,,,,,,,,,,,,,2438.103540199925,None,left,1,1.4681697000050917,2438.60447739996,2439.688874399988,2438.60447739996,2439.1888115999755,2438.60447739996,2439.1888115999755,2438.60447739996,2439.1888115999755,2438.60447739996,2439.1888115999755,2438.60447739996,2439.1888115999755,2439.155221599969,2439.6557050999254,2439.155221599969,2439.6557050999254,2439.155221599969,2439.6557050999254,2439.155221599969,2439.6557050999254,2439.155221599969,2439.6557050999254,2439.155221599969,2439.6557050999254,2439.155221599969,2439.6557050999254,2439.155221599969,2439.6557050999254,2438.60447739996,None,2439.6557050999254,2441.424850799958,0.5700000000000003,2441.4585285999347,None,2442.2093610999873,None,,,,,,,[1.76967742],3.5400000000000027,0.7741935483870968,11043,002,2024_Mar_21_1305,MFTM_A_new1021,2021.2.3,59.243285531449665,
