arrwidth1,arrwidth2,arrwidth3,arrwidth4,arrwidth5,keyb,type,orientation,instruction_image,block_filename,block_type,arrow11,arrow22,arrow33,arrow44,arrow55,keyb_3,orientation3,trials.thisRepN,trials.thisTrialN,trials.thisN,trials.thisIndex,trials_3.thisRepN,trials_3.thisTrialN,trials_3.thisN,trials_3.thisIndex,trials_2.thisRepN,trials_2.thisTrialN,trials_2.thisN,trials_2.thisIndex,welcome.started,welcome.stopped,key_resp.keys,key_resp.rt,key_resp.started,key_resp.stopped,instruction_example.started,instruction_example.stopped,key_resp_3.keys,key_resp_3.rt,key_resp_3.started,key_resp_3.stopped,instruction_task.started,instruction_task.stopped,key_resp_2.keys,key_resp_2.rt,key_resp_2.started,key_resp_2.stopped,text_2.started,text_2.stopped,A1.started,A1.stopped,A2.started,A2.stopped,A3.started,A3.stopped,A4.started,A4.stopped,A5.started,A5.stopped,key_resp_4.keys,key_resp_4.corr,key_resp_4.rt,key_resp_4.started,key_resp_4.stopped,fb.started,fb.stopped,instruction_block.started,instruction_block.stopped,key_resp_8.keys,key_resp_8.rt,key_resp_8.started,key_resp_8.stopped,text_8.started,text_8.stopped,key_resp_9.keys,key_resp_9.corr,key_resp_9.rt,text_5.started,text_5.stopped,A11_3.started,A11_3.stopped,A22_2.started,A22_2.stopped,A33_2.started,A33_2.stopped,A44_2.started,A44_2.stopped,A55_2.started,A55_2.stopped,M1_3.started,M1_3.stopped,M2_2.started,M2_2.stopped,M3_2.started,M3_2.stopped,M4_2.started,M4_2.stopped,M5_2.started,M5_2.stopped,M6_2.started,M6_2.stopped,M7_2.started,M7_2.stopped,M8_2.started,M8_2.stopped,key_resp_9.started,key_resp_9.stopped,fixation.started,fixation.stopped,ET,fb_3.started,fb_3.stopped,text_9.started,text_9.stopped,fb_4.started,fb_4.stopped,text_7.started,text_7.stopped,endtext.started,endtext.stopped,fixation_ITI,CCC,Acc,participant,session,date,expName,psychopyVersion,frameRate,
,,,,,,,,,,,,,,,,,,,,,,,,,,,,,,14.518665699986741,None,space,17.742672599997604,14.518665699986741,None,,,,,,,,,,,,,,,,,,,,,,,,,,,,,,,,,,,,,,,,,,,,,,,,,,,,,,,,,,,,,,,,,,,,,,,,,,,,,,,,,,,,,,,,,11040,002,2024_Mar_14_1359,MFTM_A_new1021,2021.2.3,60.17028189850575,
,,,,,,,,,,,,,,,,,,,,,,,,,,,,,,,,,,,,32.27880689999438,None,space,3.8949647000117693,32.27880689999438,None,,,,,,,,,,,,,,,,,,,,,,,,,,,,,,,,,,,,,,,,,,,,,,,,,,,,,,,,,,,,,,,,,,,,,,,,,,,,,,,,,,,11040,002,2024_Mar_14_1359,MFTM_A_new1021,2021.2.3,60.17028189850575,
,,,,,,,,,,,,,,,,,,,,,,,,,,,,,,,,,,,,,,,,,,36.201298300002236,None,space,5.01237179999589,36.201298300002236,None,,,,,,,,,,,,,,,,,,,,,,,,,,,,,,,,,,,,,,,,,,,,,,,,,,,,,,,,,,,,,,,,,,,,,,,,,,,,,11040,002,2024_Mar_14_1359,MFTM_A_new1021,2021.2.3,60.17028189850575,
-0.6,-0.6,-0.6,0.6,0.6,left,3:2,L,,,,,,,,,,,0,0,0,1,,,,,,,,,,,,,,,,,,,,,,,,,,,41.25916519999737,None,41.25916519999737,None,41.25916519999737,None,41.25916519999737,None,41.25916519999737,None,41.25916519999737,None,left,1,6.084795999980997,41.25916519999737,None,47.38531109999167,None,,,,,,,,,,,,,,,,,,,,,,,,,,,,,,,,,,,,,,,,,,,,,,,,,,,,,,,,,,11040,002,2024_Mar_14_1359,MFTM_A_new1021,2021.2.3,60.17028189850575,
0.6,0.6,0.6,-0.6,-0.6,right,3:2,R,,,,,,,,,,,0,1,1,0,,,,,,,,,,,,,,,,,,,,,,,,,,,48.135778600000776,None,48.135778600000776,None,48.135778600000776,None,48.135778600000776,None,48.135778600000776,None,48.135778600000776,None,right,1,1.1659309999959078,48.135778600000776,None,49.32105519998004,None,,,,,,,,,,,,,,,,,,,,,,,,,,,,,,,,,,,,,,,,,,,,,,,,,,,,,,,,,,11040,002,2024_Mar_14_1359,MFTM_A_new1021,2021.2.3,60.17028189850575,
-0.6,-0.6,-0.6,0.6,0.6,left,3:2,L,,,,,,,,,,,1,0,2,1,,,,,,,,,,,,,,,,,,,,,,,,,,,50.07229650000227,None,50.07229650000227,None,50.07229650000227,None,50.07229650000227,None,50.07229650000227,None,50.07229650000227,None,left,1,2.4934336000005715,50.07229650000227,None,52.592649600002915,None,,,,,,,,,,,,,,,,,,,,,,,,,,,,,,,,,,,,,,,,,,,,,,,,,,,,,,,,,,11040,002,2024_Mar_14_1359,MFTM_A_new1021,2021.2.3,60.17028189850575,
0.6,0.6,0.6,-0.6,-0.6,right,3:2,R,,,,,,,,,,,1,1,3,0,,,,,,,,,,,,,,,,,,,,,,,,,,,53.34415960000479,None,53.34415960000479,None,53.34415960000479,None,53.34415960000479,None,53.34415960000479,None,53.34415960000479,None,right,1,1.8616488999978174,53.34415960000479,None,55.23010269997758,None,,,,,,,,,,,,,,,,,,,,,,,,,,,,,,,,,,,,,,,,,,,,,,,,,,,,,,,,,,11040,002,2024_Mar_14_1359,MFTM_A_new1021,2021.2.3,60.17028189850575,
,,,,,,,,stim/Instruction_mask.png,conditions/adaptive.xlsx,practice,-0.6,-0.6,-0.6,0.6,0.6,left,L,,,,,0,0,0,0,0,0,0,37,,,,,,,,,,,,,,,,,,,,,,,,,,,,,,,,,,,,,,56.19845830000122,None,right,4.423698900005547,56.19845830000122,None,60.7385867999983,None,left,1,2.1465457000012975,61.155455899977824,None,61.155455899977824,64.1603088999982,61.155455899977824,64.1603088999982,61.155455899977824,64.1603088999982,61.155455899977824,64.1603088999982,61.155455899977824,64.1603088999982,64.1434018999862,64.64407469998696,64.1434018999862,64.64407469998696,64.1434018999862,64.64407469998696,64.1434018999862,64.64407469998696,64.1434018999862,64.64407469998696,64.1434018999862,64.64407469998696,64.1434018999862,64.64407469998696,64.1434018999862,64.64407469998696,61.155455899977824,None,64.64407469998696,64.64407469998696,3,64.66079289998743,None,65.41223679998075,None,,,,,,,,,,11040,002,2024_Mar_14_1359,MFTM_A_new1021,2021.2.3,60.17028189850575,
,,,,,,,,stim/Instruction_mask.png,conditions/adaptive.xlsx,practice,-0.6,-0.6,-0.6,0.6,0.6,left,L,,,,,0,0,0,0,0,1,1,85,,,,,,,,,,,,,,,,,,,,,,,,,,,,,,,,,,,,,,,,,,,,65.91270549999899,None,left,1,1.680808100005379,66.41344079998089,68.41675509998458,66.41344079998089,67.9156127999886,66.41344079998089,67.9156127999886,66.41344079998089,67.9156127999886,66.41344079998089,67.9156127999886,66.41344079998089,67.9156127999886,67.89912950000144,68.40006149999681,67.89912950000144,68.40006149999681,67.89912950000144,68.40006149999681,67.89912950000144,68.40006149999681,67.89912950000144,68.40006149999681,67.89912950000144,68.40006149999681,67.89912950000144,68.40006149999681,67.89912950000144,68.40006149999681,66.41344079998089,None,68.40006149999681,69.90212889999384,1.5,69.91883529999177,None,70.6712217000022,None,,,,,,,,,,11040,002,2024_Mar_14_1359,MFTM_A_new1021,2021.2.3,60.17028189850575,
,,,,,,,,stim/Instruction_mask.png,conditions/adaptive.xlsx,practice,0.6,0.6,0.6,-0.6,-0.6,right,R,,,,,0,0,0,0,0,2,2,88,,,,,,,,,,,,,,,,,,,,,,,,,,,,,,,,,,,,,,,,,,,,71.17065869999351,None,right,1,1.303195099986624,71.67147249999107,72.97360100000515,71.67147249999107,72.47266739999759,71.67147249999107,72.47266739999759,71.67147249999107,72.47266739999759,71.67147249999107,72.47266739999759,71.67147249999107,72.47266739999759,72.45625859999564,72.95695579997846,72.45625859999564,72.95695579997846,72.45625859999564,72.95695579997846,72.45625859999564,72.95695579997846,72.45625859999564,72.95695579997846,72.45625859999564,72.95695579997846,72.45625859999564,72.95695579997846,72.45625859999564,72.95695579997846,71.67147249999107,None,72.95695579997846,75.1600868999958,0.8,75.1769524999836,None,75.92792869999539,None,,,,,,,,,,11040,002,2024_Mar_14_1359,MFTM_A_new1021,2021.2.3,60.17028189850575,
,,,,,,,,stim/Instruction_mask.png,conditions/adaptive.xlsx,practice,0.6,0.6,0.6,-0.6,-0.6,right,R,,,,,0,0,0,0,0,3,3,6,,,,,,,,,,,,,,,,,,,,,,,,,,,,,,,,,,,,,,,,,,,,76.42856390000088,None,left,0,0.797475699975621,76.92916289999266,77.68034910000279,76.92916289999266,77.17972640000517,76.92916289999266,77.17972640000517,76.92916289999266,77.17972640000517,76.92916289999266,77.17972640000517,76.92916289999266,77.17972640000517,77.16303309999057,77.66368109997711,77.16303309999057,77.66368109997711,77.16303309999057,77.66368109997711,77.16303309999057,77.66368109997711,77.16303309999057,77.66368109997711,77.16303309999057,77.66368109997711,77.16303309999057,77.66368109997711,77.16303309999057,77.66368109997711,76.92916289999266,None,77.66368109997711,80.417933299992,3,80.43455760000506,None,81.18574250000529,None,,,,,,,,,,11040,002,2024_Mar_14_1359,MFTM_A_new1021,2021.2.3,60.17028189850575,
,,,,,,,,stim/Instruction_mask.png,conditions/adaptive.xlsx,practice,,,,,,,,,,,,0,0,0,0,,,,,,,,,,,,,,,,,,,,,,,,,,,,,,,,,,,,,,,,,,,,,,,,,,,,,,,,,,,,,,,,,,,,,,,,,,,,,,,,,,,,,,,,,,81.70304259998375,82.70544999997946,82.688227799983,82.688227799983,82.688227799983,None,,,,11040,002,2024_Mar_14_1359,MFTM_A_new1021,2021.2.3,60.17028189850575,
,,,,,,,,stim/Instruction_adaptive.png,conditions/adaptive.xlsx,test,-0.6,-0.6,-0.6,0.6,0.6,left,L,,,,,0,1,1,1,0,0,0,23,,,,,,,,,,,,,,,,,,,,,,,,,,,,,,,,,,,,,,85.8594269999885,None,right,6.331848200003151,85.8594269999885,None,92.2531706999871,None,left,1,1.894016600010218,92.7378007999796,None,92.7378007999796,95.74104629998328,92.7378007999796,95.74104629998328,92.7378007999796,95.74104629998328,92.7378007999796,95.74104629998328,92.7378007999796,95.74104629998328,95.72454900000594,96.22509399999399,95.72454900000594,96.22509399999399,95.72454900000594,96.22509399999399,95.72454900000594,96.22509399999399,95.72454900000594,96.22509399999399,95.72454900000594,96.22509399999399,95.72454900000594,96.22509399999399,95.72454900000594,96.22509399999399,92.7378007999796,None,96.22509399999399,96.22509399999399,3,96.2410791000002,None,96.99295419998816,None,,,,,,,0,6.000000000000005,1.0,11040,002,2024_Mar_14_1359,MFTM_A_new1021,2021.2.3,60.17028189850575,
,,,,,,,,stim/Instruction_adaptive.png,conditions/adaptive.xlsx,test,-0.6,-0.6,-0.6,0.6,0.6,left,L,,,,,0,1,1,1,0,1,1,43,,,,,,,,,,,,,,,,,,,,,,,,,,,,,,,,,,,,,,,,,,,,97.4939377999981,None,left,1,0.7407097000104841,97.99431650000042,98.74541209999006,97.99431650000042,98.24489229999017,97.99431650000042,98.24489229999017,97.99431650000042,98.24489229999017,97.99431650000042,98.24489229999017,97.99431650000042,98.24489229999017,98.22842810000293,98.72890639997786,98.22842810000293,98.72890639997786,98.22842810000293,98.72890639997786,98.22842810000293,98.72890639997786,98.22842810000293,98.72890639997786,98.22842810000293,98.72890639997786,98.22842810000293,98.72890639997786,98.22842810000293,98.72890639997786,97.99431650000042,None,98.72890639997786,99.61374349999824,0.25,99.63032799999928,None,100.38145109999459,None,,,,,,,[0.875],6.000000000000005,1.0,11040,002,2024_Mar_14_1359,MFTM_A_new1021,2021.2.3,60.17028189850575,
,,,,,,,,stim/Instruction_adaptive.png,conditions/adaptive.xlsx,test,-0.6,-0.6,-0.6,0.6,0.6,left,L,,,,,0,1,1,1,0,2,2,97,,,,,,,,,,,,,,,,,,,,,,,,,,,,,,,,,,,,,,,,,,,,100.88213209999958,None,right,0,0.5919349000032526,101.38305839998065,102.13401759997942,101.38305839998065,101.63334050000412,101.38305839998065,101.63334050000412,101.38305839998065,101.63334050000412,101.38305839998065,101.63334050000412,101.38305839998065,101.63334050000412,101.61649499999476,102.11728959999164,101.61649499999476,102.11728959999164,101.61649499999476,102.11728959999164,101.61649499999476,102.11728959999164,101.61649499999476,102.11728959999164,101.61649499999476,102.11728959999164,101.61649499999476,102.11728959999164,101.61649499999476,102.11728959999164,101.38305839998065,None,102.11728959999164,103.45349329998135,0.25,103.48761109999032,None,104.23838209998212,None,,,,,,,[1.33333333],3.1800000000000024,0.6666666666666666,11040,002,2024_Mar_14_1359,MFTM_A_new1021,2021.2.3,60.17028189850575,
,,,,,,,,stim/Instruction_adaptive.png,conditions/adaptive.xlsx,test,0.6,0.6,0.6,-0.6,-0.6,right,R,,,,,0,1,1,1,0,3,3,14,,,,,,,,,,,,,,,,,,,,,,,,,,,,,,,,,,,,,,,,,,,,104.73814499998116,None,left,0,0.9368711000133771,105.2386858999962,106.47454769999604,105.2386858999962,105.97325929999352,105.2386858999962,105.97325929999352,105.2386858999962,105.97325929999352,105.2386858999962,105.97325929999352,105.2386858999962,105.97325929999352,105.95655329999863,106.45863769997959,105.95655329999863,106.45863769997959,105.95655329999863,106.45863769997959,105.95655329999863,106.45863769997959,105.95655329999863,106.45863769997959,105.95655329999863,106.45863769997959,105.95655329999863,106.45863769997959,105.95655329999863,106.45863769997959,105.2386858999962,None,106.45863769997959,None,0.7300000000000004,107.92771259997971,None,108.67839549999917,None,,,,,,,[1.4425],1.510000000000001,0.5,11040,002,2024_Mar_14_1359,MFTM_A_new1021,2021.2.3,60.17028189850575,
,,,,,,,,stim/Instruction_adaptive.png,conditions/adaptive.xlsx,test,-0.6,-0.6,-0.6,0.6,0.6,left,L,,,,,0,1,1,1,0,4,4,13,,,,,,,,,,,,,,,,,,,,,,,,,,,,,,,,,,,,,,,,,,,,109.17908430000534,None,right,0,1.319759999983944,109.67984669998987,112.50076080000144,109.67984669998987,112.00013239998952,109.67984669998987,112.00013239998952,109.67984669998987,112.00013239998952,109.67984669998987,112.00013239998952,109.67984669998987,112.00013239998952,111.9667841999908,112.46733919999679,111.9667841999908,112.46733919999679,111.9667841999908,112.46733919999679,111.9667841999908,112.46733919999679,111.9667841999908,112.46733919999679,111.9667841999908,112.46733919999679,111.9667841999908,112.46733919999679,111.9667841999908,112.46733919999679,109.67984669998987,None,112.46733919999679,112.66768359998241,2.310000000000002,112.68324149999535,None,113.43555189998006,None,,,,,,,[[0.19]],0.5,0.4,11040,002,2024_Mar_14_1359,MFTM_A_new1021,2021.2.3,60.17028189850575,
,,,,,,,,stim/Instruction_adaptive.png,conditions/adaptive.xlsx,test,0.6,0.6,0.6,-0.6,-0.6,right,R,,,,,0,1,1,1,0,5,5,94,,,,,,,,,,,,,,,,,,,,,,,,,,,,,,,,,,,,,,,,,,,,113.93606789998012,None,right,1,1.746752099978039,114.43685139997979,None,114.43685139997979,117.44155220000539,114.43685139997979,117.44155220000539,114.43685139997979,117.44155220000539,114.43685139997979,117.44155220000539,114.43685139997979,117.44155220000539,117.42504599998938,117.92551820000517,117.42504599998938,117.92551820000517,117.42504599998938,117.92551820000517,117.42504599998938,117.92551820000517,117.42504599998938,117.92551820000517,117.42504599998938,117.92551820000517,117.42504599998938,117.92551820000517,117.42504599998938,117.92551820000517,114.43685139997979,None,117.92551820000517,117.92551820000517,3.0000000000000027,117.95921319999616,None,118.70956200000364,None,,,,,,,0,0.5,0.5,11040,002,2024_Mar_14_1359,MFTM_A_new1021,2021.2.3,60.17028189850575,
,,,,,,,,stim/Instruction_adaptive.png,conditions/adaptive.xlsx,test,-0.6,-0.6,-0.6,0.6,0.6,left,L,,,,,0,1,1,1,0,6,6,79,,,,,,,,,,,,,,,,,,,,,,,,,,,,,,,,,,,,,,,,,,,,119.21086959997774,None,left,1,3.424672900000587,119.71141600000556,None,119.71141600000556,122.71577529999195,119.71141600000556,122.71577529999195,119.71141600000556,122.71577529999195,119.71141600000556,122.71577529999195,119.71141600000556,122.71577529999195,122.69951000000583,123.20029049998266,122.69951000000583,123.20029049998266,122.69951000000583,123.20029049998266,122.69951000000583,123.20029049998266,122.69951000000583,123.20029049998266,122.69951000000583,123.20029049998266,122.69951000000583,123.20029049998266,122.69951000000583,123.20029049998266,119.71141600000556,None,123.20029049998266,123.20029049998266,3.0000000000000027,123.21575479998137,None,123.96796369997901,None,,,,,,,0,1.1000000000000005,0.5714285714285714,11040,002,2024_Mar_14_1359,MFTM_A_new1021,2021.2.3,60.17028189850575,
,,,,,,,,stim/Instruction_adaptive.png,conditions/adaptive.xlsx,test,-0.6,-0.6,-0.6,0.6,0.6,left,L,,,,,0,1,1,1,0,7,7,71,,,,,,,,,,,,,,,,,,,,,,,,,,,,,,,,,,,,,,,,,,,,124.46877609999501,None,left,1,1.6307956000091508,124.96908459998667,None,124.96908459998667,127.97413349998533,124.96908459998667,127.97413349998533,124.96908459998667,127.97413349998533,124.96908459998667,127.97413349998533,124.96908459998667,127.97413349998533,127.95711749998736,128.45698729998549,127.95711749998736,128.45698729998549,127.95711749998736,128.45698729998549,127.95711749998736,128.45698729998549,127.95711749998736,128.45698729998549,127.95711749998736,128.45698729998549,127.95711749998736,128.45698729998549,127.95711749998736,128.45698729998549,124.96908459998667,None,128.45698729998549,128.45698729998549,3.0000000000000027,128.47390039998572,None,129.22496349998983,None,,,,,,,0,1.5000000000000009,0.625,11040,002,2024_Mar_14_1359,MFTM_A_new1021,2021.2.3,60.17028189850575,
,,,,,,,,stim/Instruction_adaptive.png,conditions/adaptive.xlsx,test,-0.6,-0.6,-0.6,0.6,0.6,left,L,,,,,0,1,1,1,0,8,8,19,,,,,,,,,,,,,,,,,,,,,,,,,,,,,,,,,,,,,,,,,,,,129.72686090000207,None,left,1,0.9814482999790926,130.22667949998868,133.06495359999826,130.22667949998868,132.564069199987,130.22667949998868,132.564069199987,130.22667949998868,132.564069199987,130.22667949998868,132.564069199987,130.22667949998868,132.564069199987,132.54710619998514,133.0481344999862,132.54710619998514,133.0481344999862,132.54710619998514,133.0481344999862,132.54710619998514,133.0481344999862,132.54710619998514,133.0481344999862,132.54710619998514,133.0481344999862,132.54710619998514,133.0481344999862,132.54710619998514,133.0481344999862,130.22667949998868,None,133.0481344999862,None,2.330000000000002,133.23081759997876,None,133.98199299999396,None,,,,,,,[[0.17]],1.7800000000000011,0.6666666666666666,11040,002,2024_Mar_14_1359,MFTM_A_new1021,2021.2.3,60.17028189850575,
,,,,,,,,stim/Instruction_adaptive.png,conditions/adaptive.xlsx,test,0.6,0.6,0.6,-0.6,-0.6,right,R,,,,,0,1,1,1,0,9,9,96,,,,,,,,,,,,,,,,,,,,,,,,,,,,,,,,,,,,,,,,,,,,134.4839307999937,None,right,1,0.9695142999989912,134.98384169998462,137.40491270000348,134.98384169998462,136.90402319998248,134.98384169998462,136.90402319998248,134.98384169998462,136.90402319998248,134.98384169998462,136.90402319998248,134.98384169998462,136.90402319998248,136.88771619999898,137.38790329999756,136.88771619999898,137.38790329999756,136.88771619999898,137.38790329999756,136.88771619999898,137.38790329999756,136.88771619999898,137.38790329999756,136.88771619999898,137.38790329999756,136.88771619999898,137.38790329999756,136.88771619999898,137.38790329999756,134.98384169998462,None,137.38790329999756,137.92233599998872,1.9200000000000015,137.95629689999623,None,138.70586869999534,None,,,,,,,[0.521],1.9900000000000013,0.7,11040,002,2024_Mar_14_1359,MFTM_A_new1021,2021.2.3,60.17028189850575,
,,,,,,,,stim/Instruction_adaptive.png,conditions/adaptive.xlsx,test,0.6,0.6,0.6,-0.6,-0.6,right,R,,,,,0,1,1,1,0,10,10,30,,,,,,,,,,,,,,,,,,,,,,,,,,,,,,,,,,,,,,,,,,,,139.2065592999861,None,right,1,1.612162300007185,139.70834459998878,141.8773028999858,139.70834459998878,141.3775279999827,139.70834459998878,141.3775279999827,139.70834459998878,141.3775279999827,139.70834459998878,141.3775279999827,139.70834459998878,141.3775279999827,141.3439424999815,141.84411109998473,141.3439424999815,141.84411109998473,141.3439424999815,141.84411109998473,141.3439424999815,141.84411109998473,141.3439424999815,141.84411109998473,141.3439424999815,141.84411109998473,141.3439424999815,141.84411109998473,141.3439424999815,141.84411109998473,139.70834459998878,None,141.84411109998473,142.39488229999552,1.6600000000000013,142.42810749998898,None,143.18025939998915,None,,,,,,,[0.55],2.1700000000000017,0.7272727272727273,11040,002,2024_Mar_14_1359,MFTM_A_new1021,2021.2.3,60.17028189850575,
,,,,,,,,stim/Instruction_adaptive.png,conditions/adaptive.xlsx,test,0.6,0.6,0.6,-0.6,-0.6,right,R,,,,,0,1,1,1,0,11,11,34,,,,,,,,,,,,,,,,,,,,,,,,,,,,,,,,,,,,,,,,,,,,143.68137330000172,None,right,1,1.7316280000086408,144.18076289998135,146.15121869998984,144.18076289998135,145.65070699999342,144.18076289998135,145.65070699999342,144.18076289998135,145.65070699999342,144.18076289998135,145.65070699999342,144.18076289998135,145.65070699999342,145.63399370000116,146.13440049998462,145.63399370000116,146.13440049998462,145.63399370000116,146.13440049998462,145.63399370000116,146.13440049998462,145.63399370000116,146.13440049998462,145.63399370000116,146.13440049998462,145.63399370000116,146.13440049998462,145.63399370000116,146.13440049998462,144.18076289998135,None,146.13440049998462,None,1.460000000000001,146.7344815999968,None,147.48679699999047,None,,,,,,,[0.59083333],2.3200000000000016,0.75,11040,002,2024_Mar_14_1359,MFTM_A_new1021,2021.2.3,60.17028189850575,
,,,,,,,,stim/Instruction_adaptive.png,conditions/adaptive.xlsx,test,-0.6,-0.6,-0.6,0.6,0.6,left,L,,,,,0,1,1,1,0,12,12,39,,,,,,,,,,,,,,,,,,,,,,,,,,,,,,,,,,,,,,,,,,,,147.9874920999864,None,left,1,1.5698856000090018,148.48763689998304,150.30724159997771,148.48763689998304,149.80696240000543,148.48763689998304,149.80696240000543,148.48763689998304,149.80696240000543,148.48763689998304,149.80696240000543,148.48763689998304,149.80696240000543,149.79003849998116,150.2901869000052,149.79003849998116,150.2901869000052,149.79003849998116,150.2901869000052,149.79003849998116,150.2901869000052,149.79003849998116,150.2901869000052,149.79003849998116,150.2901869000052,149.79003849998116,150.2901869000052,149.79003849998116,150.2901869000052,148.48763689998304,None,150.2901869000052,150.942015299981,1.320000000000001,150.97477349999826,None,151.7261007000052,None,,,,,,,[0.63615385],2.450000000000002,0.7692307692307693,11040,002,2024_Mar_14_1359,MFTM_A_new1021,2021.2.3,60.17028189850575,
,,,,,,,,stim/Instruction_adaptive.png,conditions/adaptive.xlsx,test,0.6,0.6,0.6,-0.6,-0.6,right,R,,,,,0,1,1,1,0,13,13,64,,,,,,,,,,,,,,,,,,,,,,,,,,,,,,,,,,,,,,,,,,,,152.2272705999785,None,right,1,1.0572579000145197,152.7275798000046,154.42951819999143,152.7275798000046,153.92982429999392,152.7275798000046,153.92982429999392,152.7275798000046,153.92982429999392,152.7275798000046,153.92982429999392,152.7275798000046,153.92982429999392,153.9121755999804,154.412954600004,153.9121755999804,154.412954600004,153.9121755999804,154.412954600004,153.9121755999804,154.412954600004,153.9121755999804,154.412954600004,153.9121755999804,154.412954600004,153.9121755999804,154.412954600004,153.9121755999804,154.412954600004,152.7275798000046,None,154.412954600004,155.09817899999325,1.2000000000000008,155.11420300000464,None,155.8657813000027,None,,,,,,,[0.68357143],2.570000000000002,0.7857142857142857,11040,002,2024_Mar_14_1359,MFTM_A_new1021,2021.2.3,60.17028189850575,
,,,,,,,,stim/Instruction_adaptive.png,conditions/adaptive.xlsx,test,-0.6,-0.6,-0.6,0.6,0.6,left,L,,,,,0,1,1,1,0,14,14,25,,,,,,,,,,,,,,,,,,,,,,,,,,,,,,,,,,,,,,,,,,,,156.36659639998106,None,left,1,1.637946800008649,156.86692770000082,158.4866452999995,156.86692770000082,157.9848882999795,156.86692770000082,157.9848882999795,156.86692770000082,157.9848882999795,156.86692770000082,157.9848882999795,156.86692770000082,157.9848882999795,157.96809949999442,158.47005039997748,157.96809949999442,158.47005039997748,157.96809949999442,158.47005039997748,157.96809949999442,158.47005039997748,157.96809949999442,158.47005039997748,157.96809949999442,158.47005039997748,157.96809949999442,158.47005039997748,157.96809949999442,158.47005039997748,156.86692770000082,None,158.47005039997748,159.20336399998632,1.1100000000000008,159.2212339999969,None,159.9722748999775,None,,,,,,,[0.73066667],2.680000000000002,0.8,11040,002,2024_Mar_14_1359,MFTM_A_new1021,2021.2.3,60.17028189850575,
,,,,,,,,stim/Instruction_adaptive.png,conditions/adaptive.xlsx,test,0.6,0.6,0.6,-0.6,-0.6,right,R,,,,,0,1,1,1,0,15,15,42,,,,,,,,,,,,,,,,,,,,,,,,,,,,,,,,,,,,,,,,,,,,160.4720916999795,None,right,1,1.5714053999981843,160.97363429999677,162.50921190000372,160.97363429999677,162.0086267000006,160.97363429999677,162.0086267000006,160.97363429999677,162.0086267000006,160.97363429999677,162.0086267000006,160.97363429999677,162.0086267000006,161.99093929998344,162.49243270000443,161.99093929998344,162.49243270000443,161.99093929998344,162.49243270000443,161.99093929998344,162.49243270000443,161.99093929998344,162.49243270000443,161.99093929998344,162.49243270000443,161.99093929998344,162.49243270000443,161.99093929998344,162.49243270000443,160.97363429999677,None,162.49243270000443,163.27714599997853,1.0300000000000007,163.3106565999915,None,164.06135000000359,None,,,,,,,[0.776875],2.780000000000002,0.8125,11040,002,2024_Mar_14_1359,MFTM_A_new1021,2021.2.3,60.17028189850575,
,,,,,,,,stim/Instruction_adaptive.png,conditions/adaptive.xlsx,test,0.6,0.6,0.6,-0.6,-0.6,right,R,,,,,0,1,1,1,0,16,16,58,,,,,,,,,,,,,,,,,,,,,,,,,,,,,,,,,,,,,,,,,,,,164.56206309999106,None,left,0,1.243196800001897,165.06219820000115,166.53122479998274,165.06219820000115,166.03037120000226,165.06219820000115,166.03037120000226,165.06219820000115,166.03037120000226,165.06219820000115,166.03037120000226,165.06219820000115,166.03037120000226,165.99695329999668,166.49894419999328,165.99695329999668,166.49894419999328,165.99695329999668,166.49894419999328,165.99695329999668,166.49894419999328,165.99695329999668,166.49894419999328,165.99695329999668,166.49894419999328,165.99695329999668,166.49894419999328,165.99695329999668,166.49894419999328,165.06219820000115,None,166.49894419999328,167.3333641999925,0.9600000000000006,167.36664490000112,None,168.1179157999868,None,,,,,,,[0.82176471],2.5100000000000016,0.7647058823529411,11040,002,2024_Mar_14_1359,MFTM_A_new1021,2021.2.3,60.17028189850575,
,,,,,,,,stim/Instruction_adaptive.png,conditions/adaptive.xlsx,test,0.6,0.6,0.6,-0.6,-0.6,right,R,,,,,0,1,1,1,0,17,17,60,,,,,,,,,,,,,,,,,,,,,,,,,,,,,,,,,,,,,,,,,,,,168.61778859997867,None,left,0,1.402576799999224,169.11922090000007,170.7713434000034,169.11922090000007,170.27106249998906,169.11922090000007,170.27106249998906,169.11922090000007,170.27106249998906,169.11922090000007,170.27106249998906,169.11922090000007,170.27106249998906,170.25448159998632,170.755101799994,170.25448159998632,170.755101799994,170.25448159998632,170.755101799994,170.25448159998632,170.755101799994,170.25448159998632,170.755101799994,170.25448159998632,170.755101799994,170.25448159998632,170.755101799994,170.25448159998632,170.755101799994,169.11922090000007,None,170.755101799994,171.60669580000103,1.1500000000000008,171.640444699995,None,172.39090689999284,None,,,,,,,[0.85111111],2.2300000000000013,0.7222222222222222,11040,002,2024_Mar_14_1359,MFTM_A_new1021,2021.2.3,60.17028189850575,
,,,,,,,,stim/Instruction_adaptive.png,conditions/adaptive.xlsx,test,0.6,0.6,0.6,-0.6,-0.6,right,R,,,,,0,1,1,1,0,18,18,78,,,,,,,,,,,,,,,,,,,,,,,,,,,,,,,,,,,,,,,,,,,,172.89175710000563,None,right,1,1.4978195000148844,173.39154640000197,175.29541699998663,173.39154640000197,174.7943955999799,173.39154640000197,174.7943955999799,173.39154640000197,174.7943955999799,173.39154640000197,174.7943955999799,173.39154640000197,174.7943955999799,174.7780184999865,175.2787022999837,174.7780184999865,175.2787022999837,174.7780184999865,175.2787022999837,174.7780184999865,175.2787022999837,174.7780184999865,175.2787022999837,174.7780184999865,175.2787022999837,174.7780184999865,175.2787022999837,174.7780184999865,175.2787022999837,173.39154640000197,None,175.2787022999837,176.14627769999788,1.400000000000001,176.18069229999674,None,176.93009639999946,None,,,,,,,[0.86421053],2.330000000000002,0.7368421052631579,11040,002,2024_Mar_14_1359,MFTM_A_new1021,2021.2.3,60.17028189850575,
,,,,,,,,stim/Instruction_adaptive.png,conditions/adaptive.xlsx,test,-0.6,-0.6,-0.6,0.6,0.6,left,L,,,,,0,1,1,1,0,19,19,81,,,,,,,,,,,,,,,,,,,,,,,,,,,,,,,,,,,,,,,,,,,,177.43187030000263,None,left,1,2.0212248000025284,177.93233029998373,179.75210209999932,177.93233029998373,179.2504312999954,177.93233029998373,179.2504312999954,177.93233029998373,179.2504312999954,177.93233029998373,179.2504312999954,177.93233029998373,179.2504312999954,179.2170317999844,179.7186710999813,179.2170317999844,179.7186710999813,179.2170317999844,179.7186710999813,179.2170317999844,179.7186710999813,179.2170317999844,179.7186710999813,179.2170317999844,179.7186710999813,179.2170317999844,179.7186710999813,179.2170317999844,179.7186710999813,177.93233029998373,None,179.7186710999813,180.6034115999937,1.310000000000001,180.63560739997774,None,181.3870023000054,None,,,,,,,[0.8805],2.4300000000000015,0.75,11040,002,2024_Mar_14_1359,MFTM_A_new1021,2021.2.3,60.17028189850575,
,,,,,,,,stim/Instruction_adaptive.png,conditions/adaptive.xlsx,test,0.6,0.6,0.6,-0.6,-0.6,right,R,,,,,0,1,1,1,0,20,20,26,,,,,,,,,,,,,,,,,,,,,,,,,,,,,,,,,,,,,,,,,,,,181.88860049998038,None,right,1,1.5101483000034932,182.3881538999849,184.10886909998953,182.3881538999849,183.60771769998246,182.3881538999849,183.60771769998246,182.3881538999849,183.60771769998246,182.3881538999849,183.60771769998246,182.3881538999849,183.60771769998246,183.59117739999783,184.09209550000378,183.59117739999783,184.09209550000378,183.59117739999783,184.09209550000378,183.59117739999783,184.09209550000378,183.59117739999783,184.09209550000378,183.59117739999783,184.09209550000378,183.59117739999783,184.09209550000378,183.59117739999783,184.09209550000378,182.3881538999849,None,184.09209550000378,184.99333090000437,1.2200000000000009,185.00899519998347,None,185.76010129999486,None,,,,,,,[0.89952381],2.5100000000000016,0.7619047619047619,11040,002,2024_Mar_14_1359,MFTM_A_new1021,2021.2.3,60.17028189850575,
,,,,,,,,stim/Instruction_adaptive.png,conditions/adaptive.xlsx,test,-0.6,-0.6,-0.6,0.6,0.6,left,L,,,,,0,1,1,1,0,21,21,67,,,,,,,,,,,,,,,,,,,,,,,,,,,,,,,,,,,,,,,,,,,,186.2607694999897,None,left,1,1.440179699973669,186.7619177000015,188.4150876000058,186.7619177000015,187.91404999999213,186.7619177000015,187.91404999999213,186.7619177000015,187.91404999999213,186.7619177000015,187.91404999999213,186.7619177000015,187.91404999999213,187.89774339998257,188.39828039999702,187.89774339998257,188.39828039999702,187.89774339998257,188.39828039999702,187.89774339998257,188.39828039999702,187.89774339998257,188.39828039999702,187.89774339998257,188.39828039999702,187.89774339998257,188.39828039999702,187.89774339998257,188.39828039999702,186.7619177000015,None,188.39828039999702,None,1.1500000000000008,189.35038550000172,None,190.10092789999908,None,,,,,,,[0.92],2.5900000000000016,0.7727272727272727,11040,002,2024_Mar_14_1359,MFTM_A_new1021,2021.2.3,60.17028189850575,
,,,,,,,,stim/Instruction_adaptive.png,conditions/adaptive.xlsx,test,0.6,0.6,0.6,-0.6,-0.6,right,R,,,,,0,1,1,1,0,22,22,12,,,,,,,,,,,,,,,,,,,,,,,,,,,,,,,,,,,,,,,,,,,,190.6014035999833,None,right,1,1.2995652999961749,191.10220850000042,192.70510490000015,191.10220850000042,192.20316839998122,191.10220850000042,192.20316839998122,191.10220850000042,192.20316839998122,191.10220850000042,192.20316839998122,191.10220850000042,192.20316839998122,192.16983450000407,192.67139809997752,192.16983450000407,192.67139809997752,192.16983450000407,192.67139809997752,192.16983450000407,192.67139809997752,192.16983450000407,192.67139809997752,192.16983450000407,192.67139809997752,192.16983450000407,192.67139809997752,192.16983450000407,192.67139809997752,191.10220850000042,None,192.67139809997752,193.62363879999612,1.0900000000000007,193.65699759998824,None,194.40715849999106,None,,,,,,,[0.94130435],2.6700000000000017,0.782608695652174,11040,002,2024_Mar_14_1359,MFTM_A_new1021,2021.2.3,60.17028189850575,
,,,,,,,,stim/Instruction_adaptive.png,conditions/adaptive.xlsx,test,-0.6,-0.6,-0.6,0.6,0.6,left,L,,,,,0,1,1,1,0,23,23,15,,,,,,,,,,,,,,,,,,,,,,,,,,,,,,,,,,,,,,,,,,,,194.90806249997695,None,left,1,0.6094193999888375,195.40848859999096,196.94355480000377,195.40848859999096,196.44349559998955,195.40848859999096,196.44349559998955,195.40848859999096,196.44349559998955,195.40848859999096,196.44349559998955,195.40848859999096,196.44349559998955,196.4262179999787,196.92677309998544,196.4262179999787,196.92677309998544,196.4262179999787,196.92677309998544,196.4262179999787,196.92677309998544,196.4262179999787,196.92677309998544,196.4262179999787,196.92677309998544,196.4262179999787,196.92677309998544,196.4262179999787,196.92677309998544,195.40848859999096,None,196.92677309998544,197.89594809999107,1.0300000000000007,197.91165229998296,None,198.66396659999737,None,,,,,,,[0.96333333],2.740000000000002,0.7916666666666666,11040,002,2024_Mar_14_1359,MFTM_A_new1021,2021.2.3,60.17028189850575,
,,,,,,,,stim/Instruction_adaptive.png,conditions/adaptive.xlsx,test,0.6,0.6,0.6,-0.6,-0.6,right,R,,,,,0,1,1,1,0,24,24,86,,,,,,,,,,,,,,,,,,,,,,,,,,,,,,,,,,,,,,,,,,,,199.16457910000463,None,right,1,1.3537237000127789,199.6647163000016,201.15009889999055,199.6647163000016,200.65043109998805,199.6647163000016,200.65043109998805,199.6647163000016,200.65043109998805,199.6647163000016,200.65043109998805,199.6647163000016,200.65043109998805,200.63289819998317,201.13448280000011,200.63289819998317,201.13448280000011,200.63289819998317,201.13448280000011,200.63289819998317,201.13448280000011,200.63289819998317,201.13448280000011,200.63289819998317,201.13448280000011,200.63289819998317,201.13448280000011,200.63289819998317,201.13448280000011,199.6647163000016,None,201.13448280000011,None,0.9800000000000006,202.13462599998456,None,202.8866661999782,None,,,,,,,[0.9856],2.800000000000002,0.8,11040,002,2024_Mar_14_1359,MFTM_A_new1021,2021.2.3,60.17028189850575,
,,,,,,,,stim/Instruction_adaptive.png,conditions/adaptive.xlsx,test,0.6,0.6,0.6,-0.6,-0.6,right,R,,,,,0,1,1,1,0,25,25,48,,,,,,,,,,,,,,,,,,,,,,,,,,,,,,,,,,,,,,,,,,,,203.38778979997733,None,right,1,1.3545505999936722,203.88754880000488,205.33976800000528,203.88754880000488,204.83985349998693,203.88754880000488,204.83985349998693,203.88754880000488,204.83985349998693,203.88754880000488,204.83985349998693,203.88754880000488,204.83985349998693,204.80653569998685,205.30723479998414,204.80653569998685,205.30723479998414,204.80653569998685,205.30723479998414,204.80653569998685,205.30723479998414,204.80653569998685,205.30723479998414,204.80653569998685,205.30723479998414,204.80653569998685,205.30723479998414,204.80653569998685,205.30723479998414,203.88754880000488,None,205.30723479998414,206.32443179999245,0.9400000000000006,206.3410203999956,None,207.09293919999618,None,,,,,,,[1.00769231],2.870000000000002,0.8076923076923077,11040,002,2024_Mar_14_1359,MFTM_A_new1021,2021.2.3,60.17028189850575,
,,,,,,,,stim/Instruction_adaptive.png,conditions/adaptive.xlsx,test,0.6,0.6,0.6,-0.6,-0.6,right,R,,,,,0,1,1,1,0,26,26,50,,,,,,,,,,,,,,,,,,,,,,,,,,,,,,,,,,,,,,,,,,,,207.59400859999005,None,left,0,1.2038326000038069,208.09440889998223,209.49592109999503,208.09440889998223,208.99625969998306,208.09440889998223,208.99625969998306,208.09440889998223,208.99625969998306,208.09440889998223,208.99625969998306,208.09440889998223,208.99625969998306,208.97929940000176,209.47919799998635,208.97929940000176,209.47919799998635,208.97929940000176,209.47919799998635,208.97929940000176,209.47919799998635,208.97929940000176,209.47919799998635,208.97929940000176,209.47919799998635,208.97929940000176,209.47919799998635,208.97929940000176,209.47919799998635,208.09440889998223,None,209.47919799998635,210.51496929998393,0.9000000000000006,210.54881599999499,None,211.30056380000315,None,,,,,,,[1.02962963],2.690000000000002,0.7777777777777778,11040,002,2024_Mar_14_1359,MFTM_A_new1021,2021.2.3,60.17028189850575,
,,,,,,,,stim/Instruction_adaptive.png,conditions/adaptive.xlsx,test,-0.6,-0.6,-0.6,0.6,0.6,left,L,,,,,0,1,1,1,0,27,27,29,,,,,,,,,,,,,,,,,,,,,,,,,,,,,,,,,,,,,,,,,,,,211.8003267000022,None,left,1,1.7021804999967571,212.300716800004,213.8367299999809,212.300716800004,213.33518739999272,212.300716800004,213.33518739999272,212.300716800004,213.33518739999272,212.300716800004,213.33518739999272,212.300716800004,213.33518739999272,213.3017550999939,213.80240309998044,213.3017550999939,213.80240309998044,213.3017550999939,213.80240309998044,213.3017550999939,213.80240309998044,213.3017550999939,213.80240309998044,213.3017550999939,213.80240309998044,213.3017550999939,213.80240309998044,213.3017550999939,213.80240309998044,212.300716800004,None,213.80240309998044,214.85505459998967,1.0200000000000007,214.88904379997985,None,215.63835799999651,None,,,,,,,[1.04571429],2.7500000000000018,0.7857142857142857,11040,002,2024_Mar_14_1359,MFTM_A_new1021,2021.2.3,60.17028189850575,
,,,,,,,,stim/Instruction_adaptive.png,conditions/adaptive.xlsx,test,-0.6,-0.6,-0.6,0.6,0.6,left,L,,,,,0,1,1,1,0,28,28,27,,,,,,,,,,,,,,,,,,,,,,,,,,,,,,,,,,,,,,,,,,,,216.13978870000574,None,left,1,1.2977612999966368,216.64062950000516,218.1262966999784,216.64062950000516,217.6258356999897,216.64062950000516,217.6258356999897,216.64062950000516,217.6258356999897,216.64062950000516,217.6258356999897,216.64062950000516,217.6258356999897,217.6088106999814,218.10970449997694,217.6088106999814,218.10970449997694,217.6088106999814,218.10970449997694,217.6088106999814,218.10970449997694,217.6088106999814,218.10970449997694,217.6088106999814,218.10970449997694,217.6088106999814,218.10970449997694,217.6088106999814,218.10970449997694,216.64062950000516,None,218.09315249999054,219.16039849998197,0.9800000000000006,219.19420820000232,None,219.94604219999746,None,,,,,,,[1.06206897],2.8100000000000023,0.7931034482758621,11040,002,2024_Mar_14_1359,MFTM_A_new1021,2021.2.3,60.17028189850575,
,,,,,,,,stim/Instruction_adaptive.png,conditions/adaptive.xlsx,test,-0.6,-0.6,-0.6,0.6,0.6,left,L,,,,,0,1,1,1,0,29,29,55,,,,,,,,,,,,,,,,,,,,,,,,,,,,,,,,,,,,,,,,,,,,220.44676170000457,None,left,1,1.087051500013331,220.9475012999901,222.39974110000185,220.9475012999901,221.89856259999215,220.9475012999901,221.89856259999215,220.9475012999901,221.89856259999215,220.9475012999901,221.89856259999215,220.9475012999901,221.89856259999215,221.86551649999456,222.3663002999965,221.86551649999456,222.3663002999965,221.86551649999456,222.3663002999965,221.86551649999456,222.3663002999965,221.86551649999456,222.3663002999965,221.86551649999456,222.3663002999965,221.86551649999456,222.3663002999965,221.86551649999456,222.3663002999965,220.9475012999901,None,222.3663002999965,223.4514549000014,0.9400000000000006,223.48516199999722,None,224.2358755999885,None,,,,,,,[1.07866667],2.870000000000002,0.8,11040,002,2024_Mar_14_1359,MFTM_A_new1021,2021.2.3,60.17028189850575,
,,,,,,,,stim/Instruction_adaptive.png,conditions/adaptive.xlsx,test,-0.6,-0.6,-0.6,0.6,0.6,left,L,,,,,0,1,1,1,0,30,30,9,,,,,,,,,,,,,,,,,,,,,,,,,,,,,,,,,,,,,,,,,,,,224.73671149997972,None,right,0,1.4297380000061821,225.23687369999243,226.63900179998018,225.23687369999243,226.13761169998907,225.23687369999243,226.13761169998907,225.23687369999243,226.13761169998907,225.23687369999243,226.13761169998907,225.23687369999243,226.13761169998907,226.1209045999858,226.62265710000065,226.1209045999858,226.62265710000065,226.1209045999858,226.62265710000065,226.1209045999858,226.62265710000065,226.1209045999858,226.62265710000065,226.1209045999858,226.62265710000065,226.1209045999858,226.62265710000065,226.1209045999858,226.62265710000065,225.23687369999243,None,226.62265710000065,227.72376649998478,0.9000000000000006,227.7574202999822,None,228.50793130000238,None,,,,,,,[1.09548387],2.7100000000000017,0.7741935483870968,11040,002,2024_Mar_14_1359,MFTM_A_new1021,2021.2.3,60.17028189850575,
,,,,,,,,stim/Instruction_adaptive.png,conditions/adaptive.xlsx,test,0.6,0.6,0.6,-0.6,-0.6,right,R,,,,,0,1,1,1,0,31,31,98,,,,,,,,,,,,,,,,,,,,,,,,,,,,,,,,,,,,,,,,,,,,229.00958909999463,None,right,1,1.173176100011915,229.50944140000502,231.02934539999114,229.50944140000502,230.52846199998748,229.50944140000502,230.52846199998748,229.50944140000502,230.52846199998748,229.50944140000502,230.52846199998748,229.50944140000502,230.52846199998748,230.49514220000128,230.9958914000017,230.49514220000128,230.9958914000017,230.49514220000128,230.9958914000017,230.49514220000128,230.9958914000017,230.49514220000128,230.9958914000017,230.49514220000128,230.9958914000017,230.49514220000128,230.9958914000017,230.49514220000128,230.9958914000017,229.50944140000502,None,230.9958914000017,232.1140721999982,1.0100000000000007,232.14832320000278,None,232.89888490000158,None,,,,,,,[1.1078125],2.7700000000000022,0.78125,11040,002,2024_Mar_14_1359,MFTM_A_new1021,2021.2.3,60.17028189850575,
,,,,,,,,stim/Instruction_adaptive.png,conditions/adaptive.xlsx,test,0.6,0.6,0.6,-0.6,-0.6,right,R,,,,,0,1,1,1,0,32,32,52,,,,,,,,,,,,,,,,,,,,,,,,,,,,,,,,,,,,,,,,,,,,233.39913479998359,None,left,0,1.7352485000155866,233.90022559999488,235.36830740000005,233.90022559999488,234.8681929000013,233.90022559999488,234.8681929000013,233.90022559999488,234.8681929000013,233.90022559999488,234.8681929000013,233.90022559999488,234.8681929000013,234.83464299998013,235.33496799998102,234.83464299998013,235.33496799998102,234.83464299998013,235.33496799998102,234.83464299998013,235.33496799998102,234.83464299998013,235.33496799998102,234.83464299998013,235.33496799998102,234.83464299998013,235.33496799998102,234.83464299998013,235.33496799998102,233.90022559999488,None,235.33496799998102,236.4700006999774,0.9600000000000006,236.50383810000494,None,237.2542306999967,None,,,,,,,[1.12090909],2.610000000000002,0.7575757575757576,11040,002,2024_Mar_14_1359,MFTM_A_new1021,2021.2.3,60.17028189850575,
,,,,,,,,stim/Instruction_adaptive.png,conditions/adaptive.xlsx,test,0.6,0.6,0.6,-0.6,-0.6,right,R,,,,,0,1,1,1,0,33,33,88,,,,,,,,,,,,,,,,,,,,,,,,,,,,,,,,,,,,,,,,,,,,237.75518369997735,None,right,1,1.8102555999939796,238.2566590999777,239.84264869999606,238.2566590999777,239.34149019999313,238.2566590999777,239.34149019999313,238.2566590999777,239.34149019999313,238.2566590999777,239.34149019999313,238.2566590999777,239.34149019999313,239.32514050000464,239.82594579999568,239.32514050000464,239.82594579999568,239.32514050000464,239.82594579999568,239.32514050000464,239.82594579999568,239.32514050000464,239.82594579999568,239.32514050000464,239.82594579999568,239.32514050000464,239.82594579999568,239.32514050000464,239.82594579999568,238.2566590999777,None,239.82594579999568,240.96086130000185,1.0800000000000007,240.9949757999857,None,241.74550160000217,None,,,,,,,[1.12970588],2.6700000000000017,0.7647058823529411,11040,002,2024_Mar_14_1359,MFTM_A_new1021,2021.2.3,60.17028189850575,
,,,,,,,,stim/Instruction_adaptive.png,conditions/adaptive.xlsx,test,0.6,0.6,0.6,-0.6,-0.6,right,R,,,,,0,1,1,1,0,34,34,56,,,,,,,,,,,,,,,,,,,,,,,,,,,,,,,,,,,,,,,,,,,,242.2463690000004,None,right,1,1.256735100003425,242.7467115999898,244.2826928999857,242.7467115999898,243.78211249999003,242.7467115999898,243.78211249999003,242.7467115999898,243.78211249999003,242.7467115999898,243.78211249999003,242.7467115999898,243.78211249999003,243.7653561999905,244.26601379999192,243.7653561999905,244.26601379999192,243.7653561999905,244.26601379999192,243.7653561999905,244.26601379999192,243.7653561999905,244.26601379999192,243.7653561999905,244.26601379999192,243.7653561999905,244.26601379999192,243.7653561999905,244.26601379999192,242.7467115999898,None,244.26601379999192,None,1.0300000000000007,245.43491749998066,None,246.18497569998726,None,,,,,,,[1.13942857],2.720000000000002,0.7714285714285715,11040,002,2024_Mar_14_1359,MFTM_A_new1021,2021.2.3,60.17028189850575,
,,,,,,,,stim/Instruction_adaptive.png,conditions/adaptive.xlsx,test,-0.6,-0.6,-0.6,0.6,0.6,left,L,,,,,0,1,1,1,0,35,35,49,,,,,,,,,,,,,,,,,,,,,,,,,,,,,,,,,,,,,,,,,,,,246.68629339998006,None,left,1,1.625746200006688,247.1860495999863,248.68930879997788,247.1860495999863,248.1885326000047,247.1860495999863,248.1885326000047,247.1860495999863,248.1885326000047,247.1860495999863,248.1885326000047,247.1860495999863,248.1885326000047,248.17094650000217,248.67253999999957,248.17094650000217,248.67253999999957,248.17094650000217,248.67253999999957,248.17094650000217,248.67253999999957,248.17094650000217,248.67253999999957,248.17094650000217,248.67253999999957,248.17094650000217,248.67253999999957,248.17094650000217,248.67253999999957,247.1860495999863,None,248.67253999999957,249.82425509998575,1.0000000000000007,249.84033959999215,None,250.59249320000526,None,,,,,,,[1.14944444],2.7700000000000022,0.7777777777777778,11040,002,2024_Mar_14_1359,MFTM_A_new1021,2021.2.3,60.17028189850575,
,,,,,,,,stim/Instruction_adaptive.png,conditions/adaptive.xlsx,test,-0.6,-0.6,-0.6,0.6,0.6,left,L,,,,,0,1,1,1,0,36,36,21,,,,,,,,,,,,,,,,,,,,,,,,,,,,,,,,,,,,,,,,,,,,251.09302830000524,None,left,1,0.9946907999983523,251.59281659999397,253.06249089998892,251.59281659999397,252.5618456999946,251.59281659999397,252.5618456999946,251.59281659999397,252.5618456999946,251.59281659999397,252.5618456999946,251.59281659999397,252.5618456999946,252.54478209998342,253.0448497000034,252.54478209998342,253.0448497000034,252.54478209998342,253.0448497000034,252.54478209998342,253.0448497000034,252.54478209998342,253.0448497000034,252.54478209998342,253.0448497000034,252.54478209998342,253.0448497000034,252.54478209998342,253.0448497000034,251.59281659999397,None,253.02918319997843,254.1975747999968,0.9600000000000006,254.2135373999772,None,254.96526739999535,None,,,,,,,[1.16],2.8100000000000023,0.7837837837837838,11040,002,2024_Mar_14_1359,MFTM_A_new1021,2021.2.3,60.17028189850575,
,,,,,,,,stim/Instruction_adaptive.png,conditions/adaptive.xlsx,test,-0.6,-0.6,-0.6,0.6,0.6,left,L,,,,,0,1,1,1,0,37,37,93,,,,,,,,,,,,,,,,,,,,,,,,,,,,,,,,,,,,,,,,,,,,255.4652972999902,None,right,0,1.092729900003178,255.96666419997928,257.41894039997715,255.96666419997928,256.918520599982,255.96666419997928,256.918520599982,255.96666419997928,256.918520599982,255.96666419997928,256.918520599982,255.96666419997928,256.918520599982,256.88467030000174,257.3859966000018,256.88467030000174,257.3859966000018,256.88467030000174,257.3859966000018,256.88467030000174,257.3859966000018,256.88467030000174,257.3859966000018,256.88467030000174,257.3859966000018,256.88467030000174,257.3859966000018,256.88467030000174,257.3859966000018,255.96666419997928,None,257.3859966000018,258.5709734999982,0.9400000000000006,258.60479099999066,None,259.355004299985,None,,,,,,,[1.17052632],2.680000000000002,0.7631578947368421,11040,002,2024_Mar_14_1359,MFTM_A_new1021,2021.2.3,60.17028189850575,
,,,,,,,,stim/Instruction_adaptive.png,conditions/adaptive.xlsx,test,0.6,0.6,0.6,-0.6,-0.6,right,R,,,,,0,1,1,1,0,38,38,20,,,,,,,,,,,,,,,,,,,,,,,,,,,,,,,,,,,,,,,,,,,,259.85618559998693,None,left,0,1.3517243000096641,260.35655399999814,261.89259529998526,260.35655399999814,261.39070580000407,260.35655399999814,261.39070580000407,260.35655399999814,261.39070580000407,260.35655399999814,261.39070580000407,260.35655399999814,261.39070580000407,261.37401879997924,261.87625989998924,261.37401879997924,261.87625989998924,261.37401879997924,261.87625989998924,261.37401879997924,261.87625989998924,261.37401879997924,261.87625989998924,261.37401879997924,261.87625989998924,261.37401879997924,261.87625989998924,261.37401879997924,261.87625989998924,260.35655399999814,None,261.87625989998924,263.0604154999892,1.0300000000000007,263.09490070000174,None,263.8455256999878,None,,,,,,,[1.17820513],2.540000000000002,0.7435897435897436,11040,002,2024_Mar_14_1359,MFTM_A_new1021,2021.2.3,60.17028189850575,
,,,,,,,,stim/Instruction_adaptive.png,conditions/adaptive.xlsx,test,0.6,0.6,0.6,-0.6,-0.6,right,R,,,,,0,1,1,1,0,39,39,66,,,,,,,,,,,,,,,,,,,,,,,,,,,,,,,,,,,,,,,,,,,,264.346323100006,None,right,1,1.2798411000112537,264.846051600005,266.48259820000385,264.846051600005,265.98105259999284,264.846051600005,265.98105259999284,264.846051600005,265.98105259999284,264.846051600005,265.98105259999284,264.846051600005,265.98105259999284,265.9650088000053,266.4656548000057,265.9650088000053,266.4656548000057,265.9650088000053,266.4656548000057,265.9650088000053,266.4656548000057,265.9650088000053,266.4656548000057,265.9650088000053,266.4656548000057,265.9650088000053,266.4656548000057,265.9650088000053,266.4656548000057,264.846051600005,None,266.4656548000057,267.65101069997763,1.1300000000000008,267.6850896999822,None,268.43460469998536,None,,,,,,,[1.183],2.5900000000000016,0.75,11040,002,2024_Mar_14_1359,MFTM_A_new1021,2021.2.3,60.17028189850575,
,,,,,,,,stim/Instruction_adaptive.png,conditions/adaptive.xlsx,test,0.6,0.6,0.6,-0.6,-0.6,right,R,,,,,0,1,1,1,0,40,40,76,,,,,,,,,,,,,,,,,,,,,,,,,,,,,,,,,,,,,,,,,,,,268.93659509997815,None,right,1,1.198733600002015,269.4370864999946,271.0396308999916,269.4370864999946,270.5383853999956,269.4370864999946,270.5383853999956,269.4370864999946,270.5383853999956,269.4370864999946,270.5383853999956,269.4370864999946,270.5383853999956,270.50505229999544,271.00643359997775,270.50505229999544,271.00643359997775,270.50505229999544,271.00643359997775,270.50505229999544,271.00643359997775,270.50505229999544,271.00643359997775,270.50505229999544,271.00643359997775,270.50505229999544,271.00643359997775,270.50505229999544,271.00643359997775,269.4370864999946,None,271.00643359997775,272.20807719998993,1.0900000000000007,272.22407419999945,None,272.97502759998315,None,,,,,,,[1.18853659],2.6300000000000017,0.7560975609756098,11040,002,2024_Mar_14_1359,MFTM_A_new1021,2021.2.3,60.17028189850575,
,,,,,,,,stim/Instruction_adaptive.png,conditions/adaptive.xlsx,test,-0.6,-0.6,-0.6,0.6,0.6,left,L,,,,,0,1,1,1,0,41,41,31,,,,,,,,,,,,,,,,,,,,,,,,,,,,,,,,,,,,,,,,,,,,273.4762348999793,None,left,1,1.1790982999955304,273.976826099999,275.5465134999831,273.976826099999,275.04599230000167,273.976826099999,275.04599230000167,273.976826099999,275.04599230000167,273.976826099999,275.04599230000167,273.976826099999,275.04599230000167,275.0123387000058,275.5126728999894,275.0123387000058,275.5126728999894,275.0123387000058,275.5126728999894,275.0123387000058,275.5126728999894,275.0123387000058,275.5126728999894,275.0123387000058,275.5126728999894,275.0123387000058,275.5126728999894,275.0123387000058,275.5126728999894,273.976826099999,None,275.5126728999894,276.715112099977,1.0600000000000007,276.74878850000096,None,277.4994529999967,None,,,,,,,[1.19452381],2.680000000000002,0.7619047619047619,11040,002,2024_Mar_14_1359,MFTM_A_new1021,2021.2.3,60.17028189850575,
,,,,,,,,stim/Instruction_adaptive.png,conditions/adaptive.xlsx,test,0.6,0.6,0.6,-0.6,-0.6,right,R,,,,,0,1,1,1,0,42,42,40,,,,,,,,,,,,,,,,,,,,,,,,,,,,,,,,,,,,,,,,,,,,278.0002201999887,None,right,1,1.6870555000205059,278.5010321000009,280.03550559998257,278.5010321000009,279.535888399987,278.5010321000009,279.535888399987,278.5010321000009,279.535888399987,278.5010321000009,279.535888399987,278.5010321000009,279.535888399987,279.51882919998025,280.01912799998536,279.51882919998025,280.01912799998536,279.51882919998025,280.01912799998536,279.51882919998025,280.01912799998536,279.51882919998025,280.01912799998536,279.51882919998025,280.01912799998536,279.51882919998025,280.01912799998536,279.51882919998025,280.01912799998536,278.5010321000009,None,280.01912799998536,281.22067379998043,1.0300000000000007,281.2373001999804,None,281.9889450999908,None,,,,,,,[1.20093023],2.720000000000002,0.7674418604651163,11040,002,2024_Mar_14_1359,MFTM_A_new1021,2021.2.3,60.17028189850575,
,,,,,,,,stim/Instruction_adaptive.png,conditions/adaptive.xlsx,test,0.6,0.6,0.6,-0.6,-0.6,right,R,,,,,0,1,1,1,0,43,43,74,,,,,,,,,,,,,,,,,,,,,,,,,,,,,,,,,,,,,,,,,,,,282.4891958999797,None,right,1,1.2622798000229523,282.990573099989,284.4935625999933,282.990573099989,283.9923714000033,282.990573099989,283.9923714000033,282.990573099989,283.9923714000033,282.990573099989,283.9923714000033,282.990573099989,283.9923714000033,283.9757985000033,284.47644779999973,283.9757985000033,284.47644779999973,283.9757985000033,284.47644779999973,283.9757985000033,284.47644779999973,283.9757985000033,284.47644779999973,283.9757985000033,284.47644779999973,283.9757985000033,284.47644779999973,283.9757985000033,284.47644779999973,282.990573099989,None,284.47644779999973,285.69482519998564,1.0000000000000007,285.71130500000436,None,286.4629087999929,None,,,,,,,[1.20772727],2.760000000000002,0.7727272727272727,11040,002,2024_Mar_14_1359,MFTM_A_new1021,2021.2.3,60.17028189850575,
,,,,,,,,stim/Instruction_adaptive.png,conditions/adaptive.xlsx,test,-0.6,-0.6,-0.6,0.6,0.6,left,L,,,,,0,1,1,1,0,44,44,95,,,,,,,,,,,,,,,,,,,,,,,,,,,,,,,,,,,,,,,,,,,,286.9635976999998,None,left,1,1.420780399988871,287.4634991000057,288.93284359999234,287.4634991000057,288.44916449999437,287.4634991000057,288.44916449999437,287.4634991000057,288.44916449999437,287.4634991000057,288.44916449999437,287.4634991000057,288.44916449999437,288.4156568000035,288.91701629999443,288.4156568000035,288.91701629999443,288.4156568000035,288.91701629999443,288.4156568000035,288.91701629999443,288.4156568000035,288.91701629999443,288.4156568000035,288.91701629999443,288.4156568000035,288.91701629999443,288.4156568000035,288.91701629999443,287.4634991000057,None,288.91701629999443,290.1351233999885,0.9700000000000006,290.1688170999987,None,290.9197107999935,None,,,,,,,[1.21488889],2.800000000000002,0.7777777777777778,11040,002,2024_Mar_14_1359,MFTM_A_new1021,2021.2.3,60.17028189850575,
,,,,,,,,stim/Instruction_adaptive.png,conditions/adaptive.xlsx,test,0.6,0.6,0.6,-0.6,-0.6,right,R,,,,,0,1,1,1,0,45,45,90,,,,,,,,,,,,,,,,,,,,,,,,,,,,,,,,,,,,,,,,,,,,291.42007150000427,None,right,1,0.827700099995127,291.92073339998024,293.3724615999963,291.92073339998024,292.87171479998506,291.92073339998024,292.87171479998506,291.92073339998024,292.87171479998506,291.92073339998024,292.87171479998506,291.92073339998024,292.87171479998506,292.83824699997786,293.3391228999826,292.83824699997786,293.3391228999826,292.83824699997786,293.3391228999826,292.83824699997786,293.3391228999826,292.83824699997786,293.3391228999826,292.83824699997786,293.3391228999826,292.83824699997786,293.3391228999826,292.83824699997786,293.3391228999826,291.92073339998024,None,293.3391228999826,294.57520930000464,0.9400000000000006,294.5907689000014,None,295.34323810000205,None,,,,,,,[1.2223913],2.840000000000002,0.782608695652174,11040,002,2024_Mar_14_1359,MFTM_A_new1021,2021.2.3,60.17028189850575,
,,,,,,,,stim/Instruction_adaptive.png,conditions/adaptive.xlsx,test,-0.6,-0.6,-0.6,0.6,0.6,left,L,,,,,0,1,1,1,0,46,46,57,,,,,,,,,,,,,,,,,,,,,,,,,,,,,,,,,,,,,,,,,,,,295.8437061999866,None,left,1,1.069697200000519,296.3435623999976,297.7633615999948,296.3435623999976,297.2791951999825,296.3435623999976,297.2791951999825,296.3435623999976,297.2791951999825,296.3435623999976,297.2791951999825,296.3435623999976,297.2791951999825,297.24561009998433,297.74653839998064,297.24561009998433,297.74653839998064,297.24561009998433,297.74653839998064,297.24561009998433,297.74653839998064,297.24561009998433,297.74653839998064,297.24561009998433,297.74653839998064,297.24561009998433,297.74653839998064,297.24561009998433,297.74653839998064,296.3435623999976,None,297.74653839998064,298.98174519999884,0.9200000000000006,298.99745239998447,None,299.74862939998275,None,,,,,,,[1.23],2.880000000000002,0.7872340425531915,11040,002,2024_Mar_14_1359,MFTM_A_new1021,2021.2.3,60.17028189850575,
,,,,,,,,stim/Instruction_adaptive.png,conditions/adaptive.xlsx,test,-0.6,-0.6,-0.6,0.6,0.6,left,L,,,,,0,1,1,1,0,47,47,85,,,,,,,,,,,,,,,,,,,,,,,,,,,,,,,,,,,,,,,,,,,,300.25024459999986,None,left,1,1.1828538999834564,300.7504527999845,302.1531514999806,300.7504527999845,301.65233609999996,300.7504527999845,301.65233609999996,300.7504527999845,301.65233609999996,300.7504527999845,301.65233609999996,300.7504527999845,301.65233609999996,301.6185765999835,302.1199392999988,301.6185765999835,302.1199392999988,301.6185765999835,302.1199392999988,301.6185765999835,302.1199392999988,301.6185765999835,302.1199392999988,301.6185765999835,302.1199392999988,301.6185765999835,302.1199392999988,301.6185765999835,302.1199392999988,300.7504527999845,None,302.1199392999988,303.37173990000156,0.8900000000000006,303.387362199981,None,304.1390422999975,None,,,,,,,[1.23791667],2.910000000000002,0.7916666666666666,11040,002,2024_Mar_14_1359,MFTM_A_new1021,2021.2.3,60.17028189850575,
,,,,,,,,stim/Instruction_adaptive.png,conditions/adaptive.xlsx,test,-0.6,-0.6,-0.6,0.6,0.6,left,L,,,,,0,1,1,1,0,48,48,33,,,,,,,,,,,,,,,,,,,,,,,,,,,,,,,,,,,,,,,,,,,,304.6393426999857,None,left,1,0.7602241999993566,305.1404057999898,306.52625929997885,305.1404057999898,306.02533330000006,305.1404057999898,306.02533330000006,305.1404057999898,306.02533330000006,305.1404057999898,306.02533330000006,305.1404057999898,306.02533330000006,306.00805429997854,306.50928549998207,306.00805429997854,306.50928549998207,306.00805429997854,306.50928549998207,306.00805429997854,306.50928549998207,306.00805429997854,306.50928549998207,306.00805429997854,306.50928549998207,306.00805429997854,306.50928549998207,306.00805429997854,306.50928549998207,305.1404057999898,None,306.50928549998207,307.76105629999074,0.8800000000000006,307.7776331999921,None,308.5289561999962,None,,,,,,,[1.24571429],2.950000000000002,0.7959183673469388,11040,002,2024_Mar_14_1359,MFTM_A_new1021,2021.2.3,60.17028189850575,
,,,,,,,,stim/Instruction_adaptive.png,conditions/adaptive.xlsx,test,0.6,0.6,0.6,-0.6,-0.6,right,R,,,,,0,1,1,1,0,49,49,2,,,,,,,,,,,,,,,,,,,,,,,,,,,,,,,,,,,,,,,,,,,,309.02919380000094,None,left,0,1.3936890000186395,309.5472271000035,310.8996254999947,309.5472271000035,310.39823229998,309.5472271000035,310.39823229998,309.5472271000035,310.39823229998,309.5472271000035,310.39823229998,309.5472271000035,310.39823229998,310.3656330999802,310.86601199998404,310.3656330999802,310.86601199998404,310.3656330999802,310.86601199998404,310.3656330999802,310.86601199998404,310.3656330999802,310.86601199998404,310.3656330999802,310.86601199998404,310.3656330999802,310.86601199998404,310.3656330999802,310.86601199998404,309.5472271000035,None,310.86601199998404,312.1346794999845,0.8500000000000005,312.1686243999866,None,312.9186289999925,None,,,,,,,[1.2538],2.8500000000000023,0.78,11040,002,2024_Mar_14_1359,MFTM_A_new1021,2021.2.3,60.17028189850575,
,,,,,,,,stim/Instruction_adaptive.png,conditions/adaptive.xlsx,test,-0.6,-0.6,-0.6,0.6,0.6,left,L,,,,,0,1,1,1,0,50,50,61,,,,,,,,,,,,,,,,,,,,,,,,,,,,,,,,,,,,,,,,,,,,313.4201250000042,None,left,1,1.0687362999888137,313.92092770000454,315.33904849999817,313.92092770000454,314.8390101999976,313.92092770000454,314.8390101999976,313.92092770000454,314.8390101999976,313.92092770000454,314.8390101999976,313.92092770000454,314.8390101999976,314.80468839997775,315.30640919998405,314.80468839997775,315.30640919998405,314.80468839997775,315.30640919998405,314.80468839997775,315.30640919998405,314.80468839997775,315.30640919998405,314.80468839997775,315.30640919998405,314.80468839997775,315.30640919998405,314.80468839997775,315.30640919998405,313.92092770000454,None,315.30640919998405,316.57515109999804,0.9100000000000006,316.60804969997844,None,317.35839769997983,None,,,,,,,[1.26039216],2.880000000000002,0.7843137254901961,11040,002,2024_Mar_14_1359,MFTM_A_new1021,2021.2.3,60.17028189850575,
,,,,,,,,stim/Instruction_adaptive.png,conditions/adaptive.xlsx,test,-0.6,-0.6,-0.6,0.6,0.6,left,L,,,,,0,1,1,1,0,51,51,69,,,,,,,,,,,,,,,,,,,,,,,,,,,,,,,,,,,,,,,,,,,,317.859301199991,None,left,1,0.9411997999995947,318.3599511999928,319.7648832999985,318.3599511999928,319.2623350999784,318.3599511999928,319.2623350999784,318.3599511999928,319.2623350999784,318.3599511999928,319.2623350999784,318.3599511999928,319.2623350999784,319.22875270000077,319.7291333999892,319.22875270000077,319.7291333999892,319.22875270000077,319.7291333999892,319.22875270000077,319.7291333999892,319.22875270000077,319.7291333999892,319.22875270000077,319.7291333999892,319.22875270000077,319.7291333999892,319.22875270000077,319.7291333999892,318.3599511999928,None,319.7291333999892,320.99716400000034,0.8900000000000006,321.0319899999886,None,321.7827769999858,None,,,,,,,[1.26711538],2.920000000000002,0.7884615384615384,11040,002,2024_Mar_14_1359,MFTM_A_new1021,2021.2.3,60.17028189850575,
,,,,,,,,stim/Instruction_adaptive.png,conditions/adaptive.xlsx,test,0.6,0.6,0.6,-0.6,-0.6,right,R,,,,,0,1,1,1,0,52,52,36,,,,,,,,,,,,,,,,,,,,,,,,,,,,,,,,,,,,,,,,,,,,322.28368659998523,None,right,1,1.2695657000003848,322.78377300000284,324.15255030000117,322.78377300000284,323.6685837999976,322.78377300000284,323.6685837999976,322.78377300000284,323.6685837999976,322.78377300000284,323.6685837999976,322.78377300000284,323.6685837999976,323.63563689999864,324.1361393999832,323.63563689999864,324.1361393999832,323.63563689999864,324.1361393999832,323.63563689999864,324.1361393999832,323.63563689999864,324.1361393999832,323.63563689999864,324.1361393999832,323.63563689999864,324.1361393999832,323.63563689999864,324.1361393999832,322.78377300000284,None,324.1361393999832,325.4219152999867,0.8700000000000006,325.45526039999095,None,326.2049707999977,None,,,,,,,[1.27396226],2.950000000000002,0.7924528301886793,11040,002,2024_Mar_14_1359,MFTM_A_new1021,2021.2.3,60.17028189850575,
,,,,,,,,stim/Instruction_adaptive.png,conditions/adaptive.xlsx,test,0.6,0.6,0.6,-0.6,-0.6,right,R,,,,,0,1,1,1,0,53,53,28,,,,,,,,,,,,,,,,,,,,,,,,,,,,,,,,,,,,,,,,,,,,326.7066651999776,None,left,0,1.2386307000124361,327.2066425999801,328.5586456999881,327.2066425999801,328.05914289999055,327.2066425999801,328.05914289999055,327.2066425999801,328.05914289999055,327.2066425999801,328.05914289999055,327.2066425999801,328.05914289999055,328.04231580000487,328.54204289999325,328.04231580000487,328.54204289999325,328.04231580000487,328.54204289999325,328.04231580000487,328.54204289999325,328.04231580000487,328.54204289999325,328.04231580000487,328.54204289999325,328.04231580000487,328.54204289999325,328.04231580000487,328.54204289999325,327.2066425999801,None,328.54204289999325,329.82825599997886,0.8500000000000005,329.86192049999954,None,330.6128442999907,None,,,,,,,[1.28092593],2.8500000000000023,0.7777777777777778,11040,002,2024_Mar_14_1359,MFTM_A_new1021,2021.2.3,60.17028189850575,
,,,,,,,,stim/Instruction_adaptive.png,conditions/adaptive.xlsx,test,-0.6,-0.6,-0.6,0.6,0.6,left,L,,,,,0,1,1,1,0,54,54,41,,,,,,,,,,,,,,,,,,,,,,,,,,,,,,,,,,,,,,,,,,,,331.11349509999854,None,left,1,1.0717344000004232,331.6138340999896,333.0326204999874,331.6138340999896,332.53240430000005,331.6138340999896,332.53240430000005,331.6138340999896,332.53240430000005,331.6138340999896,332.53240430000005,331.6138340999896,332.53240430000005,332.4989484999969,332.9997827000043,332.4989484999969,332.9997827000043,332.4989484999969,332.9997827000043,332.4989484999969,332.9997827000043,332.4989484999969,332.9997827000043,332.4989484999969,332.9997827000043,332.4989484999969,332.9997827000043,332.4989484999969,332.9997827000043,331.6138340999896,None,332.9997827000043,334.30063339998014,0.9100000000000006,334.33436099998653,None,335.0862262999872,None,,,,,,,[1.28654545],2.8900000000000023,0.7818181818181819,11040,002,2024_Mar_14_1359,MFTM_A_new1021,2021.2.3,60.17028189850575,
,,,,,,,,stim/Instruction_adaptive.png,conditions/adaptive.xlsx,test,0.6,0.6,0.6,-0.6,-0.6,right,R,,,,,0,1,1,1,0,55,55,16,,,,,,,,,,,,,,,,,,,,,,,,,,,,,,,,,,,,,,,,,,,,335.5858608999988,None,right,1,1.518582399992738,336.0877206999867,337.48992769999313,336.0877206999867,336.988846799999,336.0877206999867,336.988846799999,336.0877206999867,336.988846799999,336.0877206999867,336.988846799999,336.0877206999867,336.988846799999,336.9554651999788,337.4563253999804,336.9554651999788,337.4563253999804,336.9554651999788,337.4563253999804,336.9554651999788,337.4563253999804,336.9554651999788,337.4563253999804,336.9554651999788,337.4563253999804,336.9554651999788,337.4563253999804,336.9554651999788,337.4563253999804,336.0877206999867,None,337.4563253999804,338.75771429997985,0.8900000000000006,338.7744739000045,None,339.52625339999213,None,,,,,,,[1.29232143],2.920000000000002,0.7857142857142857,11040,002,2024_Mar_14_1359,MFTM_A_new1021,2021.2.3,60.17028189850575,
,,,,,,,,stim/Instruction_adaptive.png,conditions/adaptive.xlsx,test,-0.6,-0.6,-0.6,0.6,0.6,left,L,,,,,0,1,1,1,0,56,56,37,,,,,,,,,,,,,,,,,,,,,,,,,,,,,,,,,,,,,,,,,,,,340.02696479999577,None,left,1,1.078903999994509,340.52705699999933,341.8965441999899,340.52705699999933,341.4114012999926,340.52705699999933,341.4114012999926,340.52705699999933,341.4114012999926,340.52705699999933,341.4114012999926,340.52705699999933,341.4114012999926,341.3786536999978,341.87972579998313,341.3786536999978,341.87972579998313,341.3786536999978,341.87972579998313,341.3786536999978,341.87972579998313,341.3786536999978,341.87972579998313,341.3786536999978,341.87972579998313,341.3786536999978,341.87972579998313,341.3786536999978,341.87972579998313,340.52705699999933,None,341.87972579998313,343.1817293999775,0.8700000000000006,343.19726519999676,None,343.949474699999,None,,,,,,,[1.29824561],2.950000000000002,0.7894736842105263,11040,002,2024_Mar_14_1359,MFTM_A_new1021,2021.2.3,60.17028189850575,
,,,,,,,,stim/Instruction_adaptive.png,conditions/adaptive.xlsx,test,-0.6,-0.6,-0.6,0.6,0.6,left,L,,,,,0,1,1,1,0,57,57,91,,,,,,,,,,,,,,,,,,,,,,,,,,,,,,,,,,,,,,,,,,,,344.45030319999205,None,left,1,1.4638508999778423,344.9500724999816,346.3028331999958,344.9500724999816,345.80233239999507,344.9500724999816,345.80233239999507,344.9500724999816,345.80233239999507,344.9500724999816,345.80233239999507,344.9500724999816,345.80233239999507,345.78566480000154,346.28642619997845,345.78566480000154,346.28642619997845,345.78566480000154,346.28642619997845,345.78566480000154,346.28642619997845,345.78566480000154,346.28642619997845,345.78566480000154,346.28642619997845,345.78566480000154,346.28642619997845,345.78566480000154,346.28642619997845,344.9500724999816,None,346.28642619997845,None,0.8500000000000005,347.6037595999951,None,348.35509480000474,None,,,,,,,[1.30431034],2.980000000000002,0.7931034482758621,11040,002,2024_Mar_14_1359,MFTM_A_new1021,2021.2.3,60.17028189850575,
,,,,,,,,stim/Instruction_adaptive.png,conditions/adaptive.xlsx,test,-0.6,-0.6,-0.6,0.6,0.6,left,L,,,,,0,1,1,1,0,58,58,1,,,,,,,,,,,,,,,,,,,,,,,,,,,,,,,,,,,,,,,,,,,,348.85602409997955,None,left,1,1.248255100013921,349.3576097000041,350.6923181999882,349.3576097000041,350.1917190999957,349.3576097000041,350.1917190999957,349.3576097000041,350.1917190999957,349.3576097000041,350.1917190999957,349.3576097000041,350.1917190999957,350.17524680000497,350.67535239999415,350.17524680000497,350.67535239999415,350.17524680000497,350.67535239999415,350.17524680000497,350.67535239999415,350.17524680000497,350.67535239999415,350.17524680000497,350.67535239999415,350.17524680000497,350.67535239999415,350.17524680000497,350.67535239999415,349.3576097000041,None,350.65861069998937,351.97799980000127,0.8300000000000005,352.0287056999805,None,352.77965529999346,None,,,,,,,[1.31050847],3.0100000000000025,0.7966101694915254,11040,002,2024_Mar_14_1359,MFTM_A_new1021,2021.2.3,60.17028189850575,
,,,,,,,,stim/Instruction_adaptive.png,conditions/adaptive.xlsx,test,0.6,0.6,0.6,-0.6,-0.6,right,R,,,,,0,1,1,1,0,59,59,32,,,,,,,,,,,,,,,,,,,,,,,,,,,,,,,,,,,,,,,,,,,,353.28002189999097,None,left,0,1.5291668999998365,353.78114659999846,355.1162842999911,353.78114659999846,354.61497289998806,353.78114659999846,354.61497289998806,353.78114659999846,354.61497289998806,353.78114659999846,354.61497289998806,353.78114659999846,354.61497289998806,354.5820557999832,355.0829758000036,354.5820557999832,355.0829758000036,354.5820557999832,355.0829758000036,354.5820557999832,355.0829758000036,354.5820557999832,355.0829758000036,354.5820557999832,355.0829758000036,354.5820557999832,355.0829758000036,354.5820557999832,355.0829758000036,353.78114659999846,None,355.0829758000036,356.4007467000047,0.8200000000000005,356.4170122999931,None,357.16894139998476,None,,,,,,,[1.31666667],2.920000000000002,0.7833333333333333,11040,002,2024_Mar_14_1359,MFTM_A_new1021,2021.2.3,60.17028189850575,
,,,,,,,,stim/Instruction_adaptive.png,conditions/adaptive.xlsx,test,0.6,0.6,0.6,-0.6,-0.6,right,R,,,,,0,1,1,1,0,60,60,38,,,,,,,,,,,,,,,,,,,,,,,,,,,,,,,,,,,,,,,,,,,,357.6692401999899,None,right,1,1.2201562000263948,358.1703446999891,359.55642809998244,358.1703446999891,359.05557349999435,358.1703446999891,359.05557349999435,358.1703446999891,359.05557349999435,358.1703446999891,359.05557349999435,358.1703446999891,359.05557349999435,359.0216872000019,359.5225475000043,359.0216872000019,359.5225475000043,359.0216872000019,359.5225475000043,359.0216872000019,359.5225475000043,359.0216872000019,359.5225475000043,359.0216872000019,359.5225475000043,359.0216872000019,359.5225475000043,359.0216872000019,359.5225475000043,358.1703446999891,None,359.5225475000043,360.8580433999887,0.8700000000000006,360.8746462999843,None,361.6254195999936,None,,,,,,,[1.32180328],2.950000000000002,0.7868852459016393,11040,002,2024_Mar_14_1359,MFTM_A_new1021,2021.2.3,60.17028189850575,
,,,,,,,,stim/Instruction_adaptive.png,conditions/adaptive.xlsx,test,0.6,0.6,0.6,-0.6,-0.6,right,R,,,,,0,1,1,1,0,61,61,70,,,,,,,,,,,,,,,,,,,,,,,,,,,,,,,,,,,,,,,,,,,,362.1263010999828,None,right,1,1.0836640000052284,362.62710819998756,363.9794372000033,362.62710819998756,363.4786474999855,362.62710819998756,363.4786474999855,362.62710819998756,363.4786474999855,362.62710819998756,363.4786474999855,362.62710819998756,363.4786474999855,363.4612774999987,363.962872300006,363.4612774999987,363.962872300006,363.4612774999987,363.962872300006,363.4612774999987,363.962872300006,363.4612774999987,363.962872300006,363.4612774999987,363.962872300006,363.4612774999987,363.962872300006,363.4612774999987,363.962872300006,362.62710819998756,None,363.962872300006,365.29840599998715,0.8500000000000005,365.3140016999969,None,366.06626409999444,None,,,,,,,[1.32709677],2.980000000000002,0.7903225806451613,11040,002,2024_Mar_14_1359,MFTM_A_new1021,2021.2.3,60.17028189850575,
,,,,,,,,stim/Instruction_adaptive.png,conditions/adaptive.xlsx,test,-0.6,-0.6,-0.6,0.6,0.6,left,L,,,,,0,1,1,1,0,62,62,89,,,,,,,,,,,,,,,,,,,,,,,,,,,,,,,,,,,,,,,,,,,,366.5672762999893,None,left,1,1.492001500009792,367.06653809998534,368.40205799997784,367.06653809998534,367.9023212000029,367.06653809998534,367.9023212000029,367.06653809998534,367.9023212000029,367.06653809998534,367.9023212000029,367.06653809998534,367.9023212000029,367.88481459999457,368.3852775999985,367.88481459999457,368.3852775999985,367.88481459999457,368.3852775999985,367.88481459999457,368.3852775999985,367.88481459999457,368.3852775999985,367.88481459999457,368.3852775999985,367.88481459999457,368.3852775999985,367.88481459999457,368.3852775999985,367.06653809998534,None,368.3852775999985,369.72159949998604,0.8300000000000005,369.73721130000195,None,370.48954139999114,None,,,,,,,[1.33253968],3.0100000000000025,0.7936507936507936,11040,002,2024_Mar_14_1359,MFTM_A_new1021,2021.2.3,60.17028189850575,
,,,,,,,,stim/Instruction_adaptive.png,conditions/adaptive.xlsx,test,-0.6,-0.6,-0.6,0.6,0.6,left,L,,,,,0,1,1,1,0,63,63,87,,,,,,,,,,,,,,,,,,,,,,,,,,,,,,,,,,,,,,,,,,,,370.98999909998383,None,left,1,0.9242839999787975,371.49041169998236,372.82634430000326,371.49041169998236,372.3258080999949,371.49041169998236,372.3258080999949,371.49041169998236,372.3258080999949,371.49041169998236,372.3258080999949,371.49041169998236,372.3258080999949,372.2922134999826,372.7925830000022,372.2922134999826,372.7925830000022,372.2922134999826,372.7925830000022,372.2922134999826,372.7925830000022,372.2922134999826,372.7925830000022,372.2922134999826,372.7925830000022,372.2922134999826,372.7925830000022,372.2922134999826,372.7925830000022,371.49041169998236,None,372.7925830000022,374.1441819999891,0.8200000000000005,374.1608795999782,None,374.91255479998654,None,,,,,,,[1.33796875],3.030000000000002,0.796875,11040,002,2024_Mar_14_1359,MFTM_A_new1021,2021.2.3,60.17028189850575,
,,,,,,,,stim/Instruction_adaptive.png,conditions/adaptive.xlsx,test,-0.6,-0.6,-0.6,0.6,0.6,left,L,,,,,0,1,1,1,0,64,64,3,,,,,,,,,,,,,,,,,,,,,,,,,,,,,,,,,,,,,,,,,,,,375.41272599998047,None,right,0,0.9969436000101268,375.9139185999811,377.23257880000165,375.9139185999811,376.73250610000105,375.9139185999811,376.73250610000105,375.9139185999811,376.73250610000105,375.9139185999811,376.73250610000105,375.9139185999811,376.73250610000105,376.71578229998704,377.2162724999944,376.71578229998704,377.2162724999944,376.71578229998704,377.2162724999944,376.71578229998704,377.2162724999944,376.71578229998704,377.2162724999944,376.71578229998704,377.2162724999944,376.71578229998704,377.2162724999944,376.71578229998704,377.2162724999944,375.9139185999811,None,377.199887499999,378.55153969998355,0.8100000000000005,378.58562820000225,None,379.3362993999908,None,,,,,,,[1.34338462],2.950000000000002,0.7846153846153846,11040,002,2024_Mar_14_1359,MFTM_A_new1021,2021.2.3,60.17028189850575,
,,,,,,,,stim/Instruction_adaptive.png,conditions/adaptive.xlsx,test,-0.6,-0.6,-0.6,0.6,0.6,left,L,,,,,0,1,1,1,0,65,65,59,,,,,,,,,,,,,,,,,,,,,,,,,,,,,,,,,,,,,,,,,,,,379.83659920000355,None,right,0,1.462722099997336,380.32003469998017,381.6729447999969,380.32003469998017,381.1711865999969,380.32003469998017,381.1711865999969,380.32003469998017,381.1711865999969,380.32003469998017,381.1711865999969,380.32003469998017,381.1711865999969,381.15446469999733,381.6560194999911,381.15446469999733,381.6560194999911,381.15446469999733,381.6560194999911,381.15446469999733,381.6560194999911,381.15446469999733,381.6560194999911,381.15446469999733,381.6560194999911,381.15446469999733,381.6560194999911,381.15446469999733,381.6560194999911,380.32003469998017,None,381.6560194999911,383.0085073999944,0.8500000000000005,383.0424390999833,None,383.79324749999796,None,,,,,,,[1.3480303],2.880000000000002,0.7727272727272727,11040,002,2024_Mar_14_1359,MFTM_A_new1021,2021.2.3,60.17028189850575,
,,,,,,,,stim/Instruction_adaptive.png,conditions/adaptive.xlsx,test,0.6,0.6,0.6,-0.6,-0.6,right,R,,,,,0,1,1,1,0,66,66,10,,,,,,,,,,,,,,,,,,,,,,,,,,,,,,,,,,,,,,,,,,,,384.2937000999809,None,right,1,1.3017727000114974,384.7937544999877,386.19547999999486,384.7937544999877,385.69575199999963,384.7937544999877,385.69575199999963,384.7937544999877,385.69575199999963,384.7937544999877,385.69575199999963,384.7937544999877,385.69575199999963,385.662414099992,386.1620898999972,385.662414099992,386.1620898999972,385.662414099992,386.1620898999972,385.662414099992,386.1620898999972,385.662414099992,386.1620898999972,385.662414099992,386.1620898999972,385.662414099992,386.1620898999972,385.662414099992,386.1620898999972,384.7937544999877,None,386.1620898999972,387.5146824999829,0.8900000000000006,387.54782519998844,None,388.29875059999176,None,,,,,,,[1.3519403],2.900000000000002,0.7761194029850746,11040,002,2024_Mar_14_1359,MFTM_A_new1021,2021.2.3,60.17028189850575,
,,,,,,,,stim/Instruction_adaptive.png,conditions/adaptive.xlsx,test,-0.6,-0.6,-0.6,0.6,0.6,left,L,,,,,0,1,1,1,0,67,67,53,,,,,,,,,,,,,,,,,,,,,,,,,,,,,,,,,,,,,,,,,,,,388.80015060000005,None,left,1,0.810256600001594,389.30077879998134,390.68578790000174,389.30077879998134,390.1858261000016,389.30077879998134,390.1858261000016,389.30077879998134,390.1858261000016,389.30077879998134,390.1858261000016,389.30077879998134,390.1858261000016,390.1680025999958,390.66898960000253,390.1680025999958,390.66898960000253,390.1680025999958,390.66898960000253,390.1680025999958,390.66898960000253,390.1680025999958,390.66898960000253,390.1680025999958,390.66898960000253,390.1680025999958,390.66898960000253,390.1680025999958,390.66898960000253,389.30077879998134,None,390.66898960000253,None,0.8800000000000006,392.03736459999345,None,392.789520499995,None,,,,,,,[1.35588235],2.9300000000000024,0.7794117647058824,11040,002,2024_Mar_14_1359,MFTM_A_new1021,2021.2.3,60.17028189850575,
,,,,,,,,stim/Instruction_adaptive.png,conditions/adaptive.xlsx,test,0.6,0.6,0.6,-0.6,-0.6,right,R,,,,,0,1,1,1,0,68,68,54,,,,,,,,,,,,,,,,,,,,,,,,,,,,,,,,,,,,,,,,,,,,393.29055259999586,None,right,1,1.2892714999907184,393.79043569997884,395.1601032000035,393.79043569997884,394.65929690000485,393.79043569997884,394.65929690000485,393.79043569997884,394.65929690000485,393.79043569997884,394.65929690000485,393.79043569997884,394.65929690000485,394.62559549999423,395.1267225999909,394.62559549999423,395.1267225999909,394.62559549999423,395.1267225999909,394.62559549999423,395.1267225999909,394.62559549999423,395.1267225999909,394.62559549999423,395.1267225999909,394.62559549999423,395.1267225999909,394.62559549999423,395.1267225999909,393.79043569997884,None,395.1267225999909,396.49434699999983,0.8600000000000005,396.51080629997887,None,397.2630671999941,None,,,,,,,[1.36],2.950000000000002,0.782608695652174,11040,002,2024_Mar_14_1359,MFTM_A_new1021,2021.2.3,60.17028189850575,
,,,,,,,,stim/Instruction_adaptive.png,conditions/adaptive.xlsx,test,0.6,0.6,0.6,-0.6,-0.6,right,R,,,,,0,1,1,1,0,69,69,92,,,,,,,,,,,,,,,,,,,,,,,,,,,,,,,,,,,,,,,,,,,,397.76386710000224,None,left,0,1.5747484000166878,398.2647819999838,399.6165158999793,398.2647819999838,399.1156340999878,398.2647819999838,399.1156340999878,398.2647819999838,399.1156340999878,398.2647819999838,399.1156340999878,398.2647819999838,399.1156340999878,399.0988408999983,399.5990644999838,399.0988408999983,399.5990644999838,399.0988408999983,399.5990644999838,399.0988408999983,399.5990644999838,399.0988408999983,399.5990644999838,399.0988408999983,399.5990644999838,399.0988408999983,399.5990644999838,399.0988408999983,399.5990644999838,398.2647819999838,None,399.5990644999838,400.9685372999811,0.8500000000000005,401.0013820999884,None,401.7536388000008,None,,,,,,,[1.36414286],2.880000000000002,0.7714285714285715,11040,002,2024_Mar_14_1359,MFTM_A_new1021,2021.2.3,60.17028189850575,
,,,,,,,,stim/Instruction_adaptive.png,conditions/adaptive.xlsx,test,0.6,0.6,0.6,-0.6,-0.6,right,R,,,,,0,1,1,1,0,70,70,80,,,,,,,,,,,,,,,,,,,,,,,,,,,,,,,,,,,,,,,,,,,,402.253006599989,None,right,1,0.9650211999833118,402.75479549999,404.15670699998736,402.75479549999,403.6561329999822,402.75479549999,403.6561329999822,402.75479549999,403.6561329999822,402.75479549999,403.6561329999822,402.75479549999,403.6561329999822,403.62313520000316,404.1234819999954,403.62313520000316,404.1234819999954,403.62313520000316,404.1234819999954,403.62313520000316,404.1234819999954,403.62313520000316,404.1234819999954,403.62313520000316,404.1234819999954,403.62313520000316,404.1234819999954,403.62313520000316,404.1234819999954,402.75479549999,None,404.1234819999954,405.4917882999871,0.8900000000000006,405.52446679997956,None,406.276569699985,None,,,,,,,[1.36760563],2.910000000000002,0.7746478873239436,11040,002,2024_Mar_14_1359,MFTM_A_new1021,2021.2.3,60.17028189850575,
,,,,,,,,stim/Instruction_adaptive.png,conditions/adaptive.xlsx,test,0.6,0.6,0.6,-0.6,-0.6,right,R,,,,,0,1,1,1,0,71,71,82,,,,,,,,,,,,,,,,,,,,,,,,,,,,,,,,,,,,,,,,,,,,406.7775245999801,None,right,1,1.2338942999776918,407.2781804999977,408.6637112000026,407.2781804999977,408.16305390000343,407.2781804999977,408.16305390000343,407.2781804999977,408.16305390000343,407.2781804999977,408.16305390000343,407.2781804999977,408.16305390000343,408.1451361999789,408.646898099978,408.1451361999789,408.646898099978,408.1451361999789,408.646898099978,408.1451361999789,408.646898099978,408.1451361999789,408.646898099978,408.1451361999789,408.646898099978,408.1451361999789,408.646898099978,408.1451361999789,408.646898099978,407.2781804999977,None,408.646898099978,None,0.8800000000000006,410.0313744999876,None,410.7839301000058,None,,,,,,,[1.37111111],2.9300000000000024,0.7777777777777778,11040,002,2024_Mar_14_1359,MFTM_A_new1021,2021.2.3,60.17028189850575,
,,,,,,,,stim/Instruction_adaptive.png,conditions/adaptive.xlsx,test,-0.6,-0.6,-0.6,0.6,0.6,left,L,,,,,0,1,1,1,0,72,72,75,,,,,,,,,,,,,,,,,,,,,,,,,,,,,,,,,,,,,,,,,,,,411.2845957999816,None,left,1,1.0155154000094626,411.78402079999796,413.1540694999858,411.78402079999796,412.6521817999892,411.78402079999796,412.6521817999892,411.78402079999796,412.6521817999892,411.78402079999796,412.6521817999892,411.78402079999796,412.6521817999892,412.63575439999113,413.13719929999206,412.63575439999113,413.13719929999206,412.63575439999113,413.13719929999206,412.63575439999113,413.13719929999206,412.63575439999113,413.13719929999206,412.63575439999113,413.13719929999206,412.63575439999113,413.13719929999206,412.63575439999113,413.13719929999206,411.78402079999796,None,413.13719929999206,None,0.8600000000000005,414.5392318999802,None,415.2904673999874,None,,,,,,,[1.37479452],2.950000000000002,0.7808219178082192,11040,002,2024_Mar_14_1359,MFTM_A_new1021,2021.2.3,60.17028189850575,
,,,,,,,,stim/Instruction_adaptive.png,conditions/adaptive.xlsx,test,-0.6,-0.6,-0.6,0.6,0.6,left,L,,,,,0,1,1,1,0,73,73,83,,,,,,,,,,,,,,,,,,,,,,,,,,,,,,,,,,,,,,,,,,,,415.7911688000022,None,right,0,1.2050498000171501,416.29081239999505,417.6436008999881,416.29081239999505,417.14329539999017,416.29081239999505,417.14329539999017,416.29081239999505,417.14329539999017,416.29081239999505,417.14329539999017,416.29081239999505,417.14329539999017,417.12643809997826,417.6273285999778,417.12643809997826,417.6273285999778,417.12643809997826,417.6273285999778,417.12643809997826,417.6273285999778,417.12643809997826,417.6273285999778,417.12643809997826,417.6273285999778,417.12643809997826,417.6273285999778,417.12643809997826,417.6273285999778,416.29081239999505,None,417.6273285999778,419.0120823000034,0.8500000000000005,419.0280090000015,None,419.7805124000006,None,,,,,,,[1.37851351],2.880000000000002,0.7702702702702703,11040,002,2024_Mar_14_1359,MFTM_A_new1021,2021.2.3,60.17028189850575,
,,,,,,,,stim/Instruction_adaptive.png,conditions/adaptive.xlsx,test,0.6,0.6,0.6,-0.6,-0.6,right,R,,,,,0,1,1,1,0,74,74,22,,,,,,,,,,,,,,,,,,,,,,,,,,,,,,,,,,,,,,,,,,,,420.2814967999875,None,left,0,1.5627085999876726,420.7811327999807,422.1841880999855,420.7811327999807,421.68252249999205,420.7811327999807,421.68252249999205,420.7811327999807,421.68252249999205,420.7811327999807,421.68252249999205,420.7811327999807,421.68252249999205,421.64912769998773,422.15074699997786,421.64912769998773,422.15074699997786,421.64912769998773,422.15074699997786,421.64912769998773,422.15074699997786,421.64912769998773,422.15074699997786,421.64912769998773,422.15074699997786,421.64912769998773,422.15074699997786,421.64912769998773,422.15074699997786,420.7811327999807,None,422.15074699997786,423.53614339997876,0.8900000000000006,423.55173529998865,None,424.30294199998025,None,,,,,,,[1.3816],2.8100000000000023,0.76,11040,002,2024_Mar_14_1359,MFTM_A_new1021,2021.2.3,60.17028189850575,
,,,,,,,,stim/Instruction_adaptive.png,conditions/adaptive.xlsx,test,-0.6,-0.6,-0.6,0.6,0.6,left,L,,,,,0,1,1,1,0,75,75,7,,,,,,,,,,,,,,,,,,,,,,,,,,,,,,,,,,,,,,,,,,,,424.803763599979,None,left,1,1.6950477000209503,425.30490519999876,426.75664579999284,425.30490519999876,426.25678060000064,425.30490519999876,426.25678060000064,425.30490519999876,426.25678060000064,425.30490519999876,426.25678060000064,425.30490519999876,426.25678060000064,426.2233113999828,426.72326589998556,426.2233113999828,426.72326589998556,426.2233113999828,426.72326589998556,426.2233113999828,426.72326589998556,426.2233113999828,426.72326589998556,426.2233113999828,426.72326589998556,426.2233113999828,426.72326589998556,426.2233113999828,426.72326589998556,425.30490519999876,None,426.72326589998556,428.1097756999952,0.9400000000000006,428.15937089998624,None,428.90993929997785,None,,,,,,,[1.38394737],2.840000000000002,0.7631578947368421,11040,002,2024_Mar_14_1359,MFTM_A_new1021,2021.2.3,60.17028189850575,
,,,,,,,,stim/Instruction_adaptive.png,conditions/adaptive.xlsx,test,0.6,0.6,0.6,-0.6,-0.6,right,R,,,,,0,1,1,1,0,76,76,4,,,,,,,,,,,,,,,,,,,,,,,,,,,,,,,,,,,,,,,,,,,,429.4118196000054,None,right,1,1.7443706000049133,429.91171699998085,431.3314330999856,429.91171699998085,430.8468103999912,429.91171699998085,430.8468103999912,429.91171699998085,430.8468103999912,429.91171699998085,430.8468103999912,429.91171699998085,430.8468103999912,430.81377439998323,431.3146323999972,430.81377439998323,431.3146323999972,430.81377439998323,431.3146323999972,430.81377439998323,431.3146323999972,430.81377439998323,431.3146323999972,430.81377439998323,431.3146323999972,430.81377439998323,431.3146323999972,430.81377439998323,431.3146323999972,429.91171699998085,None,431.3146323999972,432.71589199997834,0.9200000000000006,432.732434000005,None,433.4839890000003,None,,,,,,,[1.38649351],2.860000000000002,0.7662337662337663,11040,002,2024_Mar_14_1359,MFTM_A_new1021,2021.2.3,60.17028189850575,
,,,,,,,,stim/Instruction_adaptive.png,conditions/adaptive.xlsx,test,-0.6,-0.6,-0.6,0.6,0.6,left,L,,,,,0,1,1,1,0,77,77,51,,,,,,,,,,,,,,,,,,,,,,,,,,,,,,,,,,,,,,,,,,,,433.98416510000243,None,left,1,1.6267635999829508,434.4860579999804,435.9048851999978,434.4860579999804,435.4041281999962,434.4860579999804,435.4041281999962,434.4860579999804,435.4041281999962,434.4860579999804,435.4041281999962,434.4860579999804,435.4041281999962,435.37042379999184,435.87144909999915,435.37042379999184,435.87144909999915,435.37042379999184,435.87144909999915,435.37042379999184,435.87144909999915,435.37042379999184,435.87144909999915,435.37042379999184,435.87144909999915,435.37042379999184,435.87144909999915,435.37042379999184,435.87144909999915,434.4860579999804,None,435.87144909999915,437.273146099993,0.9100000000000006,437.28890689997934,None,438.0409390999994,None,,,,,,,[1.38910256],2.880000000000002,0.7692307692307693,11040,002,2024_Mar_14_1359,MFTM_A_new1021,2021.2.3,60.17028189850575,
,,,,,,,,stim/Instruction_adaptive.png,conditions/adaptive.xlsx,test,-0.6,-0.6,-0.6,0.6,0.6,left,L,,,,,0,1,1,1,0,78,78,65,,,,,,,,,,,,,,,,,,,,,,,,,,,,,,,,,,,,,,,,,,,,438.5421961999964,None,left,1,1.0065028999815695,439.0424703999888,440.44489819998853,439.0424703999888,439.94331889998284,439.0424703999888,439.94331889998284,439.0424703999888,439.94331889998284,439.0424703999888,439.94331889998284,439.0424703999888,439.94331889998284,439.9098640999873,440.41170609998517,439.9098640999873,440.41170609998517,439.9098640999873,440.41170609998517,439.9098640999873,440.41170609998517,439.9098640999873,440.41170609998517,439.9098640999873,440.41170609998517,439.9098640999873,440.41170609998517,439.9098640999873,440.41170609998517,439.0424703999888,None,440.41170609998517,441.81295569997746,0.8900000000000006,441.83043319999706,None,442.5816152000043,None,,,,,,,[1.39189873],2.910000000000002,0.7721518987341772,11040,002,2024_Mar_14_1359,MFTM_A_new1021,2021.2.3,60.17028189850575,
,,,,,,,,stim/Instruction_adaptive.png,conditions/adaptive.xlsx,test,0.6,0.6,0.6,-0.6,-0.6,right,R,,,,,0,1,1,1,0,79,79,62,,,,,,,,,,,,,,,,,,,,,,,,,,,,,,,,,,,,,,,,,,,,443.0823916999798,None,right,1,0.9617907000065316,443.58255170000484,444.968378199992,443.58255170000484,444.46800399999483,443.58255170000484,444.46800399999483,443.58255170000484,444.46800399999483,443.58255170000484,444.46800399999483,443.58255170000484,444.46800399999483,444.4512499999837,444.9517096999916,444.4512499999837,444.9517096999916,444.4512499999837,444.9517096999916,444.4512499999837,444.9517096999916,444.4512499999837,444.9517096999916,444.4512499999837,444.9517096999916,444.4512499999837,444.9517096999916,444.4512499999837,444.9517096999916,443.58255170000484,None,444.9517096999916,446.35396459998447,0.8800000000000006,446.3878301999939,None,447.1385270000028,None,,,,,,,[1.39475],2.9300000000000024,0.775,11040,002,2024_Mar_14_1359,MFTM_A_new1021,2021.2.3,60.17028189850575,
,,,,,,,,stim/Instruction_adaptive.png,conditions/adaptive.xlsx,test,0.6,0.6,0.6,-0.6,-0.6,right,R,,,,,0,1,1,1,0,80,80,0,,,,,,,,,,,,,,,,,,,,,,,,,,,,,,,,,,,,,,,,,,,,447.6388697999937,None,left,0,1.3897305999998935,448.13889370000106,449.5087017999904,448.13889370000106,449.00790629998664,448.13889370000106,449.00790629998664,448.13889370000106,449.00790629998664,448.13889370000106,449.00790629998664,448.13889370000106,449.00790629998664,448.9746346999891,449.47527229998377,448.9746346999891,449.47527229998377,448.9746346999891,449.47527229998377,448.9746346999891,449.47527229998377,448.9746346999891,449.47527229998377,448.9746346999891,449.47527229998377,448.9746346999891,449.47527229998377,448.9746346999891,449.47527229998377,448.13889370000106,None,449.47527229998377,450.87739700000384,0.8600000000000005,450.9280166999961,None,451.6774334999791,None,,,,,,,[1.39777778],2.860000000000002,0.7654320987654321,11040,002,2024_Mar_14_1359,MFTM_A_new1021,2021.2.3,60.17028189850575,
,,,,,,,,stim/Instruction_adaptive.png,conditions/adaptive.xlsx,test,0.6,0.6,0.6,-0.6,-0.6,right,R,,,,,0,1,1,1,0,81,81,24,,,,,,,,,,,,,,,,,,,,,,,,,,,,,,,,,,,,,,,,,,,,452.17937379999785,None,left,0,1.83402730000671,452.6791397999914,454.0979219999863,452.6791397999914,453.59739789998275,452.6791397999914,453.59739789998275,452.6791397999914,453.59739789998275,452.6791397999914,453.59739789998275,452.6791397999914,453.59739789998275,453.56468949999544,454.06537529997877,453.56468949999544,454.06537529997877,453.56468949999544,454.06537529997877,453.56468949999544,454.06537529997877,453.56468949999544,454.06537529997877,453.56468949999544,454.06537529997877,453.56468949999544,454.06537529997877,453.56468949999544,454.06537529997877,452.6791397999914,None,454.06537529997877,455.46761739999056,0.9100000000000006,455.5179891999869,None,456.2677236000018,None,,,,,,,[1.40012195],2.790000000000002,0.7560975609756098,11040,002,2024_Mar_14_1359,MFTM_A_new1021,2021.2.3,60.17028189850575,
,,,,,,,,stim/Instruction_adaptive.png,conditions/adaptive.xlsx,test,0.6,0.6,0.6,-0.6,-0.6,right,R,,,,,0,1,1,1,0,82,82,18,,,,,,,,,,,,,,,,,,,,,,,,,,,,,,,,,,,,,,,,,,,,456.7686192999827,None,right,1,0.9302579000068363,457.2704897999938,458.72161859998596,457.2704897999938,458.22151669999585,457.2704897999938,458.22151669999585,457.2704897999938,458.22151669999585,457.2704897999938,458.22151669999585,457.2704897999938,458.22151669999585,458.2049102000019,458.7047926999803,458.2049102000019,458.7047926999803,458.2049102000019,458.7047926999803,458.2049102000019,458.7047926999803,458.2049102000019,458.7047926999803,458.2049102000019,458.7047926999803,458.2049102000019,458.7047926999803,458.2049102000019,458.7047926999803,457.2704897999938,None,458.7047926999803,460.1068531999772,0.9500000000000006,460.1235601999797,None,460.8757323999889,None,,,,,,,[1.40192771],2.820000000000002,0.7590361445783133,11040,002,2024_Mar_14_1359,MFTM_A_new1021,2021.2.3,60.17028189850575,
,,,,,,,,stim/Instruction_adaptive.png,conditions/adaptive.xlsx,test,-0.6,-0.6,-0.6,0.6,0.6,left,L,,,,,0,1,1,1,0,83,83,5,,,,,,,,,,,,,,,,,,,,,,,,,,,,,,,,,,,,,,,,,,,,461.37624459998915,None,left,1,0.9647087999910582,461.87678409999353,463.31194959999993,461.87678409999353,462.81221859998186,461.87678409999353,462.81221859998186,461.87678409999353,462.81221859998186,461.87678409999353,462.81221859998186,461.87678409999353,462.81221859998186,462.79511919998913,463.29519519998576,462.79511919998913,463.29519519998576,462.79511919998913,463.29519519998576,462.79511919998913,463.29519519998576,462.79511919998913,463.29519519998576,462.79511919998913,463.29519519998576,462.79511919998913,463.29519519998576,462.79511919998913,463.29519519998576,461.87678409999353,None,463.29519519998576,None,0.9300000000000006,464.7137855000037,None,465.46653879998485,None,,,,,,,[1.40392857],2.840000000000002,0.7619047619047619,11040,002,2024_Mar_14_1359,MFTM_A_new1021,2021.2.3,60.17028189850575,
,,,,,,,,stim/Instruction_adaptive.png,conditions/adaptive.xlsx,test,-0.6,-0.6,-0.6,0.6,0.6,left,L,,,,,0,1,1,1,0,84,84,45,,,,,,,,,,,,,,,,,,,,,,,,,,,,,,,,,,,,,,,,,,,,465.9669086999784,None,left,1,1.6614714000024833,466.4675342999981,467.9030137999798,466.4675342999981,467.4022996999847,466.4675342999981,467.4022996999847,466.4675342999981,467.4022996999847,466.4675342999981,467.4022996999847,466.4675342999981,467.4022996999847,467.3686270999897,467.86942790000467,467.3686270999897,467.86942790000467,467.3686270999897,467.86942790000467,467.3686270999897,467.86942790000467,467.3686270999897,467.86942790000467,467.3686270999897,467.86942790000467,467.3686270999897,467.86942790000467,467.3686270999897,467.86942790000467,466.4675342999981,None,467.86942790000467,469.2886818999832,0.9200000000000006,469.32208779998473,None,470.0723192000005,None,,,,,,,[1.406],2.860000000000002,0.7647058823529411,11040,002,2024_Mar_14_1359,MFTM_A_new1021,2021.2.3,60.17028189850575,
,,,,,,,,stim/Instruction_adaptive.png,conditions/adaptive.xlsx,test,-0.6,-0.6,-0.6,0.6,0.6,left,L,,,,,0,1,1,1,0,85,85,63,,,,,,,,,,,,,,,,,,,,,,,,,,,,,,,,,,,,,,,,,,,,470.5731605000037,None,left,1,1.1355209000175819,471.0744526000053,472.49342459999025,471.0744526000053,471.99255239998456,471.0744526000053,471.99255239998456,471.0744526000053,471.99255239998456,471.0744526000053,471.99255239998456,471.0744526000053,471.99255239998456,471.959114199999,472.45984039999894,471.959114199999,472.45984039999894,471.959114199999,472.45984039999894,471.959114199999,472.45984039999894,471.959114199999,472.45984039999894,471.959114199999,472.45984039999894,471.959114199999,472.45984039999894,471.959114199999,472.45984039999894,471.0744526000053,None,472.45984039999894,473.8776571000053,0.9100000000000006,473.8943945999781,None,474.64642889998504,None,,,,,,,[1.40813953],2.880000000000002,0.7674418604651163,11040,002,2024_Mar_14_1359,MFTM_A_new1021,2021.2.3,60.17028189850575,
,,,,,,,,stim/Instruction_adaptive.png,conditions/adaptive.xlsx,test,0.6,0.6,0.6,-0.6,-0.6,right,R,,,,,0,1,1,1,0,86,86,68,,,,,,,,,,,,,,,,,,,,,,,,,,,,,,,,,,,,,,,,,,,,475.14665969999623,None,right,1,1.6264707000227645,475.6470960000006,477.04996169998776,475.6470960000006,476.549680600001,475.6470960000006,476.549680600001,475.6470960000006,476.549680600001,475.6470960000006,476.549680600001,475.6470960000006,476.549680600001,476.51570999997784,477.0162655999884,476.51570999997784,477.0162655999884,476.51570999997784,477.0162655999884,476.51570999997784,477.0162655999884,476.51570999997784,477.0162655999884,476.51570999997784,477.0162655999884,476.51570999997784,477.0162655999884,476.51570999997784,477.0162655999884,475.6470960000006,None,477.0162655999884,478.43546209999477,0.8900000000000006,478.4684506999911,None,479.22036539998953,None,,,,,,,[1.41045977],2.910000000000002,0.7701149425287356,11040,002,2024_Mar_14_1359,MFTM_A_new1021,2021.2.3,60.17028189850575,
,,,,,,,,stim/Instruction_adaptive.png,conditions/adaptive.xlsx,test,-0.6,-0.6,-0.6,0.6,0.6,left,L,,,,,0,1,1,1,0,87,87,77,,,,,,,,,,,,,,,,,,,,,,,,,,,,,,,,,,,,,,,,,,,,479.7197470999963,None,left,1,1.5403526999871247,480.2216363000043,481.6059033999918,480.2216363000043,481.1061295999971,480.2216363000043,481.1061295999971,480.2216363000043,481.1061295999971,480.2216363000043,481.1061295999971,480.2216363000043,481.1061295999971,481.0895270000037,481.589390499983,481.0895270000037,481.589390499983,481.0895270000037,481.589390499983,481.0895270000037,481.589390499983,481.0895270000037,481.589390499983,481.0895270000037,481.589390499983,481.0895270000037,481.589390499983,481.0895270000037,481.589390499983,480.2216363000043,None,481.589390499983,483.0091668999812,0.8800000000000006,483.04300659999717,None,483.7937549999915,None,,,,,,,[1.41284091],2.9300000000000024,0.7727272727272727,11040,002,2024_Mar_14_1359,MFTM_A_new1021,2021.2.3,60.17028189850575,
,,,,,,,,stim/Instruction_adaptive.png,conditions/adaptive.xlsx,test,-0.6,-0.6,-0.6,0.6,0.6,left,L,,,,,0,1,1,1,0,88,88,73,,,,,,,,,,,,,,,,,,,,,,,,,,,,,,,,,,,,,,,,,,,,484.29358209998463,None,left,1,1.6399228000082076,484.79409049998503,486.1638063999999,484.79409049998503,485.66277880000416,484.79409049998503,485.66277880000416,484.79409049998503,485.66277880000416,484.79409049998503,485.66277880000416,484.79409049998503,485.66277880000416,485.6287201999803,486.1305211999861,485.6287201999803,486.1305211999861,485.6287201999803,486.1305211999861,485.6287201999803,486.1305211999861,485.6287201999803,486.1305211999861,485.6287201999803,486.1305211999861,485.6287201999803,486.1305211999861,485.6287201999803,486.1305211999861,484.79409049998503,None,486.1305211999861,487.5493698999926,0.8600000000000005,487.5992595999851,None,488.35045739999623,None,,,,,,,[1.41539326],2.950000000000002,0.7752808988764045,11040,002,2024_Mar_14_1359,MFTM_A_new1021,2021.2.3,60.17028189850575,
,,,,,,,,stim/Instruction_adaptive.png,conditions/adaptive.xlsx,test,0.6,0.6,0.6,-0.6,-0.6,right,R,,,,,0,1,1,1,0,89,89,8,,,,,,,,,,,,,,,,,,,,,,,,,,,,,,,,,,,,,,,,,,,,488.8510142999876,None,left,0,1.577843999984907,489.3518512999872,490.7035202999832,489.3518512999872,490.2024093999935,489.3518512999872,490.2024093999935,489.3518512999872,490.2024093999935,489.3518512999872,490.2024093999935,489.3518512999872,490.2024093999935,490.18551290000323,490.68735289998585,490.18551290000323,490.68735289998585,490.18551290000323,490.68735289998585,490.18551290000323,490.68735289998585,490.18551290000323,490.68735289998585,490.18551290000323,490.68735289998585,490.18551290000323,490.68735289998585,490.18551290000323,490.68735289998585,489.3518512999872,None,490.68735289998585,492.10621480000555,0.8500000000000005,492.1402639999869,None,492.8907367999782,None,,,,,,,[1.418],2.8900000000000023,0.7666666666666667,11040,002,2024_Mar_14_1359,MFTM_A_new1021,2021.2.3,60.17028189850575,
,,,,,,,,stim/Instruction_adaptive.png,conditions/adaptive.xlsx,test,-0.6,-0.6,-0.6,0.6,0.6,left,L,,,,,0,1,1,1,0,90,90,17,,,,,,,,,,,,,,,,,,,,,,,,,,,,,,,,,,,,,,,,,,,,493.39101659998414,None,left,1,1.3828042999957688,493.891266599996,495.2944869999774,493.891266599996,494.79323429998476,493.891266599996,494.79323429998476,493.891266599996,494.79323429998476,493.891266599996,494.79323429998476,493.891266599996,494.79323429998476,494.7601517000003,495.2608547999989,494.7601517000003,495.2608547999989,494.7601517000003,495.2608547999989,494.7601517000003,495.2608547999989,494.7601517000003,495.2608547999989,494.7601517000003,495.2608547999989,494.7601517000003,495.2608547999989,494.7601517000003,495.2608547999989,493.891266599996,None,495.2608547999989,496.69639389999793,0.8900000000000006,496.73039179999614,None,497.4811488999985,None,,,,,,,[1.42010989],2.910000000000002,0.7692307692307693,11040,002,2024_Mar_14_1359,MFTM_A_new1021,2021.2.3,60.17028189850575,
,,,,,,,,stim/Instruction_adaptive.png,conditions/adaptive.xlsx,test,0.6,0.6,0.6,-0.6,-0.6,right,R,,,,,0,1,1,1,0,91,91,44,,,,,,,,,,,,,,,,,,,,,,,,,,,,,,,,,,,,,,,,,,,,497.9814797999861,None,left,0,1.4558332999877166,498.48228249998647,499.8668997999921,498.48228249998647,499.36705719999736,498.48228249998647,499.36705719999736,498.48228249998647,499.36705719999736,498.48228249998647,499.36705719999736,498.48228249998647,499.36705719999736,499.35081929998705,499.8501108000055,499.35081929998705,499.8501108000055,499.35081929998705,499.8501108000055,499.35081929998705,499.8501108000055,499.35081929998705,499.8501108000055,499.35081929998705,499.8501108000055,499.35081929998705,499.8501108000055,499.35081929998705,499.8501108000055,498.48228249998647,None,499.8501108000055,None,0.8800000000000006,501.30387000000337,None,502.05455440000514,None,,,,,,,[1.42228261],2.8500000000000023,0.7608695652173914,11040,002,2024_Mar_14_1359,MFTM_A_new1021,2021.2.3,60.17028189850575,
,,,,,,,,stim/Instruction_adaptive.png,conditions/adaptive.xlsx,test,0.6,0.6,0.6,-0.6,-0.6,right,R,,,,,0,1,1,1,0,92,92,84,,,,,,,,,,,,,,,,,,,,,,,,,,,,,,,,,,,,,,,,,,,,502.5551240000059,None,right,1,1.2509439999994356,503.05608529999154,504.47388299999875,503.05608529999154,503.97379220000585,503.05608529999154,503.97379220000585,503.05608529999154,503.97379220000585,503.05608529999154,503.97379220000585,503.05608529999154,503.97379220000585,503.9404818000039,504.4415352999931,503.9404818000039,504.4415352999931,503.9404818000039,504.4415352999931,503.9404818000039,504.4415352999931,503.9404818000039,504.4415352999931,503.9404818000039,504.4415352999931,503.9404818000039,504.4415352999931,503.9404818000039,504.4415352999931,503.05608529999154,None,504.4415352999931,505.87685929998406,0.9100000000000006,505.91052710000076,None,506.66148599999724,None,,,,,,,[1.42408602],2.870000000000002,0.7634408602150538,11040,002,2024_Mar_14_1359,MFTM_A_new1021,2021.2.3,60.17028189850575,
