arrwidth1,arrwidth2,arrwidth3,arrwidth4,arrwidth5,keyb,type,orientation,instruction_image,block_filename,block_type,arrow11,arrow22,arrow33,arrow44,arrow55,keyb_3,orientation3,trials.thisRepN,trials.thisTrialN,trials.thisN,trials.thisIndex,trials_3.thisRepN,trials_3.thisTrialN,trials_3.thisN,trials_3.thisIndex,trials_2.thisRepN,trials_2.thisTrialN,trials_2.thisN,trials_2.thisIndex,welcome.started,welcome.stopped,key_resp.keys,key_resp.rt,key_resp.started,key_resp.stopped,instruction_example.started,instruction_example.stopped,key_resp_3.keys,key_resp_3.rt,key_resp_3.started,key_resp_3.stopped,instruction_task.started,instruction_task.stopped,key_resp_2.keys,key_resp_2.rt,key_resp_2.started,key_resp_2.stopped,text_2.started,text_2.stopped,A1.started,A1.stopped,A2.started,A2.stopped,A3.started,A3.stopped,A4.started,A4.stopped,A5.started,A5.stopped,key_resp_4.keys,key_resp_4.corr,key_resp_4.rt,key_resp_4.started,key_resp_4.stopped,fb.started,fb.stopped,instruction_block.started,instruction_block.stopped,key_resp_8.keys,key_resp_8.rt,key_resp_8.started,key_resp_8.stopped,text_8.started,text_8.stopped,key_resp_9.keys,key_resp_9.corr,key_resp_9.rt,text_5.started,text_5.stopped,A11_3.started,A11_3.stopped,A22_2.started,A22_2.stopped,A33_2.started,A33_2.stopped,A44_2.started,A44_2.stopped,A55_2.started,A55_2.stopped,M1_3.started,M1_3.stopped,M2_2.started,M2_2.stopped,M3_2.started,M3_2.stopped,M4_2.started,M4_2.stopped,M5_2.started,M5_2.stopped,M6_2.started,M6_2.stopped,M7_2.started,M7_2.stopped,M8_2.started,M8_2.stopped,key_resp_9.started,key_resp_9.stopped,fixation.started,fixation.stopped,ET,fb_3.started,fb_3.stopped,text_9.started,text_9.stopped,fb_4.started,fb_4.stopped,text_7.started,text_7.stopped,endtext.started,endtext.stopped,fixation_ITI,CCC,Acc,participant,session,date,expName,psychopyVersion,frameRate,
,,,,,,,,,,,,,,,,,,,,,,,,,,,,,,12.46123129996704,None,space,1.1094924000208266,12.46123129996704,None,,,,,,,,,,,,,,,,,,,,,,,,,,,,,,,,,,,,,,,,,,,,,,,,,,,,,,,,,,,,,,,,,,,,,,,,,,,,,,,,,,,,,,,,,11041,002,2024_Mar_17_1413,MFTM_A_new1021,2021.2.3,59.90922554768381,
,,,,,,,,,,,,,,,,,,,,,,,,,,,,,,,,,,,,13.596205599955283,None,space,3.8308216999867,13.596205599955283,None,,,,,,,,,,,,,,,,,,,,,,,,,,,,,,,,,,,,,,,,,,,,,,,,,,,,,,,,,,,,,,,,,,,,,,,,,,,,,,,,,,,11041,002,2024_Mar_17_1413,MFTM_A_new1021,2021.2.3,59.90922554768381,
,,,,,,,,,,,,,,,,,,,,,,,,,,,,,,,,,,,,,,,,,,17.45216539996909,None,space,4.13515990000451,17.45216539996909,None,,,,,,,,,,,,,,,,,,,,,,,,,,,,,,,,,,,,,,,,,,,,,,,,,,,,,,,,,,,,,,,,,,,,,,,,,,,,,11041,002,2024_Mar_17_1413,MFTM_A_new1021,2021.2.3,59.90922554768381,
-0.6,-0.6,-0.6,0.6,0.6,left,3:2,L,,,,,,,,,,,0,0,0,1,,,,,,,,,,,,,,,,,,,,,,,,,,,21.62635350000346,None,21.62635350000346,None,21.62635350000346,None,21.62635350000346,None,21.62635350000346,None,21.62635350000346,None,left,1,2.8813428999856114,21.62635350000346,None,24.547254499979317,None,,,,,,,,,,,,,,,,,,,,,,,,,,,,,,,,,,,,,,,,,,,,,,,,,,,,,,,,,,11041,002,2024_Mar_17_1413,MFTM_A_new1021,2021.2.3,59.90922554768381,
0.6,0.6,0.6,-0.6,-0.6,right,3:2,R,,,,,,,,,,,0,1,1,0,,,,,,,,,,,,,,,,,,,,,,,,,,,25.297349200001918,None,25.297349200001918,None,25.297349200001918,None,25.297349200001918,None,25.297349200001918,None,25.297349200001918,None,right,1,1.393869099963922,25.297349200001918,None,26.715825799969025,None,,,,,,,,,,,,,,,,,,,,,,,,,,,,,,,,,,,,,,,,,,,,,,,,,,,,,,,,,,11041,002,2024_Mar_17_1413,MFTM_A_new1021,2021.2.3,59.90922554768381,
-0.6,-0.6,-0.6,0.6,0.6,left,3:2,L,,,,,,,,,,,1,0,2,1,,,,,,,,,,,,,,,,,,,,,,,,,,,27.46829299995443,None,27.46829299995443,None,27.46829299995443,None,27.46829299995443,None,27.46829299995443,None,27.46829299995443,None,left,1,1.4393654000014067,27.46829299995443,None,28.936051599972416,None,,,,,,,,,,,,,,,,,,,,,,,,,,,,,,,,,,,,,,,,,,,,,,,,,,,,,,,,,,11041,002,2024_Mar_17_1413,MFTM_A_new1021,2021.2.3,59.90922554768381,
0.6,0.6,0.6,-0.6,-0.6,right,3:2,R,,,,,,,,,,,1,1,3,0,,,,,,,,,,,,,,,,,,,,,,,,,,,29.68822159996489,None,29.68822159996489,None,29.68822159996489,None,29.68822159996489,None,29.68822159996489,None,29.68822159996489,None,right,1,2.3156522999634035,29.68822159996489,None,32.024008799984585,None,,,,,,,,,,,,,,,,,,,,,,,,,,,,,,,,,,,,,,,,,,,,,,,,,,,,,,,,,,11041,002,2024_Mar_17_1413,MFTM_A_new1021,2021.2.3,59.90922554768381,
,,,,,,,,stim/Instruction_mask.png,conditions/adaptive.xlsx,practice,0.6,0.6,0.6,-0.6,-0.6,right,R,,,,,0,0,0,0,0,0,0,74,,,,,,,,,,,,,,,,,,,,,,,,,,,,,,,,,,,,,,32.95850499998778,None,space,2.2129819999681786,32.95850499998778,None,35.28009580000071,None,right,1,1.7693993000430055,35.71398439997574,None,35.71398439997574,38.717469899973366,35.71398439997574,38.717469899973366,35.71398439997574,38.717469899973366,35.71398439997574,38.717469899973366,35.71398439997574,38.717469899973366,38.70103100000415,39.20144039997831,38.70103100000415,39.20144039997831,38.70103100000415,39.20144039997831,38.70103100000415,39.20144039997831,38.70103100000415,39.20144039997831,38.70103100000415,39.20144039997831,38.70103100000415,39.20144039997831,38.70103100000415,39.20144039997831,35.71398439997574,None,39.20144039997831,39.20144039997831,3,39.21819509996567,None,39.969248899957165,None,,,,,,,,,,11041,002,2024_Mar_17_1413,MFTM_A_new1021,2021.2.3,59.90922554768381,
,,,,,,,,stim/Instruction_mask.png,conditions/adaptive.xlsx,practice,-0.6,-0.6,-0.6,0.6,0.6,left,L,,,,,0,0,0,0,0,1,1,61,,,,,,,,,,,,,,,,,,,,,,,,,,,,,,,,,,,,,,,,,,,,40.4701126999571,None,left,1,1.1124035000102594,40.971456600003876,42.974656699982006,40.971456600003876,42.47317839995958,40.971456600003876,42.47317839995958,40.971456600003876,42.47317839995958,40.971456600003876,42.47317839995958,40.971456600003876,42.47317839995958,42.45659349998459,42.95729489997029,42.45659349998459,42.95729489997029,42.45659349998459,42.95729489997029,42.45659349998459,42.95729489997029,42.45659349998459,42.95729489997029,42.45659349998459,42.95729489997029,42.45659349998459,42.95729489997029,42.45659349998459,42.95729489997029,40.971456600003876,None,42.95729489997029,44.46002040000167,1.5,44.4772074999637,None,45.22766849998152,None,,,,,,,,,,11041,002,2024_Mar_17_1413,MFTM_A_new1021,2021.2.3,59.90922554768381,
,,,,,,,,stim/Instruction_mask.png,conditions/adaptive.xlsx,practice,-0.6,-0.6,-0.6,0.6,0.6,left,L,,,,,0,0,0,0,0,2,2,53,,,,,,,,,,,,,,,,,,,,,,,,,,,,,,,,,,,,,,,,,,,,45.72870429995237,None,right,0,1.4231893999967724,46.228810300002806,47.53129789995728,46.228810300002806,47.03004389995476,46.228810300002806,47.03004389995476,46.228810300002806,47.03004389995476,46.228810300002806,47.03004389995476,46.228810300002806,47.03004389995476,47.0134221999906,47.514771799964365,47.0134221999906,47.514771799964365,47.0134221999906,47.514771799964365,47.0134221999906,47.514771799964365,47.0134221999906,47.514771799964365,47.0134221999906,47.514771799964365,47.0134221999906,47.514771799964365,47.0134221999906,47.514771799964365,46.228810300002806,None,47.514771799964365,49.71810080000432,0.8,49.734015900001395,None,50.48680419998709,None,,,,,,,,,,11041,002,2024_Mar_17_1413,MFTM_A_new1021,2021.2.3,59.90922554768381,
,,,,,,,,stim/Instruction_mask.png,conditions/adaptive.xlsx,practice,0.6,0.6,0.6,-0.6,-0.6,right,R,,,,,0,0,0,0,0,3,3,70,,,,,,,,,,,,,,,,,,,,,,,,,,,,,,,,,,,,,,,,,,,,50.9858072999632,None,right,1,0.8132472999859601,51.486600899952464,52.23865690000821,51.486600899952464,51.73726490000263,51.486600899952464,51.73726490000263,51.486600899952464,51.73726490000263,51.486600899952464,51.73726490000263,51.486600899952464,51.73726490000263,51.72053459996823,52.22174740000628,51.72053459996823,52.22174740000628,51.72053459996823,52.22174740000628,51.72053459996823,52.22174740000628,51.72053459996823,52.22174740000628,51.72053459996823,52.22174740000628,51.72053459996823,52.22174740000628,51.72053459996823,52.22174740000628,51.486600899952464,None,52.22174740000628,54.97529599996051,3,54.99279409996234,None,55.74377259996254,None,,,,,,,,,,11041,002,2024_Mar_17_1413,MFTM_A_new1021,2021.2.3,59.90922554768381,
,,,,,,,,stim/Instruction_mask.png,conditions/adaptive.xlsx,practice,,,,,,,,,,,,0,0,0,0,,,,,,,,,,,,,,,,,,,,,,,,,,,,,,,,,,,,,,,,,,,,,,,,,,,,,,,,,,,,,,,,,,,,,,,,,,,,,,,,,,,,,,,,,,56.26052329997765,57.26411449996522,57.22965489997296,57.22965489997296,57.22965489997296,None,,,,11041,002,2024_Mar_17_1413,MFTM_A_new1021,2021.2.3,59.90922554768381,
,,,,,,,,stim/Instruction_adaptive.png,conditions/adaptive.xlsx,test,-0.6,-0.6,-0.6,0.6,0.6,left,L,,,,,0,1,1,1,0,0,0,63,,,,,,,,,,,,,,,,,,,,,,,,,,,,,,,,,,,,,,60.35052469995571,None,space,3.5576075999997556,60.35052469995571,None,63.95525589998579,None,left,1,2.1319173999945633,64.4566635999945,None,64.4566635999945,67.46151389996521,64.4566635999945,67.46151389996521,64.4566635999945,67.46151389996521,64.4566635999945,67.46151389996521,64.4566635999945,67.46151389996521,67.42732889996842,67.92926050000824,67.42732889996842,67.92926050000824,67.42732889996842,67.92926050000824,67.42732889996842,67.92926050000824,67.42732889996842,67.92926050000824,67.42732889996842,67.92926050000824,67.42732889996842,67.92926050000824,67.42732889996842,67.92926050000824,64.4566635999945,None,67.92926050000824,67.92926050000824,3,67.96226729999762,None,68.71258619998116,None,,,,,,,0,6.000000000000005,1.0,11041,002,2024_Mar_17_1413,MFTM_A_new1021,2021.2.3,59.90922554768381,
,,,,,,,,stim/Instruction_adaptive.png,conditions/adaptive.xlsx,test,-0.6,-0.6,-0.6,0.6,0.6,left,L,,,,,0,1,1,1,0,1,1,55,,,,,,,,,,,,,,,,,,,,,,,,,,,,,,,,,,,,,,,,,,,,69.21417679998558,None,right,0,0.6983088999986649,69.71421159995953,70.46520909998799,69.71421159995953,69.96465949999401,69.71421159995953,69.96465949999401,69.71421159995953,69.96465949999401,69.71421159995953,69.96465949999401,69.71421159995953,69.96465949999401,69.94798629998695,70.44858530000784,69.94798629998695,70.44858530000784,69.94798629998695,70.44858530000784,69.94798629998695,70.44858530000784,69.94798629998695,70.44858530000784,69.94798629998695,70.44858530000784,69.94798629998695,70.44858530000784,69.94798629998695,70.44858530000784,69.71421159995953,None,70.44858530000784,71.33345709997229,0.25,71.34980839997297,None,72.1013047999586,None,,,,,,,[0.875],2.570000000000002,0.5,11041,002,2024_Mar_17_1413,MFTM_A_new1021,2021.2.3,59.90922554768381,
,,,,,,,,stim/Instruction_adaptive.png,conditions/adaptive.xlsx,test,-0.6,-0.6,-0.6,0.6,0.6,left,L,,,,,0,1,1,1,0,2,2,59,,,,,,,,,,,,,,,,,,,,,,,,,,,,,,,,,,,,,,,,,,,,72.60277189995395,None,left,1,1.4214532000478357,73.1030009999522,74.72249829996144,73.1030009999522,74.22088269999949,73.1030009999522,74.22088269999949,73.1030009999522,74.22088269999949,73.1030009999522,74.22088269999949,73.1030009999522,74.22088269999949,74.18881179997697,74.68894319998799,74.18881179997697,74.68894319998799,74.18881179997697,74.68894319998799,74.18881179997697,74.68894319998799,74.18881179997697,74.68894319998799,74.18881179997697,74.68894319998799,74.18881179997697,74.68894319998799,74.18881179997697,74.68894319998799,73.1030009999522,None,74.68894319998799,75.73974399996223,1.1100000000000008,75.77321979997214,None,76.52518979995511,None,,,,,,,[1.04666667],3.3800000000000026,0.6666666666666666,11041,002,2024_Mar_17_1413,MFTM_A_new1021,2021.2.3,59.90922554768381,
,,,,,,,,stim/Instruction_adaptive.png,conditions/adaptive.xlsx,test,-0.6,-0.6,-0.6,0.6,0.6,left,L,,,,,0,1,1,1,0,3,3,91,,,,,,,,,,,,,,,,,,,,,,,,,,,,,,,,,,,,,,,,,,,,77.02524170000106,None,left,1,0.8069890999468043,77.52585489995545,78.66092759999447,77.52585489995545,78.1602203999646,77.52585489995545,78.1602203999646,77.52585489995545,78.1602203999646,77.52585489995545,78.1602203999646,77.52585489995545,78.1602203999646,78.14351119997445,78.64483939995989,78.14351119997445,78.64483939995989,78.14351119997445,78.64483939995989,78.14351119997445,78.64483939995989,78.14351119997445,78.64483939995989,78.14351119997445,78.64483939995989,78.14351119997445,78.64483939995989,78.14351119997445,78.64483939995989,77.52585489995545,None,78.64483939995989,None,0.6300000000000003,79.91284750000341,None,80.66394820000278,None,,,,,,,[1.2525],3.940000000000003,0.75,11041,002,2024_Mar_17_1413,MFTM_A_new1021,2021.2.3,59.90922554768381,
,,,,,,,,stim/Instruction_adaptive.png,conditions/adaptive.xlsx,test,-0.6,-0.6,-0.6,0.6,0.6,left,L,,,,,0,1,1,1,0,4,4,71,,,,,,,,,,,,,,,,,,,,,,,,,,,,,,,,,,,,,,,,,,,,81.16488529997878,None,left,1,1.0358896999969147,81.66553030000068,82.60039079998387,81.66553030000068,82.09953030000906,81.66553030000068,82.09953030000906,81.66553030000068,82.09953030000906,81.66553030000068,82.09953030000906,81.66553030000068,82.09953030000906,82.08288389997324,82.58434259996284,82.08288389997324,82.58434259996284,82.08288389997324,82.58434259996284,82.08288389997324,82.58434259996284,82.08288389997324,82.58434259996284,82.08288389997324,82.58434259996284,82.08288389997324,82.58434259996284,82.08288389997324,82.58434259996284,81.66553030000068,None,82.58434259996284,84.00301889999537,0.43000000000000016,84.01934169995366,None,84.77083709998988,None,,,,,,,[1.416],4.370000000000004,0.8,11041,002,2024_Mar_17_1413,MFTM_A_new1021,2021.2.3,59.90922554768381,
,,,,,,,,stim/Instruction_adaptive.png,conditions/adaptive.xlsx,test,0.6,0.6,0.6,-0.6,-0.6,right,R,,,,,0,1,1,1,0,5,5,34,,,,,,,,,,,,,,,,,,,,,,,,,,,,,,,,,,,,,,,,,,,,85.27088849997381,None,right,1,0.6653139999834821,85.77170819998719,86.6062989999773,85.77170819998719,86.10636119998526,85.77170819998719,86.10636119998526,85.77170819998719,86.10636119998526,85.77170819998719,86.10636119998526,85.77170819998719,86.10636119998526,86.07318770000711,86.57306179997977,86.07318770000711,86.57306179997977,86.07318770000711,86.57306179997977,86.07318770000711,86.57306179997977,86.07318770000711,86.57306179997977,86.07318770000711,86.57306179997977,86.07318770000711,86.57306179997977,86.07318770000711,86.57306179997977,85.77170819998719,None,86.57306179997977,88.12565609999001,0.32000000000000006,88.14207469997928,None,88.89332839997951,None,,,,,,,[1.54333333],4.7100000000000035,0.8333333333333334,11041,002,2024_Mar_17_1413,MFTM_A_new1021,2021.2.3,59.90922554768381,
,,,,,,,,stim/Instruction_adaptive.png,conditions/adaptive.xlsx,test,0.6,0.6,0.6,-0.6,-0.6,right,R,,,,,0,1,1,1,0,6,6,78,,,,,,,,,,,,,,,,,,,,,,,,,,,,,,,,,,,,,,,,,,,,89.39469899999676,None,left,0,0.6304949999903329,89.89458909997484,90.64557180000702,89.89458909997484,90.14502219995484,89.89458909997484,90.14502219995484,89.89458909997484,90.14502219995484,89.89458909997484,90.14502219995484,89.89458909997484,90.14502219995484,90.12830229999963,90.62962429999607,90.12830229999963,90.62962429999607,90.12830229999963,90.62962429999607,90.12830229999963,90.62962429999607,90.12830229999963,90.62962429999607,90.12830229999963,90.62962429999607,90.12830229999963,90.62962429999607,90.12830229999963,90.62962429999607,89.89458909997484,None,90.62962429999607,92.28232479997678,0.25,92.29814889997942,None,93.05006829998456,None,,,,,,,[1.64428571],4.010000000000003,0.7142857142857143,11041,002,2024_Mar_17_1413,MFTM_A_new1021,2021.2.3,59.90922554768381,
,,,,,,,,stim/Instruction_adaptive.png,conditions/adaptive.xlsx,test,0.6,0.6,0.6,-0.6,-0.6,right,R,,,,,0,1,1,1,0,7,7,98,,,,,,,,,,,,,,,,,,,,,,,,,,,,,,,,,,,,,,,,,,,,93.55015389999608,None,right,1,0.6970607999828644,94.05216079996899,94.9690314999898,94.05216079996899,94.46929609996732,94.05216079996899,94.46929609996732,94.05216079996899,94.46929609996732,94.05216079996899,94.46929609996732,94.05216079996899,94.46929609996732,94.45155159995193,94.95214249996934,94.45155159995193,94.95214249996934,94.45155159995193,94.95214249996934,94.45155159995193,94.95214249996934,94.45155159995193,94.95214249996934,94.45155159995193,94.95214249996934,94.45155159995193,94.95214249996934,94.45155159995193,94.95214249996934,94.05216079996899,None,94.95214249996934,96.6550569999963,0.41000000000000014,96.67139869998209,None,97.42264879995491,None,,,,,,,[1.7],4.280000000000003,0.75,11041,002,2024_Mar_17_1413,MFTM_A_new1021,2021.2.3,59.90922554768381,
,,,,,,,,stim/Instruction_adaptive.png,conditions/adaptive.xlsx,test,-0.6,-0.6,-0.6,0.6,0.6,left,L,,,,,0,1,1,1,0,8,8,41,,,,,,,,,,,,,,,,,,,,,,,,,,,,,,,,,,,,,,,,,,,,97.92341879999731,None,left,1,0.8291365999612026,98.4241659999825,99.2760702999658,98.4241659999825,98.77473969996208,98.4241659999825,98.77473969996208,98.4241659999825,98.77473969996208,98.4241659999825,98.77473969996208,98.4241659999825,98.77473969996208,98.74171370000113,99.241974799952,98.74171370000113,99.241974799952,98.74171370000113,99.241974799952,98.74171370000113,99.241974799952,98.74171370000113,99.241974799952,98.74171370000113,99.241974799952,98.74171370000113,99.241974799952,98.74171370000113,99.241974799952,98.4241659999825,None,99.241974799952,100.99475969997002,0.3400000000000001,101.02792219998082,None,101.78025179996621,None,,,,,,,[1.75111111],4.510000000000003,0.7777777777777778,11041,002,2024_Mar_17_1413,MFTM_A_new1021,2021.2.3,59.90922554768381,
,,,,,,,,stim/Instruction_adaptive.png,conditions/adaptive.xlsx,test,0.6,0.6,0.6,-0.6,-0.6,right,R,,,,,0,1,1,1,0,9,9,8,,,,,,,,,,,,,,,,,,,,,,,,,,,,,,,,,,,,,,,,,,,,102.28073619998759,None,right,1,0.5675321000162512,102.78176039998652,103.58269079995807,102.78176039998652,103.08195639995392,102.78176039998652,103.08195639995392,102.78176039998652,103.08195639995392,102.78176039998652,103.08195639995392,102.78176039998652,103.08195639995392,103.04778649995569,103.5492016999633,103.04778649995569,103.5492016999633,103.04778649995569,103.5492016999633,103.04778649995569,103.5492016999633,103.04778649995569,103.5492016999633,103.04778649995569,103.5492016999633,103.04778649995569,103.5492016999633,103.04778649995569,103.5492016999633,102.78176039998652,None,103.5492016999633,105.35198979999404,0.29000000000000004,105.36878299998352,None,106.1197832999751,None,,,,,,,[1.797],4.700000000000004,0.8,11041,002,2024_Mar_17_1413,MFTM_A_new1021,2021.2.3,59.90922554768381,
,,,,,,,,stim/Instruction_adaptive.png,conditions/adaptive.xlsx,test,0.6,0.6,0.6,-0.6,-0.6,right,R,,,,,0,1,1,1,0,10,10,90,,,,,,,,,,,,,,,,,,,,,,,,,,,,,,,,,,,,,,,,,,,,106.62069109996082,None,left,0,0.5732273999601603,107.12058419996174,107.871617399971,107.12058419996174,107.37152469996363,107.12058419996174,107.37152469996363,107.12058419996174,107.37152469996363,107.12058419996174,107.37152469996363,107.12058419996174,107.37152469996363,107.35427269997308,107.85509999998612,107.35427269997308,107.85509999998612,107.35427269997308,107.85509999998612,107.35427269997308,107.85509999998612,107.35427269997308,107.85509999998612,107.35427269997308,107.85509999998612,107.35427269997308,107.85509999998612,107.35427269997308,107.85509999998612,107.12058419996174,None,107.85509999998612,None,0.25,109.70718689996284,None,110.45886269997573,None,,,,,,,[1.83818182],4.240000000000004,0.7272727272727273,11041,002,2024_Mar_17_1413,MFTM_A_new1021,2021.2.3,59.90922554768381,
,,,,,,,,stim/Instruction_adaptive.png,conditions/adaptive.xlsx,test,0.6,0.6,0.6,-0.6,-0.6,right,R,,,,,0,1,1,1,0,11,11,88,,,,,,,,,,,,,,,,,,,,,,,,,,,,,,,,,,,,,,,,,,,,110.95978869998362,None,right,1,0.7049875999800861,111.46056380000664,112.31175960000837,111.46056380000664,111.81135269999504,111.46056380000664,111.81135269999504,111.46056380000664,111.81135269999504,111.46056380000664,111.81135269999504,111.46056380000664,111.81135269999504,111.79549419996329,112.29574039997533,111.79549419996329,112.29574039997533,111.79549419996329,112.29574039997533,111.79549419996329,112.29574039997533,111.79549419996329,112.29574039997533,111.79549419996329,112.29574039997533,111.79549419996329,112.29574039997533,111.79549419996329,112.29574039997533,111.46056380000664,None,112.29574039997533,114.16685089998646,0.3500000000000001,114.18114949995652,None,114.93220340000698,None,,,,,,,[1.86416667],4.4200000000000035,0.75,11041,002,2024_Mar_17_1413,MFTM_A_new1021,2021.2.3,59.90922554768381,
,,,,,,,,stim/Instruction_adaptive.png,conditions/adaptive.xlsx,test,-0.6,-0.6,-0.6,0.6,0.6,left,L,,,,,0,1,1,1,0,12,12,61,,,,,,,,,,,,,,,,,,,,,,,,,,,,,,,,,,,,,,,,,,,,115.43401729996549,None,right,0,0.6711230000364594,115.93430799996713,116.7527756000054,115.93430799996713,116.2508639000007,115.93430799996713,116.2508639000007,115.93430799996713,116.2508639000007,115.93430799996713,116.2508639000007,115.93430799996713,116.2508639000007,116.23415149998618,116.73508739995304,116.23415149998618,116.73508739995304,116.23415149998618,116.73508739995304,116.23415149998618,116.73508739995304,116.23415149998618,116.73508739995304,116.23415149998618,116.73508739995304,116.23415149998618,116.73508739995304,116.23415149998618,116.73508739995304,115.93430799996713,None,116.73508739995304,None,0.31000000000000005,118.63763459998881,None,119.38894099998288,None,,,,,,,[1.88923077],3.9700000000000033,0.6923076923076923,11041,002,2024_Mar_17_1413,MFTM_A_new1021,2021.2.3,59.90922554768381,
,,,,,,,,stim/Instruction_adaptive.png,conditions/adaptive.xlsx,test,-0.6,-0.6,-0.6,0.6,0.6,left,L,,,,,0,1,1,1,0,13,13,69,,,,,,,,,,,,,,,,,,,,,,,,,,,,,,,,,,,,,,,,,,,,119.8897011000081,None,left,1,0.6231172999832779,120.39057689998299,121.32515659998171,120.39057689998299,120.82545409997692,120.39057689998299,120.82545409997692,120.39057689998299,120.82545409997692,120.39057689998299,120.82545409997692,120.39057689998299,120.82545409997692,120.79188009997597,121.29186459997436,120.79188009997597,121.29186459997436,120.79188009997597,121.29186459997436,120.79188009997597,121.29186459997436,120.79188009997597,121.29186459997436,120.79188009997597,121.29186459997436,120.79188009997597,121.29186459997436,120.79188009997597,121.29186459997436,120.39057689998299,None,121.29186459997436,123.19473389995983,0.42000000000000015,123.22799009998562,None,123.9803310999996,None,,,,,,,[1.90285714],4.140000000000003,0.7142857142857143,11041,002,2024_Mar_17_1413,MFTM_A_new1021,2021.2.3,59.90922554768381,
,,,,,,,,stim/Instruction_adaptive.png,conditions/adaptive.xlsx,test,-0.6,-0.6,-0.6,0.6,0.6,left,L,,,,,0,1,1,1,0,14,14,11,,,,,,,,,,,,,,,,,,,,,,,,,,,,,,,,,,,,,,,,,,,,124.48081629996886,None,left,1,0.6729198000393808,124.98085799999535,125.84959060000256,124.98085799999535,125.36541629995918,124.98085799999535,125.36541629995918,124.98085799999535,125.36541629995918,124.98085799999535,125.36541629995918,124.98085799999535,125.36541629995918,125.33210229995893,125.83321589999832,125.33210229995893,125.83321589999832,125.33210229995893,125.83321589999832,125.33210229995893,125.83321589999832,125.33210229995893,125.83321589999832,125.33210229995893,125.83321589999832,125.33210229995893,125.83321589999832,125.33210229995893,125.83321589999832,124.98085799999535,None,125.83321589999832,127.75237609999022,0.3700000000000001,127.76858390000416,None,128.51932469999883,None,,,,,,,[1.918],4.290000000000004,0.7333333333333333,11041,002,2024_Mar_17_1413,MFTM_A_new1021,2021.2.3,59.90922554768381,
,,,,,,,,stim/Instruction_adaptive.png,conditions/adaptive.xlsx,test,0.6,0.6,0.6,-0.6,-0.6,right,R,,,,,0,1,1,1,0,15,15,36,,,,,,,,,,,,,,,,,,,,,,,,,,,,,,,,,,,,,,,,,,,,129.02100639999844,None,None,0,0,129.5210724999779,130.37216299999272,129.5210724999779,129.87140259996522,129.5210724999779,129.87140259996522,129.5210724999779,129.87140259996522,129.5210724999779,129.87140259996522,129.5210724999779,129.87140259996522,129.83882879995508,130.33880329999374,129.83882879995508,130.33880329999374,129.83882879995508,130.33880329999374,129.83882879995508,130.33880329999374,129.83882879995508,130.33880329999374,129.83882879995508,130.33880329999374,129.83882879995508,130.33880329999374,129.83882879995508,130.33880329999374,129.5210724999779,None,130.33880329999374,133.01034469995648,0.3400000000000001,133.044400499959,None,133.79533829999855,None,,,,,,,[[2.66]],3.900000000000003,0.6875,11041,002,2024_Mar_17_1413,MFTM_A_new1021,2021.2.3,59.90922554768381,
,,,,,,,,stim/Instruction_adaptive.png,conditions/adaptive.xlsx,test,-0.6,-0.6,-0.6,0.6,0.6,left,L,,,,,0,1,1,1,0,16,16,13,,,,,,,,,,,,,,,,,,,,,,,,,,,,,,,,,,,,,,,,,,,,134.29539499996463,None,left,1,0.9698372000129893,134.7965882999706,135.74704719998408,134.7965882999706,135.2463353999774,134.7965882999706,135.2463353999774,134.7965882999706,135.2463353999774,134.7965882999706,135.2463353999774,134.7965882999706,135.2463353999774,135.21293139999034,135.71355799998855,135.21293139999034,135.71355799998855,135.21293139999034,135.71355799998855,135.21293139999034,135.71355799998855,135.21293139999034,135.71355799998855,135.21293139999034,135.71355799998855,135.21293139999034,135.71355799998855,135.21293139999034,135.71355799998855,134.7965882999706,None,135.71355799998855,137.6675342999515,0.44000000000000017,137.6833010999835,None,138.4343289999524,None,,,,,,,[1.94058824],4.050000000000003,0.7058823529411765,11041,002,2024_Mar_17_1413,MFTM_A_new1021,2021.2.3,59.90922554768381,
,,,,,,,,stim/Instruction_adaptive.png,conditions/adaptive.xlsx,test,-0.6,-0.6,-0.6,0.6,0.6,left,L,,,,,0,1,1,1,0,17,17,49,,,,,,,,,,,,,,,,,,,,,,,,,,,,,,,,,,,,,,,,,,,,138.9353491999791,None,left,1,0.8096157000400126,139.43660650000675,140.3374000999611,139.43660650000675,139.83763229998294,139.43660650000675,139.83763229998294,139.43660650000675,139.83763229998294,139.43660650000675,139.83763229998294,139.43660650000675,139.83763229998294,139.82020889996784,140.32077039999422,139.82020889996784,140.32077039999422,139.82020889996784,140.32077039999422,139.82020889996784,140.32077039999422,139.82020889996784,140.32077039999422,139.82020889996784,140.32077039999422,139.82020889996784,140.32077039999422,139.82020889996784,140.32077039999422,139.43660650000675,None,140.32077039999422,142.2733326999587,0.40000000000000013,142.29012849996798,None,143.04261599999154,None,,,,,,,[1.94944444],4.1700000000000035,0.7222222222222222,11041,002,2024_Mar_17_1413,MFTM_A_new1021,2021.2.3,59.90922554768381,
,,,,,,,,stim/Instruction_adaptive.png,conditions/adaptive.xlsx,test,0.6,0.6,0.6,-0.6,-0.6,right,R,,,,,0,1,1,1,0,18,18,92,,,,,,,,,,,,,,,,,,,,,,,,,,,,,,,,,,,,,,,,,,,,143.54344569996465,None,right,1,0.7317790000233799,144.04297579999547,144.9276204999769,144.04297579999547,144.4280101999757,144.04297579999547,144.4280101999757,144.04297579999547,144.4280101999757,144.04297579999547,144.4280101999757,144.04297579999547,144.4280101999757,144.39336639997782,144.894213499967,144.39336639997782,144.894213499967,144.39336639997782,144.894213499967,144.39336639997782,144.894213499967,144.39336639997782,144.894213499967,144.39336639997782,144.894213499967,144.39336639997782,144.894213499967,144.39336639997782,144.894213499967,144.04297579999547,None,144.894213499967,146.86396749998676,0.3700000000000001,146.88034209999023,None,147.63289429998258,None,,,,,,,[1.95894737],4.280000000000003,0.7368421052631579,11041,002,2024_Mar_17_1413,MFTM_A_new1021,2021.2.3,59.90922554768381,
,,,,,,,,stim/Instruction_adaptive.png,conditions/adaptive.xlsx,test,-0.6,-0.6,-0.6,0.6,0.6,left,L,,,,,0,1,1,1,0,19,19,51,,,,,,,,,,,,,,,,,,,,,,,,,,,,,,,,,,,,,,,,,,,,148.13362449995475,None,right,0,0.6849326000083238,148.6334952999605,149.4845534999622,148.6334952999605,148.98361759999534,148.6334952999605,148.98361759999534,148.6334952999605,148.98361759999534,148.6334952999605,148.98361759999534,148.6334952999605,148.98361759999534,148.95032859995263,149.45182869996643,148.95032859995263,149.45182869996643,148.95032859995263,149.45182869996643,148.95032859995263,149.45182869996643,148.95032859995263,149.45182869996643,148.95032859995263,149.45182869996643,148.95032859995263,149.45182869996643,148.95032859995263,149.45182869996643,148.6334952999605,None,149.45182869996643,151.42143240000587,0.3400000000000001,151.45372359995963,None,152.20520430000033,None,,,,,,,[1.969],3.980000000000003,0.7,11041,002,2024_Mar_17_1413,MFTM_A_new1021,2021.2.3,59.90922554768381,
,,,,,,,,stim/Instruction_adaptive.png,conditions/adaptive.xlsx,test,-0.6,-0.6,-0.6,0.6,0.6,left,L,,,,,0,1,1,1,0,20,20,1,,,,,,,,,,,,,,,,,,,,,,,,,,,,,,,,,,,,,,,,,,,,152.7060019999626,None,right,0,0.8881692999857478,153.20668229996227,154.14235709997592,153.20668229996227,153.64139509998495,153.20668229996227,153.64139509998495,153.20668229996227,153.64139509998495,153.20668229996227,153.64139509998495,153.20668229996227,153.64139509998495,153.60803339997074,154.10796759999357,153.60803339997074,154.10796759999357,153.60803339997074,154.10796759999357,153.60803339997074,154.10796759999357,153.60803339997074,154.10796759999357,153.60803339997074,154.10796759999357,153.60803339997074,154.10796759999357,153.60803339997074,154.10796759999357,153.20668229996227,None,154.10796759999357,156.09442959999433,0.42000000000000015,156.1110187000013,None,156.86207440000726,None,,,,,,,[1.97428571],3.640000000000003,0.6666666666666666,11041,002,2024_Mar_17_1413,MFTM_A_new1021,2021.2.3,59.90922554768381,
,,,,,,,,stim/Instruction_adaptive.png,conditions/adaptive.xlsx,test,-0.6,-0.6,-0.6,0.6,0.6,left,L,,,,,0,1,1,1,0,21,21,35,,,,,,,,,,,,,,,,,,,,,,,,,,,,,,,,,,,,,,,,,,,,157.36298959999112,None,left,1,0.7274940999923274,157.8635929999873,158.89935149997473,157.8635929999873,158.3979404999991,157.8635929999873,158.3979404999991,157.8635929999873,158.3979404999991,157.8635929999873,158.3979404999991,157.8635929999873,158.3979404999991,158.38124859996606,158.88248809997458,158.38124859996606,158.88248809997458,158.38124859996606,158.88248809997458,158.38124859996606,158.88248809997458,158.38124859996606,158.88248809997458,158.38124859996606,158.88248809997458,158.38124859996606,158.88248809997458,158.38124859996606,158.88248809997458,157.8635929999873,None,158.88248809997458,160.85269349999726,0.5300000000000002,160.86802519997582,None,161.61979609995615,None,,,,,,,[[1.97]],3.770000000000003,0.6818181818181818,11041,002,2024_Mar_17_1413,MFTM_A_new1021,2021.2.3,59.90922554768381,
,,,,,,,,stim/Instruction_adaptive.png,conditions/adaptive.xlsx,test,-0.6,-0.6,-0.6,0.6,0.6,left,L,,,,,0,1,1,1,0,22,22,19,,,,,,,,,,,,,,,,,,,,,,,,,,,,,,,,,,,,,,,,,,,,162.12101790000452,None,left,1,0.842269100015983,162.62089259998174,163.60618609999074,162.62089259998174,163.10500779998256,162.62089259998174,163.10500779998256,162.62089259998174,163.10500779998256,162.62089259998174,163.10500779998256,162.62089259998174,163.10500779998256,163.08813619997818,163.5889924999792,163.08813619997818,163.5889924999792,163.08813619997818,163.5889924999792,163.08813619997818,163.5889924999792,163.08813619997818,163.5889924999792,163.08813619997818,163.5889924999792,163.08813619997818,163.5889924999792,163.08813619997818,163.5889924999792,162.62089259998174,None,163.5889924999792,None,0.4800000000000002,165.57506459997967,None,166.3266711999895,None,,,,,,,[1.97608696],3.880000000000003,0.6956521739130435,11041,002,2024_Mar_17_1413,MFTM_A_new1021,2021.2.3,59.90922554768381,
,,,,,,,,stim/Instruction_adaptive.png,conditions/adaptive.xlsx,test,0.6,0.6,0.6,-0.6,-0.6,right,R,,,,,0,1,1,1,0,23,23,50,,,,,,,,,,,,,,,,,,,,,,,,,,,,,,,,,,,,,,,,,,,,166.82794839999406,None,right,1,0.8863654999877326,167.32890490000136,168.27941039996222,167.32890490000136,167.77850919996854,167.32890490000136,167.77850919996854,167.32890490000136,167.77850919996854,167.32890490000136,167.77850919996854,167.32890490000136,167.77850919996854,167.76222899998538,168.26265829999465,167.76222899998538,168.26265829999465,167.76222899998538,168.26265829999465,167.76222899998538,168.26265829999465,167.76222899998538,168.26265829999465,167.76222899998538,168.26265829999465,167.76222899998538,168.26265829999465,167.76222899998538,168.26265829999465,167.32890490000136,None,168.26265829999465,170.2490442999988,0.4500000000000002,170.26567870000144,None,171.01696579996496,None,,,,,,,[1.97916667],3.980000000000003,0.7083333333333334,11041,002,2024_Mar_17_1413,MFTM_A_new1021,2021.2.3,59.90922554768381,
,,,,,,,,stim/Instruction_adaptive.png,conditions/adaptive.xlsx,test,-0.6,-0.6,-0.6,0.6,0.6,left,L,,,,,0,1,1,1,0,24,24,5,,,,,,,,,,,,,,,,,,,,,,,,,,,,,,,,,,,,,,,,,,,,171.51797029998852,None,right,0,0.765587100002449,172.01838490000227,172.95294379995903,172.01838490000227,172.4523808999802,172.01838490000227,172.4523808999802,172.01838490000227,172.4523808999802,172.01838490000227,172.4523808999802,172.01838490000227,172.4523808999802,172.41892719996395,172.9195166999707,172.41892719996395,172.9195166999707,172.41892719996395,172.9195166999707,172.41892719996395,172.9195166999707,172.41892719996395,172.9195166999707,172.41892719996395,172.9195166999707,172.41892719996395,172.9195166999707,172.41892719996395,172.9195166999707,172.01838490000227,None,172.9195166999707,174.9061425999971,0.42000000000000015,174.92266029998427,None,175.67518369999016,None,,,,,,,[1.9832],3.700000000000003,0.68,11041,002,2024_Mar_17_1413,MFTM_A_new1021,2021.2.3,59.90922554768381,
,,,,,,,,stim/Instruction_adaptive.png,conditions/adaptive.xlsx,test,0.6,0.6,0.6,-0.6,-0.6,right,R,,,,,0,1,1,1,0,25,25,32,,,,,,,,,,,,,,,,,,,,,,,,,,,,,,,,,,,,,,,,,,,,176.17474729998503,None,right,1,0.7799592000083067,176.67536890000338,177.69349360000342,176.67536890000338,177.1928100999794,176.67536890000338,177.1928100999794,176.67536890000338,177.1928100999794,176.67536890000338,177.1928100999794,176.67536890000338,177.1928100999794,177.15933150000637,177.66043069999432,177.15933150000637,177.66043069999432,177.15933150000637,177.66043069999432,177.15933150000637,177.66043069999432,177.15933150000637,177.66043069999432,177.15933150000637,177.66043069999432,177.15933150000637,177.66043069999432,177.15933150000637,177.66043069999432,176.67536890000338,None,177.66043069999432,179.6491251999978,0.5100000000000002,179.6800341999624,None,180.43092259997502,None,,,,,,,[1.98346154],3.810000000000003,0.6923076923076923,11041,002,2024_Mar_17_1413,MFTM_A_new1021,2021.2.3,59.90922554768381,
,,,,,,,,stim/Instruction_adaptive.png,conditions/adaptive.xlsx,test,0.6,0.6,0.6,-0.6,-0.6,right,R,,,,,0,1,1,1,0,26,26,22,,,,,,,,,,,,,,,,,,,,,,,,,,,,,,,,,,,,,,,,,,,,180.9317441000021,None,right,1,0.8868725000065751,181.43258449999848,182.41830409999238,181.43258449999848,181.91638369997963,181.43258449999848,181.91638369997963,181.43258449999848,181.91638369997963,181.43258449999848,181.91638369997963,181.43258449999848,181.91638369997963,181.88334939995548,182.38403489999473,181.88334939995548,182.38403489999473,181.88334939995548,182.38403489999473,181.88334939995548,182.38403489999473,181.88334939995548,182.38403489999473,181.88334939995548,182.38403489999473,181.88334939995548,182.38403489999473,181.88334939995548,182.38403489999473,181.43258449999848,None,182.38403489999473,184.37087529996643,0.4700000000000002,184.38704609998967,None,185.138306799985,None,,,,,,,[1.98518519],3.900000000000003,0.7037037037037037,11041,002,2024_Mar_17_1413,MFTM_A_new1021,2021.2.3,59.90922554768381,
,,,,,,,,stim/Instruction_adaptive.png,conditions/adaptive.xlsx,test,0.6,0.6,0.6,-0.6,-0.6,right,R,,,,,0,1,1,1,0,27,27,4,,,,,,,,,,,,,,,,,,,,,,,,,,,,,,,,,,,,,,,,,,,,185.64016579999588,None,right,1,0.7480429999995977,186.1395937000052,187.09117569995578,186.1395937000052,186.59068570000818,186.1395937000052,186.59068570000818,186.1395937000052,186.59068570000818,186.1395937000052,186.59068570000818,186.1395937000052,186.59068570000818,186.5568599999533,187.0578503999859,186.5568599999533,187.0578503999859,186.5568599999533,187.0578503999859,186.5568599999533,187.0578503999859,186.5568599999533,187.0578503999859,186.5568599999533,187.0578503999859,186.5568599999533,187.0578503999859,186.5568599999533,187.0578503999859,186.1395937000052,None,187.0578503999859,189.06160670000827,0.44000000000000017,189.07742689998122,None,189.82916229998227,None,,,,,,,[1.98785714],3.980000000000003,0.7142857142857143,11041,002,2024_Mar_17_1413,MFTM_A_new1021,2021.2.3,59.90922554768381,
,,,,,,,,stim/Instruction_adaptive.png,conditions/adaptive.xlsx,test,0.6,0.6,0.6,-0.6,-0.6,right,R,,,,,0,1,1,1,0,28,28,60,,,,,,,,,,,,,,,,,,,,,,,,,,,,,,,,,,,,,,,,,,,,190.32920849998482,None,right,1,0.7855201000347733,190.83014699997148,191.76530099997763,190.83014699997148,191.2639368000091,190.83014699997148,191.2639368000091,190.83014699997148,191.2639368000091,190.83014699997148,191.2639368000091,190.83014699997148,191.2639368000091,191.23082789999899,191.73207369999727,191.23082789999899,191.73207369999727,191.23082789999899,191.73207369999727,191.23082789999899,191.73207369999727,191.23082789999899,191.73207369999727,191.23082789999899,191.73207369999727,191.23082789999899,191.73207369999727,191.23082789999899,191.73207369999727,190.83014699997148,None,191.73207369999727,193.7344899000018,0.42000000000000015,193.75109639996663,None,194.5028209000011,None,,,,,,,[1.99103448],4.050000000000003,0.7241379310344828,11041,002,2024_Mar_17_1413,MFTM_A_new1021,2021.2.3,59.90922554768381,
,,,,,,,,stim/Instruction_adaptive.png,conditions/adaptive.xlsx,test,-0.6,-0.6,-0.6,0.6,0.6,left,L,,,,,0,1,1,1,0,29,29,81,,,,,,,,,,,,,,,,,,,,,,,,,,,,,,,,,,,,,,,,,,,,195.00295059999917,None,left,1,0.7441177000291646,195.5037325999583,196.4067513999762,195.5037325999583,195.9043229999952,195.5037325999583,195.9043229999952,195.5037325999583,195.9043229999952,195.5037325999583,195.9043229999952,195.5037325999583,195.9043229999952,195.88763269997435,196.38840209995396,195.88763269997435,196.38840209995396,195.88763269997435,196.38840209995396,195.88763269997435,196.38840209995396,195.88763269997435,196.38840209995396,195.88763269997435,196.38840209995396,195.88763269997435,196.38840209995396,195.88763269997435,196.38840209995396,195.5037325999583,None,196.38840209995396,198.39148019999266,0.40000000000000013,198.40795259998413,None,199.16013069998007,None,,,,,,,[1.99466667],4.120000000000003,0.7333333333333333,11041,002,2024_Mar_17_1413,MFTM_A_new1021,2021.2.3,59.90922554768381,
,,,,,,,,stim/Instruction_adaptive.png,conditions/adaptive.xlsx,test,0.6,0.6,0.6,-0.6,-0.6,right,R,,,,,0,1,1,1,0,30,30,86,,,,,,,,,,,,,,,,,,,,,,,,,,,,,,,,,,,,,,,,,,,,199.6600446999655,None,right,1,0.5753688999684528,200.16077109996695,201.04564849997405,200.16077109996695,200.54475889995228,200.16077109996695,200.54475889995228,200.16077109996695,200.54475889995228,200.16077109996695,200.54475889995228,200.16077109996695,200.54475889995228,200.52801029995317,201.029492200003,200.52801029995317,201.029492200003,200.52801029995317,201.029492200003,200.52801029995317,201.029492200003,200.52801029995317,201.029492200003,200.52801029995317,201.029492200003,200.52801029995317,201.029492200003,200.52801029995317,201.029492200003,200.16077109996695,None,201.029492200003,203.03197899996303,0.3800000000000001,203.0483513000072,None,203.79972959996667,None,,,,,,,[1.99870968],4.190000000000003,0.7419354838709677,11041,002,2024_Mar_17_1413,MFTM_A_new1021,2021.2.3,59.90922554768381,
,,,,,,,,stim/Instruction_adaptive.png,conditions/adaptive.xlsx,test,0.6,0.6,0.6,-0.6,-0.6,right,R,,,,,0,1,1,1,0,31,31,56,,,,,,,,,,,,,,,,,,,,,,,,,,,,,,,,,,,,,,,,,,,,204.30118809995474,None,right,1,0.6227993000065908,204.80139719997533,205.66984439996304,204.80139719997533,205.16837309999391,204.80139719997533,205.16837309999391,204.80139719997533,205.16837309999391,204.80139719997533,205.16837309999391,204.80139719997533,205.16837309999391,205.1518037999631,205.65313120000064,205.1518037999631,205.65313120000064,205.1518037999631,205.65313120000064,205.1518037999631,205.65313120000064,205.1518037999631,205.65313120000064,205.1518037999631,205.65313120000064,205.1518037999631,205.65313120000064,205.1518037999631,205.65313120000064,204.80139719997533,None,205.65313120000064,207.6553987999796,0.3600000000000001,207.6720247999765,None,208.42423780000536,None,,,,,,,[2.003125],4.2500000000000036,0.75,11041,002,2024_Mar_17_1413,MFTM_A_new1021,2021.2.3,59.90922554768381,
,,,,,,,,stim/Instruction_adaptive.png,conditions/adaptive.xlsx,test,0.6,0.6,0.6,-0.6,-0.6,right,R,,,,,0,1,1,1,0,32,32,20,,,,,,,,,,,,,,,,,,,,,,,,,,,,,,,,,,,,,,,,,,,,208.92384169995785,None,right,1,0.7274867999949493,209.42457259999355,210.27692649996607,209.42457259999355,209.77510659996187,209.42457259999355,209.77510659996187,209.42457259999355,209.77510659996187,209.42457259999355,209.77510659996187,209.42457259999355,209.77510659996187,209.75854949996574,210.26041569997324,209.75854949996574,210.26041569997324,209.75854949996574,210.26041569997324,209.75854949996574,210.26041569997324,209.75854949996574,210.26041569997324,209.75854949996574,210.26041569997324,209.75854949996574,210.26041569997324,209.75854949996574,210.26041569997324,209.42457259999355,None,210.26041569997324,212.27982949995203,0.3500000000000001,212.2962801999529,None,213.04759849997936,None,,,,,,,[2.00757576],4.310000000000003,0.7575757575757576,11041,002,2024_Mar_17_1413,MFTM_A_new1021,2021.2.3,59.90922554768381,
,,,,,,,,stim/Instruction_adaptive.png,conditions/adaptive.xlsx,test,-0.6,-0.6,-0.6,0.6,0.6,left,L,,,,,0,1,1,1,0,33,33,15,,,,,,,,,,,,,,,,,,,,,,,,,,,,,,,,,,,,,,,,,,,,213.54762460000347,None,right,0,0.5747573999688029,214.04956690000836,214.8830243999837,214.04956690000836,214.382097899972,214.04956690000836,214.382097899972,214.04956690000836,214.382097899972,214.04956690000836,214.382097899972,214.04956690000836,214.382097899972,214.36537859996315,214.86636869999347,214.36537859996315,214.86636869999347,214.36537859996315,214.86636869999347,214.36537859996315,214.86636869999347,214.36537859996315,214.86636869999347,214.36537859996315,214.86636869999347,214.36537859996315,214.86636869999347,214.36537859996315,214.86636869999347,214.04956690000836,None,214.86636869999347,216.88698179996572,0.33000000000000007,216.90283029997954,None,217.6545679999981,None,,,,,,,[2.01235294],4.150000000000003,0.7352941176470589,11041,002,2024_Mar_17_1413,MFTM_A_new1021,2021.2.3,59.90922554768381,
,,,,,,,,stim/Instruction_adaptive.png,conditions/adaptive.xlsx,test,0.6,0.6,0.6,-0.6,-0.6,right,R,,,,,0,1,1,1,0,34,34,94,,,,,,,,,,,,,,,,,,,,,,,,,,,,,,,,,,,,,,,,,,,,218.15525839995826,None,right,1,0.9369254000484943,218.65529159997823,219.54301859997213,218.65529159997823,219.03965880000032,218.65529159997823,219.03965880000032,218.65529159997823,219.03965880000032,218.65529159997823,219.03965880000032,218.65529159997823,219.03965880000032,219.00689929997316,219.5063511999906,219.00689929997316,219.5063511999906,219.00689929997316,219.5063511999906,219.00689929997316,219.5063511999906,219.00689929997316,219.5063511999906,219.00689929997316,219.5063511999906,219.00689929997316,219.5063511999906,219.00689929997316,219.5063511999906,218.65529159997823,None,219.5063511999906,221.5270540000056,0.3700000000000001,221.54324889997952,None,222.2952263999614,None,,,,,,,[2.01571429],4.200000000000003,0.7428571428571429,11041,002,2024_Mar_17_1413,MFTM_A_new1021,2021.2.3,59.90922554768381,
,,,,,,,,stim/Instruction_adaptive.png,conditions/adaptive.xlsx,test,0.6,0.6,0.6,-0.6,-0.6,right,R,,,,,0,1,1,1,0,35,35,66,,,,,,,,,,,,,,,,,,,,,,,,,,,,,,,,,,,,,,,,,,,,222.79554209997877,None,right,1,0.6965038999915123,223.29605849995278,224.16365519998362,223.29605849995278,223.66362149995985,223.29605849995278,223.66362149995985,223.29605849995278,223.66362149995985,223.29605849995278,223.66362149995985,223.29605849995278,223.66362149995985,223.64675829996122,224.14716980000958,223.64675829996122,224.14716980000958,223.64675829996122,224.14716980000958,223.64675829996122,224.14716980000958,223.64675829996122,224.14716980000958,223.64675829996122,224.14716980000958,223.64675829996122,224.14716980000958,223.64675829996122,224.14716980000958,223.29605849995278,None,224.14716980000958,226.16769899998326,0.3600000000000001,226.18363069999032,None,226.934390099952,None,,,,,,,[2.01916667],4.260000000000003,0.75,11041,002,2024_Mar_17_1413,MFTM_A_new1021,2021.2.3,59.90922554768381,
,,,,,,,,stim/Instruction_adaptive.png,conditions/adaptive.xlsx,test,-0.6,-0.6,-0.6,0.6,0.6,left,L,,,,,0,1,1,1,0,36,36,57,,,,,,,,,,,,,,,,,,,,,,,,,,,,,,,,,,,,,,,,,,,,227.43518549995497,None,left,1,0.8330168000538833,227.9359429999604,228.78725669998676,227.9359429999604,228.2866560999537,227.9359429999604,228.2866560999537,227.9359429999604,228.2866560999537,227.9359429999604,228.2866560999537,227.9359429999604,228.2866560999537,228.25317929999437,228.75435740000103,228.25317929999437,228.75435740000103,228.25317929999437,228.75435740000103,228.25317929999437,228.75435740000103,228.25317929999437,228.75435740000103,228.25317929999437,228.75435740000103,228.25317929999437,228.75435740000103,228.25317929999437,228.75435740000103,227.9359429999604,None,228.75435740000103,230.79113239998696,0.3400000000000001,230.80724969995208,None,231.55817309999838,None,,,,,,,[2.02297297],4.310000000000003,0.7567567567567568,11041,002,2024_Mar_17_1413,MFTM_A_new1021,2021.2.3,59.90922554768381,
,,,,,,,,stim/Instruction_adaptive.png,conditions/adaptive.xlsx,test,-0.6,-0.6,-0.6,0.6,0.6,left,L,,,,,0,1,1,1,0,37,37,53,,,,,,,,,,,,,,,,,,,,,,,,,,,,,,,,,,,,,,,,,,,,232.0595900999615,None,right,0,0.6013040000107139,232.5595015999861,233.39510979998158,232.5595015999861,232.89329679997172,232.5595015999861,232.89329679997172,232.5595015999861,232.89329679997172,232.5595015999861,232.89329679997172,232.5595015999861,232.89329679997172,232.87716789997648,233.3783152999822,232.87716789997648,233.3783152999822,232.87716789997648,233.3783152999822,232.87716789997648,233.3783152999822,232.87716789997648,233.3783152999822,232.87716789997648,233.3783152999822,232.87716789997648,233.3783152999822,232.87716789997648,233.3783152999822,232.5595015999861,None,233.3783152999822,235.41474769997876,0.33000000000000007,235.43054159998428,None,236.18165519996546,None,,,,,,,[2.02684211],4.160000000000004,0.7368421052631579,11041,002,2024_Mar_17_1413,MFTM_A_new1021,2021.2.3,59.90922554768381,
,,,,,,,,stim/Instruction_adaptive.png,conditions/adaptive.xlsx,test,-0.6,-0.6,-0.6,0.6,0.6,left,L,,,,,0,1,1,1,0,38,38,47,,,,,,,,,,,,,,,,,,,,,,,,,,,,,,,,,,,,,,,,,,,,236.68332149996422,None,right,0,0.761809199990239,237.18319459998747,238.0687906999956,237.18319459998747,237.56713629997103,237.18319459998747,237.56713629997103,237.18319459998747,237.56713629997103,237.18319459998747,237.56713629997103,237.18319459998747,237.56713629997103,237.53367019997677,238.03464119997807,237.53367019997677,238.03464119997807,237.53367019997677,238.03464119997807,237.53367019997677,238.03464119997807,237.53367019997677,238.03464119997807,237.53367019997677,238.03464119997807,237.53367019997677,238.03464119997807,237.53367019997677,238.03464119997807,237.18319459998747,None,238.03464119997807,240.0708443999756,0.3700000000000001,240.0876054999535,None,240.83891839999706,None,,,,,,,[2.02948718],4.010000000000003,0.717948717948718,11041,002,2024_Mar_17_1413,MFTM_A_new1021,2021.2.3,59.90922554768381,
,,,,,,,,stim/Instruction_adaptive.png,conditions/adaptive.xlsx,test,0.6,0.6,0.6,-0.6,-0.6,right,R,,,,,0,1,1,1,0,39,39,10,,,,,,,,,,,,,,,,,,,,,,,,,,,,,,,,,,,,,,,,,,,,241.34018209995702,None,right,1,0.7359013000386767,241.84104029997252,242.75946099997964,241.84104029997252,242.25758420000784,241.84104029997252,242.25758420000784,241.84104029997252,242.25758420000784,241.84104029997252,242.25758420000784,241.84104029997252,242.25758420000784,242.22440720000304,242.72596289997455,242.22440720000304,242.72596289997455,242.22440720000304,242.72596289997455,242.22440720000304,242.72596289997455,242.22440720000304,242.72596289997455,242.22440720000304,242.72596289997455,242.22440720000304,242.72596289997455,242.22440720000304,242.72596289997455,241.84104029997252,None,242.72596289997455,244.7618979999679,0.41000000000000014,244.79484309995314,None,245.54653029999463,None,,,,,,,[2.031],4.060000000000003,0.725,11041,002,2024_Mar_17_1413,MFTM_A_new1021,2021.2.3,59.90922554768381,
,,,,,,,,stim/Instruction_adaptive.png,conditions/adaptive.xlsx,test,0.6,0.6,0.6,-0.6,-0.6,right,R,,,,,0,1,1,1,0,40,40,28,,,,,,,,,,,,,,,,,,,,,,,,,,,,,,,,,,,,,,,,,,,,246.04748859995743,None,right,1,0.7663303999579512,246.547334999952,247.44929929997306,246.547334999952,246.9485929000075,246.547334999952,246.9485929000075,246.547334999952,246.9485929000075,246.547334999952,246.9485929000075,246.547334999952,246.9485929000075,246.91561749996617,247.4154598999885,246.91561749996617,247.4154598999885,246.91561749996617,247.4154598999885,246.91561749996617,247.4154598999885,246.91561749996617,247.4154598999885,246.91561749996617,247.4154598999885,246.91561749996617,247.4154598999885,246.91561749996617,247.4154598999885,246.547334999952,None,247.4154598999885,249.45167139999103,0.3900000000000001,249.48532410000917,None,250.23710769996978,None,,,,,,,[2.03292683],4.110000000000003,0.7317073170731707,11041,002,2024_Mar_17_1413,MFTM_A_new1021,2021.2.3,59.90922554768381,
,,,,,,,,stim/Instruction_adaptive.png,conditions/adaptive.xlsx,test,-0.6,-0.6,-0.6,0.6,0.6,left,L,,,,,0,1,1,1,0,41,41,31,,,,,,,,,,,,,,,,,,,,,,,,,,,,,,,,,,,,,,,,,,,,250.73718120000558,None,right,0,0.8586666999617592,251.2385040000081,252.12250289996155,251.2385040000081,251.62277719995473,251.2385040000081,251.62277719995473,251.2385040000081,251.62277719995473,251.2385040000081,251.62277719995473,251.2385040000081,251.62277719995473,251.60497579997173,252.1057271999889,251.60497579997173,252.1057271999889,251.60497579997173,252.1057271999889,251.60497579997173,252.1057271999889,251.60497579997173,252.1057271999889,251.60497579997173,252.1057271999889,251.60497579997173,252.1057271999889,251.60497579997173,252.1057271999889,251.2385040000081,None,252.1057271999889,254.14230720000342,0.3800000000000001,254.15848119999282,None,254.9103332000086,None,,,,,,,[2.035],3.960000000000003,0.7142857142857143,11041,002,2024_Mar_17_1413,MFTM_A_new1021,2021.2.3,59.90922554768381,
,,,,,,,,stim/Instruction_adaptive.png,conditions/adaptive.xlsx,test,-0.6,-0.6,-0.6,0.6,0.6,left,L,,,,,0,1,1,1,0,42,42,97,,,,,,,,,,,,,,,,,,,,,,,,,,,,,,,,,,,,,,,,,,,,255.41119359998265,None,left,1,1.3697291999706067,255.91150739998557,256.84709940000903,255.91150739998557,256.3464996999828,255.91150739998557,256.3464996999828,255.91150739998557,256.3464996999828,255.91150739998557,256.3464996999828,255.91150739998557,256.3464996999828,256.3127718999749,256.8128757000086,256.3127718999749,256.8128757000086,256.3127718999749,256.8128757000086,256.3127718999749,256.8128757000086,256.3127718999749,256.8128757000086,256.3127718999749,256.8128757000086,256.3127718999749,256.8128757000086,256.3127718999749,256.8128757000086,255.91150739998557,None,256.8128757000086,258.85004539997317,0.42000000000000015,258.86599999998,None,259.6177589999861,None,,,,,,,[2.03604651],4.020000000000003,0.7209302325581395,11041,002,2024_Mar_17_1413,MFTM_A_new1021,2021.2.3,59.90922554768381,
,,,,,,,,stim/Instruction_adaptive.png,conditions/adaptive.xlsx,test,0.6,0.6,0.6,-0.6,-0.6,right,R,,,,,0,1,1,1,0,43,43,44,,,,,,,,,,,,,,,,,,,,,,,,,,,,,,,,,,,,,,,,,,,,260.1180958999903,None,right,1,0.8061178000061773,260.619596799952,261.53751649998594,260.619596799952,261.0361331999884,260.619596799952,261.0361331999884,260.619596799952,261.0361331999884,260.619596799952,261.0361331999884,260.619596799952,261.0361331999884,261.00262569996994,261.50450999999885,261.00262569996994,261.50450999999885,261.00262569996994,261.50450999999885,261.00262569996994,261.50450999999885,261.00262569996994,261.50450999999885,261.00262569996994,261.50450999999885,261.00262569996994,261.50450999999885,261.00262569996994,261.50450999999885,260.619596799952,None,261.50450999999885,263.5563484999584,0.41000000000000014,263.57437539997045,None,264.324446899991,None,,,,,,,[2.03727273],4.070000000000003,0.7272727272727273,11041,002,2024_Mar_17_1413,MFTM_A_new1021,2021.2.3,59.90922554768381,
,,,,,,,,stim/Instruction_adaptive.png,conditions/adaptive.xlsx,test,0.6,0.6,0.6,-0.6,-0.6,right,R,,,,,0,1,1,1,0,44,44,42,,,,,,,,,,,,,,,,,,,,,,,,,,,,,,,,,,,,,,,,,,,,264.82578439998906,None,right,1,0.7790041000116616,265.3264779999736,266.2269430999877,265.3264779999736,265.7262212999631,265.3264779999736,265.7262212999631,265.3264779999736,265.7262212999631,265.3264779999736,265.7262212999631,265.3264779999736,265.7262212999631,265.6934993999894,266.193552599987,265.6934993999894,266.193552599987,265.6934993999894,266.193552599987,265.6934993999894,266.193552599987,265.6934993999894,266.193552599987,265.6934993999894,266.193552599987,265.6934993999894,266.193552599987,265.6934993999894,266.193552599987,265.3264779999736,None,266.193552599987,268.2472814999637,0.3900000000000001,268.2635589999845,None,269.01538399996934,None,,,,,,,[2.03888889],4.110000000000003,0.7333333333333333,11041,002,2024_Mar_17_1413,MFTM_A_new1021,2021.2.3,59.90922554768381,
,,,,,,,,stim/Instruction_adaptive.png,conditions/adaptive.xlsx,test,-0.6,-0.6,-0.6,0.6,0.6,left,L,,,,,0,1,1,1,0,45,45,89,,,,,,,,,,,,,,,,,,,,,,,,,,,,,,,,,,,,,,,,,,,,269.5153605999658,None,left,1,0.713993199984543,270.01599349995377,270.9006495999638,270.01599349995377,270.4009392999578,270.01599349995377,270.4009392999578,270.01599349995377,270.4009392999578,270.01599349995377,270.4009392999578,270.01599349995377,270.4009392999578,270.3841751999571,270.88575049996143,270.3841751999571,270.88575049996143,270.3841751999571,270.88575049996143,270.3841751999571,270.88575049996143,270.3841751999571,270.88575049996143,270.3841751999571,270.88575049996143,270.3841751999571,270.88575049996143,270.3841751999571,270.88575049996143,270.01599349995377,None,270.88575049996143,None,0.3800000000000001,272.93714719999116,None,273.68850679998286,None,,,,,,,[2.04065217],4.160000000000004,0.7391304347826086,11041,002,2024_Mar_17_1413,MFTM_A_new1021,2021.2.3,59.90922554768381,
,,,,,,,,stim/Instruction_adaptive.png,conditions/adaptive.xlsx,test,0.6,0.6,0.6,-0.6,-0.6,right,R,,,,,0,1,1,1,0,46,46,68,,,,,,,,,,,,,,,,,,,,,,,,,,,,,,,,,,,,,,,,,,,,274.1901503999834,None,right,1,0.7833983000018634,274.6909014999983,275.57530039997073,274.6909014999983,275.07480509998277,274.6909014999983,275.07480509998277,274.6909014999983,275.07480509998277,274.6909014999983,275.07480509998277,274.6909014999983,275.07480509998277,275.04129879997345,275.5417016999563,275.04129879997345,275.5417016999563,275.04129879997345,275.5417016999563,275.04129879997345,275.5417016999563,275.04129879997345,275.5417016999563,275.04129879997345,275.5417016999563,275.04129879997345,275.5417016999563,275.04129879997345,275.5417016999563,274.6909014999983,None,275.5417016999563,277.59467399999266,0.3700000000000001,277.61172589997295,None,278.3629386999528,None,,,,,,,[2.04255319],4.200000000000003,0.7446808510638298,11041,002,2024_Mar_17_1413,MFTM_A_new1021,2021.2.3,59.90922554768381,
,,,,,,,,stim/Instruction_adaptive.png,conditions/adaptive.xlsx,test,-0.6,-0.6,-0.6,0.6,0.6,left,L,,,,,0,1,1,1,0,47,47,9,,,,,,,,,,,,,,,,,,,,,,,,,,,,,,,,,,,,,,,,,,,,278.86351039999863,None,right,0,0.6383335999562405,279.3637024000054,280.23140489996877,279.3637024000054,279.7307035999838,279.3637024000054,279.7307035999838,279.3637024000054,279.7307035999838,279.3637024000054,279.7307035999838,279.3637024000054,279.7307035999838,279.7140347000095,280.2146936999634,279.7140347000095,280.2146936999634,279.7140347000095,280.2146936999634,279.7140347000095,280.2146936999634,279.7140347000095,280.2146936999634,279.7140347000095,280.2146936999634,279.7140347000095,280.2146936999634,279.7140347000095,280.2146936999634,279.3637024000054,None,280.19806179997977,282.25175789999776,0.3600000000000001,282.26721089996863,None,283.0189035999938,None,,,,,,,[2.04458333],4.080000000000004,0.7291666666666666,11041,002,2024_Mar_17_1413,MFTM_A_new1021,2021.2.3,59.90922554768381,
,,,,,,,,stim/Instruction_adaptive.png,conditions/adaptive.xlsx,test,-0.6,-0.6,-0.6,0.6,0.6,left,L,,,,,0,1,1,1,0,48,48,17,,,,,,,,,,,,,,,,,,,,,,,,,,,,,,,,,,,,,,,,,,,,283.52051349997055,None,right,0,0.6529922999907285,284.02113439998357,284.9222135999589,284.02113439998357,284.421058399952,284.02113439998357,284.421058399952,284.02113439998357,284.421058399952,284.02113439998357,284.421058399952,284.02113439998357,284.421058399952,284.3881900999695,284.8884854000062,284.3881900999695,284.8884854000062,284.3881900999695,284.8884854000062,284.3881900999695,284.8884854000062,284.3881900999695,284.8884854000062,284.3881900999695,284.8884854000062,284.3881900999695,284.8884854000062,284.3881900999695,284.8884854000062,284.02113439998357,None,284.8884854000062,286.9421891999664,0.3900000000000001,286.95835189998616,None,287.7093820999726,None,,,,,,,[2.04591837],3.950000000000003,0.7142857142857143,11041,002,2024_Mar_17_1413,MFTM_A_new1021,2021.2.3,59.90922554768381,
,,,,,,,,stim/Instruction_adaptive.png,conditions/adaptive.xlsx,test,0.6,0.6,0.6,-0.6,-0.6,right,R,,,,,0,1,1,1,0,49,49,40,,,,,,,,,,,,,,,,,,,,,,,,,,,,,,,,,,,,,,,,,,,,288.21117389999563,None,right,1,0.8109265000093728,288.7113827999565,289.6455391999916,288.7113827999565,289.14494299999205,288.7113827999565,289.14494299999205,288.7113827999565,289.14494299999205,288.7113827999565,289.14494299999205,288.7113827999565,289.14494299999205,289.12833169999067,289.62904839997645,289.12833169999067,289.62904839997645,289.12833169999067,289.62904839997645,289.12833169999067,289.62904839997645,289.12833169999067,289.62904839997645,289.12833169999067,289.62904839997645,289.12833169999067,289.62904839997645,289.12833169999067,289.62904839997645,288.7113827999565,None,289.62904839997645,291.68201200000476,0.43000000000000016,291.69873820000794,None,292.450612799963,None,,,,,,,[2.0464],3.990000000000003,0.72,11041,002,2024_Mar_17_1413,MFTM_A_new1021,2021.2.3,59.90922554768381,
,,,,,,,,stim/Instruction_adaptive.png,conditions/adaptive.xlsx,test,-0.6,-0.6,-0.6,0.6,0.6,left,L,,,,,0,1,1,1,0,50,50,73,,,,,,,,,,,,,,,,,,,,,,,,,,,,,,,,,,,,,,,,,,,,292.9512843999546,None,right,0,0.6298979999846779,293.4525597000029,294.37057179998374,293.4525597000029,293.86884809995536,293.4525597000029,293.86884809995536,293.4525597000029,293.86884809995536,293.4525597000029,293.86884809995536,293.4525597000029,293.86884809995536,293.83543209999334,294.3369332999573,293.83543209999334,294.3369332999573,293.83543209999334,294.3369332999573,293.83543209999334,294.3369332999573,293.83543209999334,294.3369332999573,293.83543209999334,294.3369332999573,293.83543209999334,294.3369332999573,293.83543209999334,294.3369332999573,293.4525597000029,None,294.3369332999573,296.3901776999701,0.41000000000000014,296.4229634999647,None,297.17433839995647,None,,,,,,,[2.0472549],3.860000000000003,0.7058823529411765,11041,002,2024_Mar_17_1413,MFTM_A_new1021,2021.2.3,59.90922554768381,
,,,,,,,,stim/Instruction_adaptive.png,conditions/adaptive.xlsx,test,0.6,0.6,0.6,-0.6,-0.6,right,R,,,,,0,1,1,1,0,51,51,12,,,,,,,,,,,,,,,,,,,,,,,,,,,,,,,,,,,,,,,,,,,,297.67538400000194,None,right,1,0.7864394999924116,298.175923599978,299.1264803999802,298.175923599978,298.62594399997033,298.175923599978,298.62594399997033,298.175923599978,298.62594399997033,298.175923599978,298.62594399997033,298.175923599978,298.62594399997033,298.6091201999807,299.1098195000086,298.6091201999807,299.1098195000086,298.6091201999807,299.1098195000086,298.6091201999807,299.1098195000086,298.6091201999807,299.1098195000086,298.6091201999807,299.1098195000086,298.6091201999807,299.1098195000086,298.6091201999807,299.1098195000086,298.175923599978,None,299.1098195000086,301.16283210000256,0.4500000000000002,301.1797166999895,None,301.9311970999697,None,,,,,,,[2.04730769],3.910000000000003,0.7115384615384616,11041,002,2024_Mar_17_1413,MFTM_A_new1021,2021.2.3,59.90922554768381,
,,,,,,,,stim/Instruction_adaptive.png,conditions/adaptive.xlsx,test,-0.6,-0.6,-0.6,0.6,0.6,left,L,,,,,0,1,1,1,0,52,52,7,,,,,,,,,,,,,,,,,,,,,,,,,,,,,,,,,,,,,,,,,,,,302.4325817999779,None,left,1,0.7263010000460781,302.9329412999796,303.8836924000061,302.9329412999796,303.3832043999573,302.9329412999796,303.3832043999573,302.9329412999796,303.3832043999573,302.9329412999796,303.3832043999573,302.9329412999796,303.3832043999573,303.34953599999426,303.85056699998677,303.34953599999426,303.85056699998677,303.34953599999426,303.85056699998677,303.34953599999426,303.85056699998677,303.34953599999426,303.85056699998677,303.34953599999426,303.85056699998677,303.34953599999426,303.85056699998677,303.34953599999426,303.85056699998677,302.9329412999796,None,303.85056699998677,305.90446489996975,0.44000000000000017,305.921022799972,None,306.67327069997555,None,,,,,,,[2.04754717],3.950000000000003,0.7169811320754716,11041,002,2024_Mar_17_1413,MFTM_A_new1021,2021.2.3,59.90922554768381,
,,,,,,,,stim/Instruction_adaptive.png,conditions/adaptive.xlsx,test,-0.6,-0.6,-0.6,0.6,0.6,left,L,,,,,0,1,1,1,0,53,53,25,,,,,,,,,,,,,,,,,,,,,,,,,,,,,,,,,,,,,,,,,,,,307.17259079997893,None,left,1,0.6982383000431582,307.67285979998996,308.6075975999702,307.67285979998996,308.106719399977,307.67285979998996,308.106719399977,307.67285979998996,308.106719399977,307.67285979998996,308.106719399977,307.67285979998996,308.106719399977,308.09001280000666,308.5911807999946,308.09001280000666,308.5911807999946,308.09001280000666,308.5911807999946,308.09001280000666,308.5911807999946,308.09001280000666,308.5911807999946,308.09001280000666,308.5911807999946,308.09001280000666,308.5911807999946,308.09001280000666,308.5911807999946,307.67285979998996,None,308.5911807999946,310.6448504999862,0.43000000000000016,310.66144739999436,None,311.41200599999866,None,,,,,,,[2.04796296],3.990000000000003,0.7222222222222222,11041,002,2024_Mar_17_1413,MFTM_A_new1021,2021.2.3,59.90922554768381,
,,,,,,,,stim/Instruction_adaptive.png,conditions/adaptive.xlsx,test,0.6,0.6,0.6,-0.6,-0.6,right,R,,,,,0,1,1,1,0,54,54,64,,,,,,,,,,,,,,,,,,,,,,,,,,,,,,,,,,,,,,,,,,,,311.9126829999732,None,right,1,0.6139994999975897,312.4132652999833,313.3319790000096,312.4132652999833,312.83072399999946,312.4132652999833,312.83072399999946,312.4132652999833,312.83072399999946,312.4132652999833,312.83072399999946,312.4132652999833,312.83072399999946,312.7981074999552,313.29894519998925,312.7981074999552,313.29894519998925,312.7981074999552,313.29894519998925,312.7981074999552,313.29894519998925,312.7981074999552,313.29894519998925,312.7981074999552,313.29894519998925,312.7981074999552,313.29894519998925,312.7981074999552,313.29894519998925,312.4132652999833,None,313.29894519998925,315.351018699992,0.41000000000000014,315.3845037999563,None,316.13559699995676,None,,,,,,,[2.04872727],4.030000000000003,0.7272727272727273,11041,002,2024_Mar_17_1413,MFTM_A_new1021,2021.2.3,59.90922554768381,
,,,,,,,,stim/Instruction_adaptive.png,conditions/adaptive.xlsx,test,0.6,0.6,0.6,-0.6,-0.6,right,R,,,,,0,1,1,1,0,55,55,76,,,,,,,,,,,,,,,,,,,,,,,,,,,,,,,,,,,,,,,,,,,,316.63632789999247,None,left,0,0.7070130999782123,317.1370242999983,318.0382115999819,317.1370242999983,317.53833089995896,317.1370242999983,317.53833089995896,317.1370242999983,317.53833089995896,317.1370242999983,317.53833089995896,317.1370242999983,317.53833089995896,317.52183579996927,318.0218099000049,317.52183579996927,318.0218099000049,317.52183579996927,318.0218099000049,317.52183579996927,318.0218099000049,317.52183579996927,318.0218099000049,317.52183579996927,318.0218099000049,317.52183579996927,318.0218099000049,317.52183579996927,318.0218099000049,317.1370242999983,None,318.0218099000049,320.075419300003,0.40000000000000013,320.0914682999719,None,320.84346109995386,None,,,,,,,[2.04964286],3.920000000000003,0.7142857142857143,11041,002,2024_Mar_17_1413,MFTM_A_new1021,2021.2.3,59.90922554768381,
,,,,,,,,stim/Instruction_adaptive.png,conditions/adaptive.xlsx,test,0.6,0.6,0.6,-0.6,-0.6,right,R,,,,,0,1,1,1,0,56,56,96,,,,,,,,,,,,,,,,,,,,,,,,,,,,,,,,,,,,,,,,,,,,321.34335659997305,None,right,1,0.9109205999993719,321.8443389000022,322.77963199996157,321.8443389000022,322.2793085000012,321.8443389000022,322.2793085000012,321.8443389000022,322.2793085000012,321.8443389000022,322.2793085000012,321.8443389000022,322.2793085000012,322.26153309998335,322.7625308999559,322.26153309998335,322.7625308999559,322.26153309998335,322.7625308999559,322.26153309998335,322.7625308999559,322.26153309998335,322.7625308999559,322.26153309998335,322.7625308999559,322.26153309998335,322.7625308999559,322.26153309998335,322.7625308999559,321.8443389000022,None,322.7625308999559,324.81613779999316,0.43000000000000016,324.83143869997,None,325.5833064999897,None,,,,,,,[2.05],3.960000000000003,0.7192982456140351,11041,002,2024_Mar_17_1413,MFTM_A_new1021,2021.2.3,59.90922554768381,
,,,,,,,,stim/Instruction_adaptive.png,conditions/adaptive.xlsx,test,-0.6,-0.6,-0.6,0.6,0.6,left,L,,,,,0,1,1,1,0,57,57,93,,,,,,,,,,,,,,,,,,,,,,,,,,,,,,,,,,,,,,,,,,,,326.0838924999698,None,left,1,0.8344075999921188,326.5847367999959,327.5202768999734,326.5847367999959,327.01939529995434,326.5847367999959,327.01939529995434,326.5847367999959,327.01939529995434,326.5847367999959,327.01939529995434,326.5847367999959,327.01939529995434,326.98513190000085,327.4867793999729,326.98513190000085,327.4867793999729,326.98513190000085,327.4867793999729,326.98513190000085,327.4867793999729,326.98513190000085,327.4867793999729,326.98513190000085,327.4867793999729,326.98513190000085,327.4867793999729,326.98513190000085,327.4867793999729,326.5847367999959,None,327.4867793999729,329.5403425999684,0.42000000000000015,329.5555846999632,None,330.30818069999805,None,,,,,,,[2.05051724],4.0000000000000036,0.7241379310344828,11041,002,2024_Mar_17_1413,MFTM_A_new1021,2021.2.3,59.90922554768381,
,,,,,,,,stim/Instruction_adaptive.png,conditions/adaptive.xlsx,test,-0.6,-0.6,-0.6,0.6,0.6,left,L,,,,,0,1,1,1,0,58,58,37,,,,,,,,,,,,,,,,,,,,,,,,,,,,,,,,,,,,,,,,,,,,330.8086532999878,None,left,1,0.7110403000260703,331.3084971999633,332.2268884999794,331.3084971999633,331.72584649996134,331.3084971999633,331.72584649996134,331.3084971999633,331.72584649996134,331.3084971999633,331.72584649996134,331.3084971999633,331.72584649996134,331.7091342000058,332.20972759998403,331.7091342000058,332.20972759998403,331.7091342000058,332.20972759998403,331.7091342000058,332.20972759998403,331.7091342000058,332.20972759998403,331.7091342000058,332.20972759998403,331.7091342000058,332.20972759998403,331.7091342000058,332.20972759998403,331.3084971999633,None,332.20972759998403,334.26391310000326,0.41000000000000014,334.2801802000031,None,335.0315115999547,None,,,,,,,[2.05118644],4.030000000000003,0.7288135593220338,11041,002,2024_Mar_17_1413,MFTM_A_new1021,2021.2.3,59.90922554768381,
,,,,,,,,stim/Instruction_adaptive.png,conditions/adaptive.xlsx,test,0.6,0.6,0.6,-0.6,-0.6,right,R,,,,,0,1,1,1,0,59,59,26,,,,,,,,,,,,,,,,,,,,,,,,,,,,,,,,,,,,,,,,,,,,335.53156499995384,None,right,1,0.6828750999993645,336.032553499972,336.9334738999605,336.032553499972,336.43339779996313,336.032553499972,336.43339779996313,336.032553499972,336.43339779996313,336.032553499972,336.43339779996313,336.032553499972,336.43339779996313,336.4161659000092,336.91667059995234,336.4161659000092,336.91667059995234,336.4161659000092,336.91667059995234,336.4161659000092,336.91667059995234,336.4161659000092,336.91667059995234,336.4161659000092,336.91667059995234,336.4161659000092,336.91667059995234,336.4161659000092,336.91667059995234,336.032553499972,None,336.91667059995234,338.97122359997593,0.40000000000000013,338.9866126999841,None,339.7386612999835,None,,,,,,,[2.052],4.070000000000003,0.7333333333333333,11041,002,2024_Mar_17_1413,MFTM_A_new1021,2021.2.3,59.90922554768381,
,,,,,,,,stim/Instruction_adaptive.png,conditions/adaptive.xlsx,test,0.6,0.6,0.6,-0.6,-0.6,right,R,,,,,0,1,1,1,0,60,60,74,,,,,,,,,,,,,,,,,,,,,,,,,,,,,,,,,,,,,,,,,,,,340.2396615999751,None,right,1,0.8249295999994501,340.7392459999537,341.64085510000587,340.7392459999537,341.13977029995294,340.7392459999537,341.13977029995294,340.7392459999537,341.13977029995294,340.7392459999537,341.13977029995294,340.7392459999537,341.13977029995294,341.1066135999863,341.6080296,341.1066135999863,341.6080296,341.1066135999863,341.6080296,341.1066135999863,341.6080296,341.1066135999863,341.6080296,341.1066135999863,341.6080296,341.1066135999863,341.6080296,341.1066135999863,341.6080296,340.7392459999537,None,341.6080296,343.6620570999803,0.3900000000000001,343.6950775999576,None,344.44615139998496,None,,,,,,,[2.05295082],4.100000000000003,0.7377049180327869,11041,002,2024_Mar_17_1413,MFTM_A_new1021,2021.2.3,59.90922554768381,
,,,,,,,,stim/Instruction_adaptive.png,conditions/adaptive.xlsx,test,0.6,0.6,0.6,-0.6,-0.6,right,R,,,,,0,1,1,1,0,61,61,46,,,,,,,,,,,,,,,,,,,,,,,,,,,,,,,,,,,,,,,,,,,,344.9471648999606,None,right,1,0.8061827000346966,345.4464712999761,346.33111749996897,345.4464712999761,345.83038040000247,345.4464712999761,345.83038040000247,345.4464712999761,345.83038040000247,345.4464712999761,345.83038040000247,345.4464712999761,345.83038040000247,345.8136714999564,346.3149987999932,345.8136714999564,346.3149987999932,345.8136714999564,346.3149987999932,345.8136714999564,346.3149987999932,345.8136714999564,346.3149987999932,345.8136714999564,346.3149987999932,345.8136714999564,346.3149987999932,345.8136714999564,346.3149987999932,345.4464712999761,None,346.3149987999932,None,0.3800000000000001,348.38421729998663,None,349.1375637999736,None,,,,,,,[2.05403226],4.140000000000003,0.7419354838709677,11041,002,2024_Mar_17_1413,MFTM_A_new1021,2021.2.3,59.90922554768381,
,,,,,,,,stim/Instruction_adaptive.png,conditions/adaptive.xlsx,test,0.6,0.6,0.6,-0.6,-0.6,right,R,,,,,0,1,1,1,0,62,62,54,,,,,,,,,,,,,,,,,,,,,,,,,,,,,,,,,,,,,,,,,,,,349.65265169995837,None,left,0,0.7061432000482455,350.1538893999532,351.0391221999889,350.1538893999532,350.5374477999867,350.1538893999532,350.5374477999867,350.1538893999532,350.5374477999867,350.1538893999532,350.5374477999867,350.1538893999532,350.5374477999867,350.5051107999752,351.0050715999678,350.5051107999752,351.0050715999678,350.5051107999752,351.0050715999678,350.5051107999752,351.0050715999678,350.5051107999752,351.0050715999678,350.5051107999752,351.0050715999678,350.5051107999752,351.0050715999678,350.5051107999752,351.0050715999678,350.1538893999532,None,351.0050715999678,353.05868489999557,0.3700000000000001,353.09121689997846,None,353.8423567999853,None,,,,,,,[2.0552381],4.040000000000003,0.7301587301587301,11041,002,2024_Mar_17_1413,MFTM_A_new1021,2021.2.3,59.90922554768381,
,,,,,,,,stim/Instruction_adaptive.png,conditions/adaptive.xlsx,test,-0.6,-0.6,-0.6,0.6,0.6,left,L,,,,,0,1,1,1,0,63,63,45,,,,,,,,,,,,,,,,,,,,,,,,,,,,,,,,,,,,,,,,,,,,354.3440158999874,None,right,0,0.6008032000390813,354.84409239998786,355.7463364999858,354.84409239998786,355.24450219998835,354.84409239998786,355.24450219998835,354.84409239998786,355.24450219998835,354.84409239998786,355.24450219998835,354.84409239998786,355.24450219998835,355.2277945000096,355.7286539999768,355.2277945000096,355.7286539999768,355.2277945000096,355.7286539999768,355.2277945000096,355.7286539999768,355.2277945000096,355.7286539999768,355.2277945000096,355.7286539999768,355.2277945000096,355.7286539999768,355.2277945000096,355.7286539999768,354.84409239998786,None,355.7286539999768,357.7982417999883,0.40000000000000013,357.81498099997407,None,358.56604419997893,None,,,,,,,[2.0559375],3.940000000000003,0.71875,11041,002,2024_Mar_17_1413,MFTM_A_new1021,2021.2.3,59.90922554768381,
,,,,,,,,stim/Instruction_adaptive.png,conditions/adaptive.xlsx,test,-0.6,-0.6,-0.6,0.6,0.6,left,L,,,,,0,1,1,1,0,64,64,21,,,,,,,,,,,,,,,,,,,,,,,,,,,,,,,,,,,,,,,,,,,,359.06702499999665,None,right,0,0.7726236000307836,359.56774809997296,360.5034350999631,359.56774809997296,360.00171340000816,359.56774809997296,360.00171340000816,359.56774809997296,360.00171340000816,359.56774809997296,360.00171340000816,359.56774809997296,360.00171340000816,359.9856598000042,360.48578980000457,359.9856598000042,360.48578980000457,359.9856598000042,360.48578980000457,359.9856598000042,360.48578980000457,359.9856598000042,360.48578980000457,359.9856598000042,360.48578980000457,359.9856598000042,360.48578980000457,359.9856598000042,360.48578980000457,359.56774809997296,None,360.48578980000457,None,0.43000000000000016,362.5555423999904,None,363.3071363999625,None,,,,,,,[2.05615385],3.840000000000003,0.7076923076923077,11041,002,2024_Mar_17_1413,MFTM_A_new1021,2021.2.3,59.90922554768381,
,,,,,,,,stim/Instruction_adaptive.png,conditions/adaptive.xlsx,test,0.6,0.6,0.6,-0.6,-0.6,right,R,,,,,0,1,1,1,0,65,65,70,,,,,,,,,,,,,,,,,,,,,,,,,,,,,,,,,,,,,,,,,,,,363.80756339995423,None,left,0,0.8560701999813318,364.3082239999785,365.2771651999792,364.3082239999785,364.7754563000053,364.3082239999785,364.7754563000053,364.3082239999785,364.7754563000053,364.3082239999785,364.7754563000053,364.3082239999785,364.7754563000053,364.7598922000034,365.2602826000075,364.7598922000034,365.2602826000075,364.7598922000034,365.2602826000075,364.7598922000034,365.2602826000075,364.7598922000034,365.2602826000075,364.7598922000034,365.2602826000075,364.7598922000034,365.2602826000075,364.7598922000034,365.2602826000075,364.3082239999785,None,365.24373200000264,367.2966108999681,0.4600000000000002,367.313083099958,None,368.064076199953,None,,,,,,,[[2.04]],3.720000000000003,0.696969696969697,11041,002,2024_Mar_17_1413,MFTM_A_new1021,2021.2.3,59.90922554768381,
,,,,,,,,stim/Instruction_adaptive.png,conditions/adaptive.xlsx,test,-0.6,-0.6,-0.6,0.6,0.6,left,L,,,,,0,1,1,1,0,66,66,27,,,,,,,,,,,,,,,,,,,,,,,,,,,,,,,,,,,,,,,,,,,,368.5653488999815,None,right,0,0.8340406999923289,369.0666227999609,370.0671071999823,369.0666227999609,369.5672732999665,369.0666227999609,369.5672732999665,369.0666227999609,369.5672732999665,369.0666227999609,369.5672732999665,369.0666227999609,369.5672732999665,369.5503155000042,370.05013789999066,369.5503155000042,370.05013789999066,369.5503155000042,370.05013789999066,369.5503155000042,370.05013789999066,369.5503155000042,370.05013789999066,369.5503155000042,370.05013789999066,369.5503155000042,370.05013789999066,369.5503155000042,370.05013789999066,369.0666227999609,None,370.05013789999066,372.0541345999809,0.5000000000000002,372.0703375999583,None,372.8210243000067,None,,,,,,,[[2.]],3.6000000000000028,0.6865671641791045,11041,002,2024_Mar_17_1413,MFTM_A_new1021,2021.2.3,59.90922554768381,
,,,,,,,,stim/Instruction_adaptive.png,conditions/adaptive.xlsx,test,-0.6,-0.6,-0.6,0.6,0.6,left,L,,,,,0,1,1,1,0,67,67,83,,,,,,,,,,,,,,,,,,,,,,,,,,,,,,,,,,,,,,,,,,,,373.3217918999726,None,right,0,0.7663711000350304,373.8223659999785,374.87391679995926,373.8223659999785,374.3732162999804,373.8223659999785,374.3732162999804,373.8223659999785,374.3732162999804,373.8223659999785,374.3732162999804,373.8223659999785,374.3732162999804,374.34093079995364,374.84161409997614,374.34093079995364,374.84161409997614,374.34093079995364,374.84161409997614,374.34093079995364,374.84161409997614,374.34093079995364,374.84161409997614,374.34093079995364,374.84161409997614,374.34093079995364,374.84161409997614,374.34093079995364,374.84161409997614,373.8223659999785,None,374.84161409997614,376.81123259995366,0.5400000000000003,376.8270176000078,None,377.578233200009,None,,,,,,,[[1.96]],3.4700000000000024,0.6764705882352942,11041,002,2024_Mar_17_1413,MFTM_A_new1021,2021.2.3,59.90922554768381,
,,,,,,,,stim/Instruction_adaptive.png,conditions/adaptive.xlsx,test,-0.6,-0.6,-0.6,0.6,0.6,left,L,,,,,0,1,1,1,0,68,68,3,,,,,,,,,,,,,,,,,,,,,,,,,,,,,,,,,,,,,,,,,,,,378.0797549999552,None,right,0,1.2240825000335462,378.5807482000091,379.68246659997385,378.5807482000091,379.1812390999985,378.5807482000091,379.1812390999985,378.5807482000091,379.1812390999985,378.5807482000091,379.1812390999985,378.5807482000091,379.1812390999985,379.14726459997473,379.6489008999779,379.14726459997473,379.6489008999779,379.14726459997473,379.6489008999779,379.14726459997473,379.6489008999779,379.14726459997473,379.6489008999779,379.14726459997473,379.6489008999779,379.14726459997473,379.6489008999779,379.14726459997473,379.6489008999779,378.5807482000091,None,379.6489008999779,381.56810289999703,0.5900000000000003,381.5837778999703,None,382.3355162999942,None,,,,,,,[[1.91]],3.3300000000000027,0.6666666666666666,11041,002,2024_Mar_17_1413,MFTM_A_new1021,2021.2.3,59.90922554768381,
,,,,,,,,stim/Instruction_adaptive.png,conditions/adaptive.xlsx,test,-0.6,-0.6,-0.6,0.6,0.6,left,L,,,,,0,1,1,1,0,69,69,29,,,,,,,,,,,,,,,,,,,,,,,,,,,,,,,,,,,,,,,,,,,,382.8371438999893,None,left,1,0.9722385999630205,383.33681700000307,384.4895706999814,383.33681700000307,383.98784590000287,383.33681700000307,383.98784590000287,383.33681700000307,383.98784590000287,383.33681700000307,383.98784590000287,383.33681700000307,383.98784590000287,383.97127169999294,384.4718834999949,383.97127169999294,384.4718834999949,383.97127169999294,384.4718834999949,383.97127169999294,384.4718834999949,383.97127169999294,384.4718834999949,383.97127169999294,384.4718834999949,383.97127169999294,384.4718834999949,383.97127169999294,384.4718834999949,383.33681700000307,None,384.4718834999949,386.32482380000874,0.6500000000000004,386.3413937999867,None,387.0926344000036,None,,,,,,,[[1.85]],3.3800000000000026,0.6714285714285714,11041,002,2024_Mar_17_1413,MFTM_A_new1021,2021.2.3,59.90922554768381,
,,,,,,,,stim/Instruction_adaptive.png,conditions/adaptive.xlsx,test,-0.6,-0.6,-0.6,0.6,0.6,left,L,,,,,0,1,1,1,0,70,70,23,,,,,,,,,,,,,,,,,,,,,,,,,,,,,,,,,,,,,,,,,,,,387.59340189996874,None,left,1,1.0391031000181101,388.0942260999582,389.2292280999827,388.0942260999582,388.728380799992,388.0942260999582,388.728380799992,388.0942260999582,388.728380799992,388.0942260999582,388.728380799992,388.0942260999582,388.728380799992,388.71160589996725,389.2131185999606,388.71160589996725,389.2131185999606,388.71160589996725,389.2131185999606,388.71160589996725,389.2131185999606,388.71160589996725,389.2131185999606,388.71160589996725,389.2131185999606,388.71160589996725,389.2131185999606,388.71160589996725,389.2131185999606,388.0942260999582,None,389.2131185999606,391.08261819998734,0.6300000000000003,391.0985153999645,None,391.84972309996374,None,,,,,,,[[1.87]],3.4300000000000024,0.676056338028169,11041,002,2024_Mar_17_1413,MFTM_A_new1021,2021.2.3,59.90922554768381,
,,,,,,,,stim/Instruction_adaptive.png,conditions/adaptive.xlsx,test,0.6,0.6,0.6,-0.6,-0.6,right,R,,,,,0,1,1,1,0,71,71,30,,,,,,,,,,,,,,,,,,,,,,,,,,,,,,,,,,,,,,,,,,,,392.35101359995315,None,left,0,1.2179642000119202,392.8511739000096,393.9694409999647,392.8511739000096,393.4697157999617,392.8511739000096,393.4697157999617,392.8511739000096,393.4697157999617,392.8511739000096,393.4697157999617,392.8511739000096,393.4697157999617,393.43548719998216,393.93698369996855,393.43548719998216,393.93698369996855,393.43548719998216,393.93698369996855,393.43548719998216,393.93698369996855,393.43548719998216,393.93698369996855,393.43548719998216,393.93698369996855,393.43548719998216,393.93698369996855,393.43548719998216,393.93698369996855,392.8511739000096,None,393.93698369996855,395.840140299988,0.6100000000000003,395.8555616000085,None,396.6079703999567,None,,,,,,,[[1.89]],3.2900000000000027,0.6666666666666666,11041,002,2024_Mar_17_1413,MFTM_A_new1021,2021.2.3,59.90922554768381,
,,,,,,,,stim/Instruction_adaptive.png,conditions/adaptive.xlsx,test,-0.6,-0.6,-0.6,0.6,0.6,left,L,,,,,0,1,1,1,0,72,72,87,,,,,,,,,,,,,,,,,,,,,,,,,,,,,,,,,,,,,,,,,,,,397.1077332999557,None,left,1,1.052903400035575,397.60822150000604,398.7767327000038,397.60822150000604,398.2936010999838,397.60822150000604,398.2936010999838,397.60822150000604,398.2936010999838,397.60822150000604,398.2936010999838,397.60822150000604,398.2936010999838,398.25935720000416,398.7609296999872,398.25935720000416,398.7609296999872,398.25935720000416,398.7609296999872,398.25935720000416,398.7609296999872,398.25935720000416,398.7609296999872,398.25935720000416,398.7609296999872,398.25935720000416,398.7609296999872,398.25935720000416,398.7609296999872,397.60822150000604,None,398.7609296999872,400.59862760000397,0.6700000000000004,400.6125989999855,None,401.3640367999906,None,,,,,,,[[1.83]],3.3400000000000025,0.6712328767123288,11041,002,2024_Mar_17_1413,MFTM_A_new1021,2021.2.3,59.90922554768381,
,,,,,,,,stim/Instruction_adaptive.png,conditions/adaptive.xlsx,test,0.6,0.6,0.6,-0.6,-0.6,right,R,,,,,0,1,1,1,0,73,73,82,,,,,,,,,,,,,,,,,,,,,,,,,,,,,,,,,,,,,,,,,,,,401.8658202000079,None,left,0,1.1838993999990635,402.36553899996215,403.5178584999521,402.36553899996215,403.0164939999813,402.36553899996215,403.0164939999813,402.36553899996215,403.0164939999813,402.36553899996215,403.0164939999813,402.36553899996215,403.0164939999813,402.99977419996867,403.50166680000257,402.99977419996867,403.50166680000257,402.99977419996867,403.50166680000257,402.99977419996867,403.50166680000257,402.99977419996867,403.50166680000257,402.99977419996867,403.50166680000257,402.99977419996867,403.50166680000257,402.99977419996867,403.50166680000257,402.36553899996215,None,403.50166680000257,405.3532236999599,0.6500000000000004,405.3700838999939,None,406.1220080999774,None,,,,,,,[[1.85]],3.2000000000000024,0.6621621621621622,11041,002,2024_Mar_17_1413,MFTM_A_new1021,2021.2.3,59.90922554768381,
,,,,,,,,stim/Instruction_adaptive.png,conditions/adaptive.xlsx,test,0.6,0.6,0.6,-0.6,-0.6,right,R,,,,,0,1,1,1,0,74,74,6,,,,,,,,,,,,,,,,,,,,,,,,,,,,,,,,,,,,,,,,,,,,406.6230988999596,None,right,1,1.1710434000124224,407.1228264999809,408.34183759998996,407.1228264999809,407.8571066999575,407.1228264999809,407.8571066999575,407.1228264999809,407.8571066999575,407.1228264999809,407.8571066999575,407.1228264999809,407.8571066999575,407.8238214000012,408.32557069999166,407.8238214000012,408.32557069999166,407.8238214000012,408.32557069999166,407.8238214000012,408.32557069999166,407.8238214000012,408.32557069999166,407.8238214000012,408.32557069999166,407.8238214000012,408.32557069999166,407.8238214000012,408.32557069999166,407.1228264999809,None,408.32557069999166,410.11034039995866,0.7200000000000004,410.12710459996015,None,410.8783248999971,None,,,,,,,[[1.78]],3.2500000000000027,0.6666666666666666,11041,002,2024_Mar_17_1413,MFTM_A_new1021,2021.2.3,59.90922554768381,
,,,,,,,,stim/Instruction_adaptive.png,conditions/adaptive.xlsx,test,0.6,0.6,0.6,-0.6,-0.6,right,R,,,,,0,1,1,1,0,75,75,72,,,,,,,,,,,,,,,,,,,,,,,,,,,,,,,,,,,,,,,,,,,,411.37994049995905,None,left,0,1.3088547000079416,411.8805505000055,413.081858999969,411.8805505000055,412.580951299984,411.8805505000055,412.580951299984,411.8805505000055,412.580951299984,411.8805505000055,412.580951299984,411.8805505000055,412.580951299984,412.5475923999911,413.0483109999914,412.5475923999911,413.0483109999914,412.5475923999911,413.0483109999914,412.5475923999911,413.0483109999914,412.5475923999911,413.0483109999914,412.5475923999911,413.0483109999914,412.5475923999911,413.0483109999914,412.5475923999911,413.0483109999914,411.8805505000055,None,413.0483109999914,414.867855999968,0.6900000000000004,414.88368759996956,None,415.6358912999858,None,,,,,,,[[1.81]],3.1000000000000023,0.6578947368421053,11041,002,2024_Mar_17_1413,MFTM_A_new1021,2021.2.3,59.90922554768381,
,,,,,,,,stim/Instruction_adaptive.png,conditions/adaptive.xlsx,test,-0.6,-0.6,-0.6,0.6,0.6,left,L,,,,,0,1,1,1,0,76,76,79,,,,,,,,,,,,,,,,,,,,,,,,,,,,,,,,,,,,,,,,,,,,416.1361644999706,None,right,0,1.7208833000040613,416.637190599984,417.92355449998286,416.637190599984,417.4057345999754,416.637190599984,417.4057345999754,416.637190599984,417.4057345999754,416.637190599984,417.4057345999754,416.637190599984,417.4057345999754,417.389668799995,417.88894309999887,417.389668799995,417.88894309999887,417.389668799995,417.88894309999887,417.389668799995,417.88894309999887,417.389668799995,417.88894309999887,417.389668799995,417.88894309999887,417.389668799995,417.88894309999887,417.389668799995,417.88894309999887,416.637190599984,None,417.88894309999887,419.62475409999024,0.7700000000000005,419.64149829995586,None,420.3935897999909,None,,,,,,,[[1.73]],2.940000000000002,0.6493506493506493,11041,002,2024_Mar_17_1413,MFTM_A_new1021,2021.2.3,59.90922554768381,
,,,,,,,,stim/Instruction_adaptive.png,conditions/adaptive.xlsx,test,0.6,0.6,0.6,-0.6,-0.6,right,R,,,,,0,1,1,1,0,77,77,38,,,,,,,,,,,,,,,,,,,,,,,,,,,,,,,,,,,,,,,,,,,,420.89346099999966,None,right,1,1.419636599952355,421.3943395999959,422.76284609996947,421.3943395999959,422.26360369997565,421.3943395999959,422.26360369997565,421.3943395999959,422.26360369997565,421.3943395999959,422.26360369997565,421.3943395999959,422.26360369997565,422.22936800000025,422.73023290000856,422.22936800000025,422.73023290000856,422.22936800000025,422.73023290000856,422.22936800000025,422.73023290000856,422.22936800000025,422.73023290000856,422.22936800000025,422.73023290000856,422.22936800000025,422.73023290000856,422.22936800000025,422.73023290000856,421.3943395999959,None,422.73023290000856,424.38208899996243,0.8600000000000005,424.39853259996744,None,425.15073049999774,None,,,,,,,[[1.64]],3.000000000000002,0.6538461538461539,11041,002,2024_Mar_17_1413,MFTM_A_new1021,2021.2.3,59.90922554768381,
,,,,,,,,stim/Instruction_adaptive.png,conditions/adaptive.xlsx,test,0.6,0.6,0.6,-0.6,-0.6,right,R,,,,,0,1,1,1,0,78,78,58,,,,,,,,,,,,,,,,,,,,,,,,,,,,,,,,,,,,,,,,,,,,425.6507114999695,None,right,1,1.125985299993772,426.15195729996776,427.4868556999718,426.15195729996776,426.9866134999902,426.15195729996776,426.9866134999902,426.15195729996776,426.9866134999902,426.15195729996776,426.9866134999902,426.15195729996776,426.9866134999902,426.9524923999561,427.45360329997493,426.9524923999561,427.45360329997493,426.9524923999561,427.45360329997493,426.9524923999561,427.45360329997493,426.9524923999561,427.45360329997493,426.9524923999561,427.45360329997493,426.9524923999561,427.45360329997493,426.9524923999561,427.45360329997493,426.15195729996776,None,427.45360329997493,429.13938319997396,0.8200000000000005,429.15607109997654,None,429.90812739997637,None,,,,,,,[[1.68]],3.0500000000000025,0.6582278481012658,11041,002,2024_Mar_17_1413,MFTM_A_new1021,2021.2.3,59.90922554768381,
,,,,,,,,stim/Instruction_adaptive.png,conditions/adaptive.xlsx,test,-0.6,-0.6,-0.6,0.6,0.6,left,L,,,,,0,1,1,1,0,79,79,95,,,,,,,,,,,,,,,,,,,,,,,,,,,,,,,,,,,,,,,,,,,,430.4078897999716,None,left,1,1.0891723000095226,430.9087937999866,432.21116449998226,430.9087937999866,431.70986929995706,430.9087937999866,431.70986929995706,430.9087937999866,431.70986929995706,430.9087937999866,431.70986929995706,430.9087937999866,431.70986929995706,431.6763488999568,432.177783799998,431.6763488999568,432.177783799998,431.6763488999568,432.177783799998,431.6763488999568,432.177783799998,431.6763488999568,432.177783799998,431.6763488999568,432.177783799998,431.6763488999568,432.177783799998,431.6763488999568,432.177783799998,430.9087937999866,None,432.177783799998,433.8967153999838,0.7900000000000005,433.91451199998846,None,434.66411979997065,None,,,,,,,[[1.71]],3.1000000000000023,0.6625,11041,002,2024_Mar_17_1413,MFTM_A_new1021,2021.2.3,59.90922554768381,
,,,,,,,,stim/Instruction_adaptive.png,conditions/adaptive.xlsx,test,0.6,0.6,0.6,-0.6,-0.6,right,R,,,,,0,1,1,1,0,80,80,2,,,,,,,,,,,,,,,,,,,,,,,,,,,,,,,,,,,,,,,,,,,,435.16527319996385,None,right,1,1.1008425999898463,435.6658339999849,436.9509813999757,435.6658339999849,436.4504157999763,435.6658339999849,436.4504157999763,435.6658339999849,436.4504157999763,435.6658339999849,436.4504157999763,435.6658339999849,436.4504157999763,436.4169006999582,436.91748020000523,436.4169006999582,436.91748020000523,436.4169006999582,436.91748020000523,436.4169006999582,436.91748020000523,436.4169006999582,436.91748020000523,436.4169006999582,436.91748020000523,436.4169006999582,436.91748020000523,436.4169006999582,436.91748020000523,435.6658339999849,None,436.91748020000523,438.6558740999899,0.7700000000000005,438.6701887999661,None,439.42221689998405,None,,,,,,,[[1.73]],3.150000000000002,0.6666666666666666,11041,002,2024_Mar_17_1413,MFTM_A_new1021,2021.2.3,59.90922554768381,
,,,,,,,,stim/Instruction_adaptive.png,conditions/adaptive.xlsx,test,0.6,0.6,0.6,-0.6,-0.6,right,R,,,,,0,1,1,1,0,81,81,16,,,,,,,,,,,,,,,,,,,,,,,,,,,,,,,,,,,,,,,,,,,,439.9228754999931,None,right,1,1.0945048000430688,440.42392659996403,441.6749578999588,440.42392659996403,441.17412579996744,440.42392659996403,441.17412579996744,440.42392659996403,441.17412579996744,440.42392659996403,441.17412579996744,440.42392659996403,441.17412579996744,441.1410523999948,441.64293999999063,441.1410523999948,441.64293999999063,441.1410523999948,441.64293999999063,441.1410523999948,441.64293999999063,441.1410523999948,441.64293999999063,441.1410523999948,441.64293999999063,441.1410523999948,441.64293999999063,441.1410523999948,441.64293999999063,440.42392659996403,None,441.64293999999063,443.41089239995927,0.7400000000000004,443.4274727999582,None,444.1801112999674,None,,,,,,,[[1.76]],3.190000000000002,0.6707317073170732,11041,002,2024_Mar_17_1413,MFTM_A_new1021,2021.2.3,59.90922554768381,
,,,,,,,,stim/Instruction_adaptive.png,conditions/adaptive.xlsx,test,0.6,0.6,0.6,-0.6,-0.6,right,R,,,,,0,1,1,1,0,82,82,52,,,,,,,,,,,,,,,,,,,,,,,,,,,,,,,,,,,,,,,,,,,,444.67996759997914,None,right,1,0.9622702000197023,445.1801024999586,446.41600749996724,445.1801024999586,445.91442300000926,445.1801024999586,445.91442300000926,445.1801024999586,445.91442300000926,445.1801024999586,445.91442300000926,445.1801024999586,445.91442300000926,445.88114329997916,446.3819805000094,445.88114329997916,446.3819805000094,445.88114329997916,446.3819805000094,445.88114329997916,446.3819805000094,445.88114329997916,446.3819805000094,445.88114329997916,446.3819805000094,445.88114329997916,446.3819805000094,445.88114329997916,446.3819805000094,445.1801024999586,None,446.3819805000094,448.16782969998894,0.7200000000000004,448.1846716,None,448.93670969997765,None,,,,,,,[[1.78]],3.2400000000000024,0.6746987951807228,11041,002,2024_Mar_17_1413,MFTM_A_new1021,2021.2.3,59.90922554768381,
,,,,,,,,stim/Instruction_adaptive.png,conditions/adaptive.xlsx,test,-0.6,-0.6,-0.6,0.6,0.6,left,L,,,,,0,1,1,1,0,83,83,75,,,,,,,,,,,,,,,,,,,,,,,,,,,,,,,,,,,,,,,,,,,,449.4368656000006,None,left,1,1.0701869000331499,449.93726519995835,451.1391442999593,449.93726519995835,450.63853150000796,449.93726519995835,450.63853150000796,449.93726519995835,450.63853150000796,449.93726519995835,450.63853150000796,449.93726519995835,450.63853150000796,450.6215640999726,451.12238099996466,450.6215640999726,451.12238099996466,450.6215640999726,451.12238099996466,450.6215640999726,451.12238099996466,450.6215640999726,451.12238099996466,450.6215640999726,451.12238099996466,450.6215640999726,451.12238099996466,450.6215640999726,451.12238099996466,449.93726519995835,None,451.12238099996466,452.9251294999849,0.7000000000000004,452.9418470999808,None,453.69409689999884,None,,,,,,,[[1.8]],3.2700000000000022,0.6785714285714286,11041,002,2024_Mar_17_1413,MFTM_A_new1021,2021.2.3,59.90922554768381,
,,,,,,,,stim/Instruction_adaptive.png,conditions/adaptive.xlsx,test,-0.6,-0.6,-0.6,0.6,0.6,left,L,,,,,0,1,1,1,0,84,84,77,,,,,,,,,,,,,,,,,,,,,,,,,,,,,,,,,,,,,,,,,,,,454.1936402999563,None,left,1,0.8880633999942802,454.69447379995836,455.87951880000765,454.69447379995836,455.37881560000824,454.69447379995836,455.37881560000824,454.69447379995836,455.37881560000824,454.69447379995836,455.37881560000824,454.69447379995836,455.37881560000824,455.36215359997004,455.863678099995,455.36215359997004,455.863678099995,455.36215359997004,455.863678099995,455.36215359997004,455.863678099995,455.36215359997004,455.863678099995,455.36215359997004,455.863678099995,455.36215359997004,455.863678099995,455.36215359997004,455.863678099995,454.69447379995836,None,455.863678099995,457.6830777999712,0.6800000000000004,457.69983949995367,None,458.45103249995736,None,,,,,,,[[1.82]],3.3100000000000023,0.6823529411764706,11041,002,2024_Mar_17_1413,MFTM_A_new1021,2021.2.3,59.90922554768381,
,,,,,,,,stim/Instruction_adaptive.png,conditions/adaptive.xlsx,test,0.6,0.6,0.6,-0.6,-0.6,right,R,,,,,0,1,1,1,0,85,85,24,,,,,,,,,,,,,,,,,,,,,,,,,,,,,,,,,,,,,,,,,,,,458.9507443999755,None,left,0,1.0900727999978699,459.4525280999951,460.6211715999525,459.4525280999951,460.1192720999825,459.4525280999951,460.1192720999825,459.4525280999951,460.1192720999825,459.4525280999951,460.1192720999825,459.4525280999951,460.1192720999825,460.0859112999751,460.58743799995864,460.0859112999751,460.58743799995864,460.0859112999751,460.58743799995864,460.0859112999751,460.58743799995864,460.0859112999751,460.58743799995864,460.0859112999751,460.58743799995864,460.0859112999751,460.58743799995864,460.0859112999751,460.58743799995864,459.4525280999951,None,460.58743799995864,462.43960979999974,0.6600000000000004,462.4560252999654,None,463.2081731999642,None,,,,,,,[[1.84]],3.2000000000000024,0.6744186046511628,11041,002,2024_Mar_17_1413,MFTM_A_new1021,2021.2.3,59.90922554768381,
,,,,,,,,stim/Instruction_adaptive.png,conditions/adaptive.xlsx,test,0.6,0.6,0.6,-0.6,-0.6,right,R,,,,,0,1,1,1,0,86,86,80,,,,,,,,,,,,,,,,,,,,,,,,,,,,,,,,,,,,,,,,,,,,463.7092641000054,None,right,1,0.982618400012143,464.2086557999719,465.42828449996887,464.2086557999719,464.943554700003,464.2086557999719,464.943554700003,464.2086557999719,464.943554700003,464.2086557999719,464.943554700003,464.2086557999719,464.943554700003,464.910373599967,465.41127509996295,464.910373599967,465.41127509996295,464.910373599967,465.41127509996295,464.910373599967,465.41127509996295,464.910373599967,465.41127509996295,464.910373599967,465.41127509996295,464.910373599967,465.41127509996295,464.910373599967,465.41127509996295,464.2086557999719,None,465.41127509996295,467.19785769999726,0.7200000000000004,467.2139686999726,None,467.9645140999928,None,,,,,,,[[1.78]],3.2400000000000024,0.6781609195402298,11041,002,2024_Mar_17_1413,MFTM_A_new1021,2021.2.3,59.90922554768381,
,,,,,,,,stim/Instruction_adaptive.png,conditions/adaptive.xlsx,test,-0.6,-0.6,-0.6,0.6,0.6,left,L,,,,,0,1,1,1,0,87,87,65,,,,,,,,,,,,,,,,,,,,,,,,,,,,,,,,,,,,,,,,,,,,468.46576880000066,None,left,1,1.1924544000066817,468.96659719996387,470.1677366999793,468.96659719996387,469.6671817000024,468.96659719996387,469.6671817000024,468.96659719996387,469.6671817000024,468.96659719996387,469.6671817000024,468.96659719996387,469.6671817000024,469.6511714999797,470.15105639997637,469.6511714999797,470.15105639997637,469.6511714999797,470.15105639997637,469.6511714999797,470.15105639997637,469.6511714999797,470.15105639997637,469.6511714999797,470.15105639997637,469.6511714999797,470.15105639997637,469.6511714999797,470.15105639997637,468.96659719996387,None,470.15105639997637,471.9562922999612,0.7000000000000004,471.96981529996265,None,472.7222768999636,None,,,,,,,[[1.8]],3.2800000000000025,0.6818181818181818,11041,002,2024_Mar_17_1413,MFTM_A_new1021,2021.2.3,59.90922554768381,
,,,,,,,,stim/Instruction_adaptive.png,conditions/adaptive.xlsx,test,0.6,0.6,0.6,-0.6,-0.6,right,R,,,,,0,1,1,1,0,88,88,0,,,,,,,,,,,,,,,,,,,,,,,,,,,,,,,,,,,,,,,,,,,,473.2230212999857,None,right,1,1.2602115999907255,473.7229509999743,474.9081634999602,473.7229509999743,474.40788579999935,473.7229509999743,474.40788579999935,473.7229509999743,474.40788579999935,473.7229509999743,474.40788579999935,473.7229509999743,474.40788579999935,474.391453899967,474.8915205000085,474.391453899967,474.8915205000085,474.391453899967,474.8915205000085,474.391453899967,474.8915205000085,474.391453899967,474.8915205000085,474.391453899967,474.8915205000085,474.391453899967,474.8915205000085,474.391453899967,474.8915205000085,473.7229509999743,None,474.8915205000085,476.71203769999556,0.6800000000000004,476.72835119999945,None,477.47890559997177,None,,,,,,,[[1.82]],3.3100000000000023,0.6853932584269663,11041,002,2024_Mar_17_1413,MFTM_A_new1021,2021.2.3,59.90922554768381,
,,,,,,,,stim/Instruction_adaptive.png,conditions/adaptive.xlsx,test,0.6,0.6,0.6,-0.6,-0.6,right,R,,,,,0,1,1,1,0,89,89,18,,,,,,,,,,,,,,,,,,,,,,,,,,,,,,,,,,,,,,,,,,,,477.98050459998194,None,right,1,0.8073004999896511,478.48031979997177,479.6485854999628,478.48031979997177,479.14808829996036,478.48031979997177,479.14808829996036,478.48031979997177,479.14808829996036,478.48031979997177,479.14808829996036,478.48031979997177,479.14808829996036,479.13118239998585,479.63186389999464,479.13118239998585,479.63186389999464,479.13118239998585,479.63186389999464,479.13118239998585,479.63186389999464,479.13118239998585,479.63186389999464,479.13118239998585,479.63186389999464,479.13118239998585,479.63186389999464,479.13118239998585,479.63186389999464,478.48031979997177,None,479.63186389999464,None,0.6600000000000004,481.48467829998117,None,482.23685039998963,None,,,,,,,[[1.84]],3.3500000000000023,0.6888888888888889,11041,002,2024_Mar_17_1413,MFTM_A_new1021,2021.2.3,59.90922554768381,
,,,,,,,,stim/Instruction_adaptive.png,conditions/adaptive.xlsx,test,0.6,0.6,0.6,-0.6,-0.6,right,R,,,,,0,1,1,1,0,90,90,14,,,,,,,,,,,,,,,,,,,,,,,,,,,,,,,,,,,,,,,,,,,,482.73751319997245,None,right,1,0.7699385000159964,483.237469899992,484.3892494000029,483.237469899992,483.8884527999908,483.237469899992,483.8884527999908,483.237469899992,483.8884527999908,483.237469899992,483.8884527999908,483.237469899992,483.8884527999908,483.87163179996423,484.37267809995683,483.87163179996423,484.37267809995683,483.87163179996423,484.37267809995683,483.87163179996423,484.37267809995683,483.87163179996423,484.37267809995683,483.87163179996423,484.37267809995683,483.87163179996423,484.37267809995683,483.87163179996423,484.37267809995683,483.237469899992,None,484.37267809995683,486.225325300009,0.6500000000000004,486.2431855999748,None,486.9943154999637,None,,,,,,,[[1.85]],3.3800000000000026,0.6923076923076923,11041,002,2024_Mar_17_1413,MFTM_A_new1021,2021.2.3,59.90922554768381,
,,,,,,,,stim/Instruction_adaptive.png,conditions/adaptive.xlsx,test,0.6,0.6,0.6,-0.6,-0.6,right,R,,,,,0,1,1,1,0,91,91,48,,,,,,,,,,,,,,,,,,,,,,,,,,,,,,,,,,,,,,,,,,,,487.49475959996926,None,right,1,1.1808684000279754,487.994668099971,489.1297889999696,487.994668099971,488.6298327999539,487.994668099971,488.6298327999539,487.994668099971,488.6298327999539,487.994668099971,488.6298327999539,487.994668099971,488.6298327999539,488.6131701999693,489.1131785999751,488.6131701999693,489.1131785999751,488.6131701999693,489.1131785999751,488.6131701999693,489.1131785999751,488.6131701999693,489.1131785999751,488.6131701999693,489.1131785999751,488.6131701999693,489.1131785999751,488.6131701999693,489.1131785999751,487.994668099971,None,489.1131785999751,490.9833273999975,0.6300000000000003,491.0000328999595,None,491.75028159999056,None,,,,,,,[[1.87]],3.410000000000003,0.6956521739130435,11041,002,2024_Mar_17_1413,MFTM_A_new1021,2021.2.3,59.90922554768381,
,,,,,,,,stim/Instruction_adaptive.png,conditions/adaptive.xlsx,test,-0.6,-0.6,-0.6,0.6,0.6,left,L,,,,,0,1,1,1,0,92,92,99,,,,,,,,,,,,,,,,,,,,,,,,,,,,,,,,,,,,,,,,,,,,492.25178249995224,None,right,0,1.2156748000415973,492.75223599997116,493.88778950000415,492.75223599997116,493.3861312000081,492.75223599997116,493.3861312000081,492.75223599997116,493.3861312000081,492.75223599997116,493.3861312000081,492.75223599997116,493.3861312000081,493.35268879996147,493.8535569999949,493.35268879996147,493.8535569999949,493.35268879996147,493.8535569999949,493.35268879996147,493.8535569999949,493.35268879996147,493.8535569999949,493.35268879996147,493.8535569999949,493.35268879996147,493.8535569999949,493.35268879996147,493.8535569999949,492.75223599997116,None,493.8535569999949,495.7404025999713,0.6200000000000003,495.7555527999648,None,496.5074254999636,None,,,,,,,[[1.88]],3.3200000000000025,0.6881720430107527,11041,002,2024_Mar_17_1413,MFTM_A_new1021,2021.2.3,59.90922554768381,
