arrwidth1,arrwidth2,arrwidth3,arrwidth4,arrwidth5,keyb,type,orientation,instruction_image,block_filename,block_type,arrow11,arrow22,arrow33,arrow44,arrow55,keyb_3,orientation3,trials.thisRepN,trials.thisTrialN,trials.thisN,trials.thisIndex,trials_3.thisRepN,trials_3.thisTrialN,trials_3.thisN,trials_3.thisIndex,trials_2.thisRepN,trials_2.thisTrialN,trials_2.thisN,trials_2.thisIndex,welcome.started,welcome.stopped,key_resp.keys,key_resp.rt,key_resp.started,key_resp.stopped,instruction_example.started,instruction_example.stopped,key_resp_3.keys,key_resp_3.rt,key_resp_3.started,key_resp_3.stopped,instruction_task.started,instruction_task.stopped,key_resp_2.keys,key_resp_2.rt,key_resp_2.started,key_resp_2.stopped,text_2.started,text_2.stopped,A1.started,A1.stopped,A2.started,A2.stopped,A3.started,A3.stopped,A4.started,A4.stopped,A5.started,A5.stopped,key_resp_4.keys,key_resp_4.corr,key_resp_4.rt,key_resp_4.started,key_resp_4.stopped,fb.started,fb.stopped,instruction_block.started,instruction_block.stopped,key_resp_8.keys,key_resp_8.rt,key_resp_8.started,key_resp_8.stopped,text_8.started,text_8.stopped,key_resp_9.keys,key_resp_9.corr,key_resp_9.rt,text_5.started,text_5.stopped,A11_3.started,A11_3.stopped,A22_2.started,A22_2.stopped,A33_2.started,A33_2.stopped,A44_2.started,A44_2.stopped,A55_2.started,A55_2.stopped,M1_3.started,M1_3.stopped,M2_2.started,M2_2.stopped,M3_2.started,M3_2.stopped,M4_2.started,M4_2.stopped,M5_2.started,M5_2.stopped,M6_2.started,M6_2.stopped,M7_2.started,M7_2.stopped,M8_2.started,M8_2.stopped,key_resp_9.started,key_resp_9.stopped,fixation.started,fixation.stopped,ET,fb_3.started,fb_3.stopped,text_9.started,text_9.stopped,fb_4.started,fb_4.stopped,text_7.started,text_7.stopped,endtext.started,endtext.stopped,fixation_ITI,CCC,Acc,participant,session,date,expName,psychopyVersion,frameRate,
,,,,,,,,,,,,,,,,,,,,,,,,,,,,,,10.454953500069678,None,left,1.585735699860379,10.454953500069678,None,,,,,,,,,,,,,,,,,,,,,,,,,,,,,,,,,,,,,,,,,,,,,,,,,,,,,,,,,,,,,,,,,,,,,,,,,,,,,,,,,,,,,,,,,11046,001,2024_Apr_15_1331,MFTM_A_new1021,2021.2.3,60.0407316349468,
,,,,,,,,,,,,,,,,,,,,,,,,,,,,,,,,,,,,12.056177100166678,None,left,1.968109699897468,12.056177100166678,None,,,,,,,,,,,,,,,,,,,,,,,,,,,,,,,,,,,,,,,,,,,,,,,,,,,,,,,,,,,,,,,,,,,,,,,,,,,,,,,,,,,11046,001,2024_Apr_15_1331,MFTM_A_new1021,2021.2.3,60.0407316349468,
,,,,,,,,,,,,,,,,,,,,,,,,,,,,,,,,,,,,,,,,,,14.042802300071344,None,left,4.613359000068158,14.042802300071344,None,,,,,,,,,,,,,,,,,,,,,,,,,,,,,,,,,,,,,,,,,,,,,,,,,,,,,,,,,,,,,,,,,,,,,,,,,,,,,11046,001,2024_Apr_15_1331,MFTM_A_new1021,2021.2.3,60.0407316349468,
-0.6,-0.6,-0.6,0.6,0.6,left,3:2,L,,,,,,,,,,,0,0,0,1,,,,,,,,,,,,,,,,,,,,,,,,,,,18.700032100081444,None,18.700032100081444,None,18.700032100081444,None,18.700032100081444,None,18.700032100081444,None,18.700032100081444,None,left,1,9.236762600019574,18.700032100081444,None,27.980795199982822,None,,,,,,,,,,,,,,,,,,,,,,,,,,,,,,,,,,,,,,,,,,,,,,,,,,,,,,,,,,11046,001,2024_Apr_15_1331,MFTM_A_new1021,2021.2.3,60.0407316349468,
0.6,0.6,0.6,-0.6,-0.6,right,3:2,R,,,,,,,,,,,0,1,1,0,,,,,,,,,,,,,,,,,,,,,,,,,,,28.73166729998775,None,28.73166729998775,None,28.73166729998775,None,28.73166729998775,None,28.73166729998775,None,28.73166729998775,None,right,1,1.1972345998510718,28.73166729998775,None,29.95060360012576,None,,,,,,,,,,,,,,,,,,,,,,,,,,,,,,,,,,,,,,,,,,,,,,,,,,,,,,,,,,11046,001,2024_Apr_15_1331,MFTM_A_new1021,2021.2.3,60.0407316349468,
-0.6,-0.6,-0.6,0.6,0.6,left,3:2,L,,,,,,,,,,,1,0,2,1,,,,,,,,,,,,,,,,,,,,,,,,,,,30.701235000044107,None,30.701235000044107,None,30.701235000044107,None,30.701235000044107,None,30.701235000044107,None,30.701235000044107,None,right,0,5.499499300029129,30.701235000044107,None,36.226239199982956,None,,,,,,,,,,,,,,,,,,,,,,,,,,,,,,,,,,,,,,,,,,,,,,,,,,,,,,,,,,11046,001,2024_Apr_15_1331,MFTM_A_new1021,2021.2.3,60.0407316349468,
0.6,0.6,0.6,-0.6,-0.6,right,3:2,R,,,,,,,,,,,1,1,3,0,,,,,,,,,,,,,,,,,,,,,,,,,,,36.97726300009526,None,36.97726300009526,None,36.97726300009526,None,36.97726300009526,None,36.97726300009526,None,36.97726300009526,None,right,1,1.7999467998743057,36.97726300009526,None,38.796693600015715,None,,,,,,,,,,,,,,,,,,,,,,,,,,,,,,,,,,,,,,,,,,,,,,,,,,,,,,,,,,11046,001,2024_Apr_15_1331,MFTM_A_new1021,2021.2.3,60.0407316349468,
,,,,,,,,stim/Instruction_mask.png,conditions/adaptive.xlsx,practice,-0.6,-0.6,-0.6,0.6,0.6,left,L,,,,,0,0,0,0,0,0,0,3,,,,,,,,,,,,,,,,,,,,,,,,,,,,,,,,,,,,,,39.86506190011278,None,down,20.528281399980187,39.86506190011278,None,60.479193800128996,None,left,1,2.1753375998232514,60.93020900012925,None,60.93020900012925,63.93474579998292,60.93020900012925,63.93474579998292,60.93020900012925,63.93474579998292,60.93020900012925,63.93474579998292,60.93020900012925,63.93474579998292,63.918603900121525,64.41907890001312,63.918603900121525,64.41907890001312,63.918603900121525,64.41907890001312,63.918603900121525,64.41907890001312,63.918603900121525,64.41907890001312,63.918603900121525,64.41907890001312,63.918603900121525,64.41907890001312,63.918603900121525,64.41907890001312,60.93020900012925,None,64.41907890001312,64.41907890001312,3,64.43545330013148,None,65.18698250013404,None,,,,,,,,,,11046,001,2024_Apr_15_1331,MFTM_A_new1021,2021.2.3,60.0407316349468,
,,,,,,,,stim/Instruction_mask.png,conditions/adaptive.xlsx,practice,-0.6,-0.6,-0.6,0.6,0.6,left,L,,,,,0,0,0,0,0,1,1,41,,,,,,,,,,,,,,,,,,,,,,,,,,,,,,,,,,,,,,,,,,,,65.6874718000181,None,right,0,2.2297904000151902,66.18813260016032,68.19126400002278,66.18813260016032,67.69040910014883,66.18813260016032,67.69040910014883,66.18813260016032,67.69040910014883,66.18813260016032,67.69040910014883,66.18813260016032,67.69040910014883,67.67367350007407,68.17429070011713,67.67367350007407,68.17429070011713,67.67367350007407,68.17429070011713,67.67367350007407,68.17429070011713,67.67367350007407,68.17429070011713,67.67367350007407,68.17429070011713,67.67367350007407,68.17429070011713,67.67367350007407,68.17429070011713,66.18813260016032,None,68.17429070011713,69.67699329997413,1.5,69.69332720013335,None,70.44444610015489,None,,,,,,,,,,11046,001,2024_Apr_15_1331,MFTM_A_new1021,2021.2.3,60.0407316349468,
,,,,,,,,stim/Instruction_mask.png,conditions/adaptive.xlsx,practice,0.6,0.6,0.6,-0.6,-0.6,right,R,,,,,0,0,0,0,0,2,2,12,,,,,,,,,,,,,,,,,,,,,,,,,,,,,,,,,,,,,,,,,,,,70.9454830000177,None,right,1,1.1320201000198722,71.44605140015483,72.74805589998141,71.44605140015483,72.24726750003174,71.44605140015483,72.24726750003174,71.44605140015483,72.24726750003174,71.44605140015483,72.24726750003174,71.44605140015483,72.24726750003174,72.23072400013916,72.73134180018678,72.23072400013916,72.73134180018678,72.23072400013916,72.73134180018678,72.23072400013916,72.73134180018678,72.23072400013916,72.73134180018678,72.23072400013916,72.73134180018678,72.23072400013916,72.73134180018678,72.23072400013916,72.73134180018678,71.44605140015483,None,72.73134180018678,74.93494240008295,0.8,74.95161260012537,None,75.7024358001072,None,,,,,,,,,,11046,001,2024_Apr_15_1331,MFTM_A_new1021,2021.2.3,60.0407316349468,
,,,,,,,,stim/Instruction_mask.png,conditions/adaptive.xlsx,practice,0.6,0.6,0.6,-0.6,-0.6,right,R,,,,,0,0,0,0,0,3,3,16,,,,,,,,,,,,,,,,,,,,,,,,,,,,,,,,,,,,,,,,,,,,76.20333960000426,None,left,0,0.5544912000186741,76.70405980013311,77.4551038001664,76.70405980013311,76.95463349996135,76.70405980013311,76.95463349996135,76.70405980013311,76.95463349996135,76.70405980013311,76.95463349996135,76.70405980013311,76.95463349996135,76.93825180013664,77.43857450014912,76.93825180013664,77.43857450014912,76.93825180013664,77.43857450014912,76.93825180013664,77.43857450014912,76.93825180013664,77.43857450014912,76.93825180013664,77.43857450014912,76.93825180013664,77.43857450014912,76.93825180013664,77.43857450014912,76.70405980013311,None,77.43857450014912,80.19254720001481,3,80.20920590008609,None,80.96037830016576,None,,,,,,,,,,11046,001,2024_Apr_15_1331,MFTM_A_new1021,2021.2.3,60.0407316349468,
,,,,,,,,stim/Instruction_mask.png,conditions/adaptive.xlsx,practice,,,,,,,,,,,,0,0,0,0,,,,,,,,,,,,,,,,,,,,,,,,,,,,,,,,,,,,,,,,,,,,,,,,,,,,,,,,,,,,,,,,,,,,,,,,,,,,,,,,,,,,,,,,,,81.4776423999574,82.48049850016832,82.46309119998477,82.46309119998477,82.46309119998477,None,,,,11046,001,2024_Apr_15_1331,MFTM_A_new1021,2021.2.3,60.0407316349468,
,,,,,,,,stim/Instruction_adaptive.png,conditions/adaptive.xlsx,test,-0.6,-0.6,-0.6,0.6,0.6,left,L,,,,,0,1,1,1,0,0,0,67,,,,,,,,,,,,,,,,,,,,,,,,,,,,,,,,,,,,,,85.65103900013492,None,down,13.423425299813971,85.65103900013492,None,99.1219605000224,None,left,1,0.740945199970156,99.62185460003093,None,99.62185460003093,102.62695840001106,99.62185460003093,102.62695840001106,99.62185460003093,102.62695840001106,99.62185460003093,102.62695840001106,99.62185460003093,102.62695840001106,102.59352400014177,103.09407270001248,102.59352400014177,103.09407270001248,102.59352400014177,103.09407270001248,102.59352400014177,103.09407270001248,102.59352400014177,103.09407270001248,102.59352400014177,103.09407270001248,102.59352400014177,103.09407270001248,102.59352400014177,103.09407270001248,99.62185460003093,None,103.09407270001248,103.09407270001248,3,103.12719899998046,None,103.87892950000241,None,,,,,,,0,6.000000000000005,1.0,11046,001,2024_Apr_15_1331,MFTM_A_new1021,2021.2.3,60.0407316349468,
,,,,,,,,stim/Instruction_adaptive.png,conditions/adaptive.xlsx,test,-0.6,-0.6,-0.6,0.6,0.6,left,L,,,,,0,1,1,1,0,1,1,29,,,,,,,,,,,,,,,,,,,,,,,,,,,,,,,,,,,,,,,,,,,,104.37915850011632,None,right,0,1.0991526001598686,104.8796869001817,105.63124740007333,104.8796869001817,105.13023809995502,104.8796869001817,105.13023809995502,104.8796869001817,105.13023809995502,104.8796869001817,105.13023809995502,104.8796869001817,105.13023809995502,105.11359830014408,105.61441959999502,105.11359830014408,105.61441959999502,105.11359830014408,105.61441959999502,105.11359830014408,105.61441959999502,105.11359830014408,105.61441959999502,105.11359830014408,105.61441959999502,105.11359830014408,105.61441959999502,105.11359830014408,105.61441959999502,104.8796869001817,None,105.61441959999502,106.49910450004973,0.25,106.51548500009812,None,107.26711640018038,None,,,,,,,[0.875],2.570000000000002,0.5,11046,001,2024_Apr_15_1331,MFTM_A_new1021,2021.2.3,60.0407316349468,
,,,,,,,,stim/Instruction_adaptive.png,conditions/adaptive.xlsx,test,-0.6,-0.6,-0.6,0.6,0.6,left,L,,,,,0,1,1,1,0,2,2,19,,,,,,,,,,,,,,,,,,,,,,,,,,,,,,,,,,,,,,,,,,,,107.76757220015861,None,left,1,1.3520082000177354,108.26829980011098,109.88734690006822,108.26829980011098,109.38670699996874,108.26829980011098,109.38670699996874,108.26829980011098,109.38670699996874,108.26829980011098,109.38670699996874,108.26829980011098,109.38670699996874,109.35319290007465,109.8539150999859,109.35319290007465,109.8539150999859,109.35319290007465,109.8539150999859,109.35319290007465,109.8539150999859,109.35319290007465,109.8539150999859,109.35319290007465,109.8539150999859,109.35319290007465,109.8539150999859,109.35319290007465,109.8539150999859,108.26829980011098,None,109.8539150999859,110.90560170006938,1.1100000000000008,110.93894829996862,None,111.69039810006507,None,,,,,,,[1.04666667],3.3800000000000026,0.6666666666666666,11046,001,2024_Apr_15_1331,MFTM_A_new1021,2021.2.3,60.0407316349468,
,,,,,,,,stim/Instruction_adaptive.png,conditions/adaptive.xlsx,test,-0.6,-0.6,-0.6,0.6,0.6,left,L,,,,,0,1,1,1,0,3,3,59,,,,,,,,,,,,,,,,,,,,,,,,,,,,,,,,,,,,,,,,,,,,112.1912764001172,None,left,1,0.8955814000219107,112.69165850011632,113.82701650005765,112.69165850011632,113.32594160013832,112.69165850011632,113.32594160013832,112.69165850011632,113.32594160013832,112.69165850011632,113.32594160013832,112.69165850011632,113.32594160013832,113.30919279996306,113.8101456000004,113.30919279996306,113.8101456000004,113.30919279996306,113.8101456000004,113.30919279996306,113.8101456000004,113.30919279996306,113.8101456000004,113.30919279996306,113.8101456000004,113.30919279996306,113.8101456000004,113.30919279996306,113.8101456000004,112.69165850011632,None,113.8101456000004,115.06212970009074,0.6300000000000003,115.0786699000746,None,115.83041539997794,None,,,,,,,[1.2525],3.940000000000003,0.75,11046,001,2024_Apr_15_1331,MFTM_A_new1021,2021.2.3,60.0407316349468,
,,,,,,,,stim/Instruction_adaptive.png,conditions/adaptive.xlsx,test,0.6,0.6,0.6,-0.6,-0.6,right,R,,,,,0,1,1,1,0,4,4,72,,,,,,,,,,,,,,,,,,,,,,,,,,,,,,,,,,,,,,,,,,,,116.33065610006452,None,left,0,0.652219100156799,116.83142550010234,117.76615549996495,116.83142550010234,117.26576149999164,116.83142550010234,117.26576149999164,116.83142550010234,117.26576149999164,116.83142550010234,117.26576149999164,116.83142550010234,117.26576149999164,117.24895020015538,117.749445799971,117.24895020015538,117.749445799971,117.24895020015538,117.749445799971,117.24895020015538,117.749445799971,117.24895020015538,117.749445799971,117.24895020015538,117.749445799971,117.24895020015538,117.749445799971,117.24895020015538,117.749445799971,116.83142550010234,None,117.749445799971,119.16951280017383,0.43000000000000016,119.18471910012886,None,119.93585730018094,None,,,,,,,[1.416],2.960000000000002,0.6,11046,001,2024_Apr_15_1331,MFTM_A_new1021,2021.2.3,60.0407316349468,
,,,,,,,,stim/Instruction_adaptive.png,conditions/adaptive.xlsx,test,0.6,0.6,0.6,-0.6,-0.6,right,R,,,,,0,1,1,1,0,5,5,54,,,,,,,,,,,,,,,,,,,,,,,,,,,,,,,,,,,,,,,,,,,,120.43681770004332,None,left,0,1.0898739998228848,120.93738680006936,122.28992780018598,120.93738680006936,121.7887536000926,120.93738680006936,121.7887536000926,120.93738680006936,121.7887536000926,120.93738680006936,121.7887536000926,120.93738680006936,121.7887536000926,121.77208909997717,122.27283380017616,121.77208909997717,122.27283380017616,121.77208909997717,122.27283380017616,121.77208909997717,122.27283380017616,121.77208909997717,122.27283380017616,121.77208909997717,122.27283380017616,121.77208909997717,122.27283380017616,121.77208909997717,122.27283380017616,120.93738680006936,None,122.27283380017616,None,0.8500000000000005,123.74187800008804,None,124.4929130000528,None,,,,,,,[1.455],1.8400000000000012,0.5,11046,001,2024_Apr_15_1331,MFTM_A_new1021,2021.2.3,60.0407316349468,
,,,,,,,,stim/Instruction_adaptive.png,conditions/adaptive.xlsx,test,-0.6,-0.6,-0.6,0.6,0.6,left,L,,,,,0,1,1,1,0,6,6,81,,,,,,,,,,,,,,,,,,,,,,,,,,,,,,,,,,,,,,,,,,,,124.99395700008608,None,left,1,1.0452986999880522,125.49437420000322,127.84822150017135,125.49437420000322,127.3473800001666,125.49437420000322,127.3473800001666,125.49437420000322,127.3473800001666,125.49437420000322,127.3473800001666,125.49437420000322,127.3473800001666,127.31409820006229,127.81479270011187,127.31409820006229,127.81479270011187,127.31409820006229,127.81479270011187,127.31409820006229,127.81479270011187,127.31409820006229,127.81479270011187,127.31409820006229,127.81479270011187,127.31409820006229,127.81479270011187,127.31409820006229,127.81479270011187,125.49437420000322,None,127.81479270011187,128.48293399997056,1.8400000000000014,128.49890600005165,None,129.2504551000893,None,,,,,,,[[0.66]],2.3400000000000016,0.5714285714285714,11046,001,2024_Apr_15_1331,MFTM_A_new1021,2021.2.3,60.0407316349468,
,,,,,,,,stim/Instruction_adaptive.png,conditions/adaptive.xlsx,test,-0.6,-0.6,-0.6,0.6,0.6,left,L,,,,,0,1,1,1,0,7,7,39,,,,,,,,,,,,,,,,,,,,,,,,,,,,,,,,,,,,,,,,,,,,129.7509998001624,None,right,0,1.5678801001049578,130.25205829995684,132.05426030000672,130.25205829995684,131.55337040009908,130.25205829995684,131.55337040009908,130.25205829995684,131.55337040009908,130.25205829995684,131.55337040009908,130.25205829995684,131.55337040009908,131.53663410013542,132.03740220004693,131.53663410013542,132.03740220004693,131.53663410013542,132.03740220004693,131.53663410013542,132.03740220004693,131.53663410013542,132.03740220004693,131.53663410013542,132.03740220004693,131.53663410013542,132.03740220004693,131.53663410013542,132.03740220004693,130.25205829995684,None,132.03740220004693,133.24010669998825,1.300000000000001,133.25606649997644,None,134.00740360002965,None,,,,,,,[[1.2]],1.3200000000000007,0.5,11046,001,2024_Apr_15_1331,MFTM_A_new1021,2021.2.3,60.0407316349468,
,,,,,,,,stim/Instruction_adaptive.png,conditions/adaptive.xlsx,test,0.6,0.6,0.6,-0.6,-0.6,right,R,,,,,0,1,1,1,0,8,8,80,,,,,,,,,,,,,,,,,,,,,,,,,,,,,,,,,,,,,,,,,,,,134.50824420014396,None,right,1,1.3469712000805885,135.0089420999866,None,135.0089420999866,137.6635416999925,135.0089420999866,137.6635416999925,135.0089420999866,137.6635416999925,135.0089420999866,137.6635416999925,135.0089420999866,137.6635416999925,137.62991160014644,138.12998590013012,137.62991160014644,138.12998590013012,137.62991160014644,138.12998590013012,137.62991160014644,138.12998590013012,137.62991160014644,138.12998590013012,137.62991160014644,138.12998590013012,137.62991160014644,138.12998590013012,137.62991160014644,138.12998590013012,135.0089420999866,None,138.12998590013012,138.12998590013012,2.6400000000000023,138.1639583001379,None,138.91491800011136,None,,,,,,,0,1.7900000000000011,0.5555555555555556,11046,001,2024_Apr_15_1331,MFTM_A_new1021,2021.2.3,60.0407316349468,
,,,,,,,,stim/Instruction_adaptive.png,conditions/adaptive.xlsx,test,0.6,0.6,0.6,-0.6,-0.6,right,R,,,,,0,1,1,1,0,9,9,74,,,,,,,,,,,,,,,,,,,,,,,,,,,,,,,,,,,,,,,,,,,,139.41530560003594,None,right,1,1.528039300115779,139.91600339999422,142.31998270004988,139.91600339999422,141.81924120010808,139.91600339999422,141.81924120010808,139.91600339999422,141.81924120010808,139.91600339999422,141.81924120010808,139.91600339999422,141.81924120010808,141.80249310005456,142.30353210004978,141.80249310005456,142.30353210004978,141.80249310005456,142.30353210004978,141.80249310005456,142.30353210004978,141.80249310005456,142.30353210004978,141.80249310005456,142.30353210004978,141.80249310005456,142.30353210004978,141.80249310005456,142.30353210004978,139.91600339999422,None,142.30353210004978,142.9039419000037,1.9000000000000015,142.92068219999783,None,143.67238720017485,None,,,,,,,[[0.6]],2.0900000000000016,0.6,11046,001,2024_Apr_15_1331,MFTM_A_new1021,2021.2.3,60.0407316349468,
,,,,,,,,stim/Instruction_adaptive.png,conditions/adaptive.xlsx,test,-0.6,-0.6,-0.6,0.6,0.6,left,L,,,,,0,1,1,1,0,10,10,25,,,,,,,,,,,,,,,,,,,,,,,,,,,,,,,,,,,,,,,,,,,,144.17251170007512,None,right,0,1.306815000018105,144.67305600014515,146.72633980005048,144.67305600014515,146.2255416000262,144.67305600014515,146.2255416000262,144.67305600014515,146.2255416000262,144.67305600014515,146.2255416000262,144.67305600014515,146.2255416000262,146.20885080005974,146.70984200015664,146.20885080005974,146.70984200015664,146.20885080005974,146.70984200015664,146.20885080005974,146.70984200015664,146.20885080005974,146.70984200015664,146.20885080005974,146.70984200015664,146.20885080005974,146.70984200015664,146.20885080005974,146.70984200015664,144.67305600014515,None,146.70984200015664,147.66149020008743,1.5500000000000012,147.6780656001065,None,148.42898920015432,None,,,,,,,[[0.95]],1.3900000000000008,0.5454545454545454,11046,001,2024_Apr_15_1331,MFTM_A_new1021,2021.2.3,60.0407316349468,
,,,,,,,,stim/Instruction_adaptive.png,conditions/adaptive.xlsx,test,0.6,0.6,0.6,-0.6,-0.6,right,R,,,,,0,1,1,1,0,11,11,90,,,,,,,,,,,,,,,,,,,,,,,,,,,,,,,,,,,,,,,,,,,,148.92947120009921,None,right,1,0.9024548998568207,149.43048800015822,None,149.43048800015822,151.9509093000088,149.43048800015822,151.9509093000088,149.43048800015822,151.9509093000088,149.43048800015822,151.9509093000088,149.43048800015822,151.9509093000088,151.91777650010772,152.4182578001637,151.91777650010772,152.4182578001637,151.91777650010772,152.4182578001637,151.91777650010772,152.4182578001637,151.91777650010772,152.4182578001637,151.91777650010772,152.4182578001637,151.91777650010772,152.4182578001637,151.91777650010772,152.4182578001637,149.43048800015822,None,152.4182578001637,152.4182578001637,2.510000000000002,152.45216310000978,None,153.2032836000435,None,,,,,,,0,1.690000000000001,0.5833333333333334,11046,001,2024_Apr_15_1331,MFTM_A_new1021,2021.2.3,60.0407316349468,
,,,,,,,,stim/Instruction_adaptive.png,conditions/adaptive.xlsx,test,-0.6,-0.6,-0.6,0.6,0.6,left,L,,,,,0,1,1,1,0,12,12,21,,,,,,,,,,,,,,,,,,,,,,,,,,,,,,,,,,,,,,,,,,,,153.70384020009078,None,right,0,1.1676095998845994,154.204755499959,156.7582581001334,154.204755499959,156.25724359997548,154.204755499959,156.25724359997548,154.204755499959,156.25724359997548,154.204755499959,156.25724359997548,154.204755499959,156.25724359997548,156.22409240016714,156.72476939996704,156.22409240016714,156.72476939996704,156.22409240016714,156.72476939996704,156.22409240016714,156.72476939996704,156.22409240016714,156.72476939996704,156.22409240016714,156.72476939996704,156.22409240016714,156.72476939996704,156.22409240016714,156.72476939996704,154.204755499959,None,156.72476939996704,157.19218570017256,2.040000000000002,157.2087032001,None,157.9598827001173,None,,,,,,,[[0.46]],0.9600000000000004,0.5384615384615384,11046,001,2024_Apr_15_1331,MFTM_A_new1021,2021.2.3,60.0407316349468,
,,,,,,,,stim/Instruction_adaptive.png,conditions/adaptive.xlsx,test,0.6,0.6,0.6,-0.6,-0.6,right,R,,,,,0,1,1,1,0,13,13,32,,,,,,,,,,,,,,,,,,,,,,,,,,,,,,,,,,,,,,,,,,,,158.46074980008416,None,left,0,2.5952236000448465,158.96146750007756,None,158.96146750007756,161.96595850004815,158.96146750007756,161.96595850004815,158.96146750007756,161.96595850004815,158.96146750007756,161.96595850004815,158.96146750007756,161.96595850004815,161.94960310007446,162.45016460004263,161.94960310007446,162.45016460004263,161.94960310007446,162.45016460004263,161.94960310007446,162.45016460004263,161.94960310007446,162.45016460004263,161.94960310007446,162.45016460004263,161.94960310007446,162.45016460004263,161.94960310007446,162.45016460004263,158.96146750007756,None,162.45016460004263,162.45016460004263,3.0000000000000027,162.46652090013959,None,163.2177683999762,None,,,,,,,0,0.5,0.5,11046,001,2024_Apr_15_1331,MFTM_A_new1021,2021.2.3,60.0407316349468,
,,,,,,,,stim/Instruction_adaptive.png,conditions/adaptive.xlsx,test,0.6,0.6,0.6,-0.6,-0.6,right,R,,,,,0,1,1,1,0,14,14,48,,,,,,,,,,,,,,,,,,,,,,,,,,,,,,,,,,,,,,,,,,,,163.71875100000761,None,right,1,2.601336799794808,164.21938819997013,None,164.21938819997013,167.2243707999587,164.21938819997013,167.2243707999587,164.21938819997013,167.2243707999587,164.21938819997013,167.2243707999587,164.21938819997013,167.2243707999587,167.20766380010173,167.7080235001631,167.20766380010173,167.7080235001631,167.20766380010173,167.7080235001631,167.20766380010173,167.7080235001631,167.20766380010173,167.7080235001631,167.20766380010173,167.7080235001631,167.20766380010173,167.7080235001631,167.20766380010173,167.7080235001631,164.21938819997013,None,167.7080235001631,167.7080235001631,3.0000000000000027,167.7248142999597,None,168.47589180013165,None,,,,,,,0,0.5,0.5333333333333333,11046,001,2024_Apr_15_1331,MFTM_A_new1021,2021.2.3,60.0407316349468,
,,,,,,,,stim/Instruction_adaptive.png,conditions/adaptive.xlsx,test,-0.6,-0.6,-0.6,0.6,0.6,left,L,,,,,0,1,1,1,0,15,15,41,,,,,,,,,,,,,,,,,,,,,,,,,,,,,,,,,,,,,,,,,,,,168.97655550017953,None,left,1,1.9037773001473397,169.47734090010636,None,169.47734090010636,172.4818579000421,169.47734090010636,172.4818579000421,169.47734090010636,172.4818579000421,169.47734090010636,172.4818579000421,169.47734090010636,172.4818579000421,172.4651073999703,172.96680920012295,172.4651073999703,172.96680920012295,172.4651073999703,172.96680920012295,172.4651073999703,172.96680920012295,172.4651073999703,172.96680920012295,172.4651073999703,172.96680920012295,172.4651073999703,172.96680920012295,172.4651073999703,172.96680920012295,169.47734090010636,None,172.96680920012295,172.96680920012295,3.0000000000000027,172.982805600157,None,173.73371689999476,None,,,,,,,0,0.7700000000000002,0.5625,11046,001,2024_Apr_15_1331,MFTM_A_new1021,2021.2.3,60.0407316349468,
,,,,,,,,stim/Instruction_adaptive.png,conditions/adaptive.xlsx,test,-0.6,-0.6,-0.6,0.6,0.6,left,L,,,,,0,1,1,1,0,16,16,69,,,,,,,,,,,,,,,,,,,,,,,,,,,,,,,,,,,,,,,,,,,,174.23443199996836,None,left,1,2.021677300101146,174.73536680010147,None,174.73536680010147,177.73975150007755,174.73536680010147,177.73975150007755,174.73536680010147,177.73975150007755,174.73536680010147,177.73975150007755,174.73536680010147,177.73975150007755,177.72309440001845,178.22391840000637,177.72309440001845,178.22391840000637,177.72309440001845,178.22391840000637,177.72309440001845,178.22391840000637,177.72309440001845,178.22391840000637,177.72309440001845,178.22391840000637,177.72309440001845,178.22391840000637,177.72309440001845,178.22391840000637,174.73536680010147,None,178.22391840000637,178.22391840000637,3.0000000000000027,178.2407613999676,None,178.99193330015987,None,,,,,,,0,1.0300000000000005,0.5882352941176471,11046,001,2024_Apr_15_1331,MFTM_A_new1021,2021.2.3,60.0407316349468,
,,,,,,,,stim/Instruction_adaptive.png,conditions/adaptive.xlsx,test,-0.6,-0.6,-0.6,0.6,0.6,left,L,,,,,0,1,1,1,0,17,17,33,,,,,,,,,,,,,,,,,,,,,,,,,,,,,,,,,,,,,,,,,,,,179.49259130004793,None,left,1,1.4356518001295626,179.99343769997358,None,179.99343769997358,182.99812260014005,179.99343769997358,182.99812260014005,179.99343769997358,182.99812260014005,179.99343769997358,182.99812260014005,179.99343769997358,182.99812260014005,182.98146390006877,183.48218860011548,182.98146390006877,183.48218860011548,182.98146390006877,183.48218860011548,182.98146390006877,183.48218860011548,182.98146390006877,183.48218860011548,182.98146390006877,183.48218860011548,182.98146390006877,183.48218860011548,182.98146390006877,183.48218860011548,179.99343769997358,None,183.48218860011548,183.48218860011548,3.0000000000000027,183.4985538001638,None,184.24977440014482,None,,,,,,,0,1.2300000000000006,0.6111111111111112,11046,001,2024_Apr_15_1331,MFTM_A_new1021,2021.2.3,60.0407316349468,
,,,,,,,,stim/Instruction_adaptive.png,conditions/adaptive.xlsx,test,0.6,0.6,0.6,-0.6,-0.6,right,R,,,,,0,1,1,1,0,18,18,10,,,,,,,,,,,,,,,,,,,,,,,,,,,,,,,,,,,,,,,,,,,,184.7504471000284,None,right,1,3.217966200085357,185.2511384000536,None,185.2511384000536,188.05567270005122,185.2511384000536,188.05567270005122,185.2511384000536,188.05567270005122,185.2511384000536,188.05567270005122,185.2511384000536,188.05567270005122,188.03908010013402,188.54035140015185,188.03908010013402,188.54035140015185,188.03908010013402,188.54035140015185,188.03908010013402,188.54035140015185,188.03908010013402,188.54035140015185,188.03908010013402,188.54035140015185,188.03908010013402,188.54035140015185,188.03908010013402,188.54035140015185,185.2511384000536,None,188.54035140015185,188.54035140015185,2.8000000000000025,188.55651660007425,None,189.3076677999925,None,,,,,,,0,1.3900000000000008,0.631578947368421,11046,001,2024_Apr_15_1331,MFTM_A_new1021,2021.2.3,60.0407316349468,
,,,,,,,,stim/Instruction_adaptive.png,conditions/adaptive.xlsx,test,-0.6,-0.6,-0.6,0.6,0.6,left,L,,,,,0,1,1,1,0,19,19,77,,,,,,,,,,,,,,,,,,,,,,,,,,,,,,,,,,,,,,,,,,,,189.80787000013515,None,right,0,1.856152500025928,190.30907130008563,None,190.30907130008563,192.83011170011014,190.30907130008563,192.83011170011014,190.30907130008563,192.83011170011014,190.30907130008563,192.83011170011014,190.30907130008563,192.83011170011014,192.7958965001162,193.29663940006867,192.7958965001162,193.29663940006867,192.7958965001162,193.29663940006867,192.7958965001162,193.29663940006867,192.7958965001162,193.29663940006867,192.7958965001162,193.29663940006867,192.7958965001162,193.29663940006867,192.7958965001162,193.29663940006867,190.30907130008563,None,193.29663940006867,193.29663940006867,2.510000000000002,193.33022910007276,None,194.08109019999392,None,,,,,,,0,0.9700000000000004,0.6,11046,001,2024_Apr_15_1331,MFTM_A_new1021,2021.2.3,60.0407316349468,
,,,,,,,,stim/Instruction_adaptive.png,conditions/adaptive.xlsx,test,-0.6,-0.6,-0.6,0.6,0.6,left,L,,,,,0,1,1,1,0,20,20,5,,,,,,,,,,,,,,,,,,,,,,,,,,,,,,,,,,,,,,,,,,,,194.58179390011355,None,right,0,2.435221099993214,195.0827107001096,None,195.0827107001096,198.08716270001605,195.0827107001096,198.08716270001605,195.0827107001096,198.08716270001605,195.0827107001096,198.08716270001605,195.0827107001096,198.08716270001605,198.05397030012682,198.55505530000664,198.05397030012682,198.55505530000664,198.05397030012682,198.55505530000664,198.05397030012682,198.55505530000664,198.05397030012682,198.55505530000664,198.05397030012682,198.55505530000664,198.05397030012682,198.55505530000664,198.05397030012682,198.55505530000664,195.0827107001096,None,198.55505530000664,198.55505530000664,3.0000000000000027,198.58796870009974,None,199.3395791000221,None,,,,,,,0,0.5,0.5714285714285714,11046,001,2024_Apr_15_1331,MFTM_A_new1021,2021.2.3,60.0407316349468,
,,,,,,,,stim/Instruction_adaptive.png,conditions/adaptive.xlsx,test,-0.6,-0.6,-0.6,0.6,0.6,left,L,,,,,0,1,1,1,0,21,21,3,,,,,,,,,,,,,,,,,,,,,,,,,,,,,,,,,,,,,,,,,,,,199.83993729995564,None,left,1,2.2649189999792725,200.34100220003165,None,200.34100220003165,203.3452010001056,200.34100220003165,203.3452010001056,200.34100220003165,203.3452010001056,200.34100220003165,203.3452010001056,200.34100220003165,203.3452010001056,203.32853229995817,203.82966800010763,203.32853229995817,203.82966800010763,203.32853229995817,203.82966800010763,203.32853229995817,203.82966800010763,203.32853229995817,203.82966800010763,203.32853229995817,203.82966800010763,203.32853229995817,203.82966800010763,203.32853229995817,203.82966800010763,200.34100220003165,None,203.82966800010763,203.82966800010763,3.0000000000000027,203.8463286999613,None,204.59764829999767,None,,,,,,,0,0.6800000000000002,0.5909090909090909,11046,001,2024_Apr_15_1331,MFTM_A_new1021,2021.2.3,60.0407316349468,
,,,,,,,,stim/Instruction_adaptive.png,conditions/adaptive.xlsx,test,0.6,0.6,0.6,-0.6,-0.6,right,R,,,,,0,1,1,1,0,22,22,18,,,,,,,,,,,,,,,,,,,,,,,,,,,,,,,,,,,,,,,,,,,,205.0980532001704,None,right,1,1.7033615000545979,205.5985781000927,None,205.5985781000927,208.60320220002905,205.5985781000927,208.60320220002905,205.5985781000927,208.60320220002905,205.5985781000927,208.60320220002905,205.5985781000927,208.60320220002905,208.5867033000104,209.0870612000581,208.5867033000104,209.0870612000581,208.5867033000104,209.0870612000581,208.5867033000104,209.0870612000581,208.5867033000104,209.0870612000581,208.5867033000104,209.0870612000581,208.5867033000104,209.0870612000581,208.5867033000104,209.0870612000581,205.5985781000927,None,209.0870612000581,209.0870612000581,3.0000000000000027,209.103766300017,None,209.8552352001425,None,,,,,,,0,0.8600000000000003,0.6086956521739131,11046,001,2024_Apr_15_1331,MFTM_A_new1021,2021.2.3,60.0407316349468,
,,,,,,,,stim/Instruction_adaptive.png,conditions/adaptive.xlsx,test,0.6,0.6,0.6,-0.6,-0.6,right,R,,,,,0,1,1,1,0,23,23,94,,,,,,,,,,,,,,,,,,,,,,,,,,,,,,,,,,,,,,,,,,,,210.3561860001646,None,right,1,2.3494002998340875,210.85669090016745,None,210.85669090016745,213.86104290001094,210.85669090016745,213.86104290001094,210.85669090016745,213.86104290001094,210.85669090016745,213.86104290001094,210.85669090016745,213.86104290001094,213.84424670017324,214.3451898000203,213.84424670017324,214.3451898000203,213.84424670017324,214.3451898000203,213.84424670017324,214.3451898000203,213.84424670017324,214.3451898000203,213.84424670017324,214.3451898000203,213.84424670017324,214.3451898000203,213.84424670017324,214.3451898000203,210.85669090016745,None,214.3451898000203,214.3451898000203,3.0000000000000027,214.36161809996702,None,215.11286180000752,None,,,,,,,0,1.0100000000000005,0.625,11046,001,2024_Apr_15_1331,MFTM_A_new1021,2021.2.3,60.0407316349468,
,,,,,,,,stim/Instruction_adaptive.png,conditions/adaptive.xlsx,test,-0.6,-0.6,-0.6,0.6,0.6,left,L,,,,,0,1,1,1,0,24,24,17,,,,,,,,,,,,,,,,,,,,,,,,,,,,,,,,,,,,,,,,,,,,215.61437880015,None,left,1,1.3239297000691295,216.11446269997396,None,216.11446269997396,219.11901500006206,216.11446269997396,219.11901500006206,216.11446269997396,219.11901500006206,216.11446269997396,219.11901500006206,216.11446269997396,219.11901500006206,219.10211430001073,219.60336810001172,219.10211430001073,219.60336810001172,219.10211430001073,219.60336810001172,219.10211430001073,219.60336810001172,219.10211430001073,219.60336810001172,219.10211430001073,219.60336810001172,219.10211430001073,219.60336810001172,219.10211430001073,219.60336810001172,216.11446269997396,None,219.60336810001172,219.60336810001172,3.0000000000000027,219.62015189998783,None,220.37089500017464,None,,,,,,,0,1.1300000000000006,0.64,11046,001,2024_Apr_15_1331,MFTM_A_new1021,2021.2.3,60.0407316349468,
,,,,,,,,stim/Instruction_adaptive.png,conditions/adaptive.xlsx,test,0.6,0.6,0.6,-0.6,-0.6,right,R,,,,,0,1,1,1,0,25,25,38,,,,,,,,,,,,,,,,,,,,,,,,,,,,,,,,,,,,,,,,,,,,220.871549700154,None,right,1,1.9460718999616802,221.37231040000916,None,221.37231040000916,224.3769118001219,221.37231040000916,224.3769118001219,221.37231040000916,224.3769118001219,221.37231040000916,224.3769118001219,221.37231040000916,224.3769118001219,224.36018660012633,224.86077719996683,224.36018660012633,224.86077719996683,224.36018660012633,224.86077719996683,224.36018660012633,224.86077719996683,224.36018660012633,224.86077719996683,224.36018660012633,224.86077719996683,224.36018660012633,224.86077719996683,224.36018660012633,224.86077719996683,221.37231040000916,None,224.86077719996683,224.86077719996683,3.0000000000000027,224.87779309996404,None,225.6290863000322,None,,,,,,,0,1.2400000000000007,0.6538461538461539,11046,001,2024_Apr_15_1331,MFTM_A_new1021,2021.2.3,60.0407316349468,
,,,,,,,,stim/Instruction_adaptive.png,conditions/adaptive.xlsx,test,0.6,0.6,0.6,-0.6,-0.6,right,R,,,,,0,1,1,1,0,26,26,50,,,,,,,,,,,,,,,,,,,,,,,,,,,,,,,,,,,,,,,,,,,,226.12930890009739,None,right,1,1.223829000024125,226.63070730003528,None,226.63070730003528,229.43461370002478,226.63070730003528,229.43461370002478,226.63070730003528,229.43461370002478,226.63070730003528,229.43461370002478,226.63070730003528,229.43461370002478,229.40153230004944,229.90303130005486,229.40153230004944,229.90303130005486,229.40153230004944,229.90303130005486,229.40153230004944,229.90303130005486,229.40153230004944,229.90303130005486,229.40153230004944,229.90303130005486,229.40153230004944,229.90303130005486,229.40153230004944,229.90303130005486,226.63070730003528,None,229.90303130005486,229.90303130005486,2.7900000000000023,229.91936370008625,None,230.670094500063,None,,,,,,,0,1.3400000000000007,0.6666666666666666,11046,001,2024_Apr_15_1331,MFTM_A_new1021,2021.2.3,60.0407316349468,
,,,,,,,,stim/Instruction_adaptive.png,conditions/adaptive.xlsx,test,-0.6,-0.6,-0.6,0.6,0.6,left,L,,,,,0,1,1,1,0,27,27,65,,,,,,,,,,,,,,,,,,,,,,,,,,,,,,,,,,,,,,,,,,,,231.17069970001467,None,left,1,2.662551600020379,231.67235190002248,None,231.67235190002248,234.2753115000669,231.67235190002248,234.2753115000669,231.67235190002248,234.2753115000669,231.67235190002248,234.2753115000669,231.67235190002248,234.2753115000669,234.2586346999742,234.75911450013518,234.2586346999742,234.75911450013518,234.2586346999742,234.75911450013518,234.2586346999742,234.75911450013518,234.2586346999742,234.75911450013518,234.2586346999742,234.75911450013518,234.2586346999742,234.75911450013518,234.2586346999742,234.75911450013518,231.67235190002248,None,234.75911450013518,234.75911450013518,2.6000000000000023,234.77587610017508,None,235.52713260008022,None,,,,,,,0,1.4200000000000008,0.6785714285714286,11046,001,2024_Apr_15_1331,MFTM_A_new1021,2021.2.3,60.0407316349468,
,,,,,,,,stim/Instruction_adaptive.png,conditions/adaptive.xlsx,test,-0.6,-0.6,-0.6,0.6,0.6,left,L,,,,,0,1,1,1,0,28,28,91,,,,,,,,,,,,,,,,,,,,,,,,,,,,,,,,,,,,,,,,,,,,236.02805169997737,None,left,1,1.6940987000707537,236.5286489999853,239.50060220016167,236.5286489999853,238.99906449997798,236.5286489999853,238.99906449997798,236.5286489999853,238.99906449997798,236.5286489999853,238.99906449997798,236.5286489999853,238.99906449997798,238.96544980001636,239.466371800052,238.96544980001636,239.466371800052,238.96544980001636,239.466371800052,238.96544980001636,239.466371800052,238.96544980001636,239.466371800052,238.96544980001636,239.466371800052,238.96544980001636,239.466371800052,238.96544980001636,239.466371800052,236.5286489999853,None,239.466371800052,239.5170100000687,2.4600000000000017,239.53343429998495,None,240.28440190013498,None,,,,,,,[[0.04]],1.5000000000000009,0.6896551724137931,11046,001,2024_Apr_15_1331,MFTM_A_new1021,2021.2.3,60.0407316349468,
,,,,,,,,stim/Instruction_adaptive.png,conditions/adaptive.xlsx,test,0.6,0.6,0.6,-0.6,-0.6,right,R,,,,,0,1,1,1,0,29,29,92,,,,,,,,,,,,,,,,,,,,,,,,,,,,,,,,,,,,,,,,,,,,240.7851239000447,None,right,1,1.665368900168687,241.28579210001044,244.12337410007603,241.28579210001044,243.62268130015582,241.28579210001044,243.62268130015582,241.28579210001044,243.62268130015582,241.28579210001044,243.62268130015582,241.28579210001044,243.62268130015582,243.60620969999582,244.10664610005915,243.60620969999582,244.10664610005915,243.60620969999582,244.10664610005915,243.60620969999582,244.10664610005915,243.60620969999582,244.10664610005915,243.60620969999582,244.10664610005915,243.60620969999582,244.10664610005915,243.60620969999582,244.10664610005915,241.28579210001044,None,244.10664610005915,None,2.330000000000002,244.29022200009786,None,245.04131300002337,None,,,,,,,[[0.17]],1.570000000000001,0.7,11046,001,2024_Apr_15_1331,MFTM_A_new1021,2021.2.3,60.0407316349468,
,,,,,,,,stim/Instruction_adaptive.png,conditions/adaptive.xlsx,test,-0.6,-0.6,-0.6,0.6,0.6,left,L,,,,,0,1,1,1,0,30,30,37,,,,,,,,,,,,,,,,,,,,,,,,,,,,,,,,,,,,,,,,,,,,245.5425271000713,None,left,1,2.428148499922827,246.04298819997348,248.763894099975,246.04298819997348,248.2636401001364,246.04298819997348,248.2636401001364,246.04298819997348,248.2636401001364,246.04298819997348,248.2636401001364,246.04298819997348,248.2636401001364,248.2466431001667,248.74728680006228,248.2466431001667,248.74728680006228,248.2466431001667,248.74728680006228,248.2466431001667,248.74728680006228,248.2466431001667,248.74728680006228,248.2466431001667,248.74728680006228,248.2466431001667,248.74728680006228,248.2466431001667,248.74728680006228,246.04298819997348,None,248.74728680006228,248.9640826000832,2.2200000000000015,248.98080849996768,None,249.73251850018278,None,,,,,,,[0.21741935],1.640000000000001,0.7096774193548387,11046,001,2024_Apr_15_1331,MFTM_A_new1021,2021.2.3,60.0407316349468,
,,,,,,,,stim/Instruction_adaptive.png,conditions/adaptive.xlsx,test,0.6,0.6,0.6,-0.6,-0.6,right,R,,,,,0,1,1,1,0,31,31,86,,,,,,,,,,,,,,,,,,,,,,,,,,,,,,,,,,,,,,,,,,,,250.23257990018465,None,right,1,1.6894100999925286,250.73377860011533,253.35398280015215,250.73377860011533,252.85337560018525,250.73377860011533,252.85337560018525,250.73377860011533,252.85337560018525,250.73377860011533,252.85337560018525,250.73377860011533,252.85337560018525,252.81990340002812,253.32048050011508,252.81990340002812,253.32048050011508,252.81990340002812,253.32048050011508,252.81990340002812,253.32048050011508,252.81990340002812,253.32048050011508,252.81990340002812,253.32048050011508,252.81990340002812,253.32048050011508,252.81990340002812,253.32048050011508,250.73377860011533,None,253.32048050011508,253.55421700002626,2.1100000000000017,253.57101400010288,None,254.32211209996603,None,,,,,,,[0.2228125],1.700000000000001,0.71875,11046,001,2024_Apr_15_1331,MFTM_A_new1021,2021.2.3,60.0407316349468,
,,,,,,,,stim/Instruction_adaptive.png,conditions/adaptive.xlsx,test,0.6,0.6,0.6,-0.6,-0.6,right,R,,,,,0,1,1,1,0,32,32,2,,,,,,,,,,,,,,,,,,,,,,,,,,,,,,,,,,,,,,,,,,,,254.82284509995952,None,right,1,1.8837649999186397,255.32366870017722,257.84405810013413,255.32366870017722,257.3433141000569,255.32366870017722,257.3433141000569,255.32366870017722,257.3433141000569,255.32366870017722,257.3433141000569,255.32366870017722,257.3433141000569,257.32677050004713,257.8272920001764,257.32677050004713,257.8272920001764,257.32677050004713,257.8272920001764,257.32677050004713,257.8272920001764,257.32677050004713,257.8272920001764,257.32677050004713,257.8272920001764,257.32677050004713,257.8272920001764,257.32677050004713,257.8272920001764,255.32366870017722,None,257.8272920001764,258.0617843000218,2.0200000000000014,258.0783561000135,None,258.82906260015443,None,,,,,,,[0.23060606],1.7600000000000011,0.7272727272727273,11046,001,2024_Apr_15_1331,MFTM_A_new1021,2021.2.3,60.0407316349468,
,,,,,,,,stim/Instruction_adaptive.png,conditions/adaptive.xlsx,test,0.6,0.6,0.6,-0.6,-0.6,right,R,,,,,0,1,1,1,0,33,33,30,,,,,,,,,,,,,,,,,,,,,,,,,,,,,,,,,,,,,,,,,,,,259.3298914001789,None,right,1,1.70532920002006,259.830125000095,262.28407860011794,259.830125000095,261.7833780001383,259.830125000095,261.7833780001383,259.830125000095,261.7833780001383,259.830125000095,261.7833780001383,259.830125000095,261.7833780001383,261.75028729997575,262.25085730012506,261.75028729997575,262.25085730012506,261.75028729997575,262.25085730012506,261.75028729997575,262.25085730012506,261.75028729997575,262.25085730012506,261.75028729997575,262.25085730012506,261.75028729997575,262.25085730012506,261.75028729997575,262.25085730012506,259.830125000095,None,262.25085730012506,262.5012875001412,1.9400000000000015,262.5182007001713,None,263.2689084999729,None,,,,,,,[0.24029412],1.8100000000000012,0.7352941176470589,11046,001,2024_Apr_15_1331,MFTM_A_new1021,2021.2.3,60.0407316349468,
,,,,,,,,stim/Instruction_adaptive.png,conditions/adaptive.xlsx,test,0.6,0.6,0.6,-0.6,-0.6,right,R,,,,,0,1,1,1,0,34,34,22,,,,,,,,,,,,,,,,,,,,,,,,,,,,,,,,,,,,,,,,,,,,263.76950940000825,None,right,1,1.3369891000911593,264.2705525001511,266.6575975001324,264.2705525001511,266.15675520012155,264.2705525001511,266.15675520012155,264.2705525001511,266.15675520012155,264.2705525001511,266.15675520012155,264.2705525001511,266.15675520012155,266.13990180008113,266.64059460000135,266.13990180008113,266.64059460000135,266.13990180008113,266.64059460000135,266.13990180008113,266.64059460000135,266.13990180008113,266.64059460000135,266.13990180008113,266.64059460000135,266.13990180008113,266.64059460000135,266.13990180008113,266.64059460000135,264.2705525001511,None,266.64059460000135,266.89120159996673,1.8800000000000014,266.90776040009223,None,267.65934010013007,None,,,,,,,[0.25114286],1.8600000000000012,0.7428571428571429,11046,001,2024_Apr_15_1331,MFTM_A_new1021,2021.2.3,60.0407316349468,
,,,,,,,,stim/Instruction_adaptive.png,conditions/adaptive.xlsx,test,0.6,0.6,0.6,-0.6,-0.6,right,R,,,,,0,1,1,1,0,35,35,52,,,,,,,,,,,,,,,,,,,,,,,,,,,,,,,,,,,,,,,,,,,,268.15981360012665,None,right,1,1.2918191999197006,268.66052460018545,270.9806272999849,268.66052460018545,270.479861699976,268.66052460018545,270.479861699976,268.66052460018545,270.479861699976,268.66052460018545,270.479861699976,268.66052460018545,270.479861699976,270.44652870018035,270.94723840011284,270.44652870018035,270.94723840011284,270.44652870018035,270.94723840011284,270.44652870018035,270.94723840011284,270.44652870018035,270.94723840011284,270.44652870018035,270.94723840011284,270.44652870018035,270.94723840011284,270.44652870018035,270.94723840011284,268.66052460018545,None,270.94723840011284,271.2143588999752,1.8100000000000014,271.247688600095,None,271.99884450016543,None,,,,,,,[0.26333333],1.9100000000000013,0.75,11046,001,2024_Apr_15_1331,MFTM_A_new1021,2021.2.3,60.0407316349468,
,,,,,,,,stim/Instruction_adaptive.png,conditions/adaptive.xlsx,test,0.6,0.6,0.6,-0.6,-0.6,right,R,,,,,0,1,1,1,0,36,36,82,,,,,,,,,,,,,,,,,,,,,,,,,,,,,,,,,,,,,,,,,,,,272.49986380012706,None,right,1,1.855425899848342,273.00032360013574,275.2539280001074,273.00032360013574,274.75283760018647,273.00032360013574,274.75283760018647,273.00032360013574,274.75283760018647,273.00032360013574,274.75283760018647,273.00032360013574,274.75283760018647,274.7361316001043,275.2372363000177,274.7361316001043,275.2372363000177,274.7361316001043,275.2372363000177,274.7361316001043,275.2372363000177,274.7361316001043,275.2372363000177,274.7361316001043,275.2372363000177,274.7361316001043,275.2372363000177,274.7361316001043,275.2372363000177,273.00032360013574,None,275.2372363000177,275.52068690001033,1.7500000000000013,275.53738200012594,None,276.28863400011323,None,,,,,,,[0.27648649],1.9600000000000013,0.7567567567567568,11046,001,2024_Apr_15_1331,MFTM_A_new1021,2021.2.3,60.0407316349468,
,,,,,,,,stim/Instruction_adaptive.png,conditions/adaptive.xlsx,test,-0.6,-0.6,-0.6,0.6,0.6,left,L,,,,,0,1,1,1,0,37,37,87,,,,,,,,,,,,,,,,,,,,,,,,,,,,,,,,,,,,,,,,,,,,276.78933269996196,None,left,1,1.4611941000912338,277.2906011999585,279.49361920007505,277.2906011999585,278.9929399001412,277.2906011999585,278.9929399001412,277.2906011999585,278.9929399001412,277.2906011999585,278.9929399001412,277.2906011999585,278.9929399001412,278.9592183001805,279.4601471000351,278.9592183001805,279.4601471000351,278.9592183001805,279.4601471000351,278.9592183001805,279.4601471000351,278.9592183001805,279.4601471000351,278.9592183001805,279.4601471000351,278.9592183001805,279.4601471000351,278.9592183001805,279.4601471000351,277.2906011999585,None,279.4601471000351,279.76053160009906,1.6900000000000013,279.777249700157,None,280.52839800016955,None,,,,,,,[0.29052632],2.0000000000000013,0.7631578947368421,11046,001,2024_Apr_15_1331,MFTM_A_new1021,2021.2.3,60.0407316349468,
,,,,,,,,stim/Instruction_adaptive.png,conditions/adaptive.xlsx,test,0.6,0.6,0.6,-0.6,-0.6,right,R,,,,,0,1,1,1,0,38,38,84,,,,,,,,,,,,,,,,,,,,,,,,,,,,,,,,,,,,,,,,,,,,281.0291316001676,None,right,1,1.2378370999358594,281.5299375001341,283.68349170009606,281.5299375001341,283.182337500155,281.5299375001341,283.182337500155,281.5299375001341,283.182337500155,281.5299375001341,283.182337500155,281.5299375001341,283.182337500155,283.1490222001448,283.6497873000335,283.1490222001448,283.6497873000335,283.1490222001448,283.6497873000335,283.1490222001448,283.6497873000335,283.1490222001448,283.6497873000335,283.1490222001448,283.6497873000335,283.1490222001448,283.6497873000335,283.1490222001448,283.6497873000335,281.5299375001341,None,283.6497873000335,283.96744130016305,1.6400000000000012,283.9835821001325,None,284.73483990016393,None,,,,,,,[0.30512821],2.0500000000000016,0.7692307692307693,11046,001,2024_Apr_15_1331,MFTM_A_new1021,2021.2.3,60.0407316349468,
,,,,,,,,stim/Instruction_adaptive.png,conditions/adaptive.xlsx,test,-0.6,-0.6,-0.6,0.6,0.6,left,L,,,,,0,1,1,1,0,39,39,45,,,,,,,,,,,,,,,,,,,,,,,,,,,,,,,,,,,,,,,,,,,,285.23557540006004,None,left,1,1.303453000029549,285.73678470007144,287.83934920001775,285.73678470007144,287.3387365001254,285.73678470007144,287.3387365001254,285.73678470007144,287.3387365001254,285.73678470007144,287.3387365001254,285.73678470007144,287.3387365001254,287.3067316999659,287.8059821999632,287.3067316999659,287.8059821999632,287.3067316999659,287.8059821999632,287.3067316999659,287.8059821999632,287.3067316999659,287.8059821999632,287.3067316999659,287.8059821999632,287.3067316999659,287.8059821999632,287.3067316999659,287.8059821999632,285.73678470007144,None,287.8059821999632,288.1398567999713,1.5900000000000012,288.15643099998124,None,288.90802840003744,None,,,,,,,[0.32025],2.0900000000000016,0.775,11046,001,2024_Apr_15_1331,MFTM_A_new1021,2021.2.3,60.0407316349468,
,,,,,,,,stim/Instruction_adaptive.png,conditions/adaptive.xlsx,test,0.6,0.6,0.6,-0.6,-0.6,right,R,,,,,0,1,1,1,0,40,40,98,,,,,,,,,,,,,,,,,,,,,,,,,,,,,,,,,,,,,,,,,,,,289.4082544001285,None,right,1,1.9313448001630604,289.90928680007346,291.9627582000103,289.90928680007346,291.4616886000149,289.90928680007346,291.4616886000149,289.90928680007346,291.4616886000149,289.90928680007346,291.4616886000149,289.90928680007346,291.4616886000149,291.44505700003356,291.94593180017546,291.44505700003356,291.94593180017546,291.44505700003356,291.94593180017546,291.44505700003356,291.94593180017546,291.44505700003356,291.94593180017546,291.44505700003356,291.94593180017546,291.44505700003356,291.94593180017546,291.44505700003356,291.94593180017546,289.90928680007346,None,291.94593180017546,None,1.5500000000000012,292.2962305000983,None,293.0473421001807,None,,,,,,,[0.33560976],2.1300000000000017,0.7804878048780488,11046,001,2024_Apr_15_1331,MFTM_A_new1021,2021.2.3,60.0407316349468,
,,,,,,,,stim/Instruction_adaptive.png,conditions/adaptive.xlsx,test,0.6,0.6,0.6,-0.6,-0.6,right,R,,,,,0,1,1,1,0,41,41,40,,,,,,,,,,,,,,,,,,,,,,,,,,,,,,,,,,,,,,,,,,,,293.5480331000872,None,right,1,1.8396499999798834,294.04886680003256,296.0517569000367,294.04886680003256,295.5511964999605,294.04886680003256,295.5511964999605,294.04886680003256,295.5511964999605,294.04886680003256,295.5511964999605,294.04886680003256,295.5511964999605,295.5343512000982,296.0350263,295.5343512000982,296.0350263,295.5343512000982,296.0350263,295.5343512000982,296.0350263,295.5343512000982,296.0350263,295.5343512000982,296.0350263,295.5343512000982,296.0350263,295.5343512000982,296.0350263,294.04886680003256,None,296.0350263,None,1.500000000000001,296.40250800014473,None,297.15376770007424,None,,,,,,,[0.35142857],2.1600000000000015,0.7857142857142857,11046,001,2024_Apr_15_1331,MFTM_A_new1021,2021.2.3,60.0407316349468,
,,,,,,,,stim/Instruction_adaptive.png,conditions/adaptive.xlsx,test,0.6,0.6,0.6,-0.6,-0.6,right,R,,,,,0,1,1,1,0,42,42,8,,,,,,,,,,,,,,,,,,,,,,,,,,,,,,,,,,,,,,,,,,,,297.6549988000188,None,left,0,1.476872299797833,298.1558412001468,300.1413057001773,298.1558412001468,299.6406892000232,298.1558412001468,299.6406892000232,298.1558412001468,299.6406892000232,298.1558412001468,299.6406892000232,298.1558412001468,299.6406892000232,299.6071953000501,300.10739100002684,299.6071953000501,300.10739100002684,299.6071953000501,300.10739100002684,299.6071953000501,300.10739100002684,299.6071953000501,300.10739100002684,299.6071953000501,300.10739100002684,299.6071953000501,300.10739100002684,299.6071953000501,300.10739100002684,298.1558412001468,None,300.10739100002684,300.47542510018684,1.470000000000001,300.491799000185,None,301.24314050003886,None,,,,,,,[0.3672093],2.0500000000000016,0.7674418604651163,11046,001,2024_Apr_15_1331,MFTM_A_new1021,2021.2.3,60.0407316349468,
,,,,,,,,stim/Instruction_adaptive.png,conditions/adaptive.xlsx,test,-0.6,-0.6,-0.6,0.6,0.6,left,L,,,,,0,1,1,1,0,43,43,15,,,,,,,,,,,,,,,,,,,,,,,,,,,,,,,,,,,,,,,,,,,,301.7437471000012,None,right,0,1.5884237000718713,302.24429129995406,304.3478930001147,302.24429129995406,303.8469156001229,302.24429129995406,303.8469156001229,302.24429129995406,303.8469156001229,302.24429129995406,303.8469156001229,302.24429129995406,303.8469156001229,303.8135751001537,304.31474560010247,303.8135751001537,304.31474560010247,303.8135751001537,304.31474560010247,303.8135751001537,304.31474560010247,303.8135751001537,304.31474560010247,303.8135751001537,304.31474560010247,303.8135751001537,304.31474560010247,303.8135751001537,304.31474560010247,302.24429129995406,None,304.31474560010247,304.69816899998114,1.5900000000000012,304.71480590011925,None,305.466341300169,None,,,,,,,[0.37954545],1.9400000000000013,0.75,11046,001,2024_Apr_15_1331,MFTM_A_new1021,2021.2.3,60.0407316349468,
,,,,,,,,stim/Instruction_adaptive.png,conditions/adaptive.xlsx,test,0.6,0.6,0.6,-0.6,-0.6,right,R,,,,,0,1,1,1,0,44,44,42,,,,,,,,,,,,,,,,,,,,,,,,,,,,,,,,,,,,,,,,,,,,305.9667167000007,None,left,0,1.8210408999584615,306.4674861000385,308.68734880001284,306.4674861000385,308.1872323001735,306.4674861000385,308.1872323001735,306.4674861000385,308.1872323001735,306.4674861000385,308.1872323001735,306.4674861000385,308.1872323001735,308.1541178000625,308.65454670018516,308.1541178000625,308.65454670018516,308.1541178000625,308.65454670018516,308.1541178000625,308.65454670018516,308.1541178000625,308.65454670018516,308.1541178000625,308.65454670018516,308.1541178000625,308.65454670018516,308.1541178000625,308.65454670018516,306.4674861000385,None,308.65454670018516,309.0565369001124,1.7100000000000013,309.071390400175,None,309.82280710013583,None,,,,,,,[0.38866667],1.8200000000000012,0.7333333333333333,11046,001,2024_Apr_15_1331,MFTM_A_new1021,2021.2.3,60.0407316349468,
,,,,,,,,stim/Instruction_adaptive.png,conditions/adaptive.xlsx,test,-0.6,-0.6,-0.6,0.6,0.6,left,L,,,,,0,1,1,1,0,45,45,85,,,,,,,,,,,,,,,,,,,,,,,,,,,,,,,,,,,,,,,,,,,,310.32332780002616,None,left,1,2.4812767999246716,310.8241359000094,313.19455739995465,310.8241359000094,312.69345030002296,310.8241359000094,312.69345030002296,310.8241359000094,312.69345030002296,310.8241359000094,312.69345030002296,310.8241359000094,312.69345030002296,312.66028339997865,313.1623565000482,312.66028339997865,313.1623565000482,312.66028339997865,313.1623565000482,312.66028339997865,313.1623565000482,312.66028339997865,313.1623565000482,312.66028339997865,313.1623565000482,312.66028339997865,313.1623565000482,312.66028339997865,313.1623565000482,310.8241359000094,None,313.1623565000482,313.5616654001642,1.8600000000000014,313.57830290007405,None,314.32977319997735,None,,,,,,,[0.39413043],1.8600000000000012,0.7391304347826086,11046,001,2024_Apr_15_1331,MFTM_A_new1021,2021.2.3,60.0407316349468,
,,,,,,,,stim/Instruction_adaptive.png,conditions/adaptive.xlsx,test,-0.6,-0.6,-0.6,0.6,0.6,left,L,,,,,0,1,1,1,0,46,46,13,,,,,,,,,,,,,,,,,,,,,,,,,,,,,,,,,,,,,,,,,,,,314.83068210002966,None,left,1,1.4215911000501364,315.3311648000963,317.6509513000492,315.3311648000963,317.15055360016413,315.3311648000963,317.15055360016413,315.3311648000963,317.15055360016413,315.3311648000963,317.15055360016413,315.3311648000963,317.15055360016413,317.1171850999817,317.6177171000745,317.1171850999817,317.6177171000745,317.1171850999817,317.6177171000745,317.1171850999817,317.6177171000745,317.1171850999817,317.6177171000745,317.1171850999817,317.6177171000745,317.1171850999817,317.6177171000745,317.1171850999817,317.6177171000745,315.3311648000963,None,317.6177171000745,318.0187463001348,1.8100000000000014,318.0518857999705,None,318.8030461000744,None,,,,,,,[0.40042553],1.9000000000000012,0.7446808510638298,11046,001,2024_Apr_15_1331,MFTM_A_new1021,2021.2.3,60.0407316349468,
,,,,,,,,stim/Instruction_adaptive.png,conditions/adaptive.xlsx,test,0.6,0.6,0.6,-0.6,-0.6,right,R,,,,,0,1,1,1,0,47,47,70,,,,,,,,,,,,,,,,,,,,,,,,,,,,,,,,,,,,,,,,,,,,319.30340490001254,None,right,1,1.4609157000668347,319.8043484000955,322.0742889000103,319.8043484000955,321.57368850009516,319.8043484000955,321.57368850009516,319.8043484000955,321.57368850009516,319.8043484000955,321.57368850009516,319.8043484000955,321.57368850009516,321.5405926001258,322.04136530007236,321.5405926001258,322.04136530007236,321.5405926001258,322.04136530007236,321.5405926001258,322.04136530007236,321.5405926001258,322.04136530007236,321.5405926001258,322.04136530007236,321.5405926001258,322.04136530007236,321.5405926001258,322.04136530007236,319.8043484000955,None,322.04136530007236,322.45826370012946,1.7600000000000013,322.4749336000532,None,323.22655130014755,None,,,,,,,[0.4075],1.9400000000000013,0.75,11046,001,2024_Apr_15_1331,MFTM_A_new1021,2021.2.3,60.0407316349468,
,,,,,,,,stim/Instruction_adaptive.png,conditions/adaptive.xlsx,test,0.6,0.6,0.6,-0.6,-0.6,right,R,,,,,0,1,1,1,0,48,48,34,,,,,,,,,,,,,,,,,,,,,,,,,,,,,,,,,,,,,,,,,,,,323.72669200017117,None,right,1,1.4618188000749797,324.2275813999586,326.44759470014833,324.2275813999586,325.9470108000096,324.2275813999586,325.9470108000096,324.2275813999586,325.9470108000096,324.2275813999586,325.9470108000096,324.2275813999586,325.9470108000096,325.91343079996295,326.4146765000187,325.91343079996295,326.4146765000187,325.91343079996295,326.4146765000187,325.91343079996295,326.4146765000187,325.91343079996295,326.4146765000187,325.91343079996295,326.4146765000187,325.91343079996295,326.4146765000187,325.91343079996295,326.4146765000187,324.2275813999586,None,326.4146765000187,326.8314972000662,1.7100000000000013,326.8650875000749,None,327.6163086001761,None,,,,,,,[0.41530612],1.9800000000000013,0.7551020408163265,11046,001,2024_Apr_15_1331,MFTM_A_new1021,2021.2.3,60.0407316349468,
,,,,,,,,stim/Instruction_adaptive.png,conditions/adaptive.xlsx,test,-0.6,-0.6,-0.6,0.6,0.6,left,L,,,,,0,1,1,1,0,49,49,23,,,,,,,,,,,,,,,,,,,,,,,,,,,,,,,,,,,,,,,,,,,,328.1170739000663,None,left,1,1.9997199000790715,328.61799930012785,330.78762180008925,328.61799930012785,330.28693179995753,328.61799930012785,330.28693179995753,328.61799930012785,330.28693179995753,328.61799930012785,330.28693179995753,328.61799930012785,330.28693179995753,330.27044210000895,330.770876100054,330.27044210000895,330.770876100054,330.27044210000895,330.770876100054,330.27044210000895,330.770876100054,330.27044210000895,330.770876100054,330.27044210000895,330.770876100054,330.27044210000895,330.770876100054,330.27044210000895,330.770876100054,328.61799930012785,None,330.770876100054,331.2049020000268,1.6700000000000013,331.221293900162,None,331.97272110008635,None,,,,,,,[0.4236],2.0100000000000016,0.76,11046,001,2024_Apr_15_1331,MFTM_A_new1021,2021.2.3,60.0407316349468,
,,,,,,,,stim/Instruction_adaptive.png,conditions/adaptive.xlsx,test,0.6,0.6,0.6,-0.6,-0.6,right,R,,,,,0,1,1,1,0,50,50,36,,,,,,,,,,,,,,,,,,,,,,,,,,,,,,,,,,,,,,,,,,,,332.47368200006895,None,right,1,1.7554580001160502,332.97419690014794,335.11071100016125,332.97419690014794,334.61029490013607,332.97419690014794,334.61029490013607,332.97419690014794,334.61029490013607,332.97419690014794,334.61029490013607,332.97419690014794,334.61029490013607,334.57655470003374,335.0773511000443,334.57655470003374,335.0773511000443,334.57655470003374,335.0773511000443,334.57655470003374,335.0773511000443,334.57655470003374,335.0773511000443,334.57655470003374,335.0773511000443,334.57655470003374,335.0773511000443,334.57655470003374,335.0773511000443,332.97419690014794,None,335.0773511000443,335.511335400166,1.6300000000000012,335.5447744000703,None,336.2959851999767,None,,,,,,,[0.43235294],2.0500000000000016,0.7647058823529411,11046,001,2024_Apr_15_1331,MFTM_A_new1021,2021.2.3,60.0407316349468,
,,,,,,,,stim/Instruction_adaptive.png,conditions/adaptive.xlsx,test,0.6,0.6,0.6,-0.6,-0.6,right,R,,,,,0,1,1,1,0,51,51,60,,,,,,,,,,,,,,,,,,,,,,,,,,,,,,,,,,,,,,,,,,,,336.79668160015717,None,right,1,1.5281086000613868,337.2976595000364,339.40055430005305,337.2976595000364,338.89984229998663,337.2976595000364,338.89984229998663,337.2976595000364,338.89984229998663,337.2976595000364,338.89984229998663,337.2976595000364,338.89984229998663,338.8663953000214,339.3670659000054,338.8663953000214,339.3670659000054,338.8663953000214,339.3670659000054,338.8663953000214,339.3670659000054,338.8663953000214,339.3670659000054,338.8663953000214,339.3670659000054,338.8663953000214,339.3670659000054,338.8663953000214,339.3670659000054,337.2976595000364,None,339.3670659000054,339.8178247001488,1.5900000000000012,339.8345296001062,None,340.5854786001146,None,,,,,,,[0.44153846],2.0800000000000014,0.7692307692307693,11046,001,2024_Apr_15_1331,MFTM_A_new1021,2021.2.3,60.0407316349468,
,,,,,,,,stim/Instruction_adaptive.png,conditions/adaptive.xlsx,test,-0.6,-0.6,-0.6,0.6,0.6,left,L,,,,,0,1,1,1,0,52,52,73,,,,,,,,,,,,,,,,,,,,,,,,,,,,,,,,,,,,,,,,,,,,341.0867548000533,None,right,0,1.4790335001889616,341.5872122000437,343.6576264000032,341.5872122000437,343.15614950004965,341.5872122000437,343.15614950004965,341.5872122000437,343.15614950004965,341.5872122000437,343.15614950004965,341.5872122000437,343.15614950004965,343.1232849000953,343.6238914001733,343.1232849000953,343.6238914001733,343.1232849000953,343.6238914001733,343.1232849000953,343.6238914001733,343.1232849000953,343.6238914001733,343.1232849000953,343.6238914001733,343.1232849000953,343.6238914001733,343.1232849000953,343.6238914001733,341.5872122000437,None,343.6238914001733,344.0740817000624,1.5600000000000012,344.1079559000209,None,344.8589036001358,None,,,,,,,[0.4509434],1.9800000000000013,0.7547169811320755,11046,001,2024_Apr_15_1331,MFTM_A_new1021,2021.2.3,60.0407316349468,
,,,,,,,,stim/Instruction_adaptive.png,conditions/adaptive.xlsx,test,0.6,0.6,0.6,-0.6,-0.6,right,R,,,,,0,1,1,1,0,53,53,26,,,,,,,,,,,,,,,,,,,,,,,,,,,,,,,,,,,,,,,,,,,,345.35936010000296,None,left,0,2.48564500012435,345.86063750018366,348.03030190011486,345.86063750018366,347.54595490009524,345.86063750018366,347.54595490009524,345.86063750018366,347.54595490009524,345.86063750018366,347.54595490009524,345.86063750018366,347.54595490009524,347.5128469001502,348.0136259000283,347.5128469001502,348.0136259000283,347.5128469001502,348.0136259000283,347.5128469001502,348.0136259000283,347.5128469001502,348.0136259000283,347.5128469001502,348.0136259000283,347.5128469001502,348.0136259000283,347.5128469001502,348.0136259000283,345.86063750018366,None,348.0136259000283,348.4807073001284,1.6700000000000013,348.49743850016966,None,349.2489243999589,None,,,,,,,[0.45796296],1.8800000000000012,0.7407407407407407,11046,001,2024_Apr_15_1331,MFTM_A_new1021,2021.2.3,60.0407316349468,
,,,,,,,,stim/Instruction_adaptive.png,conditions/adaptive.xlsx,test,-0.6,-0.6,-0.6,0.6,0.6,left,L,,,,,0,1,1,1,0,54,54,89,,,,,,,,,,,,,,,,,,,,,,,,,,,,,,,,,,,,,,,,,,,,349.74996310006827,None,left,1,1.3988001998513937,350.2513651000336,352.5536950000096,350.2513651000336,352.05420000012964,350.2513651000336,352.05420000012964,350.2513651000336,352.05420000012964,350.2513651000336,352.05420000012964,350.2513651000336,352.05420000012964,352.0200251999777,352.5203688000329,352.0200251999777,352.5203688000329,352.0200251999777,352.5203688000329,352.0200251999777,352.5203688000329,352.0200251999777,352.5203688000329,352.0200251999777,352.5203688000329,352.0200251999777,352.5203688000329,352.0200251999777,352.5203688000329,350.2513651000336,None,352.5203688000329,352.9876984001603,1.7900000000000014,353.00496609997936,None,353.7556255001109,None,,,,,,,[0.46254545],1.9200000000000013,0.7454545454545455,11046,001,2024_Apr_15_1331,MFTM_A_new1021,2021.2.3,60.0407316349468,
,,,,,,,,stim/Instruction_adaptive.png,conditions/adaptive.xlsx,test,0.6,0.6,0.6,-0.6,-0.6,right,R,,,,,0,1,1,1,0,55,55,44,,,,,,,,,,,,,,,,,,,,,,,,,,,,,,,,,,,,,,,,,,,,354.25624190014787,None,left,0,1.4209626999218017,354.7570695001632,357.0111238001846,354.7570695001632,356.50979840010405,354.7570695001632,356.50979840010405,354.7570695001632,356.50979840010405,354.7570695001632,356.50979840010405,354.7570695001632,356.50979840010405,356.4764430001378,356.97724030003883,356.4764430001378,356.97724030003883,356.4764430001378,356.97724030003883,356.4764430001378,356.97724030003883,356.4764430001378,356.97724030003883,356.4764430001378,356.97724030003883,356.4764430001378,356.97724030003883,356.4764430001378,356.97724030003883,354.7570695001632,None,356.97724030003883,357.44443790009245,1.7400000000000013,357.4776973000262,None,358.2289977001492,None,,,,,,,[0.46785714],1.8200000000000012,0.7321428571428571,11046,001,2024_Apr_15_1331,MFTM_A_new1021,2021.2.3,60.0407316349468,
,,,,,,,,stim/Instruction_adaptive.png,conditions/adaptive.xlsx,test,-0.6,-0.6,-0.6,0.6,0.6,left,L,,,,,0,1,1,1,0,56,56,57,,,,,,,,,,,,,,,,,,,,,,,,,,,,,,,,,,,,,,,,,,,,358.72958609997295,None,left,1,2.1073086000978947,359.23112120013684,361.60109020001255,359.23112120013684,361.0999815000687,359.23112120013684,361.0999815000687,359.23112120013684,361.0999815000687,359.23112120013684,361.0999815000687,359.23112120013684,361.0999815000687,361.06696600001305,361.5674384001177,361.06696600001305,361.5674384001177,361.06696600001305,361.5674384001177,361.06696600001305,361.5674384001177,361.06696600001305,361.5674384001177,361.06696600001305,361.5674384001177,361.06696600001305,361.5674384001177,361.06696600001305,361.5674384001177,359.23112120013684,None,361.5674384001177,362.0512398001738,1.8600000000000014,362.0683563000057,None,362.81948420009576,None,,,,,,,[0.47087719],1.8500000000000012,0.7368421052631579,11046,001,2024_Apr_15_1331,MFTM_A_new1021,2021.2.3,60.0407316349468,
,,,,,,,,stim/Instruction_adaptive.png,conditions/adaptive.xlsx,test,0.6,0.6,0.6,-0.6,-0.6,right,R,,,,,0,1,1,1,0,57,57,88,,,,,,,,,,,,,,,,,,,,,,,,,,,,,,,,,,,,,,,,,,,,363.32026710011996,None,right,1,1.285498300101608,363.82090570009314,366.14115660008974,363.82090570009314,365.64111720002256,363.82090570009314,365.64111720002256,363.82090570009314,365.64111720002256,363.82090570009314,365.64111720002256,363.82090570009314,365.64111720002256,365.6239875999745,366.1244675000198,365.6239875999745,366.1244675000198,365.6239875999745,366.1244675000198,365.6239875999745,366.1244675000198,365.6239875999745,366.1244675000198,365.6239875999745,366.1244675000198,365.6239875999745,366.1244675000198,365.6239875999745,366.1244675000198,363.82090570009314,None,366.1244675000198,366.60834260005504,1.8200000000000014,366.62483250000514,None,367.37600770010613,None,,,,,,,[0.47448276],1.8900000000000012,0.7413793103448276,11046,001,2024_Apr_15_1331,MFTM_A_new1021,2021.2.3,60.0407316349468,
,,,,,,,,stim/Instruction_adaptive.png,conditions/adaptive.xlsx,test,-0.6,-0.6,-0.6,0.6,0.6,left,L,,,,,0,1,1,1,0,58,58,27,,,,,,,,,,,,,,,,,,,,,,,,,,,,,,,,,,,,,,,,,,,,367.8771715001203,None,left,1,1.1207830000203103,368.3776781000197,370.6642607001122,368.3776781000197,370.1638333001174,368.3776781000197,370.1638333001174,368.3776781000197,370.1638333001174,368.3776781000197,370.1638333001174,368.3776781000197,370.1638333001174,370.14690680010244,370.6473387000151,370.14690680010244,370.6473387000151,370.14690680010244,370.6473387000151,370.14690680010244,370.6473387000151,370.14690680010244,370.6473387000151,370.14690680010244,370.6473387000151,370.14690680010244,370.6473387000151,370.14690680010244,370.6473387000151,368.3776781000197,None,370.63111590011977,371.1154265999794,1.7800000000000014,371.1485819001682,None,371.90012460015714,None,,,,,,,[0.47864407],1.9200000000000013,0.7457627118644068,11046,001,2024_Apr_15_1331,MFTM_A_new1021,2021.2.3,60.0407316349468,
,,,,,,,,stim/Instruction_adaptive.png,conditions/adaptive.xlsx,test,0.6,0.6,0.6,-0.6,-0.6,right,R,,,,,0,1,1,1,0,59,59,66,,,,,,,,,,,,,,,,,,,,,,,,,,,,,,,,,,,,,,,,,,,,372.40033260011114,None,right,1,1.3421577999833971,372.901060000062,375.15480160014704,372.901060000062,374.6544661000371,372.901060000062,374.6544661000371,372.901060000062,374.6544661000371,372.901060000062,374.6544661000371,372.901060000062,374.6544661000371,374.6204554999713,375.1212721001357,374.6204554999713,375.1212721001357,374.6204554999713,375.1212721001357,374.6204554999713,375.1212721001357,374.6204554999713,375.1212721001357,374.6204554999713,375.1212721001357,374.6204554999713,375.1212721001357,374.6204554999713,375.1212721001357,372.901060000062,None,375.1212721001357,375.6056797001511,1.7400000000000013,375.63865060009994,None,376.3897251000162,None,,,,,,,[0.48333333],1.9500000000000013,0.75,11046,001,2024_Apr_15_1331,MFTM_A_new1021,2021.2.3,60.0407316349468,
,,,,,,,,stim/Instruction_adaptive.png,conditions/adaptive.xlsx,test,-0.6,-0.6,-0.6,0.6,0.6,left,L,,,,,0,1,1,1,0,60,60,31,,,,,,,,,,,,,,,,,,,,,,,,,,,,,,,,,,,,,,,,,,,,376.8906495999545,None,left,1,1.5232309000566602,377.3921636999585,379.5949353000615,377.3921636999585,379.0936794001609,377.3921636999585,379.0936794001609,377.3921636999585,379.0936794001609,377.3921636999585,379.0936794001609,377.3921636999585,379.0936794001609,379.0770070999861,379.5783855000045,379.0770070999861,379.5783855000045,379.0770070999861,379.5783855000045,379.0770070999861,379.5783855000045,379.0770070999861,379.5783855000045,379.0770070999861,379.5783855000045,379.0770070999861,379.5783855000045,379.0770070999861,379.5783855000045,377.3921636999585,None,379.5783855000045,380.07874380005524,1.7000000000000013,380.0952851001639,None,380.8464338001795,None,,,,,,,[0.48852459],1.9800000000000013,0.7540983606557377,11046,001,2024_Apr_15_1331,MFTM_A_new1021,2021.2.3,60.0407316349468,
,,,,,,,,stim/Instruction_adaptive.png,conditions/adaptive.xlsx,test,0.6,0.6,0.6,-0.6,-0.6,right,R,,,,,0,1,1,1,0,61,61,56,,,,,,,,,,,,,,,,,,,,,,,,,,,,,,,,,,,,,,,,,,,,381.3470543001313,None,left,0,2.1876461000647396,381.84776889998466,384.01791900000535,381.84776889998466,383.5174203000497,381.84776889998466,383.5174203000497,381.84776889998466,383.5174203000497,381.84776889998466,383.5174203000497,381.84776889998466,383.5174203000497,383.50073720002547,384.0012193999719,383.50073720002547,384.0012193999719,383.50073720002547,384.0012193999719,383.50073720002547,384.0012193999719,383.50073720002547,384.0012193999719,383.50073720002547,384.0012193999719,383.50073720002547,384.0012193999719,383.50073720002547,384.0012193999719,381.84776889998466,None,384.0012193999719,384.5023728001397,1.6700000000000013,384.5186201001052,None,385.2699392000213,None,,,,,,,[0.49403226],1.8900000000000012,0.7419354838709677,11046,001,2024_Apr_15_1331,MFTM_A_new1021,2021.2.3,60.0407316349468,
,,,,,,,,stim/Instruction_adaptive.png,conditions/adaptive.xlsx,test,-0.6,-0.6,-0.6,0.6,0.6,left,L,,,,,0,1,1,1,0,62,62,71,,,,,,,,,,,,,,,,,,,,,,,,,,,,,,,,,,,,,,,,,,,,385.7709113000892,None,right,0,1.5797226999420673,386.2712401000317,388.55809090007097,386.2712401000317,388.05732919997536,386.2712401000317,388.05732919997536,386.2712401000317,388.05732919997536,386.2712401000317,388.05732919997536,386.2712401000317,388.05732919997536,388.02406270010397,388.52466460014693,388.02406270010397,388.52466460014693,388.02406270010397,388.52466460014693,388.02406270010397,388.52466460014693,388.02406270010397,388.52466460014693,388.02406270010397,388.52466460014693,388.02406270010397,388.52466460014693,388.02406270010397,388.52466460014693,386.2712401000317,None,388.52466460014693,389.02556280000135,1.7800000000000014,389.05872189998627,None,389.80989020015113,None,,,,,,,[0.49761905],1.8000000000000012,0.7301587301587301,11046,001,2024_Apr_15_1331,MFTM_A_new1021,2021.2.3,60.0407316349468,
,,,,,,,,stim/Instruction_adaptive.png,conditions/adaptive.xlsx,test,0.6,0.6,0.6,-0.6,-0.6,right,R,,,,,0,1,1,1,0,63,63,62,,,,,,,,,,,,,,,,,,,,,,,,,,,,,,,,,,,,,,,,,,,,390.31067660008557,None,right,1,2.2477001000661403,390.81164500000887,393.2154922001064,390.81164500000887,392.71453470014967,390.81164500000887,392.71453470014967,390.81164500000887,392.71453470014967,390.81164500000887,392.71453470014967,390.81164500000887,392.71453470014967,392.68101650010794,393.18221910018474,392.68101650010794,393.18221910018474,392.68101650010794,393.18221910018474,392.68101650010794,393.18221910018474,392.68101650010794,393.18221910018474,392.68101650010794,393.18221910018474,392.68101650010794,393.18221910018474,392.68101650010794,393.18221910018474,390.81164500000887,None,393.18221910018474,393.6830790999811,1.8900000000000015,393.7165803001262,None,394.4673311000224,None,,,,,,,[0.499375],1.8300000000000012,0.734375,11046,001,2024_Apr_15_1331,MFTM_A_new1021,2021.2.3,60.0407316349468,
,,,,,,,,stim/Instruction_adaptive.png,conditions/adaptive.xlsx,test,0.6,0.6,0.6,-0.6,-0.6,right,R,,,,,0,1,1,1,0,64,64,16,,,,,,,,,,,,,,,,,,,,,,,,,,,,,,,,,,,,,,,,,,,,394.9683130001649,None,right,1,1.3824292998760939,395.4689474001061,397.8222062999848,395.4689474001061,397.32124399999157,395.4689474001061,397.32124399999157,395.4689474001061,397.32124399999157,395.4689474001061,397.32124399999157,395.4689474001061,397.32124399999157,397.30473170010373,397.8052346999757,397.30473170010373,397.8052346999757,397.30473170010373,397.8052346999757,397.30473170010373,397.8052346999757,397.30473170010373,397.8052346999757,397.30473170010373,397.8052346999757,397.30473170010373,397.8052346999757,397.30473170010373,397.8052346999757,395.4689474001061,None,397.8052346999757,398.3065413001459,1.8500000000000014,398.32296560006216,None,399.07391130016185,None,,,,,,,[0.50169231],1.8600000000000012,0.7384615384615385,11046,001,2024_Apr_15_1331,MFTM_A_new1021,2021.2.3,60.0407316349468,
,,,,,,,,stim/Instruction_adaptive.png,conditions/adaptive.xlsx,test,0.6,0.6,0.6,-0.6,-0.6,right,R,,,,,0,1,1,1,0,65,65,76,,,,,,,,,,,,,,,,,,,,,,,,,,,,,,,,,,,,,,,,,,,,399.57481879997067,None,right,1,1.7769359000958502,400.0754303999711,402.3957716000732,400.0754303999711,401.8949393001385,400.0754303999711,401.8949393001385,400.0754303999711,401.8949393001385,400.0754303999711,401.8949393001385,400.0754303999711,401.8949393001385,401.86145510012284,402.36217690003105,401.86145510012284,402.36217690003105,401.86145510012284,402.36217690003105,401.86145510012284,402.36217690003105,401.86145510012284,402.36217690003105,401.86145510012284,402.36217690003105,401.86145510012284,402.36217690003105,401.86145510012284,402.36217690003105,400.0754303999711,None,402.36217690003105,402.8797026001848,1.8100000000000014,402.8965576000046,None,403.6476184001658,None,,,,,,,[0.50454545],1.8900000000000012,0.7424242424242424,11046,001,2024_Apr_15_1331,MFTM_A_new1021,2021.2.3,60.0407316349468,
,,,,,,,,stim/Instruction_adaptive.png,conditions/adaptive.xlsx,test,0.6,0.6,0.6,-0.6,-0.6,right,R,,,,,0,1,1,1,0,66,66,20,,,,,,,,,,,,,,,,,,,,,,,,,,,,,,,,,,,,,,,,,,,,404.14823100017384,None,left,0,1.5782230000477284,404.64921080018394,406.9357859001029,404.64921080018394,406.43499800004065,404.64921080018394,406.43499800004065,404.64921080018394,406.43499800004065,404.64921080018394,406.43499800004065,404.64921080018394,406.43499800004065,406.4183036000468,406.91918460000306,406.4183036000468,406.91918460000306,406.4183036000468,406.91918460000306,406.4183036000468,406.91918460000306,406.4183036000468,406.91918460000306,406.4183036000468,406.91918460000306,406.4183036000468,406.91918460000306,406.4183036000468,406.91918460000306,404.64921080018394,None,406.91918460000306,None,1.7800000000000014,407.43702700012363,None,408.18779180012643,None,,,,,,,[0.50776119],1.8100000000000012,0.7313432835820896,11046,001,2024_Apr_15_1331,MFTM_A_new1021,2021.2.3,60.0407316349468,
,,,,,,,,stim/Instruction_adaptive.png,conditions/adaptive.xlsx,test,-0.6,-0.6,-0.6,0.6,0.6,left,L,,,,,0,1,1,1,0,67,67,95,,,,,,,,,,,,,,,,,,,,,,,,,,,,,,,,,,,,,,,,,,,,408.6888020001352,None,left,1,2.222665999783203,409.1892483001575,411.5760166000109,409.1892483001575,411.07551900018007,409.1892483001575,411.07551900018007,409.1892483001575,411.07551900018007,409.1892483001575,411.07551900018007,409.1892483001575,411.07551900018007,411.0586668001488,411.5596637001727,411.0586668001488,411.5596637001727,411.0586668001488,411.5596637001727,411.0586668001488,411.5596637001727,411.0586668001488,411.5596637001727,411.0586668001488,411.5596637001727,411.0586668001488,411.5596637001727,411.0586668001488,411.5596637001727,409.1892483001575,None,411.5428228999954,412.0602127001621,1.8800000000000014,412.0939255000558,None,412.8447180001531,None,,,,,,,[0.50941176],1.8400000000000012,0.7352941176470589,11046,001,2024_Apr_15_1331,MFTM_A_new1021,2021.2.3,60.0407316349468,
,,,,,,,,stim/Instruction_adaptive.png,conditions/adaptive.xlsx,test,-0.6,-0.6,-0.6,0.6,0.6,left,L,,,,,0,1,1,1,0,68,68,61,,,,,,,,,,,,,,,,,,,,,,,,,,,,,,,,,,,,,,,,,,,,413.34551000013016,None,right,0,1.2855999998282641,413.8463101000525,416.1999318001326,413.8463101000525,415.69937050016597,413.8463101000525,415.69937050016597,413.8463101000525,415.69937050016597,413.8463101000525,415.69937050016597,413.8463101000525,415.69937050016597,415.6655691000633,416.16658190009184,415.6655691000633,416.16658190009184,415.6655691000633,416.16658190009184,415.6655691000633,416.16658190009184,415.6655691000633,416.16658190009184,415.6655691000633,416.16658190009184,415.6655691000633,416.16658190009184,415.6655691000633,416.16658190009184,413.8463101000525,None,416.16658190009184,416.6839485000819,1.8400000000000014,416.70039070001803,None,417.45167760015465,None,,,,,,,[0.5115942],1.750000000000001,0.7246376811594203,11046,001,2024_Apr_15_1331,MFTM_A_new1021,2021.2.3,60.0407316349468,
,,,,,,,,stim/Instruction_adaptive.png,conditions/adaptive.xlsx,test,-0.6,-0.6,-0.6,0.6,0.6,left,L,,,,,0,1,1,1,0,69,69,47,,,,,,,,,,,,,,,,,,,,,,,,,,,,,,,,,,,,,,,,,,,,417.9524960000999,None,left,1,2.2711982999462634,418.4532477001194,420.92356949998066,418.4532477001194,420.423035700107,418.4532477001194,420.423035700107,418.4532477001194,420.423035700107,418.4532477001194,420.423035700107,418.4532477001194,420.423035700107,420.3894638000056,420.8904488000553,420.3894638000056,420.8904488000553,420.3894638000056,420.8904488000553,420.3894638000056,420.8904488000553,420.3894638000056,420.8904488000553,420.3894638000056,420.8904488000553,420.3894638000056,420.8904488000553,420.3894638000056,420.8904488000553,418.4532477001194,None,420.8904488000553,421.4077390001621,1.9600000000000015,421.4243634000886,None,422.1758062001318,None,,,,,,,[0.512],1.7800000000000011,0.7285714285714285,11046,001,2024_Apr_15_1331,MFTM_A_new1021,2021.2.3,60.0407316349468,
,,,,,,,,stim/Instruction_adaptive.png,conditions/adaptive.xlsx,test,-0.6,-0.6,-0.6,0.6,0.6,left,L,,,,,0,1,1,1,0,70,70,99,,,,,,,,,,,,,,,,,,,,,,,,,,,,,,,,,,,,,,,,,,,,422.6768793000374,None,right,0,1.826583799906075,423.17747450014576,425.5972547000274,423.17747450014576,425.0966372000985,423.17747450014576,425.0966372000985,423.17747450014576,425.0966372000985,423.17747450014576,425.0966372000985,423.17747450014576,425.0966372000985,425.0799214001745,425.5810267000925,425.0799214001745,425.5810267000925,425.0799214001745,425.5810267000925,425.0799214001745,425.5810267000925,425.0799214001745,425.5810267000925,425.0799214001745,425.5810267000925,425.0799214001745,425.5810267000925,425.0799214001745,425.5810267000925,423.17747450014576,None,425.5810267000925,426.0981966999825,1.9200000000000015,426.11479390016757,None,426.86594290006906,None,,,,,,,[0.51295775],1.690000000000001,0.7183098591549296,11046,001,2024_Apr_15_1331,MFTM_A_new1021,2021.2.3,60.0407316349468,
,,,,,,,,stim/Instruction_adaptive.png,conditions/adaptive.xlsx,test,0.6,0.6,0.6,-0.6,-0.6,right,R,,,,,0,1,1,1,0,71,71,14,,,,,,,,,,,,,,,,,,,,,,,,,,,,,,,,,,,,,,,,,,,,427.36675300006755,None,right,1,1.4808187000453472,427.86786040011793,430.42139649996534,427.86786040011793,429.920446400065,427.86786040011793,429.920446400065,427.86786040011793,429.920446400065,427.86786040011793,429.920446400065,427.86786040011793,429.920446400065,429.88720510015264,430.38794549996965,429.88720510015264,430.38794549996965,429.88720510015264,430.38794549996965,429.88720510015264,430.38794549996965,429.88720510015264,430.38794549996965,429.88720510015264,430.38794549996965,429.88720510015264,430.38794549996965,429.88720510015264,430.38794549996965,427.86786040011793,None,430.38794549996965,430.85736900009215,2.040000000000002,430.8720146000851,None,431.623401200166,None,,,,,,,[[0.46]],1.720000000000001,0.7222222222222222,11046,001,2024_Apr_15_1331,MFTM_A_new1021,2021.2.3,60.0407316349468,
,,,,,,,,stim/Instruction_adaptive.png,conditions/adaptive.xlsx,test,-0.6,-0.6,-0.6,0.6,0.6,left,L,,,,,0,1,1,1,0,72,72,1,,,,,,,,,,,,,,,,,,,,,,,,,,,,,,,,,,,,,,,,,,,,432.12384540005587,None,right,0,2.3397245998494327,432.6246748000849,435.12841040012427,432.6246748000849,434.62768779997714,432.6246748000849,434.62768779997714,432.6246748000849,434.62768779997714,432.6246748000849,434.62768779997714,432.6246748000849,434.62768779997714,434.6110438001342,435.11178390006535,434.6110438001342,435.11178390006535,434.6110438001342,435.11178390006535,434.6110438001342,435.11178390006535,434.6110438001342,435.11178390006535,434.6110438001342,435.11178390006535,434.6110438001342,435.11178390006535,434.6110438001342,435.11178390006535,432.6246748000849,None,435.11178390006535,435.6123291000258,2.0000000000000018,435.6290755001828,None,436.38016399997286,None,,,,,,,[[0.5]],1.630000000000001,0.7123287671232876,11046,001,2024_Apr_15_1331,MFTM_A_new1021,2021.2.3,60.0407316349468,
,,,,,,,,stim/Instruction_adaptive.png,conditions/adaptive.xlsx,test,-0.6,-0.6,-0.6,0.6,0.6,left,L,,,,,0,1,1,1,0,73,73,7,,,,,,,,,,,,,,,,,,,,,,,,,,,,,,,,,,,,,,,,,,,,436.8809697001707,None,left,1,2.8725139000453055,437.38187220017426,440.0194731000811,437.38187220017426,439.51844510016963,437.38187220017426,439.51844510016963,437.38187220017426,439.51844510016963,437.38187220017426,439.51844510016963,437.38187220017426,439.51844510016963,439.50184280006215,440.0023696999997,439.50184280006215,440.0023696999997,439.50184280006215,440.0023696999997,439.50184280006215,440.0023696999997,439.50184280006215,440.0023696999997,439.50184280006215,440.0023696999997,439.50184280006215,440.0023696999997,439.50184280006215,440.0023696999997,437.38187220017426,None,440.0023696999997,None,2.1300000000000017,440.3861470001284,None,441.13755670003593,None,,,,,,,[[0.37]],1.660000000000001,0.7162162162162162,11046,001,2024_Apr_15_1331,MFTM_A_new1021,2021.2.3,60.0407316349468,
,,,,,,,,stim/Instruction_adaptive.png,conditions/adaptive.xlsx,test,-0.6,-0.6,-0.6,0.6,0.6,left,L,,,,,0,1,1,1,0,74,74,55,,,,,,,,,,,,,,,,,,,,,,,,,,,,,,,,,,,,,,,,,,,,441.6384189000819,None,left,1,1.761220300104469,442.13964740000665,444.72633890016004,442.13964740000665,444.2253776001744,442.13964740000665,444.2253776001744,442.13964740000665,444.2253776001744,442.13964740000665,444.2253776001744,442.13964740000665,444.2253776001744,444.19220000016503,444.6928068001289,444.19220000016503,444.6928068001289,444.19220000016503,444.6928068001289,444.19220000016503,444.6928068001289,444.19220000016503,444.6928068001289,444.19220000016503,444.6928068001289,444.19220000016503,444.6928068001289,444.19220000016503,444.6928068001289,442.13964740000665,None,444.6928068001289,445.1266908000689,2.080000000000002,445.14341080002487,None,445.8948320001364,None,,,,,,,[[0.42]],1.690000000000001,0.72,11046,001,2024_Apr_15_1331,MFTM_A_new1021,2021.2.3,60.0407316349468,
,,,,,,,,stim/Instruction_adaptive.png,conditions/adaptive.xlsx,test,-0.6,-0.6,-0.6,0.6,0.6,left,L,,,,,0,1,1,1,0,75,75,93,,,,,,,,,,,,,,,,,,,,,,,,,,,,,,,,,,,,,,,,,,,,446.39522640011273,None,left,1,2.0124261998571455,446.8966076001525,449.4500059999991,446.8966076001525,448.94954820000567,446.8966076001525,448.94954820000567,446.8966076001525,448.94954820000567,446.8966076001525,448.94954820000567,446.8966076001525,448.94954820000567,448.9159393000882,449.41680570016615,448.9159393000882,449.41680570016615,448.9159393000882,449.41680570016615,448.9159393000882,449.41680570016615,448.9159393000882,449.41680570016615,448.9159393000882,449.41680570016615,448.9159393000882,449.41680570016615,448.9159393000882,449.41680570016615,446.8966076001525,None,449.41680570016615,449.8839511000551,2.040000000000002,449.90045910002664,None,450.6521885001566,None,,,,,,,[[0.46]],1.720000000000001,0.7236842105263158,11046,001,2024_Apr_15_1331,MFTM_A_new1021,2021.2.3,60.0407316349468,
,,,,,,,,stim/Instruction_adaptive.png,conditions/adaptive.xlsx,test,0.6,0.6,0.6,-0.6,-0.6,right,R,,,,,0,1,1,1,0,76,76,64,,,,,,,,,,,,,,,,,,,,,,,,,,,,,,,,,,,,,,,,,,,,451.1527961001266,None,left,0,2.607470099814236,451.6533777001314,454.1572261999827,451.6533777001314,453.6562831001356,451.6533777001314,453.6562831001356,451.6533777001314,453.6562831001356,451.6533777001314,453.6562831001356,451.6533777001314,453.6562831001356,453.6397635000758,454.1407831001561,453.6397635000758,454.1407831001561,453.6397635000758,454.1407831001561,453.6397635000758,454.1407831001561,453.6397635000758,454.1407831001561,453.6397635000758,454.1407831001561,453.6397635000758,454.1407831001561,453.6397635000758,454.1407831001561,451.6533777001314,None,454.1407831001561,454.6422091999557,2.0000000000000018,454.658024400007,None,455.4089083999861,None,,,,,,,[[0.5]],1.640000000000001,0.7142857142857143,11046,001,2024_Apr_15_1331,MFTM_A_new1021,2021.2.3,60.0407316349468,
,,,,,,,,stim/Instruction_adaptive.png,conditions/adaptive.xlsx,test,-0.6,-0.6,-0.6,0.6,0.6,left,L,,,,,0,1,1,1,0,77,77,97,,,,,,,,,,,,,,,,,,,,,,,,,,,,,,,,,,,,,,,,,,,,455.9106986001134,None,left,1,1.7543345000594854,456.41055100015365,459.0313608001452,456.41055100015365,458.53055729996413,456.41055100015365,458.53055729996413,456.41055100015365,458.53055729996413,456.41055100015365,458.53055729996413,456.41055100015365,458.53055729996413,458.49710960011,458.9981522001326,458.49710960011,458.9981522001326,458.49710960011,458.9981522001326,458.49710960011,458.9981522001326,458.49710960011,458.9981522001326,458.49710960011,458.9981522001326,458.49710960011,458.9981522001326,458.49710960011,458.9981522001326,456.41055100015365,None,458.9981522001326,459.39820659998804,2.1100000000000017,459.4151743000839,None,460.1661724001169,None,,,,,,,[[0.39]],1.670000000000001,0.717948717948718,11046,001,2024_Apr_15_1331,MFTM_A_new1021,2021.2.3,60.0407316349468,
,,,,,,,,stim/Instruction_adaptive.png,conditions/adaptive.xlsx,test,0.6,0.6,0.6,-0.6,-0.6,right,R,,,,,0,1,1,1,0,78,78,0,,,,,,,,,,,,,,,,,,,,,,,,,,,,,,,,,,,,,,,,,,,,460.6669893001672,None,right,1,2.181608699960634,461.1676459000446,463.7383351000026,461.1676459000446,463.2375905001536,461.1676459000446,463.2375905001536,461.1676459000446,463.2375905001536,461.1676459000446,463.2375905001536,461.1676459000446,463.2375905001536,463.2210760000162,463.7216592000332,463.2210760000162,463.7216592000332,463.2210760000162,463.7216592000332,463.2210760000162,463.7216592000332,463.2210760000162,463.7216592000332,463.2210760000162,463.7216592000332,463.2210760000162,463.7216592000332,463.2210760000162,463.7216592000332,461.1676459000446,None,463.7216592000332,464.1561404000968,2.0700000000000016,464.17256260011345,None,464.92382670007646,None,,,,,,,[[0.43]],1.700000000000001,0.7215189873417721,11046,001,2024_Apr_15_1331,MFTM_A_new1021,2021.2.3,60.0407316349468,
,,,,,,,,stim/Instruction_adaptive.png,conditions/adaptive.xlsx,test,0.6,0.6,0.6,-0.6,-0.6,right,R,,,,,0,1,1,1,0,79,79,12,,,,,,,,,,,,,,,,,,,,,,,,,,,,,,,,,,,,,,,,,,,,465.4241617000662,None,right,1,1.5606021999847144,465.9249887999613,468.446533099981,465.9249887999613,467.94459390011616,465.9249887999613,467.94459390011616,465.9249887999613,467.94459390011616,465.9249887999613,467.94459390011616,465.9249887999613,467.94459390011616,467.9278498000931,468.4290732999798,467.9278498000931,468.4290732999798,467.9278498000931,468.4290732999798,467.9278498000931,468.4290732999798,467.9278498000931,468.4290732999798,467.9278498000931,468.4290732999798,467.9278498000931,468.4290732999798,467.9278498000931,468.4290732999798,465.9249887999613,None,468.4290732999798,468.9127581000794,2.0200000000000014,468.92952210013755,None,469.6805346000474,None,,,,,,,[[0.48]],1.720000000000001,0.725,11046,001,2024_Apr_15_1331,MFTM_A_new1021,2021.2.3,60.0407316349468,
,,,,,,,,stim/Instruction_adaptive.png,conditions/adaptive.xlsx,test,0.6,0.6,0.6,-0.6,-0.6,right,R,,,,,0,1,1,1,0,80,80,68,,,,,,,,,,,,,,,,,,,,,,,,,,,,,,,,,,,,,,,,,,,,470.1813970000949,None,left,0,2.219911399995908,470.6822882001288,473.18596930010244,470.6822882001288,472.68516180012375,470.6822882001288,472.68516180012375,470.6822882001288,472.68516180012375,470.6822882001288,472.68516180012375,470.6822882001288,472.68516180012375,472.6683750001248,473.169707900146,472.6683750001248,473.169707900146,472.6683750001248,473.169707900146,472.6683750001248,473.169707900146,472.6683750001248,473.169707900146,472.6683750001248,473.169707900146,472.6683750001248,473.169707900146,472.6683750001248,473.169707900146,470.6822882001288,None,473.169707900146,473.6702093000058,2.0000000000000018,473.6866033000406,None,474.4391759999562,None,,,,,,,[[0.5]],1.640000000000001,0.7160493827160493,11046,001,2024_Apr_15_1331,MFTM_A_new1021,2021.2.3,60.0407316349468,
,,,,,,,,stim/Instruction_adaptive.png,conditions/adaptive.xlsx,test,0.6,0.6,0.6,-0.6,-0.6,right,R,,,,,0,1,1,1,0,81,81,24,,,,,,,,,,,,,,,,,,,,,,,,,,,,,,,,,,,,,,,,,,,,474.938472900074,None,right,1,1.9429684998467565,475.43925720010884,478.0599643001333,475.43925720010884,477.5592084999662,475.43925720010884,477.5592084999662,475.43925720010884,477.5592084999662,475.43925720010884,477.5592084999662,475.43925720010884,477.5592084999662,477.525769200176,478.02677310002036,477.525769200176,478.02677310002036,477.525769200176,478.02677310002036,477.525769200176,478.02677310002036,477.525769200176,478.02677310002036,477.525769200176,478.02677310002036,477.525769200176,478.02677310002036,477.525769200176,478.02677310002036,475.43925720010884,None,478.02677310002036,478.4270872999914,2.1100000000000017,478.4437752000522,None,479.1948818999808,None,,,,,,,[[0.39]],1.670000000000001,0.7195121951219512,11046,001,2024_Apr_15_1331,MFTM_A_new1021,2021.2.3,60.0407316349468,
,,,,,,,,stim/Instruction_adaptive.png,conditions/adaptive.xlsx,test,0.6,0.6,0.6,-0.6,-0.6,right,R,,,,,0,1,1,1,0,82,82,46,,,,,,,,,,,,,,,,,,,,,,,,,,,,,,,,,,,,,,,,,,,,479.6956013001036,None,right,1,2.2499158999416977,480.1963504999876,482.7672180000227,480.1963504999876,482.26649910002016,480.1963504999876,482.26649910002016,480.1963504999876,482.26649910002016,480.1963504999876,482.26649910002016,480.1963504999876,482.26649910002016,482.24956630007364,482.7502421999816,482.24956630007364,482.7502421999816,482.24956630007364,482.7502421999816,482.24956630007364,482.7502421999816,482.24956630007364,482.7502421999816,482.24956630007364,482.7502421999816,482.24956630007364,482.7502421999816,482.24956630007364,482.7502421999816,480.1963504999876,None,482.7502421999816,483.18426760006696,2.0700000000000016,483.2014429999981,None,483.9521501001436,None,,,,,,,[[0.43]],1.700000000000001,0.7228915662650602,11046,001,2024_Apr_15_1331,MFTM_A_new1021,2021.2.3,60.0407316349468,
,,,,,,,,stim/Instruction_adaptive.png,conditions/adaptive.xlsx,test,-0.6,-0.6,-0.6,0.6,0.6,left,L,,,,,0,1,1,1,0,83,83,75,,,,,,,,,,,,,,,,,,,,,,,,,,,,,,,,,,,,,,,,,,,,484.45293110003695,None,left,1,2.620827400125563,484.9540045000613,487.47415050002746,484.9540045000613,486.9734901001211,484.9540045000613,486.9734901001211,484.9540045000613,486.9734901001211,484.9540045000613,486.9734901001211,484.9540045000613,486.9734901001211,486.9566544999834,487.4573656001594,486.9566544999834,487.4573656001594,486.9566544999834,487.4573656001594,486.9566544999834,487.4573656001594,486.9566544999834,487.4573656001594,486.9566544999834,487.4573656001594,486.9566544999834,487.4573656001594,486.9566544999834,487.4573656001594,484.9540045000613,None,487.4573656001594,487.941405700054,2.0200000000000014,487.95817730017006,None,488.7095332001336,None,,,,,,,[[0.48]],1.720000000000001,0.7261904761904762,11046,001,2024_Apr_15_1331,MFTM_A_new1021,2021.2.3,60.0407316349468,
,,,,,,,,stim/Instruction_adaptive.png,conditions/adaptive.xlsx,test,0.6,0.6,0.6,-0.6,-0.6,right,R,,,,,0,1,1,1,0,84,84,6,,,,,,,,,,,,,,,,,,,,,,,,,,,,,,,,,,,,,,,,,,,,489.2101722001098,None,left,0,2.671777999959886,489.7106782000046,492.2145718000829,489.7106782000046,491.7137967001181,489.7106782000046,491.7137967001181,489.7106782000046,491.7137967001181,489.7106782000046,491.7137967001181,489.7106782000046,491.7137967001181,491.6972405000124,492.197871300159,491.6972405000124,492.197871300159,491.6972405000124,492.197871300159,491.6972405000124,492.197871300159,491.6972405000124,492.197871300159,491.6972405000124,492.197871300159,491.6972405000124,492.197871300159,491.6972405000124,492.197871300159,489.7106782000046,None,492.197871300159,492.6986446999945,2.0000000000000018,492.71534220012836,None,493.4671914000064,None,,,,,,,[[0.5]],1.650000000000001,0.7176470588235294,11046,001,2024_Apr_15_1331,MFTM_A_new1021,2021.2.3,60.0407316349468,
,,,,,,,,stim/Instruction_adaptive.png,conditions/adaptive.xlsx,test,0.6,0.6,0.6,-0.6,-0.6,right,R,,,,,0,1,1,1,0,85,85,96,,,,,,,,,,,,,,,,,,,,,,,,,,,,,,,,,,,,,,,,,,,,493.96719600004144,None,right,1,2.4501119998749346,494.46826940006576,497.07180909998715,494.46826940006576,496.57108750008047,494.46826940006576,496.57108750008047,494.46826940006576,496.57108750008047,494.46826940006576,496.57108750008047,494.46826940006576,496.57108750008047,496.55436920002103,497.05520970001817,496.55436920002103,497.05520970001817,496.55436920002103,497.05520970001817,496.55436920002103,497.05520970001817,496.55436920002103,497.05520970001817,496.55436920002103,497.05520970001817,496.55436920002103,497.05520970001817,496.55436920002103,497.05520970001817,494.46826940006576,None,497.05520970001817,497.4559301000554,2.1000000000000014,497.47252060007304,None,498.2238441000227,None,,,,,,,[[0.4]],1.670000000000001,0.7209302325581395,11046,001,2024_Apr_15_1331,MFTM_A_new1021,2021.2.3,60.0407316349468,
,,,,,,,,stim/Instruction_adaptive.png,conditions/adaptive.xlsx,test,-0.6,-0.6,-0.6,0.6,0.6,left,L,,,,,0,1,1,1,0,86,86,51,,,,,,,,,,,,,,,,,,,,,,,,,,,,,,,,,,,,,,,,,,,,498.72436740016565,None,left,1,2.7409824000205845,499.22508690017276,501.79677970008925,499.22508690017276,501.29519090009853,499.22508690017276,501.29519090009853,499.22508690017276,501.29519090009853,499.22508690017276,501.29519090009853,499.22508690017276,501.29519090009853,501.27819920005277,501.77912309998646,501.27819920005277,501.77912309998646,501.27819920005277,501.77912309998646,501.27819920005277,501.77912309998646,501.27819920005277,501.77912309998646,501.27819920005277,501.77912309998646,501.27819920005277,501.77912309998646,501.27819920005277,501.77912309998646,499.22508690017276,None,501.77912309998646,502.21443070005625,2.0700000000000016,502.2298561001662,None,502.98130200011656,None,,,,,,,[[0.43]],1.700000000000001,0.7241379310344828,11046,001,2024_Apr_15_1331,MFTM_A_new1021,2021.2.3,60.0407316349468,
,,,,,,,,stim/Instruction_adaptive.png,conditions/adaptive.xlsx,test,-0.6,-0.6,-0.6,0.6,0.6,left,L,,,,,0,1,1,1,0,87,87,63,,,,,,,,,,,,,,,,,,,,,,,,,,,,,,,,,,,,,,,,,,,,503.4816209001001,None,left,1,1.7283220998942852,503.98247350007296,506.50279509997927,503.98247350007296,506.002235500142,503.98247350007296,506.002235500142,503.98247350007296,506.002235500142,503.98247350007296,506.002235500142,503.98247350007296,506.002235500142,505.9855222001206,506.48641240014695,505.9855222001206,506.48641240014695,505.9855222001206,506.48641240014695,505.9855222001206,506.48641240014695,505.9855222001206,506.48641240014695,505.9855222001206,506.48641240014695,505.9855222001206,506.48641240014695,505.9855222001206,506.48641240014695,503.98247350007296,None,506.48641240014695,506.97031720005907,2.0200000000000014,506.9867920000106,None,507.73829969996586,None,,,,,,,[[0.48]],1.720000000000001,0.7272727272727273,11046,001,2024_Apr_15_1331,MFTM_A_new1021,2021.2.3,60.0407316349468,
,,,,,,,,stim/Instruction_adaptive.png,conditions/adaptive.xlsx,test,-0.6,-0.6,-0.6,0.6,0.6,left,L,,,,,0,1,1,1,0,88,88,9,,,,,,,,,,,,,,,,,,,,,,,,,,,,,,,,,,,,,,,,,,,,508.2390582000371,None,left,1,2.3546915999613702,508.7399188999552,511.24321530014277,508.7399188999552,510.74261720012873,508.7399188999552,510.74261720012873,508.7399188999552,510.74261720012873,508.7399188999552,510.74261720012873,508.7399188999552,510.74261720012873,510.7265183001291,511.2265489001293,510.7265183001291,511.2265489001293,510.7265183001291,511.2265489001293,510.7265183001291,511.2265489001293,510.7265183001291,511.2265489001293,510.7265183001291,511.2265489001293,510.7265183001291,511.2265489001293,510.7265183001291,511.2265489001293,508.7399188999552,None,511.2265489001293,511.72735380008817,2.0000000000000018,511.74407869996503,None,512.4951518999878,None,,,,,,,[[0.5]],1.750000000000001,0.7303370786516854,11046,001,2024_Apr_15_1331,MFTM_A_new1021,2021.2.3,60.0407316349468,
,,,,,,,,stim/Instruction_adaptive.png,conditions/adaptive.xlsx,test,-0.6,-0.6,-0.6,0.6,0.6,left,L,,,,,0,1,1,1,0,89,89,49,,,,,,,,,,,,,,,,,,,,,,,,,,,,,,,,,,,,,,,,,,,,512.9963454999961,None,left,1,1.7014021999202669,513.4975211999845,515.96702370001,513.4975211999845,515.4663172999863,513.4975211999845,515.4663172999863,513.4975211999845,515.4663172999863,513.4975211999845,515.4663172999863,513.4975211999845,515.4663172999863,515.4330172999762,515.9337244001217,515.4330172999762,515.9337244001217,515.4330172999762,515.9337244001217,515.4330172999762,515.9337244001217,515.4330172999762,515.9337244001217,515.4330172999762,515.9337244001217,515.4330172999762,515.9337244001217,515.4330172999762,515.9337244001217,513.4975211999845,None,515.9337244001217,516.434915699996,1.9600000000000015,516.4678212001454,None,517.218911100179,None,,,,,,,[0.50088889],1.7700000000000011,0.7333333333333333,11046,001,2024_Apr_15_1331,MFTM_A_new1021,2021.2.3,60.0407316349468,
,,,,,,,,stim/Instruction_adaptive.png,conditions/adaptive.xlsx,test,0.6,0.6,0.6,-0.6,-0.6,right,R,,,,,0,1,1,1,0,90,90,28,,,,,,,,,,,,,,,,,,,,,,,,,,,,,,,,,,,,,,,,,,,,517.7198483999819,None,right,1,1.1780944999773055,518.220886599971,520.6576133000199,518.220886599971,520.1565809000749,518.220886599971,520.1565809000749,518.220886599971,520.1565809000749,518.220886599971,520.1565809000749,518.220886599971,520.1565809000749,520.1400492000394,520.6407930999994,520.1400492000394,520.6407930999994,520.1400492000394,520.6407930999994,520.1400492000394,520.6407930999994,520.1400492000394,520.6407930999994,520.1400492000394,520.6407930999994,520.1400492000394,520.6407930999994,520.1400492000394,520.6407930999994,518.220886599971,None,520.6241454000119,521.1270928999875,1.9300000000000015,521.1582810999826,None,521.909340800019,None,,,,,,,[0.50164835],1.7900000000000011,0.7362637362637363,11046,001,2024_Apr_15_1331,MFTM_A_new1021,2021.2.3,60.0407316349468,
,,,,,,,,stim/Instruction_adaptive.png,conditions/adaptive.xlsx,test,-0.6,-0.6,-0.6,0.6,0.6,left,L,,,,,0,1,1,1,0,91,91,79,,,,,,,,,,,,,,,,,,,,,,,,,,,,,,,,,,,,,,,,,,,,522.4104097001255,None,left,1,2.120389600051567,522.9108154000714,525.3150979001075,522.9108154000714,524.8139506999869,522.9108154000714,524.8139506999869,522.9108154000714,524.8139506999869,522.9108154000714,524.8139506999869,522.9108154000714,524.8139506999869,524.7974557001144,525.2977190001402,524.7974557001144,525.2977190001402,524.7974557001144,525.2977190001402,524.7974557001144,525.2977190001402,524.7974557001144,525.2977190001402,524.7974557001144,525.2977190001402,524.7974557001144,525.2977190001402,524.7974557001144,525.2977190001402,522.9108154000714,None,525.2977190001402,525.7986884000711,1.9000000000000015,525.8152030999772,None,526.5664459001273,None,,,,,,,[0.50271739],1.8100000000000012,0.7391304347826086,11046,001,2024_Apr_15_1331,MFTM_A_new1021,2021.2.3,60.0407316349468,
,,,,,,,,stim/Instruction_adaptive.png,conditions/adaptive.xlsx,test,-0.6,-0.6,-0.6,0.6,0.6,left,L,,,,,0,1,1,1,0,92,92,35,,,,,,,,,,,,,,,,,,,,,,,,,,,,,,,,,,,,,,,,,,,,527.0673245000653,None,left,1,2.127390099922195,527.5681292000227,529.9548983999994,527.5681292000227,529.4541679001413,527.5681292000227,529.4541679001413,527.5681292000227,529.4541679001413,527.5681292000227,529.4541679001413,527.5681292000227,529.4541679001413,529.4375517000444,529.9382340000011,529.4375517000444,529.9382340000011,529.4375517000444,529.9382340000011,529.4375517000444,529.9382340000011,529.4375517000444,529.9382340000011,529.4375517000444,529.9382340000011,529.4375517000444,529.9382340000011,529.4375517000444,529.9382340000011,527.5681292000227,None,529.9382340000011,None,1.8800000000000014,530.4554377000313,None,531.2068529999815,None,,,,,,,[0.50397849],1.8300000000000012,0.7419354838709677,11046,001,2024_Apr_15_1331,MFTM_A_new1021,2021.2.3,60.0407316349468,
,,,,,,,,stim/Instruction_adaptive.png,conditions/adaptive.xlsx,test,0.6,0.6,0.6,-0.6,-0.6,right,R,,,,,0,1,1,1,0,93,93,4,,,,,,,,,,,,,,,,,,,,,,,,,,,,,,,,,,,,,,,,,,,,531.707274600165,None,right,1,2.5592762001324445,532.2083723000251,534.5618808001745,532.2083723000251,534.0613869000226,532.2083723000251,534.0613869000226,532.2083723000251,534.0613869000226,532.2083723000251,534.0613869000226,532.2083723000251,534.0613869000226,534.0445369000081,534.54515180015,534.0445369000081,534.54515180015,534.0445369000081,534.54515180015,534.0445369000081,534.54515180015,534.0445369000081,534.54515180015,534.0445369000081,534.54515180015,534.0445369000081,534.54515180015,534.0445369000081,534.54515180015,532.2083723000251,None,534.54515180015,535.0627020001411,1.8500000000000014,535.0793123000767,None,535.8306042000186,None,,,,,,,[0.50553191],1.8600000000000012,0.7446808510638298,11046,001,2024_Apr_15_1331,MFTM_A_new1021,2021.2.3,60.0407316349468,
