arrwidth1,arrwidth2,arrwidth3,arrwidth4,arrwidth5,keyb,type,orientation,instruction_image,block_filename,block_type,arrow11,arrow22,arrow33,arrow44,arrow55,keyb_3,orientation3,trials.thisRepN,trials.thisTrialN,trials.thisN,trials.thisIndex,trials_3.thisRepN,trials_3.thisTrialN,trials_3.thisN,trials_3.thisIndex,trials_2.thisRepN,trials_2.thisTrialN,trials_2.thisN,trials_2.thisIndex,welcome.started,welcome.stopped,key_resp.keys,key_resp.rt,key_resp.started,key_resp.stopped,instruction_example.started,instruction_example.stopped,key_resp_3.keys,key_resp_3.rt,key_resp_3.started,key_resp_3.stopped,instruction_task.started,instruction_task.stopped,key_resp_2.keys,key_resp_2.rt,key_resp_2.started,key_resp_2.stopped,text_2.started,text_2.stopped,A1.started,A1.stopped,A2.started,A2.stopped,A3.started,A3.stopped,A4.started,A4.stopped,A5.started,A5.stopped,key_resp_4.keys,key_resp_4.corr,key_resp_4.rt,key_resp_4.started,key_resp_4.stopped,fb.started,fb.stopped,instruction_block.started,instruction_block.stopped,key_resp_8.keys,key_resp_8.rt,key_resp_8.started,key_resp_8.stopped,text_8.started,text_8.stopped,key_resp_9.keys,key_resp_9.corr,key_resp_9.rt,text_5.started,text_5.stopped,A11_3.started,A11_3.stopped,A22_2.started,A22_2.stopped,A33_2.started,A33_2.stopped,A44_2.started,A44_2.stopped,A55_2.started,A55_2.stopped,M1_3.started,M1_3.stopped,M2_2.started,M2_2.stopped,M3_2.started,M3_2.stopped,M4_2.started,M4_2.stopped,M5_2.started,M5_2.stopped,M6_2.started,M6_2.stopped,M7_2.started,M7_2.stopped,M8_2.started,M8_2.stopped,key_resp_9.started,key_resp_9.stopped,fixation.started,fixation.stopped,ET,fb_3.started,fb_3.stopped,text_9.started,text_9.stopped,fb_4.started,fb_4.stopped,text_7.started,text_7.stopped,endtext.started,endtext.stopped,fixation_ITI,CCC,Acc,participant,session,date,expName,psychopyVersion,frameRate,
,,,,,,,,,,,,,,,,,,,,,,,,,,,,,,11.01566429999366,None,right,2.151026899999124,11.01566429999366,None,,,,,,,,,,,,,,,,,,,,,,,,,,,,,,,,,,,,,,,,,,,,,,,,,,,,,,,,,,,,,,,,,,,,,,,,,,,,,,,,,,,,,,,,,11040,001,2024_Mar_13_1432,MFTM_A_new1021,2021.2.3,59.75132692956688,
,,,,,,,,,,,,,,,,,,,,,,,,,,,,,,,,,,,,13.185365999990609,None,right,2.78988599999866,13.185365999990609,None,,,,,,,,,,,,,,,,,,,,,,,,,,,,,,,,,,,,,,,,,,,,,,,,,,,,,,,,,,,,,,,,,,,,,,,,,,,,,,,,,,,11040,001,2024_Mar_13_1432,MFTM_A_new1021,2021.2.3,59.75132692956688,
,,,,,,,,,,,,,,,,,,,,,,,,,,,,,,,,,,,,,,,,,,15.989852300001075,None,right,3.377574600002845,15.989852300001075,None,,,,,,,,,,,,,,,,,,,,,,,,,,,,,,,,,,,,,,,,,,,,,,,,,,,,,,,,,,,,,,,,,,,,,,,,,,,,,11040,001,2024_Mar_13_1432,MFTM_A_new1021,2021.2.3,59.75132692956688,
-0.6,-0.6,-0.6,0.6,0.6,left,3:2,L,,,,,,,,,,,0,0,0,1,,,,,,,,,,,,,,,,,,,,,,,,,,,19.41150619999098,None,19.41150619999098,None,19.41150619999098,None,19.41150619999098,None,19.41150619999098,None,19.41150619999098,None,left,1,2.4992744000046514,19.41150619999098,None,21.949146799990558,None,,,,,,,,,,,,,,,,,,,,,,,,,,,,,,,,,,,,,,,,,,,,,,,,,,,,,,,,,,11040,001,2024_Mar_13_1432,MFTM_A_new1021,2021.2.3,59.75132692956688,
0.6,0.6,0.6,-0.6,-0.6,right,3:2,R,,,,,,,,,,,0,1,1,0,,,,,,,,,,,,,,,,,,,,,,,,,,,22.699775299988687,None,22.699775299988687,None,22.699775299988687,None,22.699775299988687,None,22.699775299988687,None,22.699775299988687,None,right,1,4.819153399992501,22.699775299988687,None,27.540101499995217,None,,,,,,,,,,,,,,,,,,,,,,,,,,,,,,,,,,,,,,,,,,,,,,,,,,,,,,,,,,11040,001,2024_Mar_13_1432,MFTM_A_new1021,2021.2.3,59.75132692956688,
0.6,0.6,0.6,-0.6,-0.6,right,3:2,R,,,,,,,,,,,1,0,2,0,,,,,,,,,,,,,,,,,,,,,,,,,,,28.29159819999768,None,28.29159819999768,None,28.29159819999768,None,28.29159819999768,None,28.29159819999768,None,28.29159819999768,None,right,1,3.003455900005065,28.29159819999768,None,31.312644999998156,None,,,,,,,,,,,,,,,,,,,,,,,,,,,,,,,,,,,,,,,,,,,,,,,,,,,,,,,,,,11040,001,2024_Mar_13_1432,MFTM_A_new1021,2021.2.3,59.75132692956688,
-0.6,-0.6,-0.6,0.6,0.6,left,3:2,L,,,,,,,,,,,1,1,3,1,,,,,,,,,,,,,,,,,,,,,,,,,,,32.06396849999146,None,32.06396849999146,None,32.06396849999146,None,32.06396849999146,None,32.06396849999146,None,32.06396849999146,None,left,1,4.9759470999997575,32.06396849999146,None,37.05472000000009,None,,,,,,,,,,,,,,,,,,,,,,,,,,,,,,,,,,,,,,,,,,,,,,,,,,,,,,,,,,11040,001,2024_Mar_13_1432,MFTM_A_new1021,2021.2.3,59.75132692956688,
,,,,,,,,stim/Instruction_mask.png,conditions/adaptive.xlsx,practice,-0.6,-0.6,-0.6,0.6,0.6,left,L,,,,,0,0,0,0,0,0,0,81,,,,,,,,,,,,,,,,,,,,,,,,,,,,,,,,,,,,,,38.089620999991894,None,left,6.99033739999868,38.089620999991894,None,45.18405359999451,None,None,0,0,45.61763579999388,None,45.61763579999388,48.623165099998005,45.61763579999388,48.623165099998005,45.61763579999388,48.623165099998005,45.61763579999388,48.623165099998005,45.61763579999388,48.623165099998005,48.60610679999809,49.106474399988656,48.60610679999809,49.106474399988656,48.60610679999809,49.106474399988656,48.60610679999809,49.106474399988656,48.60610679999809,49.106474399988656,48.60610679999809,49.106474399988656,48.60610679999809,49.106474399988656,48.60610679999809,49.106474399988656,45.61763579999388,None,49.106474399988656,49.106474399988656,3,49.122752999988734,None,49.874137599996175,None,,,,,,,,,,11040,001,2024_Mar_13_1432,MFTM_A_new1021,2021.2.3,59.75132692956688,
,,,,,,,,stim/Instruction_mask.png,conditions/adaptive.xlsx,practice,-0.6,-0.6,-0.6,0.6,0.6,left,L,,,,,0,0,0,0,0,1,1,87,,,,,,,,,,,,,,,,,,,,,,,,,,,,,,,,,,,,,,,,,,,,50.37470889999531,None,left,1,1.284185399999842,50.87555629998678,52.87936649999756,50.87555629998678,52.37786489998689,50.87555629998678,52.37786489998689,50.87555629998678,52.37786489998689,50.87555629998678,52.37786489998689,50.87555629998678,52.37786489998689,52.36105479999969,52.86279279999144,52.36105479999969,52.86279279999144,52.36105479999969,52.86279279999144,52.36105479999969,52.86279279999144,52.36105479999969,52.86279279999144,52.36105479999969,52.86279279999144,52.36105479999969,52.86279279999144,52.36105479999969,52.86279279999144,50.87555629998678,None,52.86279279999144,54.36551629999303,1.5,54.38105039999937,None,55.13179919999675,None,,,,,,,,,,11040,001,2024_Mar_13_1432,MFTM_A_new1021,2021.2.3,59.75132692956688,
,,,,,,,,stim/Instruction_mask.png,conditions/adaptive.xlsx,practice,-0.6,-0.6,-0.6,0.6,0.6,left,L,,,,,0,0,0,0,0,2,2,65,,,,,,,,,,,,,,,,,,,,,,,,,,,,,,,,,,,,,,,,,,,,55.632561699996586,None,left,1,1.001247299995157,56.13454759999877,57.43618509999942,56.13454759999877,56.93475099999341,56.13454759999877,56.93475099999341,56.13454759999877,56.93475099999341,56.13454759999877,56.93475099999341,56.13454759999877,56.93475099999341,56.918562199993175,57.4194606999954,56.918562199993175,57.4194606999954,56.918562199993175,57.4194606999954,56.918562199993175,57.4194606999954,56.918562199993175,57.4194606999954,56.918562199993175,57.4194606999954,56.918562199993175,57.4194606999954,56.918562199993175,57.4194606999954,56.13454759999877,None,57.4194606999954,59.62209799999255,0.8,59.63883209999767,None,60.38994229999662,None,,,,,,,,,,11040,001,2024_Mar_13_1432,MFTM_A_new1021,2021.2.3,59.75132692956688,
,,,,,,,,stim/Instruction_mask.png,conditions/adaptive.xlsx,practice,0.6,0.6,0.6,-0.6,-0.6,right,R,,,,,0,0,0,0,0,3,3,68,,,,,,,,,,,,,,,,,,,,,,,,,,,,,,,,,,,,,,,,,,,,60.89080309998826,None,None,0,0,61.39153599999554,62.14255689999845,61.39153599999554,61.64198499999475,61.39153599999554,61.64198499999475,61.39153599999554,61.64198499999475,61.39153599999554,61.64198499999475,61.39153599999554,61.64198499999475,61.625951299996814,62.1259088999941,61.625951299996814,62.1259088999941,61.625951299996814,62.1259088999941,61.625951299996814,62.1259088999941,61.625951299996814,62.1259088999941,61.625951299996814,62.1259088999941,61.625951299996814,62.1259088999941,61.625951299996814,62.1259088999941,61.39153599999554,None,62.1259088999941,64.88062799999898,3,64.89765729999635,None,65.64777640000102,None,,,,,,,,,,11040,001,2024_Mar_13_1432,MFTM_A_new1021,2021.2.3,59.75132692956688,
,,,,,,,,stim/Instruction_mask.png,conditions/adaptive.xlsx,practice,,,,,,,,,,,,0,0,0,0,,,,,,,,,,,,,,,,,,,,,,,,,,,,,,,,,,,,,,,,,,,,,,,,,,,,,,,,,,,,,,,,,,,,,,,,,,,,,,,,,,,,,,,,,,66.16559949998918,67.16771729999164,67.1343549000012,67.1343549000012,67.1343549000012,None,,,,11040,001,2024_Mar_13_1432,MFTM_A_new1021,2021.2.3,59.75132692956688,
,,,,,,,,stim/Instruction_adaptive.png,conditions/adaptive.xlsx,test,0.6,0.6,0.6,-0.6,-0.6,right,R,,,,,0,1,1,1,0,0,0,8,,,,,,,,,,,,,,,,,,,,,,,,,,,,,,,,,,,,,,70.28814049999346,None,left,20.568676100010634,70.28814049999346,None,90.90269299999636,None,right,1,2.821481599996332,91.40347109999857,None,91.40347109999857,94.4079716999986,91.40347109999857,94.4079716999986,91.40347109999857,94.4079716999986,91.40347109999857,94.4079716999986,91.40347109999857,94.4079716999986,94.39108750000014,94.8921338999935,94.39108750000014,94.8921338999935,94.39108750000014,94.8921338999935,94.39108750000014,94.8921338999935,94.39108750000014,94.8921338999935,94.39108750000014,94.8921338999935,94.39108750000014,94.8921338999935,94.39108750000014,94.8921338999935,91.40347109999857,None,94.8921338999935,94.8921338999935,3,94.908640499998,None,95.65992529998766,None,,,,,,,0,6.000000000000005,1.0,11040,001,2024_Mar_13_1432,MFTM_A_new1021,2021.2.3,59.75132692956688,
,,,,,,,,stim/Instruction_adaptive.png,conditions/adaptive.xlsx,test,0.6,0.6,0.6,-0.6,-0.6,right,R,,,,,0,1,1,1,0,1,1,16,,,,,,,,,,,,,,,,,,,,,,,,,,,,,,,,,,,,,,,,,,,,96.16116249999322,None,right,1,1.387542600001325,96.66130399999383,97.4130451999954,96.66130399999383,96.91260630000033,96.66130399999383,96.91260630000033,96.66130399999383,96.91260630000033,96.66130399999383,96.91260630000033,96.66130399999383,96.91260630000033,96.89570239999739,97.39640789999976,96.89570239999739,97.39640789999976,96.89570239999739,97.39640789999976,96.89570239999739,97.39640789999976,96.89570239999739,97.39640789999976,96.89570239999739,97.39640789999976,96.89570239999739,97.39640789999976,96.89570239999739,97.39640789999976,96.66130399999383,None,97.39640789999976,98.28113129999838,0.25,98.29709539999021,None,99.04824139999982,None,,,,,,,[0.875],6.000000000000005,1.0,11040,001,2024_Mar_13_1432,MFTM_A_new1021,2021.2.3,59.75132692956688,
,,,,,,,,stim/Instruction_adaptive.png,conditions/adaptive.xlsx,test,-0.6,-0.6,-0.6,0.6,0.6,left,L,,,,,0,1,1,1,0,2,2,27,,,,,,,,,,,,,,,,,,,,,,,,,,,,,,,,,,,,,,,,,,,,99.54891819998738,None,right,0,0.4636432999977842,100.04960439998831,100.80063040000095,100.04960439998831,100.30012849999184,100.04960439998831,100.30012849999184,100.04960439998831,100.30012849999184,100.04960439998831,100.30012849999184,100.04960439998831,100.30012849999184,100.28404949999822,100.78549119998934,100.28404949999822,100.78549119998934,100.28404949999822,100.78549119998934,100.28404949999822,100.78549119998934,100.28404949999822,100.78549119998934,100.28404949999822,100.78549119998934,100.28404949999822,100.78549119998934,100.28404949999822,100.78549119998934,100.04960439998831,None,100.78549119998934,102.11999539998942,0.25,102.13592139999673,None,102.88812309999776,None,,,,,,,[1.33333333],3.1800000000000024,0.6666666666666666,11040,001,2024_Mar_13_1432,MFTM_A_new1021,2021.2.3,59.75132692956688,
,,,,,,,,stim/Instruction_adaptive.png,conditions/adaptive.xlsx,test,0.6,0.6,0.6,-0.6,-0.6,right,R,,,,,0,1,1,1,0,3,3,6,,,,,,,,,,,,,,,,,,,,,,,,,,,,,,,,,,,,,,,,,,,,103.38817909998761,None,left,0,0.40839039999991655,103.88889969998854,105.12426339999365,103.88889969998854,104.623113499998,103.88889969998854,104.623113499998,103.88889969998854,104.623113499998,103.88889969998854,104.623113499998,103.88889969998854,104.623113499998,104.6075423000002,105.10786169998755,104.6075423000002,105.10786169998755,104.6075423000002,105.10786169998755,104.6075423000002,105.10786169998755,104.6075423000002,105.10786169998755,104.6075423000002,105.10786169998755,104.6075423000002,105.10786169998755,104.6075423000002,105.10786169998755,103.88889969998854,None,105.10786169998755,106.55958769998688,0.7300000000000004,106.5768296999886,None,107.32731509998848,None,,,,,,,[1.4425],1.510000000000001,0.5,11040,001,2024_Mar_13_1432,MFTM_A_new1021,2021.2.3,59.75132692956688,
,,,,,,,,stim/Instruction_adaptive.png,conditions/adaptive.xlsx,test,0.6,0.6,0.6,-0.6,-0.6,right,R,,,,,0,1,1,1,0,4,4,56,,,,,,,,,,,,,,,,,,,,,,,,,,,,,,,,,,,,,,,,,,,,107.82834279999952,None,right,1,1.5519676999974763,108.33001979999244,111.14984579999873,108.33001979999244,110.64984159999585,108.33001979999244,110.64984159999585,108.33001979999244,110.64984159999585,108.33001979999244,110.64984159999585,108.33001979999244,110.64984159999585,110.61671069999284,111.11634369999229,110.61671069999284,111.11634369999229,110.61671069999284,111.11634369999229,110.61671069999284,111.11634369999229,110.61671069999284,111.11634369999229,110.61671069999284,111.11634369999229,110.61671069999284,111.11634369999229,110.61671069999284,111.11634369999229,108.33001979999244,None,111.11634369999229,111.31666659998882,2.310000000000002,111.33339289999276,None,112.08485079999082,None,,,,,,,[[0.19]],2.2800000000000016,0.6,11040,001,2024_Mar_13_1432,MFTM_A_new1021,2021.2.3,59.75132692956688,
,,,,,,,,stim/Instruction_adaptive.png,conditions/adaptive.xlsx,test,-0.6,-0.6,-0.6,0.6,0.6,left,L,,,,,0,1,1,1,0,5,5,93,,,,,,,,,,,,,,,,,,,,,,,,,,,,,,,,,,,,,,,,,,,,112.58596299999044,None,left,1,1.9237117000011494,113.08585669999593,114.9387119999883,113.08585669999593,114.43812880000041,113.08585669999593,114.43812880000041,113.08585669999593,114.43812880000041,113.08585669999593,114.43812880000041,113.08585669999593,114.43812880000041,114.42144289999851,114.92206059998716,114.42144289999851,114.92206059998716,114.42144289999851,114.92206059998716,114.42144289999851,114.92206059998716,114.42144289999851,114.92206059998716,114.42144289999851,114.92206059998716,114.42144289999851,114.92206059998716,114.42144289999851,114.92206059998716,113.08585669999593,None,114.92206059998716,116.07477209999342,1.350000000000001,116.09081489998789,None,116.8418224999914,None,,,,,,,[[1.15]],2.7100000000000017,0.6666666666666666,11040,001,2024_Mar_13_1432,MFTM_A_new1021,2021.2.3,59.75132692956688,
,,,,,,,,stim/Instruction_adaptive.png,conditions/adaptive.xlsx,test,0.6,0.6,0.6,-0.6,-0.6,right,R,,,,,0,1,1,1,0,6,6,4,,,,,,,,,,,,,,,,,,,,,,,,,,,,,,,,,,,,,,,,,,,,117.34320489999664,None,right,1,1.3660671999969054,117.84342910000123,119.36245719999715,117.84342910000123,118.86150919999636,117.84342910000123,118.86150919999636,117.84342910000123,118.86150919999636,117.84342910000123,118.86150919999636,117.84342910000123,118.86150919999636,118.84560859999328,119.34567579999566,118.84560859999328,119.34567579999566,118.84560859999328,119.34567579999566,118.84560859999328,119.34567579999566,118.84560859999328,119.34567579999566,118.84560859999328,119.34567579999566,118.84560859999328,119.34567579999566,118.84560859999328,119.34567579999566,117.84342910000123,None,119.34567579999566,120.5822971999878,1.0100000000000007,120.59721239999635,None,121.3487380000006,None,,,,,,,[1.22857143],3.0200000000000022,0.7142857142857143,11040,001,2024_Mar_13_1432,MFTM_A_new1021,2021.2.3,59.75132692956688,
,,,,,,,,stim/Instruction_adaptive.png,conditions/adaptive.xlsx,test,-0.6,-0.6,-0.6,0.6,0.6,left,L,,,,,0,1,1,1,0,7,7,39,,,,,,,,,,,,,,,,,,,,,,,,,,,,,,,,,,,,,,,,,,,,121.85013569999137,None,left,1,1.3707240000076126,122.35077349998755,123.66940509999404,122.35077349998755,123.16778739998699,122.35077349998755,123.16778739998699,122.35077349998755,123.16778739998699,122.35077349998755,123.16778739998699,122.35077349998755,123.16778739998699,123.1511773999955,123.65260429999034,123.1511773999955,123.65260429999034,123.1511773999955,123.65260429999034,123.1511773999955,123.65260429999034,123.1511773999955,123.65260429999034,123.1511773999955,123.65260429999034,123.1511773999955,123.65260429999034,123.1511773999955,123.65260429999034,122.35077349998755,None,123.6353051999904,124.92060449998826,0.8100000000000005,124.95374149999407,None,125.7058432999911,None,,,,,,,[1.28625],3.2800000000000025,0.75,11040,001,2024_Mar_13_1432,MFTM_A_new1021,2021.2.3,59.75132692956688,
,,,,,,,,stim/Instruction_adaptive.png,conditions/adaptive.xlsx,test,-0.6,-0.6,-0.6,0.6,0.6,left,L,,,,,0,1,1,1,0,8,8,49,,,,,,,,,,,,,,,,,,,,,,,,,,,,,,,,,,,,,,,,,,,,126.20579229999566,None,right,0,1.2393239000084577,126.70657629999914,127.89154069998767,126.70657629999914,127.39104369998677,126.70657629999914,127.39104369998677,126.70657629999914,127.39104369998677,126.70657629999914,127.39104369998677,126.70657629999914,127.39104369998677,127.37414599998738,127.87548160000006,127.37414599998738,127.87548160000006,127.37414599998738,127.87548160000006,127.37414599998738,127.87548160000006,127.37414599998738,127.87548160000006,127.37414599998738,127.87548160000006,127.37414599998738,127.87548160000006,127.37414599998738,127.87548160000006,126.70657629999914,None,127.87548160000006,129.22782489999372,0.6800000000000004,129.24344419999397,None,129.9948430999939,None,,,,,,,[1.34555556],2.690000000000002,0.6666666666666666,11040,001,2024_Mar_13_1432,MFTM_A_new1021,2021.2.3,59.75132692956688,
,,,,,,,,stim/Instruction_adaptive.png,conditions/adaptive.xlsx,test,0.6,0.6,0.6,-0.6,-0.6,right,R,,,,,0,1,1,1,0,9,9,18,,,,,,,,,,,,,,,,,,,,,,,,,,,,,,,,,,,,,,,,,,,,130.49655619999976,None,right,1,2.0136634999944363,130.99626770000032,132.51584139998886,130.99626770000032,132.03120800000033,130.99626770000032,132.03120800000033,130.99626770000032,132.03120800000033,130.99626770000032,132.03120800000033,130.99626770000032,132.03120800000033,131.9979741999996,132.49961809998786,131.9979741999996,132.49961809998786,131.9979741999996,132.49961809998786,131.9979741999996,132.49961809998786,131.9979741999996,132.49961809998786,131.9979741999996,132.49961809998786,131.9979741999996,132.49961809998786,131.9979741999996,132.49961809998786,130.99626770000032,None,132.49961809998786,133.86746479998692,1.0200000000000007,133.88402620000124,None,134.63597249999293,None,,,,,,,[1.359],2.920000000000002,0.7,11040,001,2024_Mar_13_1432,MFTM_A_new1021,2021.2.3,59.75132692956688,
,,,,,,,,stim/Instruction_adaptive.png,conditions/adaptive.xlsx,test,-0.6,-0.6,-0.6,0.6,0.6,left,L,,,,,0,1,1,1,0,10,10,7,,,,,,,,,,,,,,,,,,,,,,,,,,,,,,,,,,,,,,,,,,,,135.13644839999324,None,right,0,1.6133086000045296,135.63670869999623,137.02224919998844,135.63670869999623,136.52186949999304,135.63670869999623,136.52186949999304,135.63670869999623,136.52186949999304,135.63670869999623,136.52186949999304,135.63670869999623,136.52186949999304,136.48891479999293,136.9888282999891,136.48891479999293,136.9888282999891,136.48891479999293,136.9888282999891,136.48891479999293,136.9888282999891,136.48891479999293,136.9888282999891,136.48891479999293,136.9888282999891,136.48891479999293,136.9888282999891,136.48891479999293,136.9888282999891,135.63670869999623,None,136.9888282999891,138.3747216999909,0.8700000000000006,138.3902073999925,None,139.14186369998788,None,,,,,,,[1.38363636],2.370000000000002,0.6363636363636364,11040,001,2024_Mar_13_1432,MFTM_A_new1021,2021.2.3,59.75132692956688,
,,,,,,,,stim/Instruction_adaptive.png,conditions/adaptive.xlsx,test,0.6,0.6,0.6,-0.6,-0.6,right,R,,,,,0,1,1,1,0,11,11,24,,,,,,,,,,,,,,,,,,,,,,,,,,,,,,,,,,,,,,,,,,,,139.64277159998892,None,right,1,2.378796000004513,140.14344519999577,141.91286599999876,140.14344519999577,141.4287878999894,140.14344519999577,141.4287878999894,140.14344519999577,141.4287878999894,140.14344519999577,141.4287878999894,140.14344519999577,141.4287878999894,141.3954098999966,141.89603079999506,141.3954098999966,141.89603079999506,141.3954098999966,141.89603079999506,141.3954098999966,141.89603079999506,141.3954098999966,141.89603079999506,141.3954098999966,141.89603079999506,141.3954098999966,141.89603079999506,141.3954098999966,141.89603079999506,140.14344519999577,None,141.89603079999506,143.1314754999912,1.270000000000001,143.1480123999936,None,143.8990885999956,None,,,,,,,[[1.23]],2.5900000000000016,0.6666666666666666,11040,001,2024_Mar_13_1432,MFTM_A_new1021,2021.2.3,59.75132692956688,
,,,,,,,,stim/Instruction_adaptive.png,conditions/adaptive.xlsx,test,-0.6,-0.6,-0.6,0.6,0.6,left,L,,,,,0,1,1,1,0,12,12,43,,,,,,,,,,,,,,,,,,,,,,,,,,,,,,,,,,,,,,,,,,,,144.40066859999206,None,left,1,2.061479199997848,144.90066889999434,146.50321019999683,144.90066889999434,146.00232719999622,144.90066889999434,146.00232719999622,144.90066889999434,146.00232719999622,144.90066889999434,146.00232719999622,144.90066889999434,146.00232719999622,145.968904999987,146.46992029999092,145.968904999987,146.46992029999092,145.968904999987,146.46992029999092,145.968904999987,146.46992029999092,145.968904999987,146.46992029999092,145.968904999987,146.46992029999092,145.968904999987,146.46992029999092,145.968904999987,146.46992029999092,144.90066889999434,None,146.46992029999092,147.85512039999594,1.0900000000000007,147.87180499998794,None,148.62277209998865,None,,,,,,,[1.37384615],2.7700000000000022,0.6923076923076923,11040,001,2024_Mar_13_1432,MFTM_A_new1021,2021.2.3,59.75132692956688,
,,,,,,,,stim/Instruction_adaptive.png,conditions/adaptive.xlsx,test,-0.6,-0.6,-0.6,0.6,0.6,left,L,,,,,0,1,1,1,0,13,13,63,,,,,,,,,,,,,,,,,,,,,,,,,,,,,,,,,,,,,,,,,,,,149.12470999998914,None,None,0,0,149.62524479998683,151.09359959998983,149.62524479998683,150.59262269998726,149.62524479998683,150.59262269998726,149.62524479998683,150.59262269998726,149.62524479998683,150.59262269998726,149.62524479998683,150.59262269998726,150.55917670000053,151.06009469999117,150.55917670000053,151.06009469999117,150.55917670000053,151.06009469999117,150.55917670000053,151.06009469999117,150.55917670000053,151.06009469999117,150.55917670000053,151.06009469999117,150.55917670000053,151.06009469999117,150.55917670000053,151.06009469999117,149.62524479998683,None,151.06009469999117,153.11384120000002,0.9600000000000006,153.1295495999948,None,153.88102539999818,None,,,,,,,[[2.04]],2.3200000000000016,0.6428571428571429,11040,001,2024_Mar_13_1432,MFTM_A_new1021,2021.2.3,59.75132692956688,
,,,,,,,,stim/Instruction_adaptive.png,conditions/adaptive.xlsx,test,0.6,0.6,0.6,-0.6,-0.6,right,R,,,,,0,1,1,1,0,14,14,46,,,,,,,,,,,,,,,,,,,,,,,,,,,,,,,,,,,,,,,,,,,,154.38255739999295,None,right,1,1.8881156999996165,154.88230759999715,156.70161189998908,154.88230759999715,156.20109189998766,154.88230759999715,156.20109189998766,154.88230759999715,156.20109189998766,154.88230759999715,156.20109189998766,154.88230759999715,156.20109189998766,156.18624669998826,156.70161189998908,156.18624669998826,156.70161189998908,156.18624669998826,156.70161189998908,156.18624669998826,156.70161189998908,156.18624669998826,156.70161189998908,156.18624669998826,156.70161189998908,156.18624669998826,156.70161189998908,156.18624669998826,156.70161189998908,154.88230759999715,None,156.68488269999216,157.87038889998803,1.320000000000001,157.88679989999218,None,158.6380533999909,None,,,,,,,[[1.18]],2.490000000000002,0.6666666666666666,11040,001,2024_Mar_13_1432,MFTM_A_new1021,2021.2.3,59.75132692956688,
,,,,,,,,stim/Instruction_adaptive.png,conditions/adaptive.xlsx,test,0.6,0.6,0.6,-0.6,-0.6,right,R,,,,,0,1,1,1,0,15,15,36,,,,,,,,,,,,,,,,,,,,,,,,,,,,,,,,,,,,,,,,,,,,159.13879309999174,None,left,0,2.3153606000123546,159.63950869999826,161.30874009999388,159.63950869999826,160.82533569999214,159.63950869999826,160.82533569999214,159.63950869999826,160.82533569999214,159.63950869999826,160.82533569999214,159.63950869999826,160.82533569999214,160.79140489999554,161.2919191999972,160.79140489999554,161.2919191999972,160.79140489999554,161.2919191999972,160.79140489999554,161.2919191999972,160.79140489999554,161.2919191999972,160.79140489999554,161.2919191999972,160.79140489999554,161.2919191999972,160.79140489999554,161.2919191999972,159.63950869999826,None,161.2919191999972,162.6281822999881,1.1700000000000008,162.6434420000005,None,163.3957614999963,None,,,,,,,[[1.33]],2.0400000000000014,0.625,11040,001,2024_Mar_13_1432,MFTM_A_new1021,2021.2.3,59.75132692956688,
,,,,,,,,stim/Instruction_adaptive.png,conditions/adaptive.xlsx,test,0.6,0.6,0.6,-0.6,-0.6,right,R,,,,,0,1,1,1,0,16,16,68,,,,,,,,,,,,,,,,,,,,,,,,,,,,,,,,,,,,,,,,,,,,163.8961266999977,None,right,1,2.126278800002183,164.39656709998962,166.49973640000098,164.39656709998962,165.99918479999178,164.39656709998962,165.99918479999178,164.39656709998962,165.99918479999178,164.39656709998962,165.99918479999178,164.39656709998962,165.99918479999178,165.9825770999887,166.4830890000012,165.9825770999887,166.4830890000012,165.9825770999887,166.4830890000012,165.9825770999887,166.4830890000012,165.9825770999887,166.4830890000012,165.9825770999887,166.4830890000012,165.9825770999887,166.4830890000012,165.9825770999887,166.4830890000012,164.39656709998962,None,166.4830890000012,167.3850792000012,1.6000000000000012,167.40122169999813,None,168.15238529999624,None,,,,,,,[[0.9]],2.2200000000000015,0.6470588235294118,11040,001,2024_Mar_13_1432,MFTM_A_new1021,2021.2.3,59.75132692956688,
,,,,,,,,stim/Instruction_adaptive.png,conditions/adaptive.xlsx,test,-0.6,-0.6,-0.6,0.6,0.6,left,L,,,,,0,1,1,1,0,17,17,69,,,,,,,,,,,,,,,,,,,,,,,,,,,,,,,,,,,,,,,,,,,,168.65312979998998,None,left,1,1.6084805999998935,169.1548635999934,171.07340509998903,169.1548635999934,170.5727620999969,169.1548635999934,170.5727620999969,169.1548635999934,170.5727620999969,169.1548635999934,170.5727620999969,169.1548635999934,170.5727620999969,170.53926579999097,171.03996449999977,170.53926579999097,171.03996449999977,170.53926579999097,171.03996449999977,170.53926579999097,171.03996449999977,170.53926579999097,171.03996449999977,170.53926579999097,171.03996449999977,170.53926579999097,171.03996449999977,170.53926579999097,171.03996449999977,169.1548635999934,None,171.03996449999977,172.1417020999943,1.410000000000001,172.15841179998824,None,172.9094871999987,None,,,,,,,[[1.09]],2.3600000000000017,0.6666666666666666,11040,001,2024_Mar_13_1432,MFTM_A_new1021,2021.2.3,59.75132692956688,
,,,,,,,,stim/Instruction_adaptive.png,conditions/adaptive.xlsx,test,-0.6,-0.6,-0.6,0.6,0.6,left,L,,,,,0,1,1,1,0,18,18,59,,,,,,,,,,,,,,,,,,,,,,,,,,,,,,,,,,,,,,,,,,,,173.4102087999927,None,left,1,1.8110768000042299,173.91176919999998,175.69747020000068,173.91176919999998,175.1968862999929,173.91176919999998,175.1968862999929,173.91176919999998,175.1968862999929,173.91176919999998,175.1968862999929,173.91176919999998,175.1968862999929,175.180483499993,175.68039149999095,175.180483499993,175.68039149999095,175.180483499993,175.68039149999095,175.180483499993,175.68039149999095,175.180483499993,175.68039149999095,175.180483499993,175.68039149999095,175.180483499993,175.68039149999095,175.180483499993,175.68039149999095,173.91176919999998,None,175.68039149999095,None,1.280000000000001,176.91540499999246,None,177.6667119999911,None,,,,,,,[[1.22]],2.490000000000002,0.6842105263157895,11040,001,2024_Mar_13_1432,MFTM_A_new1021,2021.2.3,59.75132692956688,
,,,,,,,,stim/Instruction_adaptive.png,conditions/adaptive.xlsx,test,0.6,0.6,0.6,-0.6,-0.6,right,R,,,,,0,1,1,1,0,19,19,90,,,,,,,,,,,,,,,,,,,,,,,,,,,,,,,,,,,,,,,,,,,,178.16762729999027,None,right,1,1.638694499997655,178.66848639999807,180.3374588999868,178.66848639999807,179.8533250999899,178.66848639999807,179.8533250999899,178.66848639999807,179.8533250999899,178.66848639999807,179.8533250999899,178.66848639999807,179.8533250999899,179.81990259999293,180.32076689999667,179.81990259999293,180.32076689999667,179.81990259999293,180.32076689999667,179.81990259999293,180.32076689999667,179.81990259999293,180.32076689999667,179.81990259999293,180.32076689999667,179.81990259999293,180.32076689999667,179.81990259999293,180.32076689999667,178.66848639999807,None,180.32076689999667,181.65584349998971,1.1700000000000008,181.67256759999145,None,182.4240323999984,None,,,,,,,[1.3225],2.600000000000002,0.7,11040,001,2024_Mar_13_1432,MFTM_A_new1021,2021.2.3,59.75132692956688,
,,,,,,,,stim/Instruction_adaptive.png,conditions/adaptive.xlsx,test,-0.6,-0.6,-0.6,0.6,0.6,left,L,,,,,0,1,1,1,0,20,20,15,,,,,,,,,,,,,,,,,,,,,,,,,,,,,,,,,,,,,,,,,,,,182.92457229999127,None,left,1,1.544949999995879,183.4263854999881,185.0279157999903,183.4263854999881,184.52707549999468,183.4263854999881,184.52707549999468,183.4263854999881,184.52707549999468,183.4263854999881,184.52707549999468,183.4263854999881,184.52707549999468,184.4944026999874,184.99424989998806,184.4944026999874,184.99424989998806,184.4944026999874,184.99424989998806,184.4944026999874,184.99424989998806,184.4944026999874,184.99424989998806,184.4944026999874,184.99424989998806,184.4944026999874,184.99424989998806,184.4944026999874,184.99424989998806,183.4263854999881,None,184.99424989998806,186.32960779999848,1.0900000000000007,186.34635649999836,None,187.09778309999092,None,,,,,,,[1.32666667],2.700000000000002,0.7142857142857143,11040,001,2024_Mar_13_1432,MFTM_A_new1021,2021.2.3,59.75132692956688,
,,,,,,,,stim/Instruction_adaptive.png,conditions/adaptive.xlsx,test,0.6,0.6,0.6,-0.6,-0.6,right,R,,,,,0,1,1,1,0,21,21,78,,,,,,,,,,,,,,,,,,,,,,,,,,,,,,,,,,,,,,,,,,,,187.59836799999175,None,right,1,1.6166827999986708,188.09916699999303,189.61806219999562,188.09916699999303,189.1174186999997,188.09916699999303,189.1174186999997,188.09916699999303,189.1174186999997,188.09916699999303,189.1174186999997,188.09916699999303,189.1174186999997,189.08393129998876,189.5855198999925,189.08393129998876,189.5855198999925,189.08393129998876,189.5855198999925,189.08393129998876,189.5855198999925,189.08393129998876,189.5855198999925,189.08393129998876,189.5855198999925,189.08393129998876,189.5855198999925,189.08393129998876,189.5855198999925,188.09916699999303,None,189.5855198999925,190.9213611999876,1.0100000000000007,190.9534236999898,None,191.70451529999264,None,,,,,,,[1.33409091],2.790000000000002,0.7272727272727273,11040,001,2024_Mar_13_1432,MFTM_A_new1021,2021.2.3,59.75132692956688,
,,,,,,,,stim/Instruction_adaptive.png,conditions/adaptive.xlsx,test,0.6,0.6,0.6,-0.6,-0.6,right,R,,,,,0,1,1,1,0,22,22,94,,,,,,,,,,,,,,,,,,,,,,,,,,,,,,,,,,,,,,,,,,,,192.20536249999714,None,left,0,1.0971682999952463,192.7066705999896,194.1583127999911,192.7066705999896,193.65758229998755,192.7066705999896,193.65758229998755,192.7066705999896,193.65758229998755,192.7066705999896,193.65758229998755,192.7066705999896,193.65758229998755,193.64183789999515,194.1425128999981,193.64183789999515,194.1425128999981,193.64183789999515,194.1425128999981,193.64183789999515,194.1425128999981,193.64183789999515,194.1425128999981,193.64183789999515,194.1425128999981,193.64183789999515,194.1425128999981,193.64183789999515,194.1425128999981,192.7066705999896,None,194.1425128999981,195.49357859999873,0.9500000000000006,195.51033249999455,None,196.26231589999225,None,,,,,,,[1.34347826],2.540000000000002,0.6956521739130435,11040,001,2024_Mar_13_1432,MFTM_A_new1021,2021.2.3,59.75132692956688,
,,,,,,,,stim/Instruction_adaptive.png,conditions/adaptive.xlsx,test,0.6,0.6,0.6,-0.6,-0.6,right,R,,,,,0,1,1,1,0,23,23,64,,,,,,,,,,,,,,,,,,,,,,,,,,,,,,,,,,,,,,,,,,,,196.76207669998985,None,right,1,1.7397501000086777,197.2642538999935,198.89885089999007,197.2642538999935,198.39928619998682,197.2642538999935,198.39928619998682,197.2642538999935,198.39928619998682,197.2642538999935,198.39928619998682,197.2642538999935,198.39928619998682,198.3651591999951,198.8663505000004,198.3651591999951,198.8663505000004,198.3651591999951,198.8663505000004,198.3651591999951,198.8663505000004,198.3651591999951,198.8663505000004,198.3651591999951,198.8663505000004,198.3651591999951,198.8663505000004,198.3651591999951,198.8663505000004,197.2642538999935,None,198.8663505000004,200.21794539999973,1.1300000000000008,200.25082269999257,None,201.00271479999356,None,,,,,,,[1.34458333],2.6300000000000017,0.7083333333333334,11040,001,2024_Mar_13_1432,MFTM_A_new1021,2021.2.3,59.75132692956688,
,,,,,,,,stim/Instruction_adaptive.png,conditions/adaptive.xlsx,test,-0.6,-0.6,-0.6,0.6,0.6,left,L,,,,,0,1,1,1,0,24,24,3,,,,,,,,,,,,,,,,,,,,,,,,,,,,,,,,,,,,,,,,,,,,201.5024315999908,None,right,0,2.104436600013287,202.00333349998982,203.57248559998698,202.00333349998982,203.07322049999493,202.00333349998982,203.07322049999493,202.00333349998982,203.07322049999493,202.00333349998982,203.07322049999493,202.00333349998982,203.07322049999493,203.0557434999937,203.55580059999193,203.0557434999937,203.55580059999193,203.0557434999937,203.55580059999193,203.0557434999937,203.55580059999193,203.0557434999937,203.55580059999193,203.0557434999937,203.55580059999193,203.0557434999937,203.55580059999193,203.0557434999937,203.55580059999193,202.00333349998982,None,203.53920499999367,204.89142179999908,1.0600000000000007,204.92431209998904,None,205.67557829999714,None,,,,,,,[1.3484],2.3800000000000017,0.68,11040,001,2024_Mar_13_1432,MFTM_A_new1021,2021.2.3,59.75132692956688,
,,,,,,,,stim/Instruction_adaptive.png,conditions/adaptive.xlsx,test,-0.6,-0.6,-0.6,0.6,0.6,left,L,,,,,0,1,1,1,0,25,25,89,,,,,,,,,,,,,,,,,,,,,,,,,,,,,,,,,,,,,,,,,,,,206.1763454999891,None,left,1,1.3993097000056878,206.67705209999986,208.44632339999953,206.67705209999986,207.9470364000008,206.67705209999986,207.9470364000008,206.67705209999986,207.9470364000008,206.67705209999986,207.9470364000008,206.67705209999986,207.9470364000008,207.929078199988,208.4295284999971,207.929078199988,208.4295284999971,207.929078199988,208.4295284999971,207.929078199988,208.4295284999971,207.929078199988,208.4295284999971,207.929078199988,208.4295284999971,207.929078199988,208.4295284999971,207.929078199988,208.4295284999971,206.67705209999986,None,208.41315439999744,209.6649432999984,1.260000000000001,209.68165059998864,None,210.43489520000003,None,,,,,,,[[1.24]],2.4800000000000018,0.6923076923076923,11040,001,2024_Mar_13_1432,MFTM_A_new1021,2021.2.3,59.75132692956688,
,,,,,,,,stim/Instruction_adaptive.png,conditions/adaptive.xlsx,test,0.6,0.6,0.6,-0.6,-0.6,right,R,,,,,0,1,1,1,0,26,26,12,,,,,,,,,,,,,,,,,,,,,,,,,,,,,,,,,,,,,,,,,,,,210.93376999998873,None,right,1,1.7610777000081725,211.4348878999881,213.1210471999948,211.4348878999881,212.61928849999094,211.4348878999881,212.61928849999094,211.4348878999881,212.61928849999094,211.4348878999881,212.61928849999094,211.4348878999881,212.61928849999094,212.60289759999432,213.10397339999327,212.60289759999432,213.10397339999327,212.60289759999432,213.10397339999327,212.60289759999432,213.10397339999327,212.60289759999432,213.10397339999327,212.60289759999432,213.10397339999327,212.60289759999432,213.10397339999327,212.60289759999432,213.10397339999327,211.4348878999881,None,213.08758889998717,214.4222052999976,1.1800000000000008,214.43890339999052,None,215.1899468999909,None,,,,,,,[[1.32]],2.560000000000002,0.7037037037037037,11040,001,2024_Mar_13_1432,MFTM_A_new1021,2021.2.3,59.75132692956688,
,,,,,,,,stim/Instruction_adaptive.png,conditions/adaptive.xlsx,test,0.6,0.6,0.6,-0.6,-0.6,right,R,,,,,0,1,1,1,0,27,27,66,,,,,,,,,,,,,,,,,,,,,,,,,,,,,,,,,,,,,,,,,,,,215.69066409999505,None,right,1,1.2361787999980152,216.19203279999783,217.81093659999897,216.19203279999783,217.32743130000017,216.19203279999783,217.32743130000017,216.19203279999783,217.32743130000017,216.19203279999783,217.32743130000017,216.19203279999783,217.32743130000017,217.2939314999967,217.79458229999,217.2939314999967,217.79458229999,217.2939314999967,217.79458229999,217.2939314999967,217.79458229999,217.2939314999967,217.79458229999,217.2939314999967,217.79458229999,217.2939314999967,217.79458229999,217.2939314999967,217.79458229999,216.19203279999783,None,217.79458229999,219.14689859999635,1.1200000000000008,219.16239829998813,None,219.9138923999999,None,,,,,,,[1.34464286],2.6300000000000017,0.7142857142857143,11040,001,2024_Mar_13_1432,MFTM_A_new1021,2021.2.3,59.75132692956688,
,,,,,,,,stim/Instruction_adaptive.png,conditions/adaptive.xlsx,test,-0.6,-0.6,-0.6,0.6,0.6,left,L,,,,,0,1,1,1,0,28,28,5,,,,,,,,,,,,,,,,,,,,,,,,,,,,,,,,,,,,,,,,,,,,220.41449619999912,None,left,1,1.7930263999878662,220.91524989999016,222.4847383999877,220.91524989999016,221.9834234999871,220.91524989999016,221.9834234999871,220.91524989999016,221.9834234999871,220.91524989999016,221.9834234999871,220.91524989999016,221.9834234999871,221.9682571000012,222.46815689999494,221.9682571000012,222.46815689999494,221.9682571000012,222.46815689999494,221.9682571000012,222.46815689999494,221.9682571000012,222.46815689999494,221.9682571000012,222.46815689999494,221.9682571000012,222.46815689999494,221.9682571000012,222.46815689999494,220.91524989999016,None,222.46815689999494,223.82041339999705,1.0600000000000007,223.83607510000002,None,224.5875304999936,None,,,,,,,[1.34793103],2.700000000000002,0.7241379310344828,11040,001,2024_Mar_13_1432,MFTM_A_new1021,2021.2.3,59.75132692956688,
,,,,,,,,stim/Instruction_adaptive.png,conditions/adaptive.xlsx,test,0.6,0.6,0.6,-0.6,-0.6,right,R,,,,,0,1,1,1,0,29,29,98,,,,,,,,,,,,,,,,,,,,,,,,,,,,,,,,,,,,,,,,,,,,225.08891429999494,None,right,1,1.840087799995672,225.58894229998987,227.1079000999889,225.58894229998987,226.60729449999053,225.58894229998987,226.60729449999053,225.58894229998987,226.60729449999053,225.58894229998987,226.60729449999053,225.58894229998987,226.60729449999053,226.57392349999282,227.0745203999977,226.57392349999282,227.0745203999977,226.57392349999282,227.0745203999977,226.57392349999282,227.0745203999977,226.57392349999282,227.0745203999977,226.57392349999282,227.0745203999977,226.57392349999282,227.0745203999977,226.57392349999282,227.0745203999977,225.58894229998987,None,227.0745203999977,228.4274402999872,1.0100000000000007,228.46010149999347,None,229.2110917999962,None,,,,,,,[1.35266667],2.7700000000000022,0.7333333333333333,11040,001,2024_Mar_13_1432,MFTM_A_new1021,2021.2.3,59.75132692956688,
,,,,,,,,stim/Instruction_adaptive.png,conditions/adaptive.xlsx,test,0.6,0.6,0.6,-0.6,-0.6,right,R,,,,,0,1,1,1,0,30,30,0,,,,,,,,,,,,,,,,,,,,,,,,,,,,,,,,,,,,,,,,,,,,229.71179899999697,None,right,1,1.464057999997749,230.2126772999909,231.6814566999965,230.2126772999909,231.18058219998784,230.2126772999909,231.18058219998784,230.2126772999909,231.18058219998784,230.2126772999909,231.18058219998784,230.2126772999909,231.18058219998784,231.1638768999983,231.66513599999598,231.1638768999983,231.66513599999598,231.1638768999983,231.66513599999598,231.1638768999983,231.66513599999598,231.1638768999983,231.66513599999598,231.1638768999983,231.66513599999598,231.1638768999983,231.66513599999598,231.1638768999983,231.66513599999598,230.2126772999909,None,231.64831209999102,233.01767199998721,0.9600000000000006,233.0333910999907,None,233.78537749999668,None,,,,,,,[1.35870968],2.830000000000002,0.7419354838709677,11040,001,2024_Mar_13_1432,MFTM_A_new1021,2021.2.3,59.75132692956688,
,,,,,,,,stim/Instruction_adaptive.png,conditions/adaptive.xlsx,test,-0.6,-0.6,-0.6,0.6,0.6,left,L,,,,,0,1,1,1,0,31,31,61,,,,,,,,,,,,,,,,,,,,,,,,,,,,,,,,,,,,,,,,,,,,234.28544759999204,None,left,1,2.098797200000263,234.78614820000075,236.22221659999923,234.78614820000075,235.72121299999708,234.78614820000075,235.72121299999708,234.78614820000075,235.72121299999708,234.78614820000075,235.72121299999708,234.78614820000075,235.72121299999708,235.7041723000002,236.20496239999193,235.7041723000002,236.20496239999193,235.7041723000002,236.20496239999193,235.7041723000002,236.20496239999193,235.7041723000002,236.20496239999193,235.7041723000002,236.20496239999193,235.7041723000002,236.20496239999193,235.7041723000002,236.20496239999193,234.78614820000075,None,236.20496239999193,237.57369099999778,0.9300000000000006,237.59026539999468,None,238.34134879999328,None,,,,,,,[1.3653125],2.8900000000000023,0.75,11040,001,2024_Mar_13_1432,MFTM_A_new1021,2021.2.3,59.75132692956688,
,,,,,,,,stim/Instruction_adaptive.png,conditions/adaptive.xlsx,test,-0.6,-0.6,-0.6,0.6,0.6,left,L,,,,,0,1,1,1,0,32,32,17,,,,,,,,,,,,,,,,,,,,,,,,,,,,,,,,,,,,,,,,,,,,238.84357169999566,None,left,1,1.1817688000010094,239.34318139999232,240.74501039998722,239.34318139999232,240.24436729999434,239.34318139999232,240.24436729999434,239.34318139999232,240.24436729999434,239.34318139999232,240.24436729999434,239.34318139999232,240.24436729999434,240.21114879999368,240.7116504000005,240.21114879999368,240.7116504000005,240.21114879999368,240.7116504000005,240.21114879999368,240.7116504000005,240.21114879999368,240.7116504000005,240.21114879999368,240.7116504000005,240.21114879999368,240.7116504000005,240.21114879999368,240.7116504000005,239.34318139999232,None,240.7116504000005,242.09737719999976,0.8900000000000006,242.11384609999368,None,242.8650842999923,None,,,,,,,[1.37272727],2.940000000000002,0.7575757575757576,11040,001,2024_Mar_13_1432,MFTM_A_new1021,2021.2.3,59.75132692956688,
,,,,,,,,stim/Instruction_adaptive.png,conditions/adaptive.xlsx,test,0.6,0.6,0.6,-0.6,-0.6,right,R,,,,,0,1,1,1,0,33,33,86,,,,,,,,,,,,,,,,,,,,,,,,,,,,,,,,,,,,,,,,,,,,243.36627419998695,None,left,0,1.5307149000000209,243.8663467999868,245.23527209999156,243.8663467999868,244.7342828999972,243.8663467999868,244.7342828999972,243.8663467999868,244.7342828999972,243.8663467999868,244.7342828999972,243.8663467999868,244.7342828999972,244.70111280000128,245.2023377000005,244.70111280000128,245.2023377000005,244.70111280000128,245.2023377000005,244.70111280000128,245.2023377000005,244.70111280000128,245.2023377000005,244.70111280000128,245.2023377000005,244.70111280000128,245.2023377000005,244.70111280000128,245.2023377000005,243.8663467999868,None,245.2023377000005,246.58981239999412,0.8600000000000005,246.60369989999162,None,247.35511959998985,None,,,,,,,[1.38058824],2.790000000000002,0.7352941176470589,11040,001,2024_Mar_13_1432,MFTM_A_new1021,2021.2.3,59.75132692956688,
,,,,,,,,stim/Instruction_adaptive.png,conditions/adaptive.xlsx,test,-0.6,-0.6,-0.6,0.6,0.6,left,L,,,,,0,1,1,1,0,34,34,99,,,,,,,,,,,,,,,,,,,,,,,,,,,,,,,,,,,,,,,,,,,,247.85568090000015,None,left,1,1.0245411000068998,248.35662179999053,249.80875430000015,248.35662179999053,249.3088878999988,248.35662179999053,249.3088878999988,248.35662179999053,249.3088878999988,248.35662179999053,249.3088878999988,248.35662179999053,249.3088878999988,249.2921551999898,249.7927803999919,249.2921551999898,249.7927803999919,249.2921551999898,249.7927803999919,249.2921551999898,249.7927803999919,249.2921551999898,249.7927803999919,249.2921551999898,249.7927803999919,249.2921551999898,249.7927803999919,249.2921551999898,249.7927803999919,248.35662179999053,None,249.7927803999919,251.1774704999989,0.9500000000000006,251.1942713999888,None,251.9461891999963,None,,,,,,,[1.38542857],2.840000000000002,0.7428571428571429,11040,001,2024_Mar_13_1432,MFTM_A_new1021,2021.2.3,59.75132692956688,
,,,,,,,,stim/Instruction_adaptive.png,conditions/adaptive.xlsx,test,-0.6,-0.6,-0.6,0.6,0.6,left,L,,,,,0,1,1,1,0,35,35,1,,,,,,,,,,,,,,,,,,,,,,,,,,,,,,,,,,,,,,,,,,,,252.44718449999345,None,right,0,2.0733185000135563,252.94779059999564,254.38321749999886,252.94779059999564,253.8829340999946,252.94779059999564,253.8829340999946,252.94779059999564,253.8829340999946,252.94779059999564,253.8829340999946,252.94779059999564,253.8829340999946,253.8487046999944,254.34951469999214,253.8487046999944,254.34951469999214,253.8487046999944,254.34951469999214,253.8487046999944,254.34951469999214,253.8487046999944,254.34951469999214,253.8487046999944,254.34951469999214,253.8487046999944,254.34951469999214,253.8487046999944,254.34951469999214,252.94779059999564,None,254.34951469999214,255.75082799998927,0.9200000000000006,255.76767219998874,None,256.5190919999877,None,,,,,,,[1.39083333],2.690000000000002,0.7222222222222222,11040,001,2024_Mar_13_1432,MFTM_A_new1021,2021.2.3,59.75132692956688,
,,,,,,,,stim/Instruction_adaptive.png,conditions/adaptive.xlsx,test,0.6,0.6,0.6,-0.6,-0.6,right,R,,,,,0,1,1,1,0,36,36,82,,,,,,,,,,,,,,,,,,,,,,,,,,,,,,,,,,,,,,,,,,,,257.0194166000001,None,left,0,1.7969371000071988,257.5205127999943,259.05687109999417,257.5205127999943,258.55511089999345,257.5205127999943,258.55511089999345,257.5205127999943,258.55511089999345,257.5205127999943,258.55511089999345,257.5205127999943,258.55511089999345,258.52182470000116,259.0226115999976,258.52182470000116,259.0226115999976,258.52182470000116,259.0226115999976,258.52182470000116,259.0226115999976,258.52182470000116,259.0226115999976,258.52182470000116,259.0226115999976,258.52182470000116,259.0226115999976,258.52182470000116,259.0226115999976,257.5205127999943,None,259.0226115999976,260.42473909999535,1.0200000000000007,260.44149209999887,None,261.1926803999959,None,,,,,,,[1.39324324],2.520000000000002,0.7027027027027027,11040,001,2024_Mar_13_1432,MFTM_A_new1021,2021.2.3,59.75132692956688,
,,,,,,,,stim/Instruction_adaptive.png,conditions/adaptive.xlsx,test,0.6,0.6,0.6,-0.6,-0.6,right,R,,,,,0,1,1,1,0,37,37,54,,,,,,,,,,,,,,,,,,,,,,,,,,,,,,,,,,,,,,,,,,,,261.69334709999384,None,right,1,1.1075121000030776,262.1938710999966,263.84666079998715,262.1938710999966,263.3466919999919,262.1938710999966,263.3466919999919,262.1938710999966,263.3466919999919,262.1938710999966,263.3466919999919,262.1938710999966,263.3466919999919,263.3293294999894,263.8307954999909,263.3293294999894,263.8307954999909,263.3293294999894,263.8307954999909,263.3293294999894,263.8307954999909,263.3293294999894,263.8307954999909,263.3293294999894,263.8307954999909,263.3293294999894,263.8307954999909,263.3293294999894,263.8307954999909,262.1938710999966,None,263.8307954999909,265.1824856999883,1.1500000000000008,265.1986416,None,265.9505169999902,None,,,,,,,[[1.35]],2.580000000000002,0.7105263157894737,11040,001,2024_Mar_13_1432,MFTM_A_new1021,2021.2.3,59.75132692956688,
,,,,,,,,stim/Instruction_adaptive.png,conditions/adaptive.xlsx,test,-0.6,-0.6,-0.6,0.6,0.6,left,L,,,,,0,1,1,1,0,38,38,33,,,,,,,,,,,,,,,,,,,,,,,,,,,,,,,,,,,,,,,,,,,,266.4505930999876,None,left,1,2.382113300001947,266.9517160999967,268.5535327999969,266.9517160999967,268.0530122999917,266.9517160999967,268.0530122999917,266.9517160999967,268.0530122999917,266.9517160999967,268.0530122999917,266.9517160999967,268.0530122999917,268.03606169999694,268.5372866999969,268.03606169999694,268.5372866999969,268.03606169999694,268.5372866999969,268.03606169999694,268.5372866999969,268.03606169999694,268.5372866999969,268.03606169999694,268.5372866999969,268.03606169999694,268.5372866999969,268.03606169999694,268.5372866999969,266.9517160999967,None,268.5372866999969,269.9389852999884,1.1000000000000008,269.956465700001,None,270.7075693999941,None,,,,,,,[1.39230769],2.640000000000002,0.717948717948718,11040,001,2024_Mar_13_1432,MFTM_A_new1021,2021.2.3,59.75132692956688,
,,,,,,,,stim/Instruction_adaptive.png,conditions/adaptive.xlsx,test,-0.6,-0.6,-0.6,0.6,0.6,left,L,,,,,0,1,1,1,0,39,39,95,,,,,,,,,,,,,,,,,,,,,,,,,,,,,,,,,,,,,,,,,,,,271.20853689999785,None,left,1,1.3697342999948887,271.7084104999958,273.2780058999924,271.7084104999958,272.7766486999899,271.7084104999958,272.7766486999899,271.7084104999958,272.7766486999899,271.7084104999958,272.7766486999899,271.7084104999958,272.7766486999899,272.7439519999898,273.2445183999953,272.7439519999898,273.2445183999953,272.7439519999898,273.2445183999953,272.7439519999898,273.2445183999953,272.7439519999898,273.2445183999953,272.7439519999898,273.2445183999953,272.7439519999898,273.2445183999953,272.7439519999898,273.2445183999953,271.7084104999958,None,273.2445183999953,274.64712559999316,1.0600000000000007,274.6628639999981,None,275.4138275000005,None,,,,,,,[1.3935],2.690000000000002,0.725,11040,001,2024_Mar_13_1432,MFTM_A_new1021,2021.2.3,59.75132692956688,
,,,,,,,,stim/Instruction_adaptive.png,conditions/adaptive.xlsx,test,0.6,0.6,0.6,-0.6,-0.6,right,R,,,,,0,1,1,1,0,40,40,92,,,,,,,,,,,,,,,,,,,,,,,,,,,,,,,,,,,,,,,,,,,,275.91463929999736,None,right,1,1.4692113000055542,276.41649869999674,277.9515844999987,276.41649869999674,277.4505699000001,276.41649869999674,277.4505699000001,276.41649869999674,277.4505699000001,276.41649869999674,277.4505699000001,276.41649869999674,277.4505699000001,277.4171986000001,277.9186466999963,277.4171986000001,277.9186466999963,277.4171986000001,277.9186466999963,277.4171986000001,277.9186466999963,277.4171986000001,277.9186466999963,277.4171986000001,277.9186466999963,277.4171986000001,277.9186466999963,277.4171986000001,277.9186466999963,276.41649869999674,None,277.9186466999963,279.31992219999665,1.0200000000000007,279.3372980999993,None,280.08782719999726,None,,,,,,,[1.39560976],2.740000000000002,0.7317073170731707,11040,001,2024_Mar_13_1432,MFTM_A_new1021,2021.2.3,59.75132692956688,
,,,,,,,,stim/Instruction_adaptive.png,conditions/adaptive.xlsx,test,-0.6,-0.6,-0.6,0.6,0.6,left,L,,,,,0,1,1,1,0,41,41,25,,,,,,,,,,,,,,,,,,,,,,,,,,,,,,,,,,,,,,,,,,,,280.5886418000009,None,left,1,1.3399292999965837,281.0905053999886,282.57495329999074,281.0905053999886,282.0744119999872,281.0905053999886,282.0744119999872,281.0905053999886,282.0744119999872,281.0905053999886,282.0744119999872,281.0905053999886,282.0744119999872,282.05722969998897,282.5583355999988,282.05722969998897,282.5583355999988,282.05722969998897,282.5583355999988,282.05722969998897,282.5583355999988,282.05722969998897,282.5583355999988,282.05722969998897,282.5583355999988,282.05722969998897,282.5583355999988,282.05722969998897,282.5583355999988,281.0905053999886,None,282.5583355999988,283.9605637999921,0.9800000000000006,283.976654699989,None,284.72876139999426,None,,,,,,,[1.39857143],2.780000000000002,0.7380952380952381,11040,001,2024_Mar_13_1432,MFTM_A_new1021,2021.2.3,59.75132692956688,
,,,,,,,,stim/Instruction_adaptive.png,conditions/adaptive.xlsx,test,-0.6,-0.6,-0.6,0.6,0.6,left,L,,,,,0,1,1,1,0,42,42,45,,,,,,,,,,,,,,,,,,,,,,,,,,,,,,,,,,,,,,,,,,,,285.2289078999893,None,left,1,1.6856629999965662,285.7296181999991,287.19843199999013,285.7296181999991,286.6977893000003,285.7296181999991,286.6977893000003,285.7296181999991,286.6977893000003,285.7296181999991,286.6977893000003,285.7296181999991,286.6977893000003,286.6810606999934,287.18175150000025,286.6810606999934,287.18175150000025,286.6810606999934,287.18175150000025,286.6810606999934,287.18175150000025,286.6810606999934,287.18175150000025,286.6810606999934,287.18175150000025,286.6810606999934,287.18175150000025,286.6810606999934,287.18175150000025,285.7296181999991,None,287.18175150000025,288.5849443999905,0.9600000000000006,288.60086029999366,None,289.3517303999979,None,,,,,,,[1.40186047],2.830000000000002,0.7441860465116279,11040,001,2024_Mar_13_1432,MFTM_A_new1021,2021.2.3,59.75132692956688,
,,,,,,,,stim/Instruction_adaptive.png,conditions/adaptive.xlsx,test,0.6,0.6,0.6,-0.6,-0.6,right,R,,,,,0,1,1,1,0,43,43,88,,,,,,,,,,,,,,,,,,,,,,,,,,,,,,,,,,,,,,,,,,,,289.85240749998775,None,right,1,1.4853944999922533,290.3532933999959,291.7886667999992,290.3532933999959,291.2891183999891,290.3532933999959,291.2891183999891,290.3532933999959,291.2891183999891,290.3532933999959,291.2891183999891,290.3532933999959,291.2891183999891,291.2724239999952,291.7719667999918,291.2724239999952,291.7719667999918,291.2724239999952,291.7719667999918,291.2724239999952,291.7719667999918,291.2724239999952,291.7719667999918,291.2724239999952,291.7719667999918,291.2724239999952,291.7719667999918,291.2724239999952,291.7719667999918,290.3532933999959,None,291.7719667999918,None,0.9300000000000006,293.19089249998797,None,293.9421159999911,None,,,,,,,[1.40568182],2.870000000000002,0.75,11040,001,2024_Mar_13_1432,MFTM_A_new1021,2021.2.3,59.75132692956688,
,,,,,,,,stim/Instruction_adaptive.png,conditions/adaptive.xlsx,test,0.6,0.6,0.6,-0.6,-0.6,right,R,,,,,0,1,1,1,0,44,44,20,,,,,,,,,,,,,,,,,,,,,,,,,,,,,,,,,,,,,,,,,,,,294.4435756999883,None,left,0,1.647529099995154,294.9435441999958,296.3456390999927,294.9435441999958,295.84490989999904,294.9435441999958,295.84490989999904,294.9435441999958,295.84490989999904,294.9435441999958,295.84490989999904,294.9435441999958,295.84490989999904,295.8280604999891,296.32865499999025,295.8280604999891,296.32865499999025,295.8280604999891,296.32865499999025,295.8280604999891,296.32865499999025,295.8280604999891,296.32865499999025,295.8280604999891,296.32865499999025,295.8280604999891,296.32865499999025,295.8280604999891,296.32865499999025,294.9435441999958,None,296.32865499999025,297.7476037999877,0.9000000000000006,297.76450649999606,None,298.5153564999928,None,,,,,,,[1.41],2.7500000000000018,0.7333333333333333,11040,001,2024_Mar_13_1432,MFTM_A_new1021,2021.2.3,59.75132692956688,
,,,,,,,,stim/Instruction_adaptive.png,conditions/adaptive.xlsx,test,0.6,0.6,0.6,-0.6,-0.6,right,R,,,,,0,1,1,1,0,45,45,74,,,,,,,,,,,,,,,,,,,,,,,,,,,,,,,,,,,,,,,,,,,,299.0160930999991,None,right,1,1.5855776000098558,299.51709129998926,301.0026446999982,299.51709129998926,300.5024141999893,299.51709129998926,300.5024141999893,299.51709129998926,300.5024141999893,299.51709129998926,300.5024141999893,299.51709129998926,300.5024141999893,300.48518049999257,300.9863983999967,300.48518049999257,300.9863983999967,300.48518049999257,300.9863983999967,300.48518049999257,300.9863983999967,300.48518049999257,300.9863983999967,300.48518049999257,300.9863983999967,300.48518049999257,300.9863983999967,300.48518049999257,300.9863983999967,299.51709129998926,None,300.9863983999967,302.40470859999186,0.9800000000000006,302.42212930000096,None,303.1726321999886,None,,,,,,,[1.4123913],2.790000000000002,0.7391304347826086,11040,001,2024_Mar_13_1432,MFTM_A_new1021,2021.2.3,59.75132692956688,
,,,,,,,,stim/Instruction_adaptive.png,conditions/adaptive.xlsx,test,-0.6,-0.6,-0.6,0.6,0.6,left,L,,,,,0,1,1,1,0,46,46,67,,,,,,,,,,,,,,,,,,,,,,,,,,,,,,,,,,,,,,,,,,,,303.6732800999889,None,left,1,1.2484172999975272,304.1739930999902,305.6259582999919,304.1739930999902,305.1256394999946,304.1739930999902,305.1256394999946,304.1739930999902,305.1256394999946,304.1739930999902,305.1256394999946,304.1739930999902,305.1256394999946,305.1099714999873,305.6095903999958,305.1099714999873,305.6095903999958,305.1099714999873,305.6095903999958,305.1099714999873,305.6095903999958,305.1099714999873,305.6095903999958,305.1099714999873,305.6095903999958,305.1099714999873,305.6095903999958,305.1099714999873,305.6095903999958,304.1739930999902,None,305.6095903999958,307.0305919999955,0.9500000000000006,307.0445291999931,None,307.796262399992,None,,,,,,,[1.41531915],2.830000000000002,0.7446808510638298,11040,001,2024_Mar_13_1432,MFTM_A_new1021,2021.2.3,59.75132692956688,
,,,,,,,,stim/Instruction_adaptive.png,conditions/adaptive.xlsx,test,0.6,0.6,0.6,-0.6,-0.6,right,R,,,,,0,1,1,1,0,47,47,58,,,,,,,,,,,,,,,,,,,,,,,,,,,,,,,,,,,,,,,,,,,,308.2975906999927,None,right,1,1.320933499999228,308.7977944999875,310.23308949999046,308.7977944999875,309.7338849999942,308.7977944999875,309.7338849999942,308.7977944999875,309.7338849999942,308.7977944999875,309.7338849999942,308.7977944999875,309.7338849999942,309.71686529999715,310.21627649999573,309.71686529999715,310.21627649999573,309.71686529999715,310.21627649999573,309.71686529999715,310.21627649999573,309.71686529999715,310.21627649999573,309.71686529999715,310.21627649999573,309.71686529999715,310.21627649999573,309.71686529999715,310.21627649999573,308.7977944999875,None,310.21627649999573,311.6351905999909,0.9300000000000006,311.652036399988,None,312.4038780999981,None,,,,,,,[1.41854167],2.870000000000002,0.75,11040,001,2024_Mar_13_1432,MFTM_A_new1021,2021.2.3,59.75132692956688,
,,,,,,,,stim/Instruction_adaptive.png,conditions/adaptive.xlsx,test,-0.6,-0.6,-0.6,0.6,0.6,left,L,,,,,0,1,1,1,0,48,48,31,,,,,,,,,,,,,,,,,,,,,,,,,,,,,,,,,,,,,,,,,,,,312.90509010000096,None,left,1,1.434690900001442,313.4044942999899,314.80659699998796,313.4044942999899,314.30603749999136,313.4044942999899,314.30603749999136,313.4044942999899,314.30603749999136,313.4044942999899,314.30603749999136,313.4044942999899,314.30603749999136,314.28917759998876,314.79003429999284,314.28917759998876,314.79003429999284,314.28917759998876,314.79003429999284,314.28917759998876,314.79003429999284,314.28917759998876,314.79003429999284,314.28917759998876,314.79003429999284,314.28917759998876,314.79003429999284,314.28917759998876,314.79003429999284,313.4044942999899,None,314.79003429999284,None,0.9000000000000006,316.2254801999952,None,316.97680779999064,None,,,,,,,[1.4222449],2.910000000000002,0.7551020408163265,11040,001,2024_Mar_13_1432,MFTM_A_new1021,2021.2.3,59.75132692956688,
,,,,,,,,stim/Instruction_adaptive.png,conditions/adaptive.xlsx,test,0.6,0.6,0.6,-0.6,-0.6,right,R,,,,,0,1,1,1,0,49,49,96,,,,,,,,,,,,,,,,,,,,,,,,,,,,,,,,,,,,,,,,,,,,317.47835769999074,None,right,1,1.2210152000043308,317.9780773999955,319.36365859999205,317.9780773999955,318.86284769998747,317.9780773999955,318.86284769998747,317.9780773999955,318.86284769998747,317.9780773999955,318.86284769998747,317.9780773999955,318.86284769998747,318.847365900001,319.34712029999355,318.847365900001,319.34712029999355,318.847365900001,319.34712029999355,318.847365900001,319.34712029999355,318.847365900001,319.34712029999355,318.847365900001,319.34712029999355,318.847365900001,319.34712029999355,318.847365900001,319.34712029999355,317.9780773999955,None,319.34712029999355,320.78233029998955,0.8800000000000006,320.7991301000002,None,321.5513587999885,None,,,,,,,[1.4262],2.940000000000002,0.76,11040,001,2024_Mar_13_1432,MFTM_A_new1021,2021.2.3,59.75132692956688,
,,,,,,,,stim/Instruction_adaptive.png,conditions/adaptive.xlsx,test,-0.6,-0.6,-0.6,0.6,0.6,left,L,,,,,0,1,1,1,0,50,50,71,,,,,,,,,,,,,,,,,,,,,,,,,,,,,,,,,,,,,,,,,,,,322.05087189999176,None,left,1,0.8476063999987673,322.5515984999947,323.9205903999973,322.5515984999947,323.4196125999879,322.5515984999947,323.4196125999879,322.5515984999947,323.4196125999879,322.5515984999947,323.4196125999879,322.5515984999947,323.4196125999879,323.38669699999446,323.88780489999044,323.38669699999446,323.88780489999044,323.38669699999446,323.88780489999044,323.38669699999446,323.88780489999044,323.38669699999446,323.88780489999044,323.38669699999446,323.88780489999044,323.38669699999446,323.88780489999044,323.38669699999446,323.88780489999044,322.5515984999947,None,323.88780489999044,325.32270309999876,0.8600000000000005,325.3559123999876,None,326.1074951999908,None,,,,,,,[1.43039216],2.980000000000002,0.7647058823529411,11040,001,2024_Mar_13_1432,MFTM_A_new1021,2021.2.3,59.75132692956688,
,,,,,,,,stim/Instruction_adaptive.png,conditions/adaptive.xlsx,test,-0.6,-0.6,-0.6,0.6,0.6,left,L,,,,,0,1,1,1,0,51,51,21,,,,,,,,,,,,,,,,,,,,,,,,,,,,,,,,,,,,,,,,,,,,326.6079469999968,None,left,1,1.27495479999925,327.10838689999946,328.4438719999889,327.10838689999946,327.9431794999982,327.10838689999946,327.9431794999982,327.10838689999946,327.9431794999982,327.10838689999946,327.9431794999982,327.10838689999946,327.9431794999982,327.92690759999095,328.4274701999966,327.92690759999095,328.4274701999966,327.92690759999095,328.4274701999966,327.92690759999095,328.4274701999966,327.92690759999095,328.4274701999966,327.92690759999095,328.4274701999966,327.92690759999095,328.4274701999966,327.92690759999095,328.4274701999966,327.10838689999946,None,328.4105845999875,329.84581519999483,0.8300000000000005,329.87936209999316,None,330.630428199991,None,,,,,,,[1.435],3.0100000000000025,0.7692307692307693,11040,001,2024_Mar_13_1432,MFTM_A_new1021,2021.2.3,59.75132692956688,
,,,,,,,,stim/Instruction_adaptive.png,conditions/adaptive.xlsx,test,-0.6,-0.6,-0.6,0.6,0.6,left,L,,,,,0,1,1,1,0,52,52,85,,,,,,,,,,,,,,,,,,,,,,,,,,,,,,,,,,,,,,,,,,,,331.1321609000006,None,left,1,1.391400699998485,331.6321663999988,332.9684369999886,331.6321663999988,332.46682769998733,331.6321663999988,332.46682769998733,331.6321663999988,332.46682769998733,331.6321663999988,332.46682769998733,331.6321663999988,332.46682769998733,332.4333837000013,332.9344140999892,332.4333837000013,332.9344140999892,332.4333837000013,332.9344140999892,332.4333837000013,332.9344140999892,332.4333837000013,332.9344140999892,332.4333837000013,332.9344140999892,332.4333837000013,332.9344140999892,332.4333837000013,332.9344140999892,331.6321663999988,None,332.9344140999892,334.3872926999902,0.8200000000000005,334.40371779999987,None,335.15399209999305,None,,,,,,,[1.43962264],3.0400000000000023,0.7735849056603774,11040,001,2024_Mar_13_1432,MFTM_A_new1021,2021.2.3,59.75132692956688,
,,,,,,,,stim/Instruction_adaptive.png,conditions/adaptive.xlsx,test,-0.6,-0.6,-0.6,0.6,0.6,left,L,,,,,0,1,1,1,0,53,53,91,,,,,,,,,,,,,,,,,,,,,,,,,,,,,,,,,,,,,,,,,,,,335.6549251999968,None,left,1,0.9877408000029391,336.1554671999911,337.45755709998775,336.1554671999911,336.95763729998725,336.1554671999911,336.95763729998725,336.1554671999911,336.95763729998725,336.1554671999911,336.95763729998725,336.1554671999911,336.95763729998725,336.940125299996,337.4407061999955,336.940125299996,337.4407061999955,336.940125299996,337.4407061999955,336.940125299996,337.4407061999955,336.940125299996,337.4407061999955,336.940125299996,337.4407061999955,336.940125299996,337.4407061999955,336.940125299996,337.4407061999955,336.1554671999911,None,337.4407061999955,338.8930995999981,0.8000000000000005,338.90988300000026,None,339.6609504999942,None,,,,,,,[1.44444444],3.0800000000000023,0.7777777777777778,11040,001,2024_Mar_13_1432,MFTM_A_new1021,2021.2.3,59.75132692956688,
,,,,,,,,stim/Instruction_adaptive.png,conditions/adaptive.xlsx,test,0.6,0.6,0.6,-0.6,-0.6,right,R,,,,,0,1,1,1,0,54,54,32,,,,,,,,,,,,,,,,,,,,,,,,,,,,,,,,,,,,,,,,,,,,340.16181700000016,None,right,1,0.91409289999865,340.66225869998743,341.9475880999962,340.66225869998743,341.4466260999907,340.66225869998743,341.4466260999907,340.66225869998743,341.4466260999907,340.66225869998743,341.4466260999907,340.66225869998743,341.4466260999907,341.4308631999884,341.9308983999945,341.4308631999884,341.9308983999945,341.4308631999884,341.9308983999945,341.4308631999884,341.9308983999945,341.4308631999884,341.9308983999945,341.4308631999884,341.9308983999945,341.4308631999884,341.9308983999945,341.4308631999884,341.9308983999945,340.66225869998743,None,341.9308983999945,343.3831574999931,0.7800000000000005,343.39988179999636,None,344.1526021999889,None,,,,,,,[1.44945455],3.110000000000002,0.7818181818181819,11040,001,2024_Mar_13_1432,MFTM_A_new1021,2021.2.3,59.75132692956688,
,,,,,,,,stim/Instruction_adaptive.png,conditions/adaptive.xlsx,test,-0.6,-0.6,-0.6,0.6,0.6,left,L,,,,,0,1,1,1,0,55,55,29,,,,,,,,,,,,,,,,,,,,,,,,,,,,,,,,,,,,,,,,,,,,344.65181029999803,None,left,1,1.5112292999983765,345.15247629999067,346.4216491999978,345.15247629999067,345.92041099999915,345.15247629999067,345.92041099999915,345.15247629999067,345.92041099999915,345.15247629999067,345.92041099999915,345.15247629999067,345.92041099999915,345.88694929999474,346.38873859999876,345.88694929999474,346.38873859999876,345.88694929999474,346.38873859999876,345.88694929999474,346.38873859999876,345.88694929999474,346.38873859999876,345.88694929999474,346.38873859999876,345.88694929999474,346.38873859999876,345.88694929999474,346.38873859999876,345.15247629999067,None,346.38873859999876,347.85645939999085,0.7600000000000005,347.87308140000096,None,348.62518619999173,None,,,,,,,[1.45464286],3.1400000000000023,0.7857142857142857,11040,001,2024_Mar_13_1432,MFTM_A_new1021,2021.2.3,59.75132692956688,
,,,,,,,,stim/Instruction_adaptive.png,conditions/adaptive.xlsx,test,0.6,0.6,0.6,-0.6,-0.6,right,R,,,,,0,1,1,1,0,56,56,70,,,,,,,,,,,,,,,,,,,,,,,,,,,,,,,,,,,,,,,,,,,,349.1250105999934,None,right,1,1.357352399994852,349.6264264999918,350.8784818999993,349.6264264999918,350.376989899989,349.6264264999918,350.376989899989,349.6264264999918,350.376989899989,349.6264264999918,350.376989899989,349.6264264999918,350.376989899989,350.3602678999887,350.86104249999335,350.3602678999887,350.86104249999335,350.3602678999887,350.86104249999335,350.3602678999887,350.86104249999335,350.3602678999887,350.86104249999335,350.3602678999887,350.86104249999335,350.3602678999887,350.86104249999335,350.3602678999887,350.86104249999335,349.6264264999918,None,350.86104249999335,352.3300600999937,0.7500000000000004,352.3466851999983,None,353.0989497999981,None,,,,,,,[1.45982456],3.1600000000000024,0.7894736842105263,11040,001,2024_Mar_13_1432,MFTM_A_new1021,2021.2.3,59.75132692956688,
,,,,,,,,stim/Instruction_adaptive.png,conditions/adaptive.xlsx,test,-0.6,-0.6,-0.6,0.6,0.6,left,L,,,,,0,1,1,1,0,57,57,13,,,,,,,,,,,,,,,,,,,,,,,,,,,,,,,,,,,,,,,,,,,,353.5991350999975,None,left,1,1.003548900000169,354.10040489998937,355.35248099999444,354.10040489998937,354.85037809998903,354.10040489998937,354.85037809998903,354.10040489998937,354.85037809998903,354.10040489998937,354.85037809998903,354.10040489998937,354.85037809998903,354.81691959999443,355.318412099994,354.81691959999443,355.318412099994,354.81691959999443,355.318412099994,354.81691959999443,355.318412099994,354.81691959999443,355.318412099994,354.81691959999443,355.318412099994,354.81691959999443,355.318412099994,354.81691959999443,355.318412099994,354.10040489998937,None,355.318412099994,356.78883429999405,0.7400000000000004,356.8031765999913,None,357.5552914,None,,,,,,,[1.465],3.190000000000002,0.7931034482758621,11040,001,2024_Mar_13_1432,MFTM_A_new1021,2021.2.3,59.75132692956688,
,,,,,,,,stim/Instruction_adaptive.png,conditions/adaptive.xlsx,test,-0.6,-0.6,-0.6,0.6,0.6,left,L,,,,,0,1,1,1,0,58,58,57,,,,,,,,,,,,,,,,,,,,,,,,,,,,,,,,,,,,,,,,,,,,358.05606659999467,None,right,0,1.6680434000008972,358.5560741999943,359.7911322,358.5560741999943,359.2903929999884,358.5560741999943,359.2903929999884,358.5560741999943,359.2903929999884,358.5560741999943,359.2903929999884,358.5560741999943,359.2903929999884,359.25706929998705,359.757906999992,359.25706929998705,359.757906999992,359.25706929998705,359.757906999992,359.25706929998705,359.757906999992,359.25706929998705,359.757906999992,359.25706929998705,359.757906999992,359.25706929998705,359.757906999992,359.25706929998705,359.757906999992,358.5560741999943,None,359.757906999992,361.2276659999916,0.7200000000000004,361.26011969998945,None,362.01121549999516,None,,,,,,,[1.47033898],3.110000000000002,0.7796610169491526,11040,001,2024_Mar_13_1432,MFTM_A_new1021,2021.2.3,59.75132692956688,
,,,,,,,,stim/Instruction_adaptive.png,conditions/adaptive.xlsx,test,0.6,0.6,0.6,-0.6,-0.6,right,R,,,,,0,1,1,1,0,59,59,62,,,,,,,,,,,,,,,,,,,,,,,,,,,,,,,,,,,,,,,,,,,,362.5128316999908,None,right,1,1.8912053999956697,363.0132867999928,364.28198139999586,363.0132867999928,363.78049959999043,363.0132867999928,363.78049959999043,363.0132867999928,363.78049959999043,363.0132867999928,363.78049959999043,363.0132867999928,363.78049959999043,363.764769299989,364.26523589999124,363.764769299989,364.26523589999124,363.764769299989,364.26523589999124,363.764769299989,364.26523589999124,363.764769299989,364.26523589999124,363.764769299989,364.26523589999124,363.764769299989,364.26523589999124,363.764769299989,364.26523589999124,363.0132867999928,None,364.26523589999124,None,0.7600000000000005,365.7505381999945,None,366.50122379999084,None,,,,,,,[1.47483333],3.1400000000000023,0.7833333333333333,11040,001,2024_Mar_13_1432,MFTM_A_new1021,2021.2.3,59.75132692956688,
,,,,,,,,stim/Instruction_adaptive.png,conditions/adaptive.xlsx,test,0.6,0.6,0.6,-0.6,-0.6,right,R,,,,,0,1,1,1,0,60,60,22,,,,,,,,,,,,,,,,,,,,,,,,,,,,,,,,,,,,,,,,,,,,367.00221469999815,None,left,0,1.793432499995106,367.50288829999045,368.75486719999753,367.50288829999045,368.2546616999898,367.50288829999045,368.2546616999898,367.50288829999045,368.2546616999898,367.50288829999045,368.2546616999898,367.50288829999045,368.2546616999898,368.23734959999274,368.7390568999981,368.23734959999274,368.7390568999981,368.23734959999274,368.7390568999981,368.23734959999274,368.7390568999981,368.23734959999274,368.7390568999981,368.23734959999274,368.7390568999981,368.23734959999274,368.7390568999981,368.23734959999274,368.7390568999981,367.50288829999045,None,368.7390568999981,370.22453239999595,0.7500000000000004,370.2401412999898,None,370.991641399989,None,,,,,,,[1.47934426],3.0600000000000023,0.7704918032786885,11040,001,2024_Mar_13_1432,MFTM_A_new1021,2021.2.3,59.75132692956688,
,,,,,,,,stim/Instruction_adaptive.png,conditions/adaptive.xlsx,test,0.6,0.6,0.6,-0.6,-0.6,right,R,,,,,0,1,1,1,0,61,61,80,,,,,,,,,,,,,,,,,,,,,,,,,,,,,,,,,,,,,,,,,,,,371.49205059999076,None,right,1,1.9914235000032932,371.9930291999917,373.2957451999973,371.9930291999917,372.793972799991,371.9930291999917,372.793972799991,371.9930291999917,372.793972799991,371.9930291999917,372.793972799991,371.9930291999917,372.793972799991,372.7606059999962,373.26262889998907,372.7606059999962,373.26262889998907,372.7606059999962,373.26262889998907,372.7606059999962,373.26262889998907,372.7606059999962,373.26262889998907,372.7606059999962,373.26262889998907,372.7606059999962,373.26262889998907,372.7606059999962,373.26262889998907,371.9930291999917,None,373.26262889998907,374.74715009999636,0.7900000000000005,374.7986949999904,None,375.5492118999973,None,,,,,,,[1.48306452],3.0800000000000023,0.7741935483870968,11040,001,2024_Mar_13_1432,MFTM_A_new1021,2021.2.3,59.75132692956688,
,,,,,,,,stim/Instruction_adaptive.png,conditions/adaptive.xlsx,test,0.6,0.6,0.6,-0.6,-0.6,right,R,,,,,0,1,1,1,0,62,62,26,,,,,,,,,,,,,,,,,,,,,,,,,,,,,,,,,,,,,,,,,,,,376.0512247000006,None,right,1,1.2746815999998944,376.54972499998985,377.8350165999873,376.54972499998985,377.3353802999918,376.54972499998985,377.3353802999918,376.54972499998985,377.3353802999918,376.54972499998985,377.3353802999918,376.54972499998985,377.3353802999918,377.31762719999824,377.8183490999945,377.31762719999824,377.8183490999945,377.31762719999824,377.8183490999945,377.31762719999824,377.8183490999945,377.31762719999824,377.8183490999945,377.31762719999824,377.8183490999945,377.31762719999824,377.8183490999945,377.31762719999824,377.8183490999945,376.54972499998985,None,377.80157060000056,379.28810609999346,0.7800000000000005,379.320673299997,None,380.073742499997,None,,,,,,,[1.4868254],3.110000000000002,0.7777777777777778,11040,001,2024_Mar_13_1432,MFTM_A_new1021,2021.2.3,59.75132692956688,
,,,,,,,,stim/Instruction_adaptive.png,conditions/adaptive.xlsx,test,-0.6,-0.6,-0.6,0.6,0.6,left,L,,,,,0,1,1,1,0,63,63,75,,,,,,,,,,,,,,,,,,,,,,,,,,,,,,,,,,,,,,,,,,,,380.58970689999114,None,left,1,1.3271338999911677,381.08992809998745,382.3591379999998,381.08992809998745,381.8588660999958,381.08992809998745,381.8588660999958,381.08992809998745,381.8588660999958,381.08992809998745,381.8588660999958,381.08992809998745,381.8588660999958,381.8245414999983,382.3250529999932,381.8245414999983,382.3250529999932,381.8245414999983,382.3250529999932,381.8245414999983,382.3250529999932,381.8245414999983,382.3250529999932,381.8245414999983,382.3250529999932,381.8245414999983,382.3250529999932,381.8245414999983,382.3250529999932,381.08992809998745,None,382.3250529999932,383.82756989999325,0.7600000000000005,383.84399049999774,None,384.5953154999879,None,,,,,,,[1.49078125],3.1400000000000023,0.78125,11040,001,2024_Mar_13_1432,MFTM_A_new1021,2021.2.3,59.75132692956688,
,,,,,,,,stim/Instruction_adaptive.png,conditions/adaptive.xlsx,test,-0.6,-0.6,-0.6,0.6,0.6,left,L,,,,,0,1,1,1,0,64,64,65,,,,,,,,,,,,,,,,,,,,,,,,,,,,,,,,,,,,,,,,,,,,385.09613459999673,None,left,1,1.6524202000000514,385.5968186999962,386.8486574999988,385.5968186999962,386.3477581999905,385.5968186999962,386.3477581999905,385.5968186999962,386.3477581999905,385.5968186999962,386.3477581999905,385.5968186999962,386.3477581999905,386.3310749999946,386.83191299998725,386.3310749999946,386.83191299998725,386.3310749999946,386.83191299998725,386.3310749999946,386.83191299998725,386.3310749999946,386.83191299998725,386.3310749999946,386.83191299998725,386.3310749999946,386.83191299998725,386.3310749999946,386.83191299998725,385.5968186999962,None,386.83191299998725,388.3347739999881,0.7500000000000004,388.35202539998863,None,389.1018475999881,None,,,,,,,[1.49476923],3.1600000000000024,0.7846153846153846,11040,001,2024_Mar_13_1432,MFTM_A_new1021,2021.2.3,59.75132692956688,
,,,,,,,,stim/Instruction_adaptive.png,conditions/adaptive.xlsx,test,-0.6,-0.6,-0.6,0.6,0.6,left,L,,,,,0,1,1,1,0,65,65,51,,,,,,,,,,,,,,,,,,,,,,,,,,,,,,,,,,,,,,,,,,,,389.6041234000004,None,left,1,0.897369999991497,390.10383300000103,391.35535759999766,390.10383300000103,390.8546995999932,390.10383300000103,390.8546995999932,390.10383300000103,390.8546995999932,390.10383300000103,390.8546995999932,390.10383300000103,390.8546995999932,390.82127399998717,391.3230380999885,390.82127399998717,391.3230380999885,390.82127399998717,391.3230380999885,390.82127399998717,391.3230380999885,390.82127399998717,391.3230380999885,390.82127399998717,391.3230380999885,390.82127399998717,391.3230380999885,390.82127399998717,391.3230380999885,390.10383300000103,None,391.3230380999885,392.8251903999917,0.7400000000000004,392.841024999987,None,393.5928355999931,None,,,,,,,[1.49878788],3.190000000000002,0.7878787878787878,11040,001,2024_Mar_13_1432,MFTM_A_new1021,2021.2.3,59.75132692956688,
,,,,,,,,stim/Instruction_adaptive.png,conditions/adaptive.xlsx,test,0.6,0.6,0.6,-0.6,-0.6,right,R,,,,,0,1,1,1,0,66,66,48,,,,,,,,,,,,,,,,,,,,,,,,,,,,,,,,,,,,,,,,,,,,394.0929613999906,None,right,1,0.8476469000015641,394.5934819999966,395.82889779999095,394.5934819999966,395.32785189998685,394.5934819999966,395.32785189998685,394.5934819999966,395.32785189998685,394.5934819999966,395.32785189998685,394.5934819999966,395.32785189998685,395.2947470999934,395.7954436,395.2947470999934,395.7954436,395.2947470999934,395.7954436,395.2947470999934,395.7954436,395.2947470999934,395.7954436,395.2947470999934,395.7954436,395.2947470999934,395.7954436,395.2947470999934,395.7954436,394.5934819999966,None,395.7954436,397.2982144999987,0.7200000000000004,397.3311507999897,None,398.08196179999504,None,,,,,,,[1.50298507],3.2100000000000026,0.7910447761194029,11040,001,2024_Mar_13_1432,MFTM_A_new1021,2021.2.3,59.75132692956688,
,,,,,,,,stim/Instruction_adaptive.png,conditions/adaptive.xlsx,test,-0.6,-0.6,-0.6,0.6,0.6,left,L,,,,,0,1,1,1,0,67,67,97,,,,,,,,,,,,,,,,,,,,,,,,,,,,,,,,,,,,,,,,,,,,398.5830367999879,None,left,1,1.4929272000008496,399.08417879999615,400.3031680999993,399.08417879999615,399.8017906999885,399.08417879999615,399.8017906999885,399.08417879999615,399.8017906999885,399.08417879999615,399.8017906999885,399.08417879999615,399.8017906999885,399.7847890999983,400.2873222999915,399.7847890999983,400.2873222999915,399.7847890999983,400.2873222999915,399.7847890999983,400.2873222999915,399.7847890999983,400.2873222999915,399.7847890999983,400.2873222999915,399.7847890999983,400.2873222999915,399.7847890999983,400.2873222999915,399.08417879999615,None,400.26929699999164,401.78806690000056,0.7100000000000004,401.8056036999915,None,402.55643299999065,None,,,,,,,[1.50720588],3.2400000000000024,0.7941176470588235,11040,001,2024_Mar_13_1432,MFTM_A_new1021,2021.2.3,59.75132692956688,
,,,,,,,,stim/Instruction_adaptive.png,conditions/adaptive.xlsx,test,0.6,0.6,0.6,-0.6,-0.6,right,R,,,,,0,1,1,1,0,68,68,42,,,,,,,,,,,,,,,,,,,,,,,,,,,,,,,,,,,,,,,,,,,,403.05628949998936,None,right,1,1.0920772999961628,403.5571539999946,404.75891709999996,403.5571539999946,404.2581976999936,403.5571539999946,404.2581976999936,403.5571539999946,404.2581976999936,403.5571539999946,404.2581976999936,403.5571539999946,404.2581976999936,404.2415559999936,404.742130899991,404.2415559999936,404.742130899991,404.2415559999936,404.742130899991,404.2415559999936,404.742130899991,404.2415559999936,404.742130899991,404.2415559999936,404.742130899991,404.2415559999936,404.742130899991,404.2415559999936,404.742130899991,403.5571539999946,None,404.742130899991,406.2613715999905,0.7000000000000004,406.277866599994,None,407.0290870999888,None,,,,,,,[1.51144928],3.2600000000000025,0.7971014492753623,11040,001,2024_Mar_13_1432,MFTM_A_new1021,2021.2.3,59.75132692956688,
,,,,,,,,stim/Instruction_adaptive.png,conditions/adaptive.xlsx,test,0.6,0.6,0.6,-0.6,-0.6,right,R,,,,,0,1,1,1,0,69,69,30,,,,,,,,,,,,,,,,,,,,,,,,,,,,,,,,,,,,,,,,,,,,407.5298108999996,None,right,1,1.3227882999926805,408.0305091999908,409.2326783999888,408.0305091999908,408.7316412999935,408.0305091999908,408.7316412999935,408.0305091999908,408.7316412999935,408.0305091999908,408.7316412999935,408.0305091999908,408.7316412999935,408.6981584999885,409.19910959999834,408.6981584999885,409.19910959999834,408.6981584999885,409.19910959999834,408.6981584999885,409.19910959999834,408.6981584999885,409.19910959999834,408.6981584999885,409.19910959999834,408.6981584999885,409.19910959999834,408.6981584999885,409.19910959999834,408.0305091999908,None,409.19910959999834,410.71780279999075,0.6900000000000004,410.75137859999086,None,411.5024871999922,None,,,,,,,[1.51571429],3.2800000000000025,0.8,11040,001,2024_Mar_13_1432,MFTM_A_new1021,2021.2.3,59.75132692956688,
,,,,,,,,stim/Instruction_adaptive.png,conditions/adaptive.xlsx,test,-0.6,-0.6,-0.6,0.6,0.6,left,L,,,,,0,1,1,1,0,70,70,23,,,,,,,,,,,,,,,,,,,,,,,,,,,,,,,,,,,,,,,,,,,,412.003541699989,None,right,0,2.001373999999487,412.5040185999969,413.6891928999976,412.5040185999969,413.18843319998996,412.5040185999969,413.18843319998996,412.5040185999969,413.18843319998996,412.5040185999969,413.18843319998996,412.5040185999969,413.18843319998996,413.17175339999085,413.6721417999943,413.17175339999085,413.6721417999943,413.17175339999085,413.6721417999943,413.17175339999085,413.6721417999943,413.17175339999085,413.6721417999943,413.17175339999085,413.6721417999943,413.17175339999085,413.6721417999943,413.17175339999085,413.6721417999943,412.5040185999969,None,413.6721417999943,415.1914958999987,0.6800000000000004,415.20790199999465,None,415.96001969999634,None,,,,,,,[1.52],3.2200000000000024,0.7887323943661971,11040,001,2024_Mar_13_1432,MFTM_A_new1021,2021.2.3,59.75132692956688,
,,,,,,,,stim/Instruction_adaptive.png,conditions/adaptive.xlsx,test,-0.6,-0.6,-0.6,0.6,0.6,left,L,,,,,0,1,1,1,0,71,71,11,,,,,,,,,,,,,,,,,,,,,,,,,,,,,,,,,,,,,,,,,,,,416.45990289999463,None,left,1,1.1041544999898179,416.96120289999817,418.1793076999893,416.96120289999817,417.67852969998785,416.96120289999817,417.67852969998785,416.96120289999817,417.67852969998785,416.96120289999817,417.67852969998785,416.96120289999817,417.67852969998785,417.6618374999962,418.16246709998813,417.6618374999962,418.16246709998813,417.6618374999962,418.16246709998813,417.6618374999962,418.16246709998813,417.6618374999962,418.16246709998813,417.6618374999962,418.16246709998813,417.6618374999962,418.16246709998813,417.6618374999962,418.16246709998813,416.96120289999817,None,418.16246709998813,None,0.7100000000000004,419.6981892999902,None,420.4500232999999,None,,,,,,,[1.52375],3.2400000000000024,0.7916666666666666,11040,001,2024_Mar_13_1432,MFTM_A_new1021,2021.2.3,59.75132692956688,
,,,,,,,,stim/Instruction_adaptive.png,conditions/adaptive.xlsx,test,0.6,0.6,0.6,-0.6,-0.6,right,R,,,,,0,1,1,1,0,72,72,2,,,,,,,,,,,,,,,,,,,,,,,,,,,,,,,,,,,,,,,,,,,,420.9507728999888,None,left,0,1.3513464999996359,421.4506357999926,422.65338209999027,421.4506357999926,422.151789999989,421.4506357999926,422.151789999989,421.4506357999926,422.151789999989,421.4506357999926,422.151789999989,421.4506357999926,422.151789999989,422.13532229998964,422.6368078999949,422.13532229998964,422.6368078999949,422.13532229998964,422.6368078999949,422.13532229998964,422.6368078999949,422.13532229998964,422.6368078999949,422.13532229998964,422.6368078999949,422.13532229998964,422.6368078999949,422.13532229998964,422.6368078999949,421.4506357999926,None,422.6368078999949,424.1715159999876,0.7000000000000004,424.1882893000002,None,424.9399773999903,None,,,,,,,[1.52753425],3.1700000000000026,0.7808219178082192,11040,001,2024_Mar_13_1432,MFTM_A_new1021,2021.2.3,59.75132692956688,
,,,,,,,,stim/Instruction_adaptive.png,conditions/adaptive.xlsx,test,-0.6,-0.6,-0.6,0.6,0.6,left,L,,,,,0,1,1,1,0,73,73,35,,,,,,,,,,,,,,,,,,,,,,,,,,,,,,,,,,,,,,,,,,,,425.4410666999902,None,left,1,1.3014498999982607,425.9409231999889,427.1761245999951,425.9409231999889,426.6753633999906,425.9409231999889,426.6753633999906,425.9409231999889,426.6753633999906,425.9409231999889,426.6753633999906,425.9409231999889,426.6753633999906,426.658706599992,427.1610301999899,426.658706599992,427.1610301999899,426.658706599992,427.1610301999899,426.658706599992,427.1610301999899,426.658706599992,427.1610301999899,426.658706599992,427.1610301999899,426.658706599992,427.1610301999899,426.658706599992,427.1610301999899,425.9409231999889,None,427.1610301999899,428.69553449998784,0.7300000000000004,428.71163649999653,None,429.4627369999944,None,,,,,,,[1.53081081],3.190000000000002,0.7837837837837838,11040,001,2024_Mar_13_1432,MFTM_A_new1021,2021.2.3,59.75132692956688,
,,,,,,,,stim/Instruction_adaptive.png,conditions/adaptive.xlsx,test,-0.6,-0.6,-0.6,0.6,0.6,left,L,,,,,0,1,1,1,0,74,74,9,,,,,,,,,,,,,,,,,,,,,,,,,,,,,,,,,,,,,,,,,,,,429.9642906999943,None,left,1,1.4576454000052763,430.4646705999912,431.7007606999978,430.4646705999912,431.1988326999999,430.4646705999912,431.1988326999999,430.4646705999912,431.1988326999999,430.4646705999912,431.1988326999999,430.4646705999912,431.1988326999999,431.16649009998946,431.6661560999928,431.16649009998946,431.6661560999928,431.16649009998946,431.6661560999928,431.16649009998946,431.6661560999928,431.16649009998946,431.6661560999928,431.16649009998946,431.6661560999928,431.16649009998946,431.6661560999928,431.16649009998946,431.6661560999928,430.4646705999912,None,431.6661560999928,433.2018143999885,0.7200000000000004,433.218500899995,None,433.9697126999963,None,,,,,,,[1.53413333],3.2200000000000024,0.7866666666666666,11040,001,2024_Mar_13_1432,MFTM_A_new1021,2021.2.3,59.75132692956688,
,,,,,,,,stim/Instruction_adaptive.png,conditions/adaptive.xlsx,test,0.6,0.6,0.6,-0.6,-0.6,right,R,,,,,0,1,1,1,0,75,75,40,,,,,,,,,,,,,,,,,,,,,,,,,,,,,,,,,,,,,,,,,,,,434.47125750000123,None,right,1,1.5267787000047974,434.9711813999893,436.1902931999939,434.9711813999893,435.6889011999883,434.9711813999893,435.6889011999883,434.9711813999893,435.6889011999883,434.9711813999893,435.6889011999883,434.9711813999893,435.6889011999883,435.6568244999944,436.1566026999935,435.6568244999944,436.1566026999935,435.6568244999944,436.1566026999935,435.6568244999944,436.1566026999935,435.6568244999944,436.1566026999935,435.6568244999944,436.1566026999935,435.6568244999944,436.1566026999935,435.6568244999944,436.1566026999935,434.9711813999893,None,436.1566026999935,437.7086352999904,0.7100000000000004,437.72543159998895,None,438.47669779999705,None,,,,,,,[1.5375],3.2400000000000024,0.7894736842105263,11040,001,2024_Mar_13_1432,MFTM_A_new1021,2021.2.3,59.75132692956688,
,,,,,,,,stim/Instruction_adaptive.png,conditions/adaptive.xlsx,test,-0.6,-0.6,-0.6,0.6,0.6,left,L,,,,,0,1,1,1,0,76,76,81,,,,,,,,,,,,,,,,,,,,,,,,,,,,,,,,,,,,,,,,,,,,438.97770099999616,None,right,0,1.5962134000001242,439.4779714999895,440.6797430999868,439.4779714999895,440.17900059999374,439.4779714999895,440.17900059999374,439.4779714999895,440.17900059999374,439.4779714999895,440.17900059999374,439.4779714999895,440.17900059999374,440.1623586999922,440.6629969999922,440.1623586999922,440.6629969999922,440.1623586999922,440.6629969999922,440.1623586999922,440.6629969999922,440.1623586999922,440.6629969999922,440.1623586999922,440.6629969999922,440.1623586999922,440.6629969999922,440.1623586999922,440.6629969999922,439.4779714999895,None,440.6629969999922,442.2158395000006,0.7000000000000004,442.2320146999991,None,442.98339470000064,None,,,,,,,[1.54090909],3.1700000000000026,0.7792207792207793,11040,001,2024_Mar_13_1432,MFTM_A_new1021,2021.2.3,59.75132692956688,
,,,,,,,,stim/Instruction_adaptive.png,conditions/adaptive.xlsx,test,-0.6,-0.6,-0.6,0.6,0.6,left,L,,,,,0,1,1,1,0,77,77,47,,,,,,,,,,,,,,,,,,,,,,,,,,,,,,,,,,,,,,,,,,,,443.484672599996,None,right,0,2.0256714999995893,443.9845467999985,445.22086509999644,443.9845467999985,444.7205838999944,443.9845467999985,444.7205838999944,443.9845467999985,444.7205838999944,443.9845467999985,444.7205838999944,443.9845467999985,444.7205838999944,444.7027621999878,445.204067499988,444.7027621999878,445.204067499988,444.7027621999878,445.204067499988,444.7027621999878,445.204067499988,444.7027621999878,445.204067499988,444.7027621999878,445.204067499988,444.7027621999878,445.204067499988,444.7027621999878,445.204067499988,443.9845467999985,None,445.204067499988,446.7562872999988,0.7300000000000004,446.7721625999984,None,447.52335129999847,None,,,,,,,[1.54384615],3.110000000000002,0.7692307692307693,11040,001,2024_Mar_13_1432,MFTM_A_new1021,2021.2.3,59.75132692956688,
,,,,,,,,stim/Instruction_adaptive.png,conditions/adaptive.xlsx,test,-0.6,-0.6,-0.6,0.6,0.6,left,L,,,,,0,1,1,1,0,78,78,83,,,,,,,,,,,,,,,,,,,,,,,,,,,,,,,,,,,,,,,,,,,,448.02535139999236,None,left,1,1.5256814000022132,448.5247906000004,449.7934591999947,448.5247906000004,449.29269259999273,448.5247906000004,449.29269259999273,448.5247906000004,449.29269259999273,448.5247906000004,449.29269259999273,448.5247906000004,449.29269259999273,449.27600349999557,449.7768528999877,449.27600349999557,449.7768528999877,449.27600349999557,449.7768528999877,449.27600349999557,449.7768528999877,449.27600349999557,449.7768528999877,449.27600349999557,449.7768528999877,449.27600349999557,449.7768528999877,449.27600349999557,449.7768528999877,448.5247906000004,None,449.7768528999877,451.3290571999969,0.7600000000000005,451.34605659999943,None,452.0969918999908,None,,,,,,,[1.54632911],3.1300000000000026,0.7721518987341772,11040,001,2024_Mar_13_1432,MFTM_A_new1021,2021.2.3,59.75132692956688,
,,,,,,,,stim/Instruction_adaptive.png,conditions/adaptive.xlsx,test,0.6,0.6,0.6,-0.6,-0.6,right,R,,,,,0,1,1,1,0,79,79,10,,,,,,,,,,,,,,,,,,,,,,,,,,,,,,,,,,,,,,,,,,,,452.5976456999924,None,right,1,1.184603400004562,453.0984929999977,454.35066240000015,453.0984929999977,453.8496293999924,453.0984929999977,453.8496293999924,453.0984929999977,453.8496293999924,453.0984929999977,453.8496293999924,453.0984929999977,453.8496293999924,453.8328766999912,454.3351616,453.8328766999912,454.3351616,453.8328766999912,454.3351616,453.8328766999912,454.3351616,453.8328766999912,454.3351616,453.8328766999912,454.3351616,453.8328766999912,454.3351616,453.8328766999912,454.3351616,453.0984929999977,None,454.3351616,455.8870157999918,0.7500000000000004,455.9025716999895,None,456.6538561999914,None,,,,,,,[1.548875],3.150000000000002,0.775,11040,001,2024_Mar_13_1432,MFTM_A_new1021,2021.2.3,59.75132692956688,
,,,,,,,,stim/Instruction_adaptive.png,conditions/adaptive.xlsx,test,-0.6,-0.6,-0.6,0.6,0.6,left,L,,,,,0,1,1,1,0,80,80,79,,,,,,,,,,,,,,,,,,,,,,,,,,,,,,,,,,,,,,,,,,,,457.1550156000012,None,left,1,1.5151407000084873,457.6555151999928,458.9077454999933,457.6555151999928,458.4067078999942,457.6555151999928,458.4067078999942,457.6555151999928,458.4067078999942,457.6555151999928,458.4067078999942,457.6555151999928,458.4067078999942,458.3732624999975,458.8740904999868,458.3732624999975,458.8740904999868,458.3732624999975,458.8740904999868,458.3732624999975,458.8740904999868,458.3732624999975,458.8740904999868,458.3732624999975,458.8740904999868,458.3732624999975,458.8740904999868,458.3732624999975,458.8740904999868,457.6555151999928,None,458.8740904999868,460.4264167999936,0.7400000000000004,460.4593613999896,None,461.21082609999576,None,,,,,,,[1.55148148],3.1700000000000026,0.7777777777777778,11040,001,2024_Mar_13_1432,MFTM_A_new1021,2021.2.3,59.75132692956688,
,,,,,,,,stim/Instruction_adaptive.png,conditions/adaptive.xlsx,test,0.6,0.6,0.6,-0.6,-0.6,right,R,,,,,0,1,1,1,0,81,81,84,,,,,,,,,,,,,,,,,,,,,,,,,,,,,,,,,,,,,,,,,,,,461.7126814999938,None,right,1,1.6146679000084987,462.2125384999963,463.44769039998937,462.2125384999963,462.9468524999975,462.2125384999963,462.9468524999975,462.2125384999963,462.9468524999975,462.2125384999963,462.9468524999975,462.2125384999963,462.9468524999975,462.93001709999226,463.4309970999893,462.93001709999226,463.4309970999893,462.93001709999226,463.4309970999893,462.93001709999226,463.4309970999893,462.93001709999226,463.4309970999893,462.93001709999226,463.4309970999893,462.93001709999226,463.4309970999893,462.93001709999226,463.4309970999893,462.2125384999963,None,463.4309970999893,None,0.7300000000000004,465.0002843999973,None,465.7517571999924,None,,,,,,,[1.55414634],3.2000000000000024,0.7804878048780488,11040,001,2024_Mar_13_1432,MFTM_A_new1021,2021.2.3,59.75132692956688,
,,,,,,,,stim/Instruction_adaptive.png,conditions/adaptive.xlsx,test,-0.6,-0.6,-0.6,0.6,0.6,left,L,,,,,0,1,1,1,0,82,82,77,,,,,,,,,,,,,,,,,,,,,,,,,,,,,,,,,,,,,,,,,,,,466.2517109999899,None,right,0,1.635041600005934,466.75224419998995,467.9873455999914,466.75224419998995,467.48676629998954,466.75224419998995,467.48676629998954,466.75224419998995,467.48676629998954,466.75224419998995,467.48676629998954,466.75224419998995,467.48676629998954,467.45338219999394,467.9541959999915,467.45338219999394,467.9541959999915,467.45338219999394,467.9541959999915,467.45338219999394,467.9541959999915,467.45338219999394,467.9541959999915,467.45338219999394,467.9541959999915,467.45338219999394,467.9541959999915,467.45338219999394,467.9541959999915,466.75224419998995,None,467.9541959999915,469.52348409999104,0.7200000000000004,469.5401006999891,None,470.29200649999257,None,,,,,,,[1.55686747],3.1300000000000026,0.7710843373493976,11040,001,2024_Mar_13_1432,MFTM_A_new1021,2021.2.3,59.75132692956688,
,,,,,,,,stim/Instruction_adaptive.png,conditions/adaptive.xlsx,test,0.6,0.6,0.6,-0.6,-0.6,right,R,,,,,0,1,1,1,0,83,83,76,,,,,,,,,,,,,,,,,,,,,,,,,,,,,,,,,,,,,,,,,,,,470.79216749999614,None,left,0,1.1666247000102885,471.2924290999945,472.5444247999985,471.2924290999945,472.04374129998905,471.2924290999945,472.04374129998905,471.2924290999945,472.04374129998905,471.2924290999945,472.04374129998905,471.2924290999945,472.04374129998905,472.0271548999881,472.52782769998885,472.0271548999881,472.52782769998885,472.0271548999881,472.52782769998885,472.0271548999881,472.52782769998885,472.0271548999881,472.52782769998885,472.0271548999881,472.52782769998885,472.0271548999881,472.52782769998885,472.0271548999881,472.52782769998885,471.2924290999945,None,472.52782769998885,474.0967372999876,0.7500000000000004,474.11345579999033,None,474.86468679999234,None,,,,,,,[1.55916667],3.070000000000002,0.7619047619047619,11040,001,2024_Mar_13_1432,MFTM_A_new1021,2021.2.3,59.75132692956688,
,,,,,,,,stim/Instruction_adaptive.png,conditions/adaptive.xlsx,test,0.6,0.6,0.6,-0.6,-0.6,right,R,,,,,0,1,1,1,0,84,84,72,,,,,,,,,,,,,,,,,,,,,,,,,,,,,,,,,,,,,,,,,,,,475.36534889999893,None,right,1,1.2413437999930466,475.8658483999898,477.15139629998885,475.8658483999898,476.650670899995,475.8658483999898,476.650670899995,475.8658483999898,476.650670899995,475.8658483999898,476.650670899995,475.8658483999898,476.650670899995,476.63392609999573,477.13449889999174,476.63392609999573,477.13449889999174,476.63392609999573,477.13449889999174,476.63392609999573,477.13449889999174,476.63392609999573,477.13449889999174,476.63392609999573,477.13449889999174,476.63392609999573,477.13449889999174,476.63392609999573,477.13449889999174,475.8658483999898,None,477.13449889999174,478.7037934999971,0.7800000000000005,478.7204216999962,None,479.47160099999746,None,,,,,,,[1.56105882],3.0900000000000025,0.7647058823529411,11040,001,2024_Mar_13_1432,MFTM_A_new1021,2021.2.3,59.75132692956688,
,,,,,,,,stim/Instruction_adaptive.png,conditions/adaptive.xlsx,test,0.6,0.6,0.6,-0.6,-0.6,right,R,,,,,0,1,1,1,0,85,85,34,,,,,,,,,,,,,,,,,,,,,,,,,,,,,,,,,,,,,,,,,,,,479.97238979999383,None,right,1,1.2985062999941874,480.4731838999869,481.7593885999959,480.4731838999869,481.25794119999046,480.4731838999869,481.25794119999046,480.4731838999869,481.25794119999046,480.4731838999869,481.25794119999046,480.4731838999869,481.25794119999046,481.2249496000004,481.7249419,481.2249496000004,481.7249419,481.2249496000004,481.7249419,481.2249496000004,481.7249419,481.2249496000004,481.7249419,481.2249496000004,481.7249419,481.2249496000004,481.7249419,481.2249496000004,481.7249419,480.4731838999869,None,481.7249419,483.29509279999183,0.7700000000000005,483.3114089999872,None,484.06296839998686,None,,,,,,,[1.56302326],3.110000000000002,0.7674418604651163,11040,001,2024_Mar_13_1432,MFTM_A_new1021,2021.2.3,59.75132692956688,
,,,,,,,,stim/Instruction_adaptive.png,conditions/adaptive.xlsx,test,-0.6,-0.6,-0.6,0.6,0.6,left,L,,,,,0,1,1,1,0,86,86,19,,,,,,,,,,,,,,,,,,,,,,,,,,,,,,,,,,,,,,,,,,,,484.5633034999919,None,left,1,1.060154999999213,485.0632689999911,486.33180889999494,485.0632689999911,485.8313430999988,485.0632689999911,485.8313430999988,485.0632689999911,485.8313430999988,485.0632689999911,485.8313430999988,485.0632689999911,485.8313430999988,485.79843779999646,486.2982769999944,485.79843779999646,486.2982769999944,485.79843779999646,486.2982769999944,485.79843779999646,486.2982769999944,485.79843779999646,486.2982769999944,485.79843779999646,486.2982769999944,485.79843779999646,486.2982769999944,485.79843779999646,486.2982769999944,485.0632689999911,None,486.2982769999944,487.8675469999871,0.7600000000000005,487.9009660999873,None,488.6521187999897,None,,,,,,,[1.56505747],3.1300000000000026,0.7701149425287356,11040,001,2024_Mar_13_1432,MFTM_A_new1021,2021.2.3,59.75132692956688,
,,,,,,,,stim/Instruction_adaptive.png,conditions/adaptive.xlsx,test,-0.6,-0.6,-0.6,0.6,0.6,left,L,,,,,0,1,1,1,0,87,87,37,,,,,,,,,,,,,,,,,,,,,,,,,,,,,,,,,,,,,,,,,,,,489.15289899999334,None,left,1,1.2298124999942956,489.65368599999056,490.90601569999126,489.65368599999056,490.4046173999959,489.65368599999056,490.4046173999959,489.65368599999056,490.4046173999959,489.65368599999056,490.4046173999959,489.65368599999056,490.4046173999959,490.38789869999164,490.8886069,490.38789869999164,490.8886069,490.38789869999164,490.8886069,490.38789869999164,490.8886069,490.38789869999164,490.8886069,490.38789869999164,490.8886069,490.38789869999164,490.8886069,490.38789869999164,490.8886069,489.65368599999056,None,490.8886069,492.4579396999907,0.7500000000000004,492.4745361999958,None,493.22568099999626,None,,,,,,,[1.56715909],3.150000000000002,0.7727272727272727,11040,001,2024_Mar_13_1432,MFTM_A_new1021,2021.2.3,59.75132692956688,
,,,,,,,,stim/Instruction_adaptive.png,conditions/adaptive.xlsx,test,0.6,0.6,0.6,-0.6,-0.6,right,R,,,,,0,1,1,1,0,88,88,44,,,,,,,,,,,,,,,,,,,,,,,,,,,,,,,,,,,,,,,,,,,,493.7263596999983,None,right,1,1.3844806999986758,494.2271744999889,495.48085490000085,494.2271744999889,494.97835679999844,494.2271744999889,494.97835679999844,494.2271744999889,494.97835679999844,494.2271744999889,494.97835679999844,494.2271744999889,494.97835679999844,494.9450618999981,495.44596069998806,494.9450618999981,495.44596069998806,494.9450618999981,495.44596069998806,494.9450618999981,495.44596069998806,494.9450618999981,495.44596069998806,494.9450618999981,495.44596069998806,494.9450618999981,495.44596069998806,494.9450618999981,495.44596069998806,494.2271744999889,None,495.44596069998806,497.0149146999902,0.7400000000000004,497.04807789999177,None,497.79986389999976,None,,,,,,,[1.56932584],3.1700000000000026,0.7752808988764045,11040,001,2024_Mar_13_1432,MFTM_A_new1021,2021.2.3,59.75132692956688,
,,,,,,,,stim/Instruction_adaptive.png,conditions/adaptive.xlsx,test,0.6,0.6,0.6,-0.6,-0.6,right,R,,,,,0,1,1,1,0,89,89,60,,,,,,,,,,,,,,,,,,,,,,,,,,,,,,,,,,,,,,,,,,,,498.2998957999953,None,left,0,1.2513779000000795,498.80081529999734,500.03596569999354,498.80081529999734,499.5349553999986,498.80081529999734,499.5349553999986,498.80081529999734,499.5349553999986,498.80081529999734,499.5349553999986,498.80081529999734,499.5349553999986,499.51825619999727,500.0197210999904,499.51825619999727,500.0197210999904,499.51825619999727,500.0197210999904,499.51825619999727,500.0197210999904,499.51825619999727,500.0197210999904,499.51825619999727,500.0197210999904,499.51825619999727,500.0197210999904,499.51825619999727,500.0197210999904,498.80081529999734,None,500.0197210999904,None,0.7300000000000004,501.60504939999373,None,502.35614799999166,None,,,,,,,[1.57155556],3.1200000000000023,0.7666666666666667,11040,001,2024_Mar_13_1432,MFTM_A_new1021,2021.2.3,59.75132692956688,
,,,,,,,,stim/Instruction_adaptive.png,conditions/adaptive.xlsx,test,0.6,0.6,0.6,-0.6,-0.6,right,R,,,,,0,1,1,1,0,90,90,28,,,,,,,,,,,,,,,,,,,,,,,,,,,,,,,,,,,,,,,,,,,,502.85698549999506,None,right,1,1.0070229999982985,503.3572895999969,504.6271624999936,503.3572895999969,504.1262175999873,503.3572895999969,504.1262175999873,503.3572895999969,504.1262175999873,503.3572895999969,504.1262175999873,503.3572895999969,504.1262175999873,504.09248659999867,504.5934980999882,504.09248659999867,504.5934980999882,504.09248659999867,504.5934980999882,504.09248659999867,504.5934980999882,504.09248659999867,504.5934980999882,504.09248659999867,504.5934980999882,504.09248659999867,504.5934980999882,504.09248659999867,504.5934980999882,503.3572895999969,None,504.5934980999882,506.1789146999945,0.7600000000000005,506.1946870999964,None,506.9462496999913,None,,,,,,,[1.57340659],3.1400000000000023,0.7692307692307693,11040,001,2024_Mar_13_1432,MFTM_A_new1021,2021.2.3,59.75132692956688,
,,,,,,,,stim/Instruction_adaptive.png,conditions/adaptive.xlsx,test,-0.6,-0.6,-0.6,0.6,0.6,left,L,,,,,0,1,1,1,0,91,91,41,,,,,,,,,,,,,,,,,,,,,,,,,,,,,,,,,,,,,,,,,,,,507.44721429998754,None,left,1,1.3836496000003535,507.94855709999683,509.2005712999962,507.94855709999683,508.6989658999955,507.94855709999683,508.6989658999955,507.94855709999683,508.6989658999955,507.94855709999683,508.6989658999955,507.94855709999683,508.6989658999955,508.6822659999889,509.183114799991,508.6822659999889,509.183114799991,508.6822659999889,509.183114799991,508.6822659999889,509.183114799991,508.6822659999889,509.183114799991,508.6822659999889,509.183114799991,508.6822659999889,509.183114799991,508.6822659999889,509.183114799991,507.94855709999683,None,509.183114799991,510.76887289999286,0.7500000000000004,510.78536589999567,None,511.5374376999971,None,,,,,,,[1.57532609],3.150000000000002,0.7717391304347826,11040,001,2024_Mar_13_1432,MFTM_A_new1021,2021.2.3,59.75132692956688,
,,,,,,,,stim/Instruction_adaptive.png,conditions/adaptive.xlsx,test,-0.6,-0.6,-0.6,0.6,0.6,left,L,,,,,0,1,1,1,0,92,92,73,,,,,,,,,,,,,,,,,,,,,,,,,,,,,,,,,,,,,,,,,,,,512.0383140999911,None,left,1,1.1379954000003636,512.5381330999953,513.7898937999998,512.5381330999953,513.2891528999899,512.5381330999953,513.2891528999899,512.5381330999953,513.2891528999899,512.5381330999953,513.2891528999899,512.5381330999953,513.2891528999899,513.2558063999895,513.7576520000002,513.2558063999895,513.7576520000002,513.2558063999895,513.7576520000002,513.2558063999895,513.7576520000002,513.2558063999895,513.7576520000002,513.2558063999895,513.7576520000002,513.2558063999895,513.7576520000002,513.2558063999895,513.7576520000002,512.5381330999953,None,513.7576520000002,515.3424597999983,0.7400000000000004,515.3591148999985,None,516.1101224000013,None,,,,,,,[1.57731183],3.1700000000000026,0.7741935483870968,11040,001,2024_Mar_13_1432,MFTM_A_new1021,2021.2.3,59.75132692956688,
,,,,,,,,stim/Instruction_adaptive.png,conditions/adaptive.xlsx,test,0.6,0.6,0.6,-0.6,-0.6,right,R,,,,,0,1,1,1,0,93,93,50,,,,,,,,,,,,,,,,,,,,,,,,,,,,,,,,,,,,,,,,,,,,516.6121869999915,None,right,1,1.1089318000013009,517.1114679999882,518.346773799989,517.1114679999882,517.8470299999899,517.1114679999882,517.8470299999899,517.1114679999882,517.8470299999899,517.1114679999882,517.8470299999899,517.1114679999882,517.8470299999899,517.8295623000013,518.3300145999965,517.8295623000013,518.3300145999965,517.8295623000013,518.3300145999965,517.8295623000013,518.3300145999965,517.8295623000013,518.3300145999965,517.8295623000013,518.3300145999965,517.8295623000013,518.3300145999965,517.8295623000013,518.3300145999965,517.1114679999882,None,518.3300145999965,519.9157655999879,0.7300000000000004,519.9329154999868,None,520.685078999988,None,,,,,,,[1.5793617],3.190000000000002,0.776595744680851,11040,001,2024_Mar_13_1432,MFTM_A_new1021,2021.2.3,59.75132692956688,
