arrwidth1,arrwidth2,arrwidth3,arrwidth4,arrwidth5,keyb,type,orientation,instruction_image,block_filename,block_type,arrow11,arrow22,arrow33,arrow44,arrow55,keyb_3,orientation3,trials.thisRepN,trials.thisTrialN,trials.thisN,trials.thisIndex,trials_3.thisRepN,trials_3.thisTrialN,trials_3.thisN,trials_3.thisIndex,trials_2.thisRepN,trials_2.thisTrialN,trials_2.thisN,trials_2.thisIndex,welcome.started,welcome.stopped,key_resp.keys,key_resp.rt,key_resp.started,key_resp.stopped,instruction_example.started,instruction_example.stopped,key_resp_3.keys,key_resp_3.rt,key_resp_3.started,key_resp_3.stopped,instruction_task.started,instruction_task.stopped,key_resp_2.keys,key_resp_2.rt,key_resp_2.started,key_resp_2.stopped,text_2.started,text_2.stopped,A1.started,A1.stopped,A2.started,A2.stopped,A3.started,A3.stopped,A4.started,A4.stopped,A5.started,A5.stopped,key_resp_4.keys,key_resp_4.corr,key_resp_4.rt,key_resp_4.started,key_resp_4.stopped,fb.started,fb.stopped,instruction_block.started,instruction_block.stopped,key_resp_8.keys,key_resp_8.rt,key_resp_8.started,key_resp_8.stopped,text_8.started,text_8.stopped,key_resp_9.keys,key_resp_9.corr,key_resp_9.rt,text_5.started,text_5.stopped,A11_3.started,A11_3.stopped,A22_2.started,A22_2.stopped,A33_2.started,A33_2.stopped,A44_2.started,A44_2.stopped,A55_2.started,A55_2.stopped,M1_3.started,M1_3.stopped,M2_2.started,M2_2.stopped,M3_2.started,M3_2.stopped,M4_2.started,M4_2.stopped,M5_2.started,M5_2.stopped,M6_2.started,M6_2.stopped,M7_2.started,M7_2.stopped,M8_2.started,M8_2.stopped,key_resp_9.started,key_resp_9.stopped,fixation.started,fixation.stopped,ET,fb_3.started,fb_3.stopped,text_9.started,text_9.stopped,fb_4.started,fb_4.stopped,text_7.started,text_7.stopped,endtext.started,endtext.stopped,fixation_ITI,CCC,Acc,participant,session,date,expName,psychopyVersion,frameRate,
,,,,,,,,,,,,,,,,,,,,,,,,,,,,,,13.073855199851096,None,down,1.6818570999894291,13.073855199851096,None,,,,,,,,,,,,,,,,,,,,,,,,,,,,,,,,,,,,,,,,,,,,,,,,,,,,,,,,,,,,,,,,,,,,,,,,,,,,,,,,,,,,,,,,,11045,002,2024_Apr_13_1519,MFTM_A_new1021,2021.2.3,59.50238160338267,
,,,,,,,,,,,,,,,,,,,,,,,,,,,,,,,,,,,,14.776860699988902,None,down,1.0834904999937862,14.776860699988902,None,,,,,,,,,,,,,,,,,,,,,,,,,,,,,,,,,,,,,,,,,,,,,,,,,,,,,,,,,,,,,,,,,,,,,,,,,,,,,,,,,,,11045,002,2024_Apr_13_1519,MFTM_A_new1021,2021.2.3,59.50238160338267,
,,,,,,,,,,,,,,,,,,,,,,,,,,,,,,,,,,,,,,,,,,15.878393199993297,None,down,1.102396700065583,15.878393199993297,None,,,,,,,,,,,,,,,,,,,,,,,,,,,,,,,,,,,,,,,,,,,,,,,,,,,,,,,,,,,,,,,,,,,,,,,,,,,,,11045,002,2024_Apr_13_1519,MFTM_A_new1021,2021.2.3,59.50238160338267,
-0.6,-0.6,-0.6,0.6,0.6,left,3:2,L,,,,,,,,,,,0,0,0,1,,,,,,,,,,,,,,,,,,,,,,,,,,,17.01470880000852,None,17.01470880000852,None,17.01470880000852,None,17.01470880000852,None,17.01470880000852,None,17.01470880000852,None,left,1,1.4131686000619084,17.01470880000852,None,18.466904499800876,None,,,,,,,,,,,,,,,,,,,,,,,,,,,,,,,,,,,,,,,,,,,,,,,,,,,,,,,,,,11045,002,2024_Apr_13_1519,MFTM_A_new1021,2021.2.3,59.50238160338267,
0.6,0.6,0.6,-0.6,-0.6,right,3:2,R,,,,,,,,,,,0,1,1,0,,,,,,,,,,,,,,,,,,,,,,,,,,,19.21813129982911,None,19.21813129982911,None,19.21813129982911,None,19.21813129982911,None,19.21813129982911,None,19.21813129982911,None,right,1,1.1301160999573767,19.21813129982911,None,20.368641499895602,None,,,,,,,,,,,,,,,,,,,,,,,,,,,,,,,,,,,,,,,,,,,,,,,,,,,,,,,,,,11045,002,2024_Apr_13_1519,MFTM_A_new1021,2021.2.3,59.50238160338267,
-0.6,-0.6,-0.6,0.6,0.6,left,3:2,L,,,,,,,,,,,1,0,2,1,,,,,,,,,,,,,,,,,,,,,,,,,,,21.1202670999337,None,21.1202670999337,None,21.1202670999337,None,21.1202670999337,None,21.1202670999337,None,21.1202670999337,None,left,1,0.8600346001330763,21.1202670999337,None,22.005076400004327,None,,,,,,,,,,,,,,,,,,,,,,,,,,,,,,,,,,,,,,,,,,,,,,,,,,,,,,,,,,11045,002,2024_Apr_13_1519,MFTM_A_new1021,2021.2.3,59.50238160338267,
0.6,0.6,0.6,-0.6,-0.6,right,3:2,R,,,,,,,,,,,1,1,3,0,,,,,,,,,,,,,,,,,,,,,,,,,,,22.75580699997954,None,22.75580699997954,None,22.75580699997954,None,22.75580699997954,None,22.75580699997954,None,22.75580699997954,None,right,1,1.2481142999604344,22.75580699997954,None,24.02373779984191,None,,,,,,,,,,,,,,,,,,,,,,,,,,,,,,,,,,,,,,,,,,,,,,,,,,,,,,,,,,11045,002,2024_Apr_13_1519,MFTM_A_new1021,2021.2.3,59.50238160338267,
,,,,,,,,stim/Instruction_mask.png,conditions/adaptive.xlsx,practice,0.6,0.6,0.6,-0.6,-0.6,right,R,,,,,0,0,0,0,0,0,0,64,,,,,,,,,,,,,,,,,,,,,,,,,,,,,,,,,,,,,,25.14185609994456,None,space,3.119383699959144,25.14185609994456,None,28.38118759985082,None,right,1,2.1594610000029206,28.79746019979939,None,28.79746019979939,31.802941599860787,28.79746019979939,31.802941599860787,28.79746019979939,31.802941599860787,28.79746019979939,31.802941599860787,28.79746019979939,31.802941599860787,31.78613579994999,32.286771199898794,31.78613579994999,32.286771199898794,31.78613579994999,32.286771199898794,31.78613579994999,32.286771199898794,31.78613579994999,32.286771199898794,31.78613579994999,32.286771199898794,31.78613579994999,32.286771199898794,31.78613579994999,32.286771199898794,28.79746019979939,None,32.286771199898794,32.286771199898794,3,32.30304909986444,None,33.05455579981208,None,,,,,,,,,,11045,002,2024_Apr_13_1519,MFTM_A_new1021,2021.2.3,59.50238160338267,
,,,,,,,,stim/Instruction_mask.png,conditions/adaptive.xlsx,practice,-0.6,-0.6,-0.6,0.6,0.6,left,L,,,,,0,0,0,0,0,1,1,85,,,,,,,,,,,,,,,,,,,,,,,,,,,,,,,,,,,,,,,,,,,,33.5559590999037,None,right,0,1.747202099999413,34.05701619992033,36.059514299966395,34.05701619992033,35.557890799827874,34.05701619992033,35.557890799827874,34.05701619992033,35.557890799827874,34.05701619992033,35.557890799827874,34.05701619992033,35.557890799827874,35.54105689981952,36.0427355999127,35.54105689981952,36.0427355999127,35.54105689981952,36.0427355999127,35.54105689981952,36.0427355999127,35.54105689981952,36.0427355999127,35.54105689981952,36.0427355999127,35.54105689981952,36.0427355999127,35.54105689981952,36.0427355999127,34.05701619992033,None,36.0427355999127,37.54481569980271,1.5,37.56192579981871,None,38.31297369999811,None,,,,,,,,,,11045,002,2024_Apr_13_1519,MFTM_A_new1021,2021.2.3,59.50238160338267,
,,,,,,,,stim/Instruction_mask.png,conditions/adaptive.xlsx,practice,0.6,0.6,0.6,-0.6,-0.6,right,R,,,,,0,0,0,0,0,2,2,70,,,,,,,,,,,,,,,,,,,,,,,,,,,,,,,,,,,,,,,,,,,,38.81333879986778,None,right,1,1.6747975000180304,39.31425890000537,40.61560419993475,39.31425890000537,40.11507639987394,39.31425890000537,40.11507639987394,39.31425890000537,40.11507639987394,39.31425890000537,40.11507639987394,39.31425890000537,40.11507639987394,40.09898919984698,40.599440599791706,40.09898919984698,40.599440599791706,40.09898919984698,40.599440599791706,40.09898919984698,40.599440599791706,40.09898919984698,40.599440599791706,40.09898919984698,40.599440599791706,40.09898919984698,40.599440599791706,40.09898919984698,40.599440599791706,39.31425890000537,None,40.599440599791706,42.80270389979705,0.8,42.81951810000464,None,43.57073189993389,None,,,,,,,,,,11045,002,2024_Apr_13_1519,MFTM_A_new1021,2021.2.3,59.50238160338267,
,,,,,,,,stim/Instruction_mask.png,conditions/adaptive.xlsx,practice,0.6,0.6,0.6,-0.6,-0.6,right,R,,,,,0,0,0,0,0,3,3,68,,,,,,,,,,,,,,,,,,,,,,,,,,,,,,,,,,,,,,,,,,,,44.07181299990043,None,left,0,2.0092901999596506,44.572047599824145,45.32368399994448,44.572047599824145,44.82254239986651,44.572047599824145,44.82254239986651,44.572047599824145,44.82254239986651,44.572047599824145,44.82254239986651,44.572047599824145,44.82254239986651,44.805682899896055,45.3077222998254,44.805682899896055,45.3077222998254,44.805682899896055,45.3077222998254,44.805682899896055,45.3077222998254,44.805682899896055,45.3077222998254,44.805682899896055,45.3077222998254,44.805682899896055,45.3077222998254,44.805682899896055,45.3077222998254,44.572047599824145,None,45.3077222998254,48.06044619996101,3,48.07736419979483,None,48.82823619991541,None,,,,,,,,,,11045,002,2024_Apr_13_1519,MFTM_A_new1021,2021.2.3,59.50238160338267,
,,,,,,,,stim/Instruction_mask.png,conditions/adaptive.xlsx,practice,,,,,,,,,,,,0,0,0,0,,,,,,,,,,,,,,,,,,,,,,,,,,,,,,,,,,,,,,,,,,,,,,,,,,,,,,,,,,,,,,,,,,,,,,,,,,,,,,,,,,,,,,,,,,49.34565939987078,50.34815049986355,50.31394599983469,50.31394599983469,50.31394599983469,None,,,,11045,002,2024_Apr_13_1519,MFTM_A_new1021,2021.2.3,59.50238160338267,
,,,,,,,,stim/Instruction_adaptive.png,conditions/adaptive.xlsx,test,-0.6,-0.6,-0.6,0.6,0.6,left,L,,,,,0,1,1,1,0,0,0,89,,,,,,,,,,,,,,,,,,,,,,,,,,,,,,,,,,,,,,53.55171709996648,None,down,4.557812699815258,53.55171709996648,None,58.159729299834,None,left,1,2.0490200000349432,58.64363979990594,None,58.64363979990594,61.64780479995534,58.64363979990594,61.64780479995534,58.64363979990594,61.64780479995534,58.64363979990594,61.64780479995534,58.64363979990594,61.64780479995534,61.631501499796286,62.13326479983516,61.631501499796286,62.13326479983516,61.631501499796286,62.13326479983516,61.631501499796286,62.13326479983516,61.631501499796286,62.13326479983516,61.631501499796286,62.13326479983516,61.631501499796286,62.13326479983516,61.631501499796286,62.13326479983516,58.64363979990594,None,62.11505619995296,62.11505619995296,3,62.1480956999585,None,62.899898199830204,None,,,,,,,0,6.000000000000005,1.0,11045,002,2024_Apr_13_1519,MFTM_A_new1021,2021.2.3,59.50238160338267,
,,,,,,,,stim/Instruction_adaptive.png,conditions/adaptive.xlsx,test,-0.6,-0.6,-0.6,0.6,0.6,left,L,,,,,0,1,1,1,0,1,1,65,,,,,,,,,,,,,,,,,,,,,,,,,,,,,,,,,,,,,,,,,,,,63.40081879985519,None,right,0,1.9453764001373202,63.90044120000675,64.65188949997537,63.90044120000675,64.15155219985172,63.90044120000675,64.15155219985172,63.90044120000675,64.15155219985172,63.90044120000675,64.15155219985172,63.90044120000675,64.15155219985172,64.13489769981243,64.63595339981839,64.13489769981243,64.63595339981839,64.13489769981243,64.63595339981839,64.13489769981243,64.63595339981839,64.13489769981243,64.63595339981839,64.13489769981243,64.63595339981839,64.13489769981243,64.63595339981839,64.13489769981243,64.63595339981839,63.90044120000675,None,64.63595339981839,65.87092119990848,0.25,65.90467249997891,None,66.65594500000589,None,,,,,,,[0.875],2.570000000000002,0.5,11045,002,2024_Apr_13_1519,MFTM_A_new1021,2021.2.3,59.50238160338267,
,,,,,,,,stim/Instruction_adaptive.png,conditions/adaptive.xlsx,test,0.6,0.6,0.6,-0.6,-0.6,right,R,,,,,0,1,1,1,0,2,2,82,,,,,,,,,,,,,,,,,,,,,,,,,,,,,,,,,,,,,,,,,,,,67.15701379999518,None,right,1,1.6595999000128359,67.65771529986523,69.27556280000135,67.65771529986523,68.77521829982288,67.65771529986523,68.77521829982288,67.65771529986523,68.77521829982288,67.65771529986523,68.77521829982288,67.65771529986523,68.77521829982288,68.74131229985505,69.24201829987578,68.74131229985505,69.24201829987578,68.74131229985505,69.24201829987578,68.74131229985505,69.24201829987578,68.74131229985505,69.24201829987578,68.74131229985505,69.24201829987578,68.74131229985505,69.24201829987578,68.74131229985505,69.24201829987578,67.65771529986523,None,69.24201829987578,70.29389399988577,1.1100000000000008,70.34561829990707,None,71.09550949977711,None,,,,,,,[1.04666667],3.3800000000000026,0.6666666666666666,11045,002,2024_Apr_13_1519,MFTM_A_new1021,2021.2.3,59.50238160338267,
,,,,,,,,stim/Instruction_adaptive.png,conditions/adaptive.xlsx,test,-0.6,-0.6,-0.6,0.6,0.6,left,L,,,,,0,1,1,1,0,3,3,25,,,,,,,,,,,,,,,,,,,,,,,,,,,,,,,,,,,,,,,,,,,,71.5965489000082,None,right,0,1.5025161998346448,72.09708300000057,73.23221259983256,72.09708300000057,72.73219449981116,72.09708300000057,72.73219449981116,72.09708300000057,72.73219449981116,72.09708300000057,72.73219449981116,72.09708300000057,72.73219449981116,72.71500759990886,73.21517249988392,72.71500759990886,73.21517249988392,72.71500759990886,73.21517249988392,72.71500759990886,73.21517249988392,72.71500759990886,73.21517249988392,72.71500759990886,73.21517249988392,72.71500759990886,73.21517249988392,72.71500759990886,73.21517249988392,72.09708300000057,None,73.19839189993218,74.4503824999556,0.6300000000000003,74.50135989999399,None,75.2515362999402,None,,,,,,,[1.2525],2.1700000000000017,0.5,11045,002,2024_Apr_13_1519,MFTM_A_new1021,2021.2.3,59.50238160338267,
,,,,,,,,stim/Instruction_adaptive.png,conditions/adaptive.xlsx,test,0.6,0.6,0.6,-0.6,-0.6,right,R,,,,,0,1,1,1,0,4,4,44,,,,,,,,,,,,,,,,,,,,,,,,,,,,,,,,,,,,,,,,,,,,75.75299089984037,None,right,1,1.2649734001606703,76.25255739991553,78.22313279984519,76.25255739991553,77.72165139997378,76.25255739991553,77.72165139997378,76.25255739991553,77.72165139997378,76.25255739991553,77.72165139997378,76.25255739991553,77.72165139997378,77.6884983999189,78.18967469991185,77.6884983999189,78.18967469991185,77.6884983999189,78.18967469991185,77.6884983999189,78.18967469991185,77.6884983999189,78.18967469991185,77.6884983999189,78.18967469991185,77.6884983999189,78.18967469991185,77.6884983999189,78.18967469991185,76.25255739991553,None,78.18967469991185,79.24069629982114,1.460000000000001,79.25683789979666,None,80.0089502998162,None,,,,,,,[[1.04]],2.690000000000002,0.6,11045,002,2024_Apr_13_1519,MFTM_A_new1021,2021.2.3,59.50238160338267,
,,,,,,,,stim/Instruction_adaptive.png,conditions/adaptive.xlsx,test,0.6,0.6,0.6,-0.6,-0.6,right,R,,,,,0,1,1,1,0,5,5,14,,,,,,,,,,,,,,,,,,,,,,,,,,,,,,,,,,,,,,,,,,,,80.50935939978808,None,right,1,1.2042131000198424,81.01029609981924,82.52916239993647,81.01029609981924,82.04519319999963,81.01029609981924,82.04519319999963,81.01029609981924,82.04519319999963,81.01029609981924,82.04519319999963,81.01029609981924,82.04519319999963,82.01195509987883,82.51296419999562,82.01195509987883,82.51296419999562,82.01195509987883,82.51296419999562,82.01195509987883,82.51296419999562,82.01195509987883,82.51296419999562,82.01195509987883,82.51296419999562,82.01195509987883,82.51296419999562,82.01195509987883,82.51296419999562,81.01029609981924,None,82.51296419999562,83.78093559993431,1.0200000000000007,83.79708319995552,None,84.54895509989001,None,,,,,,,[1.255],3.0400000000000023,0.6666666666666666,11045,002,2024_Apr_13_1519,MFTM_A_new1021,2021.2.3,59.50238160338267,
,,,,,,,,stim/Instruction_adaptive.png,conditions/adaptive.xlsx,test,-0.6,-0.6,-0.6,0.6,0.6,left,L,,,,,0,1,1,1,0,6,6,99,,,,,,,,,,,,,,,,,,,,,,,,,,,,,,,,,,,,,,,,,,,,85.05052629997954,None,left,1,1.4395364001393318,85.55025579989888,86.85214489977807,85.55025579989888,86.35168679989874,85.55025579989888,86.35168679989874,85.55025579989888,86.35168679989874,85.55025579989888,86.35168679989874,85.55025579989888,86.35168679989874,86.33506949990988,86.83546929992735,86.33506949990988,86.83546929992735,86.33506949990988,86.83546929992735,86.33506949990988,86.83546929992735,86.33506949990988,86.83546929992735,86.33506949990988,86.83546929992735,86.33506949990988,86.83546929992735,86.33506949990988,86.83546929992735,85.55025579989888,None,86.83546929992735,88.15500469994731,0.8000000000000005,88.17172099999152,None,88.92228209995665,None,,,,,,,[1.31857143],3.3200000000000025,0.7142857142857143,11045,002,2024_Apr_13_1519,MFTM_A_new1021,2021.2.3,59.50238160338267,
,,,,,,,,stim/Instruction_adaptive.png,conditions/adaptive.xlsx,test,0.6,0.6,0.6,-0.6,-0.6,right,R,,,,,0,1,1,1,0,7,7,50,,,,,,,,,,,,,,,,,,,,,,,,,,,,,,,,,,,,,,,,,,,,89.42344529996626,None,right,1,1.737886399962008,89.92423269990832,91.09235549997538,89.92423269990832,90.59163999999873,89.92423269990832,90.59163999999873,89.92423269990832,90.59163999999873,89.92423269990832,90.59163999999873,89.92423269990832,90.59163999999873,90.57516809995286,91.07559289992787,90.57516809995286,91.07559289992787,90.57516809995286,91.07559289992787,90.57516809995286,91.07559289992787,90.57516809995286,91.07559289992787,90.57516809995286,91.07559289992787,90.57516809995286,91.07559289992787,90.57516809995286,91.07559289992787,89.92423269990832,None,91.07559289992787,92.46095909993164,0.6600000000000004,92.47691420000046,None,93.22851189994253,None,,,,,,,[1.38375],3.5400000000000027,0.75,11045,002,2024_Apr_13_1519,MFTM_A_new1021,2021.2.3,59.50238160338267,
,,,,,,,,stim/Instruction_adaptive.png,conditions/adaptive.xlsx,test,-0.6,-0.6,-0.6,0.6,0.6,left,L,,,,,0,1,1,1,0,8,8,91,,,,,,,,,,,,,,,,,,,,,,,,,,,,,,,,,,,,,,,,,,,,93.72951409989037,None,left,1,1.4644985999912024,94.22950259991921,95.29924829979427,94.22950259991921,94.81472979998216,94.22950259991921,94.81472979998216,94.22950259991921,94.81472979998216,94.22950259991921,94.81472979998216,94.22950259991921,94.81472979998216,94.78101209993474,95.2823492998723,94.78101209993474,95.2823492998723,94.78101209993474,95.2823492998723,94.78101209993474,95.2823492998723,94.78101209993474,95.2823492998723,94.78101209993474,95.2823492998723,94.78101209993474,95.2823492998723,94.78101209993474,95.2823492998723,94.22950259991921,None,95.2823492998723,96.73544629989192,0.5700000000000003,96.76812689984217,None,97.5192680999171,None,,,,,,,[1.44444444],3.730000000000003,0.7777777777777778,11045,002,2024_Apr_13_1519,MFTM_A_new1021,2021.2.3,59.50238160338267,
,,,,,,,,stim/Instruction_adaptive.png,conditions/adaptive.xlsx,test,-0.6,-0.6,-0.6,0.6,0.6,left,L,,,,,0,1,1,1,0,9,9,69,,,,,,,,,,,,,,,,,,,,,,,,,,,,,,,,,,,,,,,,,,,,98.01999709988013,None,right,0,1.3097743999678642,98.52043089992367,99.52239359985106,98.52043089992367,99.02062879991718,98.52043089992367,99.02062879991718,98.52043089992367,99.02062879991718,98.52043089992367,99.02062879991718,98.52043089992367,99.02062879991718,99.0036663999781,99.5048957997933,99.0036663999781,99.5048957997933,99.0036663999781,99.5048957997933,99.0036663999781,99.5048957997933,99.0036663999781,99.5048957997933,99.0036663999781,99.5048957997933,99.0036663999781,99.5048957997933,99.0036663999781,99.5048957997933,98.52043089992367,None,99.5048957997933,101.00752729992382,0.5000000000000002,101.02380279987119,None,101.77508959989063,None,,,,,,,[1.5],3.2600000000000025,0.7,11045,002,2024_Apr_13_1519,MFTM_A_new1021,2021.2.3,59.50238160338267,
,,,,,,,,stim/Instruction_adaptive.png,conditions/adaptive.xlsx,test,0.6,0.6,0.6,-0.6,-0.6,right,R,,,,,0,1,1,1,0,10,10,64,,,,,,,,,,,,,,,,,,,,,,,,,,,,,,,,,,,,,,,,,,,,102.2752021998167,None,right,1,1.5257860000710934,102.7772763997782,103.97829159977846,102.7772763997782,103.47769809979945,102.7772763997782,103.47769809979945,102.7772763997782,103.47769809979945,102.7772763997782,103.47769809979945,102.7772763997782,103.47769809979945,103.44446889986284,103.94491129997186,103.44446889986284,103.94491129997186,103.44446889986284,103.94491129997186,103.44446889986284,103.94491129997186,103.44446889986284,103.94491129997186,103.44446889986284,103.94491129997186,103.44446889986284,103.94491129997186,103.44446889986284,103.94491129997186,102.7772763997782,None,103.94491129997186,105.480479599908,0.6900000000000004,105.49663919978775,None,106.24788549984805,None,,,,,,,[1.52818182],3.4400000000000026,0.7272727272727273,11045,002,2024_Apr_13_1519,MFTM_A_new1021,2021.2.3,59.50238160338267,
,,,,,,,,stim/Instruction_adaptive.png,conditions/adaptive.xlsx,test,-0.6,-0.6,-0.6,0.6,0.6,left,L,,,,,0,1,1,1,0,11,11,75,,,,,,,,,,,,,,,,,,,,,,,,,,,,,,,,,,,,,,,,,,,,106.7491018997971,None,left,1,1.421155899995938,107.24932459997945,108.36804349999875,107.24932459997945,107.86812169989571,107.24932459997945,107.86812169989571,107.24932459997945,107.86812169989571,107.24932459997945,107.86812169989571,107.24932459997945,107.86812169989571,107.8508284999989,108.35170629993081,107.8508284999989,108.35170629993081,107.8508284999989,108.35170629993081,107.8508284999989,108.35170629993081,107.8508284999989,108.35170629993081,107.8508284999989,108.35170629993081,107.8508284999989,108.35170629993081,107.8508284999989,108.35170629993081,107.24932459997945,None,108.35170629993081,None,0.6100000000000003,109.93723809998482,None,110.68792239995673,None,,,,,,,[1.55833333],3.5900000000000025,0.75,11045,002,2024_Apr_13_1519,MFTM_A_new1021,2021.2.3,59.50238160338267,
,,,,,,,,stim/Instruction_adaptive.png,conditions/adaptive.xlsx,test,-0.6,-0.6,-0.6,0.6,0.6,left,L,,,,,0,1,1,1,0,12,12,7,,,,,,,,,,,,,,,,,,,,,,,,,,,,,,,,,,,,,,,,,,,,111.18935589981265,None,right,0,1.3487426999490708,111.6901629997883,112.74190009990707,111.6901629997883,112.24093709979206,111.6901629997883,112.24093709979206,111.6901629997883,112.24093709979206,111.6901629997883,112.24093709979206,111.6901629997883,112.24093709979206,112.22514029988088,112.72521739988588,112.22514029988088,112.72521739988588,112.22514029988088,112.72521739988588,112.22514029988088,112.72521739988588,112.22514029988088,112.72521739988588,112.22514029988088,112.72521739988588,112.22514029988088,112.72521739988588,112.22514029988088,112.72521739988588,111.6901629997883,None,112.72521739988588,None,0.5500000000000003,114.34452859987505,None,115.09633529977873,None,,,,,,,[1.58846154],3.2000000000000024,0.6923076923076923,11045,002,2024_Apr_13_1519,MFTM_A_new1021,2021.2.3,59.50238160338267,
,,,,,,,,stim/Instruction_adaptive.png,conditions/adaptive.xlsx,test,-0.6,-0.6,-0.6,0.6,0.6,left,L,,,,,0,1,1,1,0,13,13,11,,,,,,,,,,,,,,,,,,,,,,,,,,,,,,,,,,,,,,,,,,,,115.59603209979832,None,left,1,1.590369800105691,116.09698219993152,117.33209129981697,116.09698219993152,116.83129839994945,116.09698219993152,116.83129839994945,116.09698219993152,116.83129839994945,116.09698219993152,116.83129839994945,116.09698219993152,116.83129839994945,116.79777849977836,117.2992005997803,116.79777849977836,117.2992005997803,116.79777849977836,117.2992005997803,116.79777849977836,117.2992005997803,116.79777849977836,117.2992005997803,116.79777849977836,117.2992005997803,116.79777849977836,117.2992005997803,116.79777849977836,117.2992005997803,116.09698219993152,None,117.2992005997803,118.9009765998926,0.7200000000000004,118.93401669990271,None,119.68589199986309,None,,,,,,,[1.60214286],3.3400000000000025,0.7142857142857143,11045,002,2024_Apr_13_1519,MFTM_A_new1021,2021.2.3,59.50238160338267,
,,,,,,,,stim/Instruction_adaptive.png,conditions/adaptive.xlsx,test,-0.6,-0.6,-0.6,0.6,0.6,left,L,,,,,0,1,1,1,0,14,14,67,,,,,,,,,,,,,,,,,,,,,,,,,,,,,,,,,,,,,,,,,,,,120.18733469978906,None,left,1,1.4094161000102758,120.68656049994752,121.8388724999968,120.68656049994752,121.33803999982774,120.68656049994752,121.33803999982774,120.68656049994752,121.33803999982774,120.68656049994752,121.33803999982774,120.68656049994752,121.33803999982774,121.32055529998615,121.82194199995138,121.32055529998615,121.82194199995138,121.32055529998615,121.82194199995138,121.32055529998615,121.82194199995138,121.32055529998615,121.82194199995138,121.32055529998615,121.82194199995138,121.32055529998615,121.82194199995138,121.32055529998615,121.82194199995138,120.68656049994752,None,121.82194199995138,123.44109099986963,0.6500000000000004,123.456959299976,None,124.20861249999143,None,,,,,,,[1.61866667],3.4700000000000024,0.7333333333333333,11045,002,2024_Apr_13_1519,MFTM_A_new1021,2021.2.3,59.50238160338267,
,,,,,,,,stim/Instruction_adaptive.png,conditions/adaptive.xlsx,test,-0.6,-0.6,-0.6,0.6,0.6,left,L,,,,,0,1,1,1,0,15,15,79,,,,,,,,,,,,,,,,,,,,,,,,,,,,,,,,,,,,,,,,,,,,124.70957939978689,None,right,0,1.413834400009364,125.209776799893,126.31222529988736,125.209776799893,125.81103149987757,125.209776799893,125.81103149987757,125.209776799893,125.81103149987757,125.209776799893,125.81103149987757,125.209776799893,125.81103149987757,125.7775977998972,126.27850769995712,125.7775977998972,126.27850769995712,125.7775977998972,126.27850769995712,125.7775977998972,126.27850769995712,125.7775977998972,126.27850769995712,125.7775977998972,126.27850769995712,125.7775977998972,126.27850769995712,125.7775977998972,126.27850769995712,125.209776799893,None,126.27850769995712,127.93161729979329,0.5900000000000003,127.94800869980827,None,128.69900869997218,None,,,,,,,[1.636875],3.1400000000000023,0.6875,11045,002,2024_Apr_13_1519,MFTM_A_new1021,2021.2.3,59.50238160338267,
,,,,,,,,stim/Instruction_adaptive.png,conditions/adaptive.xlsx,test,0.6,0.6,0.6,-0.6,-0.6,right,R,,,,,0,1,1,1,0,16,16,56,,,,,,,,,,,,,,,,,,,,,,,,,,,,,,,,,,,,,,,,,,,,129.19950250000693,None,left,0,1.6039071998093277,129.69992199982516,130.95191689999774,129.69992199982516,130.45119209983386,129.69992199982516,130.45119209983386,129.69992199982516,130.45119209983386,129.69992199982516,130.45119209983386,129.69992199982516,130.45119209983386,130.4342337998096,130.93530489993282,130.4342337998096,130.93530489993282,130.4342337998096,130.93530489993282,130.4342337998096,130.93530489993282,130.4342337998096,130.93530489993282,130.4342337998096,130.93530489993282,130.4342337998096,130.93530489993282,130.4342337998096,130.93530489993282,129.69992199982516,None,130.93530489993282,132.58829429978505,0.7500000000000004,132.62147939996794,None,133.37292149988934,None,,,,,,,[1.64352941],2.7500000000000018,0.6470588235294118,11045,002,2024_Apr_13_1519,MFTM_A_new1021,2021.2.3,59.50238160338267,
,,,,,,,,stim/Instruction_adaptive.png,conditions/adaptive.xlsx,test,0.6,0.6,0.6,-0.6,-0.6,right,R,,,,,0,1,1,1,0,17,17,20,,,,,,,,,,,,,,,,,,,,,,,,,,,,,,,,,,,,,,,,,,,,133.8742837999016,None,right,1,1.8808135001454502,134.3746467998717,135.85977379977703,134.3746467998717,135.35845179995522,134.3746467998717,135.35845179995522,134.3746467998717,135.35845179995522,134.3746467998717,135.35845179995522,134.3746467998717,135.35845179995522,135.34171909978613,135.84313359996304,135.34171909978613,135.84313359996304,135.34171909978613,135.84313359996304,135.34171909978613,135.84313359996304,135.34171909978613,135.84313359996304,135.34171909978613,135.84313359996304,135.34171909978613,135.84313359996304,135.34171909978613,135.84313359996304,134.3746467998717,None,135.82611689995974,137.36177119985223,0.9800000000000006,137.3967215998564,None,138.14591089985333,None,,,,,,,[[1.52]],2.900000000000002,0.6666666666666666,11045,002,2024_Apr_13_1519,MFTM_A_new1021,2021.2.3,59.50238160338267,
,,,,,,,,stim/Instruction_adaptive.png,conditions/adaptive.xlsx,test,0.6,0.6,0.6,-0.6,-0.6,right,R,,,,,0,1,1,1,0,18,18,2,,,,,,,,,,,,,,,,,,,,,,,,,,,,,,,,,,,,,,,,,,,,138.64739890000783,None,right,1,1.6992874999996275,139.148659999948,140.53384489985183,139.148659999948,140.03254509996623,139.148659999948,140.03254509996623,139.148659999948,140.03254509996623,139.148659999948,140.03254509996623,139.148659999948,140.03254509996623,140.01538289990276,140.51763199991547,140.01538289990276,140.51763199991547,140.01538289990276,140.51763199991547,140.01538289990276,140.51763199991547,140.01538289990276,140.51763199991547,140.01538289990276,140.51763199991547,140.01538289990276,140.51763199991547,140.01538289990276,140.51763199991547,139.148659999948,None,140.50068959989585,142.13606649986468,0.8800000000000006,142.15189359989017,None,142.90393559983931,None,,,,,,,[[1.62]],3.0200000000000022,0.6842105263157895,11045,002,2024_Apr_13_1519,MFTM_A_new1021,2021.2.3,59.50238160338267,
,,,,,,,,stim/Instruction_adaptive.png,conditions/adaptive.xlsx,test,-0.6,-0.6,-0.6,0.6,0.6,left,L,,,,,0,1,1,1,0,19,19,23,,,,,,,,,,,,,,,,,,,,,,,,,,,,,,,,,,,,,,,,,,,,143.40479419985786,None,right,0,1.5904194999020547,143.9052276997827,145.22418459993787,143.9052276997827,144.72412069980055,143.9052276997827,144.72412069980055,143.9052276997827,144.72412069980055,143.9052276997827,144.72412069980055,143.9052276997827,144.72412069980055,144.70678819995373,145.20717179984786,144.70678819995373,145.20717179984786,144.70678819995373,145.20717179984786,144.70678819995373,145.20717179984786,144.70678819995373,145.20717179984786,144.70678819995373,145.20717179984786,144.70678819995373,145.20717179984786,144.70678819995373,145.20717179984786,143.9052276997827,None,145.1907583998982,146.84289389988407,0.8100000000000005,146.85888119996525,None,147.61091369995847,None,,,,,,,[1.6385],2.680000000000002,0.65,11045,002,2024_Apr_13_1519,MFTM_A_new1021,2021.2.3,59.50238160338267,
,,,,,,,,stim/Instruction_adaptive.png,conditions/adaptive.xlsx,test,0.6,0.6,0.6,-0.6,-0.6,right,R,,,,,0,1,1,1,0,20,20,26,,,,,,,,,,,,,,,,,,,,,,,,,,,,,,,,,,,,,,,,,,,,148.1121347998269,None,right,1,1.420052699977532,148.61217909981497,150.14821299980395,148.61217909981497,149.64749239990488,148.61217909981497,149.64749239990488,148.61217909981497,149.64749239990488,148.61217909981497,149.64749239990488,148.61217909981497,149.64749239990488,149.63086389983073,150.13180709979497,149.63086389983073,150.13180709979497,149.63086389983073,150.13180709979497,149.63086389983073,150.13180709979497,149.63086389983073,150.13180709979497,149.63086389983073,150.13180709979497,149.63086389983073,150.13180709979497,149.63086389983073,150.13180709979497,148.61217909981497,None,150.13180709979497,None,1.0300000000000007,151.63402499980293,None,152.38489619991742,None,,,,,,,[[1.47]],2.8100000000000023,0.6666666666666666,11045,002,2024_Apr_13_1519,MFTM_A_new1021,2021.2.3,59.50238160338267,
,,,,,,,,stim/Instruction_adaptive.png,conditions/adaptive.xlsx,test,-0.6,-0.6,-0.6,0.6,0.6,left,L,,,,,0,1,1,1,0,21,21,57,,,,,,,,,,,,,,,,,,,,,,,,,,,,,,,,,,,,,,,,,,,,152.8851494998671,None,right,0,1.2204138999804854,153.3877690997906,154.83866329980083,153.3877690997906,154.33716389979236,153.3877690997906,154.33716389979236,153.3877690997906,154.33716389979236,153.3877690997906,154.33716389979236,153.3877690997906,154.33716389979236,154.30360149987973,154.8053577998653,154.30360149987973,154.8053577998653,154.30360149987973,154.8053577998653,154.30360149987973,154.8053577998653,154.30360149987973,154.8053577998653,154.30360149987973,154.8053577998653,154.30360149987973,154.8053577998653,154.30360149987973,154.8053577998653,153.3877690997906,None,154.8053577998653,156.3741047999356,0.9400000000000006,156.39012139989063,None,157.141865799902,None,,,,,,,[[1.56]],2.4600000000000017,0.6363636363636364,11045,002,2024_Apr_13_1519,MFTM_A_new1021,2021.2.3,59.50238160338267,
,,,,,,,,stim/Instruction_adaptive.png,conditions/adaptive.xlsx,test,0.6,0.6,0.6,-0.6,-0.6,right,R,,,,,0,1,1,1,0,22,22,60,,,,,,,,,,,,,,,,,,,,,,,,,,,,,,,,,,,,,,,,,,,,157.64291559997946,None,left,0,2.0081711001694202,158.14396689995192,159.84581699990667,158.14396689995192,159.34486449998803,158.14396689995192,159.34486449998803,158.14396689995192,159.34486449998803,158.14396689995192,159.34486449998803,158.14396689995192,159.34486449998803,159.3281034999527,159.82922219997272,159.3281034999527,159.82922219997272,159.3281034999527,159.82922219997272,159.3281034999527,159.82922219997272,159.3281034999527,159.82922219997272,159.3281034999527,159.82922219997272,159.3281034999527,159.82922219997272,159.3281034999527,159.82922219997272,158.14396689995192,None,159.82922219997272,161.1310828998685,1.2000000000000008,161.1483106999658,None,161.89844929985702,None,,,,,,,[[1.3]],2.030000000000001,0.6086956521739131,11045,002,2024_Apr_13_1519,MFTM_A_new1021,2021.2.3,59.50238160338267,
,,,,,,,,stim/Instruction_adaptive.png,conditions/adaptive.xlsx,test,0.6,0.6,0.6,-0.6,-0.6,right,R,,,,,0,1,1,1,0,23,23,0,,,,,,,,,,,,,,,,,,,,,,,,,,,,,,,,,,,,,,,,,,,,162.40053049987182,None,right,1,1.099885400151834,162.90094279986806,165.01935739978217,162.90094279986806,164.51970879989676,162.90094279986806,164.51970879989676,162.90094279986806,164.51970879989676,162.90094279986806,164.51970879989676,162.90094279986806,164.51970879989676,164.4861133999657,164.98737059999257,164.4861133999657,164.98737059999257,164.4861133999657,164.98737059999257,164.4861133999657,164.98737059999257,164.4861133999657,164.98737059999257,164.4861133999657,164.98737059999257,164.4861133999657,164.98737059999257,164.4861133999657,164.98737059999257,162.90094279986806,None,164.98737059999257,165.88908029999584,1.6100000000000012,165.90530260000378,None,166.65636049979366,None,,,,,,,[[0.89]],2.2000000000000015,0.625,11045,002,2024_Apr_13_1519,MFTM_A_new1021,2021.2.3,59.50238160338267,
,,,,,,,,stim/Instruction_adaptive.png,conditions/adaptive.xlsx,test,0.6,0.6,0.6,-0.6,-0.6,right,R,,,,,0,1,1,1,0,24,24,16,,,,,,,,,,,,,,,,,,,,,,,,,,,,,,,,,,,,,,,,,,,,167.15693459985778,None,right,1,1.1670540999621153,167.65704849991016,169.59430599980988,167.65704849991016,169.09331979998387,167.65704849991016,169.09331979998387,167.65704849991016,169.09331979998387,167.65704849991016,169.09331979998387,167.65704849991016,169.09331979998387,169.07698299991898,169.57709529995918,169.07698299991898,169.57709529995918,169.07698299991898,169.57709529995918,169.07698299991898,169.57709529995918,169.07698299991898,169.57709529995918,169.07698299991898,169.57709529995918,169.07698299991898,169.57709529995918,169.07698299991898,169.57709529995918,167.65704849991016,None,169.57709529995918,None,1.430000000000001,170.67995579983108,None,171.4304742999375,None,,,,,,,[[1.07]],2.3400000000000016,0.64,11045,002,2024_Apr_13_1519,MFTM_A_new1021,2021.2.3,59.50238160338267,
,,,,,,,,stim/Instruction_adaptive.png,conditions/adaptive.xlsx,test,-0.6,-0.6,-0.6,0.6,0.6,left,L,,,,,0,1,1,1,0,25,25,19,,,,,,,,,,,,,,,,,,,,,,,,,,,,,,,,,,,,,,,,,,,,171.9310925998725,None,left,1,1.0016596999485046,172.43174939998426,174.23379029985517,172.43174939998426,173.7336729997769,172.43174939998426,173.7336729997769,172.43174939998426,173.7336729997769,172.43174939998426,173.7336729997769,172.43174939998426,173.7336729997769,173.7176311998628,174.2170524999965,173.7176311998628,174.2170524999965,173.7176311998628,174.2170524999965,173.7176311998628,174.2170524999965,173.7176311998628,174.2170524999965,173.7176311998628,174.2170524999965,173.7176311998628,174.2170524999965,173.7176311998628,174.2170524999965,172.43174939998426,None,174.2170524999965,175.41944819991477,1.300000000000001,175.43540849979036,None,176.18673709989525,None,,,,,,,[[1.2]],2.4600000000000017,0.6538461538461539,11045,002,2024_Apr_13_1519,MFTM_A_new1021,2021.2.3,59.50238160338267,
,,,,,,,,stim/Instruction_adaptive.png,conditions/adaptive.xlsx,test,-0.6,-0.6,-0.6,0.6,0.6,left,L,,,,,0,1,1,1,0,26,26,1,,,,,,,,,,,,,,,,,,,,,,,,,,,,,,,,,,,,,,,,,,,,176.68835029983893,None,right,0,1.4277192999143153,177.1888662998099,178.89202939998358,177.1888662998099,178.39105579978786,177.1888662998099,178.39105579978786,177.1888662998099,178.39105579978786,177.1888662998099,178.39105579978786,177.1888662998099,178.39105579978786,178.37344299978577,178.87506629992276,178.37344299978577,178.87506629992276,178.37344299978577,178.87506629992276,178.37344299978577,178.87506629992276,178.37344299978577,178.87506629992276,178.37344299978577,178.87506629992276,178.37344299978577,178.87506629992276,178.37344299978577,178.87506629992276,177.1888662998099,None,178.87506629992276,180.1765402997844,1.2000000000000008,180.19325749995187,None,180.94467289978638,None,,,,,,,[[1.3]],2.1300000000000017,0.6296296296296297,11045,002,2024_Apr_13_1519,MFTM_A_new1021,2021.2.3,59.50238160338267,
,,,,,,,,stim/Instruction_adaptive.png,conditions/adaptive.xlsx,test,0.6,0.6,0.6,-0.6,-0.6,right,R,,,,,0,1,1,1,0,27,27,34,,,,,,,,,,,,,,,,,,,,,,,,,,,,,,,,,,,,,,,,,,,,181.44547019992024,None,left,0,1.9671372000593692,181.94571389979683,183.9488535998389,181.94571389979683,183.44813789986074,181.94571389979683,183.44813789986074,181.94571389979683,183.44813789986074,181.94571389979683,183.44813789986074,181.94571389979683,183.44813789986074,183.43146469979547,183.93249859986827,183.43146469979547,183.93249859986827,183.43146469979547,183.93249859986827,183.43146469979547,183.93249859986827,183.43146469979547,183.93249859986827,183.43146469979547,183.93249859986827,183.43146469979547,183.93249859986827,183.43146469979547,183.93249859986827,181.94571389979683,None,183.93249859986827,184.93420679983683,1.500000000000001,184.94985199999064,None,185.70169459981844,None,,,,,,,[[1.]],1.730000000000001,0.6071428571428571,11045,002,2024_Apr_13_1519,MFTM_A_new1021,2021.2.3,59.50238160338267,
,,,,,,,,stim/Instruction_adaptive.png,conditions/adaptive.xlsx,test,-0.6,-0.6,-0.6,0.6,0.6,left,L,,,,,0,1,1,1,0,28,28,71,,,,,,,,,,,,,,,,,,,,,,,,,,,,,,,,,,,,,,,,,,,,186.2029621999245,None,left,1,1.403037599986419,186.70292309997603,189.19029659987427,186.70292309997603,188.68924149987288,186.70292309997603,188.68924149987288,186.70292309997603,188.68924149987288,186.70292309997603,188.68924149987288,186.70292309997603,188.68924149987288,188.67294769990258,189.1734572998248,188.67294769990258,189.1734572998248,188.67294769990258,189.1734572998248,188.67294769990258,189.1734572998248,188.67294769990258,189.1734572998248,188.67294769990258,189.1734572998248,188.67294769990258,189.1734572998248,188.67294769990258,189.1734572998248,186.70292309997603,None,189.1734572998248,None,1.9800000000000015,189.70702209998854,None,190.45852270000614,None,,,,,,,[[0.52]],1.8900000000000012,0.6206896551724138,11045,002,2024_Apr_13_1519,MFTM_A_new1021,2021.2.3,59.50238160338267,
,,,,,,,,stim/Instruction_adaptive.png,conditions/adaptive.xlsx,test,-0.6,-0.6,-0.6,0.6,0.6,left,L,,,,,0,1,1,1,0,29,29,43,,,,,,,,,,,,,,,,,,,,,,,,,,,,,,,,,,,,,,,,,,,,190.96041790000163,None,left,1,2.238033600151539,191.45970729994588,193.74696999997832,191.45970729994588,193.2465450000018,191.45970729994588,193.2465450000018,191.45970729994588,193.2465450000018,191.45970729994588,193.2465450000018,191.45970729994588,193.2465450000018,193.22980349999852,193.73040229990147,193.22980349999852,193.73040229990147,193.22980349999852,193.73040229990147,193.22980349999852,193.73040229990147,193.22980349999852,193.73040229990147,193.22980349999852,193.73040229990147,193.22980349999852,193.73040229990147,193.22980349999852,193.73040229990147,191.45970729994588,None,193.73040229990147,None,1.7800000000000014,194.46605469984934,None,195.21609409991652,None,,,,,,,[[0.72]],2.0200000000000014,0.6333333333333333,11045,002,2024_Apr_13_1519,MFTM_A_new1021,2021.2.3,59.50238160338267,
,,,,,,,,stim/Instruction_adaptive.png,conditions/adaptive.xlsx,test,-0.6,-0.6,-0.6,0.6,0.6,left,L,,,,,0,1,1,1,0,30,30,49,,,,,,,,,,,,,,,,,,,,,,,,,,,,,,,,,,,,,,,,,,,,195.7162977999542,None,left,1,2.1677803001366556,196.21772449999116,198.33737589977682,196.21772449999116,197.83673290000297,196.21772449999116,197.83673290000297,196.21772449999116,197.83673290000297,196.21772449999116,197.83673290000297,196.21772449999116,197.83673290000297,197.82036719983444,198.320520499954,197.82036719983444,198.320520499954,197.82036719983444,198.320520499954,197.82036719983444,198.320520499954,197.82036719983444,198.320520499954,197.82036719983444,198.320520499954,197.82036719983444,198.320520499954,197.82036719983444,198.320520499954,196.21772449999116,None,198.320520499954,199.20543249999173,1.6200000000000012,199.2219071998261,None,199.9733130999375,None,,,,,,,[[0.88]],2.1300000000000017,0.6451612903225806,11045,002,2024_Apr_13_1519,MFTM_A_new1021,2021.2.3,59.50238160338267,
,,,,,,,,stim/Instruction_adaptive.png,conditions/adaptive.xlsx,test,0.6,0.6,0.6,-0.6,-0.6,right,R,,,,,0,1,1,1,0,31,31,46,,,,,,,,,,,,,,,,,,,,,,,,,,,,,,,,,,,,,,,,,,,,200.47354449983686,None,right,1,1.1791304999496788,200.97396489977837,202.97789029986598,200.97396489977837,202.47725029988214,200.97396489977837,202.47725029988214,200.97396489977837,202.47725029988214,200.97396489977837,202.47725029988214,200.97396489977837,202.47725029988214,202.46033629984595,202.96131449984387,202.46033629984595,202.96131449984387,202.46033629984595,202.96131449984387,202.46033629984595,202.96131449984387,202.46033629984595,202.96131449984387,202.46033629984595,202.96131449984387,202.46033629984595,202.96131449984387,202.46033629984595,202.96131449984387,200.97396489977837,None,202.96131449984387,203.96339299995452,1.500000000000001,203.9967547999695,None,204.74738109996542,None,,,,,,,[[1.]],2.2300000000000013,0.65625,11045,002,2024_Apr_13_1519,MFTM_A_new1021,2021.2.3,59.50238160338267,
,,,,,,,,stim/Instruction_adaptive.png,conditions/adaptive.xlsx,test,0.6,0.6,0.6,-0.6,-0.6,right,R,,,,,0,1,1,1,0,32,32,72,,,,,,,,,,,,,,,,,,,,,,,,,,,,,,,,,,,,,,,,,,,,205.2477813998703,None,right,1,0.9487479999661446,205.7487699999474,207.6514507997781,205.7487699999474,207.1506528998725,205.7487699999474,207.1506528998725,205.7487699999474,207.1506528998725,205.7487699999474,207.1506528998725,205.7487699999474,207.1506528998725,207.13453889987431,207.63481869990937,207.13453889987431,207.63481869990937,207.13453889987431,207.63481869990937,207.13453889987431,207.63481869990937,207.13453889987431,207.63481869990937,207.13453889987431,207.63481869990937,207.13453889987431,207.63481869990937,207.13453889987431,207.63481869990937,205.7487699999474,None,207.63481869990937,208.73612559982575,1.400000000000001,208.7524513998069,None,209.50487529998645,None,,,,,,,[[1.1]],2.3200000000000016,0.6666666666666666,11045,002,2024_Apr_13_1519,MFTM_A_new1021,2021.2.3,59.50238160338267,
,,,,,,,,stim/Instruction_adaptive.png,conditions/adaptive.xlsx,test,-0.6,-0.6,-0.6,0.6,0.6,left,L,,,,,0,1,1,1,0,33,33,5,,,,,,,,,,,,,,,,,,,,,,,,,,,,,,,,,,,,,,,,,,,,210.00498899980448,None,left,1,1.2706634998321533,210.50685259979218,212.34258559998125,210.50685259979218,211.84134829998948,210.50685259979218,211.84134829998948,210.50685259979218,211.84134829998948,210.50685259979218,211.84134829998948,210.50685259979218,211.84134829998948,211.80790369980969,212.308928999817,211.80790369980969,212.308928999817,211.80790369980969,212.308928999817,211.80790369980969,212.308928999817,211.80790369980969,212.308928999817,211.80790369980969,212.308928999817,211.80790369980969,212.308928999817,211.80790369980969,212.308928999817,210.50685259979218,None,212.308928999817,213.4942316999659,1.320000000000001,213.50986399990506,None,214.26194219989702,None,,,,,,,[[1.18]],2.4000000000000017,0.6764705882352942,11045,002,2024_Apr_13_1519,MFTM_A_new1021,2021.2.3,59.50238160338267,
,,,,,,,,stim/Instruction_adaptive.png,conditions/adaptive.xlsx,test,0.6,0.6,0.6,-0.6,-0.6,right,R,,,,,0,1,1,1,0,34,34,22,,,,,,,,,,,,,,,,,,,,,,,,,,,,,,,,,,,,,,,,,,,,214.76175189996138,None,right,1,1.4826776999980211,215.2631118998397,217.0163319997955,215.2631118998397,216.51464539999142,215.2631118998397,216.51464539999142,215.2631118998397,216.51464539999142,215.2631118998397,216.51464539999142,215.2631118998397,216.51464539999142,216.49880609987304,216.9983311998658,216.49880609987304,216.9983311998658,216.49880609987304,216.9983311998658,216.49880609987304,216.9983311998658,216.49880609987304,216.9983311998658,216.49880609987304,216.9983311998658,216.49880609987304,216.9983311998658,216.49880609987304,216.9983311998658,215.2631118998397,None,216.9983311998658,218.25045139994472,1.2500000000000009,218.26672600000165,None,219.01839999994263,None,,,,,,,[[1.25]],2.4700000000000015,0.6857142857142857,11045,002,2024_Apr_13_1519,MFTM_A_new1021,2021.2.3,59.50238160338267,
,,,,,,,,stim/Instruction_adaptive.png,conditions/adaptive.xlsx,test,-0.6,-0.6,-0.6,0.6,0.6,left,L,,,,,0,1,1,1,0,35,35,83,,,,,,,,,,,,,,,,,,,,,,,,,,,,,,,,,,,,,,,,,,,,219.51970229996368,None,left,1,1.4708747998811305,220.01972049986944,221.72224729997106,220.01972049986944,221.22161099989899,220.01972049986944,221.22161099989899,220.01972049986944,221.22161099989899,220.01972049986944,221.22161099989899,220.01972049986944,221.22161099989899,221.18811429990456,221.68879970000125,221.18811429990456,221.68879970000125,221.18811429990456,221.68879970000125,221.18811429990456,221.68879970000125,221.18811429990456,221.68879970000125,221.18811429990456,221.68879970000125,221.18811429990456,221.68879970000125,221.18811429990456,221.68879970000125,220.01972049986944,None,221.68879970000125,223.00800109980628,1.1900000000000008,223.02517729997635,None,223.77591359987855,None,,,,,,,[[1.31]],2.540000000000002,0.6944444444444444,11045,002,2024_Apr_13_1519,MFTM_A_new1021,2021.2.3,59.50238160338267,
,,,,,,,,stim/Instruction_adaptive.png,conditions/adaptive.xlsx,test,0.6,0.6,0.6,-0.6,-0.6,right,R,,,,,0,1,1,1,0,36,36,42,,,,,,,,,,,,,,,,,,,,,,,,,,,,,,,,,,,,,,,,,,,,224.2766657997854,None,right,1,1.3602442000992596,224.77726939995773,226.4141785998363,224.77726939995773,225.91204419988208,224.77726939995773,225.91204419988208,224.77726939995773,225.91204419988208,224.77726939995773,225.91204419988208,224.77726939995773,225.91204419988208,225.89559219987132,226.39729639980942,225.89559219987132,226.39729639980942,225.89559219987132,226.39729639980942,225.89559219987132,226.39729639980942,225.89559219987132,226.39729639980942,225.89559219987132,226.39729639980942,225.89559219987132,226.39729639980942,225.89559219987132,226.39729639980942,224.77726939995773,None,226.39729639980942,None,1.1300000000000008,227.78194509982131,None,228.5329339997843,None,,,,,,,[[1.37]],2.600000000000002,0.7027027027027027,11045,002,2024_Apr_13_1519,MFTM_A_new1021,2021.2.3,59.50238160338267,
,,,,,,,,stim/Instruction_adaptive.png,conditions/adaptive.xlsx,test,0.6,0.6,0.6,-0.6,-0.6,right,R,,,,,0,1,1,1,0,37,37,6,,,,,,,,,,,,,,,,,,,,,,,,,,,,,,,,,,,,,,,,,,,,229.03342180000618,None,right,1,1.2661313000135124,229.55175809981301,231.15381889999844,229.55175809981301,230.65277489996515,229.55175809981301,230.65277489996515,229.55175809981301,230.65277489996515,229.55175809981301,230.65277489996515,229.55175809981301,230.65277489996515,230.60295019997284,231.10332019999623,230.60295019997284,231.10332019999623,230.60295019997284,231.10332019999623,230.60295019997284,231.10332019999623,230.60295019997284,231.10332019999623,230.60295019997284,231.10332019999623,230.60295019997284,231.10332019999623,230.60295019997284,231.10332019999623,229.55175809981301,None,231.10332019999623,232.50627109990455,1.0900000000000007,232.5733175999485,None,233.32410319987684,None,,,,,,,[1.40263158],2.650000000000002,0.7105263157894737,11045,002,2024_Apr_13_1519,MFTM_A_new1021,2021.2.3,59.50238160338267,
,,,,,,,,stim/Instruction_adaptive.png,conditions/adaptive.xlsx,test,0.6,0.6,0.6,-0.6,-0.6,right,R,,,,,0,1,1,1,0,38,38,94,,,,,,,,,,,,,,,,,,,,,,,,,,,,,,,,,,,,,,,,,,,,233.82461099978536,None,right,1,0.8772707001771778,234.3255094999913,235.877334699966,234.3255094999913,235.3761028998997,234.3255094999913,235.3761028998997,234.3255094999913,235.3761028998997,234.3255094999913,235.3761028998997,234.3255094999913,235.3761028998997,235.3604475997854,235.86117969988845,235.3604475997854,235.86117969988845,235.3604475997854,235.86117969988845,235.3604475997854,235.86117969988845,235.3604475997854,235.86117969988845,235.3604475997854,235.86117969988845,235.3604475997854,235.86117969988845,235.3604475997854,235.86117969988845,234.3255094999913,None,235.86117969988845,None,1.0500000000000007,237.27901389985345,None,238.03104849997908,None,,,,,,,[1.40384615],2.7100000000000017,0.717948717948718,11045,002,2024_Apr_13_1519,MFTM_A_new1021,2021.2.3,59.50238160338267,
,,,,,,,,stim/Instruction_adaptive.png,conditions/adaptive.xlsx,test,-0.6,-0.6,-0.6,0.6,0.6,left,L,,,,,0,1,1,1,0,39,39,95,,,,,,,,,,,,,,,,,,,,,,,,,,,,,,,,,,,,,,,,,,,,238.53175779990852,None,left,1,1.2587087999563664,239.0318550998345,240.55276529979892,239.0318550998345,240.05045719980262,239.0318550998345,240.05045719980262,239.0318550998345,240.05045719980262,239.0318550998345,240.05045719980262,239.0318550998345,240.05045719980262,240.03323999978602,240.53511239984073,240.03323999978602,240.53511239984073,240.03323999978602,240.53511239984073,240.03323999978602,240.53511239984073,240.03323999978602,240.53511239984073,240.03323999978602,240.53511239984073,240.03323999978602,240.53511239984073,240.03323999978602,240.53511239984073,239.0318550998345,None,240.51751899998635,241.9374882997945,1.0100000000000007,241.95304069994017,None,242.70349889993668,None,,,,,,,[1.406],2.760000000000002,0.725,11045,002,2024_Apr_13_1519,MFTM_A_new1021,2021.2.3,59.50238160338267,
,,,,,,,,stim/Instruction_adaptive.png,conditions/adaptive.xlsx,test,-0.6,-0.6,-0.6,0.6,0.6,left,L,,,,,0,1,1,1,0,40,40,35,,,,,,,,,,,,,,,,,,,,,,,,,,,,,,,,,,,,,,,,,,,,243.2041872998234,None,right,0,1.5278653998393565,243.70617409981787,245.19199389987625,243.70617409981787,244.69132099999115,243.70617409981787,244.69132099999115,243.70617409981787,244.69132099999115,243.70617409981787,244.69132099999115,243.70617409981787,244.69132099999115,244.6571908998303,245.1576423998922,244.6571908998303,245.1576423998922,244.6571908998303,245.1576423998922,244.6571908998303,245.1576423998922,244.6571908998303,245.1576423998922,244.6571908998303,245.1576423998922,244.6571908998303,245.1576423998922,244.6571908998303,245.1576423998922,243.70617409981787,None,245.1576423998922,246.57727189990692,0.9700000000000006,246.6110090999864,None,247.36206009984016,None,,,,,,,[1.40902439],2.610000000000002,0.7073170731707317,11045,002,2024_Apr_13_1519,MFTM_A_new1021,2021.2.3,59.50238160338267,
,,,,,,,,stim/Instruction_adaptive.png,conditions/adaptive.xlsx,test,-0.6,-0.6,-0.6,0.6,0.6,left,L,,,,,0,1,1,1,0,41,41,15,,,,,,,,,,,,,,,,,,,,,,,,,,,,,,,,,,,,,,,,,,,,247.8625466998201,None,left,1,1.3276217998936772,248.3633650999982,249.94902889989316,248.3633650999982,249.44819379993714,248.3633650999982,249.44819379993714,248.3633650999982,249.44819379993714,248.3633650999982,249.44819379993714,248.3633650999982,249.44819379993714,249.43187529989518,249.9324283997994,249.43187529989518,249.9324283997994,249.43187529989518,249.9324283997994,249.43187529989518,249.9324283997994,249.43187529989518,249.9324283997994,249.43187529989518,249.9324283997994,249.43187529989518,249.9324283997994,249.43187529989518,249.9324283997994,248.3633650999982,None,249.9157022999134,251.33436999982223,1.0800000000000007,251.36785389995202,None,252.1192719999235,None,,,,,,,[1.40928571],2.660000000000002,0.7142857142857143,11045,002,2024_Apr_13_1519,MFTM_A_new1021,2021.2.3,59.50238160338267,
,,,,,,,,stim/Instruction_adaptive.png,conditions/adaptive.xlsx,test,-0.6,-0.6,-0.6,0.6,0.6,left,L,,,,,0,1,1,1,0,42,42,33,,,,,,,,,,,,,,,,,,,,,,,,,,,,,,,,,,,,,,,,,,,,252.6197569000069,None,left,1,1.5144527999218553,253.11989400000311,254.6724229999818,253.11989400000311,254.171842899872,253.11989400000311,254.171842899872,253.11989400000311,254.171842899872,253.11989400000311,254.171842899872,253.11989400000311,254.171842899872,254.13935699989088,254.63941199984401,254.13935699989088,254.63941199984401,254.13935699989088,254.63941199984401,254.13935699989088,254.63941199984401,254.13935699989088,254.63941199984401,254.13935699989088,254.63941199984401,254.13935699989088,254.63941199984401,254.13935699989088,254.63941199984401,253.11989400000311,None,254.63941199984401,256.0582017998677,1.0400000000000007,256.0916731997859,None,256.84293949999847,None,,,,,,,[1.41046512],2.7100000000000017,0.7209302325581395,11045,002,2024_Apr_13_1519,MFTM_A_new1021,2021.2.3,59.50238160338267,
,,,,,,,,stim/Instruction_adaptive.png,conditions/adaptive.xlsx,test,0.6,0.6,0.6,-0.6,-0.6,right,R,,,,,0,1,1,1,0,43,43,92,,,,,,,,,,,,,,,,,,,,,,,,,,,,,,,,,,,,,,,,,,,,257.3430695999414,None,left,0,1.5279929998796433,257.8438055999577,259.3634426998906,257.8438055999577,258.8621006999165,257.8438055999577,258.8621006999165,257.8438055999577,258.8621006999165,257.8438055999577,258.8621006999165,257.8438055999577,258.8621006999165,258.82879860000685,259.3313181998674,258.82879860000685,259.3313181998674,258.82879860000685,259.3313181998674,258.82879860000685,259.3313181998674,258.82879860000685,259.3313181998674,258.82879860000685,259.3313181998674,258.82879860000685,259.3313181998674,258.82879860000685,259.3313181998674,257.8438055999577,None,259.3313181998674,260.74833289999515,1.0100000000000007,260.79933089995757,None,261.5505015999079,None,,,,,,,[1.41227273],2.570000000000002,0.7045454545454546,11045,002,2024_Apr_13_1519,MFTM_A_new1021,2021.2.3,59.50238160338267,
,,,,,,,,stim/Instruction_adaptive.png,conditions/adaptive.xlsx,test,0.6,0.6,0.6,-0.6,-0.6,right,R,,,,,0,1,1,1,0,44,44,38,,,,,,,,,,,,,,,,,,,,,,,,,,,,,,,,,,,,,,,,,,,,262.0505024997983,None,right,1,1.5385118999984115,262.55193139985204,264.16995039978065,262.55193139985204,263.6692056998145,262.55193139985204,263.6692056998145,262.55193139985204,263.6692056998145,262.55193139985204,263.6692056998145,262.55193139985204,263.6692056998145,263.63584349979647,264.1363033999223,263.63584349979647,264.1363033999223,263.63584349979647,264.1363033999223,263.63584349979647,264.1363033999223,263.63584349979647,264.1363033999223,263.63584349979647,264.1363033999223,263.63584349979647,264.1363033999223,263.63584349979647,264.1363033999223,262.55193139985204,None,264.1363033999223,265.5385566998739,1.1100000000000008,265.57311379979365,None,266.3245288999751,None,,,,,,,[[1.39]],2.620000000000002,0.7111111111111111,11045,002,2024_Apr_13_1519,MFTM_A_new1021,2021.2.3,59.50238160338267,
,,,,,,,,stim/Instruction_adaptive.png,conditions/adaptive.xlsx,test,0.6,0.6,0.6,-0.6,-0.6,right,R,,,,,0,1,1,1,0,45,45,88,,,,,,,,,,,,,,,,,,,,,,,,,,,,,,,,,,,,,,,,,,,,266.82480249996297,None,right,1,0.9748267000541091,267.3255453999154,268.9109486998059,267.3255453999154,268.40975789981894,267.3255453999154,268.40975789981894,267.3255453999154,268.40975789981894,267.3255453999154,268.40975789981894,267.3255453999154,268.40975789981894,268.3763693999499,268.8774269998539,268.3763693999499,268.8774269998539,268.3763693999499,268.8774269998539,268.3763693999499,268.8774269998539,268.3763693999499,268.8774269998539,268.3763693999499,268.8774269998539,268.3763693999499,268.8774269998539,268.3763693999499,268.8774269998539,267.3255453999154,None,268.8774269998539,270.29624739987776,1.0700000000000007,270.31206929986365,None,271.06470129988156,None,,,,,,,[1.41217391],2.6700000000000017,0.717391304347826,11045,002,2024_Apr_13_1519,MFTM_A_new1021,2021.2.3,59.50238160338267,
,,,,,,,,stim/Instruction_adaptive.png,conditions/adaptive.xlsx,test,-0.6,-0.6,-0.6,0.6,0.6,left,L,,,,,0,1,1,1,0,46,46,81,,,,,,,,,,,,,,,,,,,,,,,,,,,,,,,,,,,,,,,,,,,,271.5646162999328,None,left,1,1.4744046998675913,272.0652507999912,273.6010294998996,272.0652507999912,273.09967619995587,272.0652507999912,273.09967619995587,272.0652507999912,273.09967619995587,272.0652507999912,273.09967619995587,272.0652507999912,273.09967619995587,273.08337849983945,273.5840923998039,273.08337849983945,273.5840923998039,273.08337849983945,273.5840923998039,273.08337849983945,273.5840923998039,273.08337849983945,273.5840923998039,273.08337849983945,273.5840923998039,273.08337849983945,273.5840923998039,273.08337849983945,273.5840923998039,272.0652507999912,None,273.5840923998039,275.00293429987505,1.0300000000000007,275.0200193999335,None,275.7708007998299,None,,,,,,,[1.41340426],2.7100000000000017,0.723404255319149,11045,002,2024_Apr_13_1519,MFTM_A_new1021,2021.2.3,59.50238160338267,
,,,,,,,,stim/Instruction_adaptive.png,conditions/adaptive.xlsx,test,0.6,0.6,0.6,-0.6,-0.6,right,R,,,,,0,1,1,1,0,47,47,18,,,,,,,,,,,,,,,,,,,,,,,,,,,,,,,,,,,,,,,,,,,,276.2714980999008,None,left,0,1.5503813999239355,276.7728780999314,278.29175390000455,276.7728780999314,277.79092029994354,276.7728780999314,277.79092029994354,276.7728780999314,277.79092029994354,276.7728780999314,277.79092029994354,276.7728780999314,277.79092029994354,277.75765709998086,278.25807439978234,277.75765709998086,278.25807439978234,277.75765709998086,278.25807439978234,277.75765709998086,278.25807439978234,277.75765709998086,278.25807439978234,277.75765709998086,278.25807439978234,277.75765709998086,278.25807439978234,277.75765709998086,278.25807439978234,276.7728780999314,None,278.25807439978234,279.6765819999855,1.0100000000000007,279.72815169999376,None,280.4801494998392,None,,,,,,,[1.415],2.580000000000002,0.7083333333333334,11045,002,2024_Apr_13_1519,MFTM_A_new1021,2021.2.3,59.50238160338267,
,,,,,,,,stim/Instruction_adaptive.png,conditions/adaptive.xlsx,test,0.6,0.6,0.6,-0.6,-0.6,right,R,,,,,0,1,1,1,0,48,48,4,,,,,,,,,,,,,,,,,,,,,,,,,,,,,,,,,,,,,,,,,,,,280.9790870998986,None,right,1,1.1725796000100672,281.47978269984014,283.08331509982236,281.47978269984014,282.5813869999256,281.47978269984014,282.5813869999256,281.47978269984014,282.5813869999256,281.47978269984014,282.5813869999256,281.47978269984014,282.5813869999256,282.56525609991513,283.06624979991466,282.56525609991513,283.06624979991466,282.56525609991513,283.06624979991466,282.56525609991513,283.06624979991466,282.56525609991513,283.06624979991466,282.56525609991513,283.06624979991466,282.56525609991513,283.06624979991466,282.56525609991513,283.06624979991466,281.47978269984014,None,283.06624979991466,284.4680131999776,1.1000000000000008,284.4830383998342,None,285.2358392998576,None,,,,,,,[[1.4]],2.6300000000000017,0.7142857142857143,11045,002,2024_Apr_13_1519,MFTM_A_new1021,2021.2.3,59.50238160338267,
,,,,,,,,stim/Instruction_adaptive.png,conditions/adaptive.xlsx,test,-0.6,-0.6,-0.6,0.6,0.6,left,L,,,,,0,1,1,1,0,49,49,31,,,,,,,,,,,,,,,,,,,,,,,,,,,,,,,,,,,,,,,,,,,,285.7359469998628,None,left,1,1.4860187000595033,286.2374377998058,287.80657609994523,286.2374377998058,287.3052449999377,286.2374377998058,287.3052449999377,286.2374377998058,287.3052449999377,286.2374377998058,287.3052449999377,286.2374377998058,287.3052449999377,287.27199289994314,287.7718959997874,287.27199289994314,287.7718959997874,287.27199289994314,287.7718959997874,287.27199289994314,287.7718959997874,287.27199289994314,287.7718959997874,287.27199289994314,287.7718959997874,287.27199289994314,287.7718959997874,287.27199289994314,287.7718959997874,286.2374377998058,None,287.7718959997874,289.1907246999908,1.0600000000000007,289.22382729989477,None,289.9758535998408,None,,,,,,,[1.4152],2.6700000000000017,0.72,11045,002,2024_Apr_13_1519,MFTM_A_new1021,2021.2.3,59.50238160338267,
,,,,,,,,stim/Instruction_adaptive.png,conditions/adaptive.xlsx,test,0.6,0.6,0.6,-0.6,-0.6,right,R,,,,,0,1,1,1,0,50,50,68,,,,,,,,,,,,,,,,,,,,,,,,,,,,,,,,,,,,,,,,,,,,290.4767603999935,None,right,1,1.2824079999700189,290.97702439990826,292.51291279983707,290.97702439990826,292.0129168999847,290.97702439990826,292.0129168999847,290.97702439990826,292.0129168999847,290.97702439990826,292.0129168999847,290.97702439990826,292.0129168999847,291.9960075998679,292.4961131999735,291.9960075998679,292.4961131999735,291.9960075998679,292.4961131999735,291.9960075998679,292.4961131999735,291.9960075998679,292.4961131999735,291.9960075998679,292.4961131999735,291.9960075998679,292.4961131999735,291.9960075998679,292.4961131999735,290.97702439990826,None,292.4961131999735,293.9149161998648,1.0300000000000007,293.9308576998301,None,294.6831406999845,None,,,,,,,[1.41627451],2.7100000000000017,0.7254901960784313,11045,002,2024_Apr_13_1519,MFTM_A_new1021,2021.2.3,59.50238160338267,
,,,,,,,,stim/Instruction_adaptive.png,conditions/adaptive.xlsx,test,0.6,0.6,0.6,-0.6,-0.6,right,R,,,,,0,1,1,1,0,51,51,52,,,,,,,,,,,,,,,,,,,,,,,,,,,,,,,,,,,,,,,,,,,,295.1835054999683,None,left,0,1.5357141999993473,295.68412059987895,297.20368859986775,295.68412059987895,296.7027919997927,295.68412059987895,296.7027919997927,295.68412059987895,296.7027919997927,295.68412059987895,296.7027919997927,295.68412059987895,296.7027919997927,296.6694027998019,297.1700076998677,296.6694027998019,297.1700076998677,296.6694027998019,297.1700076998677,296.6694027998019,297.1700076998677,296.6694027998019,297.1700076998677,296.6694027998019,297.1700076998677,296.6694027998019,297.1700076998677,296.6694027998019,297.1700076998677,295.68412059987895,None,297.1700076998677,298.5886366998311,1.0100000000000007,298.6215365999378,None,299.3727490999736,None,,,,,,,[1.41769231],2.5900000000000016,0.7115384615384616,11045,002,2024_Apr_13_1519,MFTM_A_new1021,2021.2.3,59.50238160338267,
,,,,,,,,stim/Instruction_adaptive.png,conditions/adaptive.xlsx,test,-0.6,-0.6,-0.6,0.6,0.6,left,L,,,,,0,1,1,1,0,52,52,51,,,,,,,,,,,,,,,,,,,,,,,,,,,,,,,,,,,,,,,,,,,,299.8739502998069,None,left,1,1.572817999869585,300.37476379983127,301.97650959994644,300.37476379983127,301.476124699926,300.37476379983127,301.476124699926,300.37476379983127,301.476124699926,300.37476379983127,301.476124699926,300.37476379983127,301.476124699926,301.442474699812,301.94333279994316,301.442474699812,301.94333279994316,301.442474699812,301.94333279994316,301.442474699812,301.94333279994316,301.442474699812,301.94333279994316,301.442474699812,301.94333279994316,301.442474699812,301.94333279994316,301.442474699812,301.94333279994316,300.37476379983127,None,301.94333279994316,303.3631355999969,1.0900000000000007,303.3967194999568,None,304.14724769978784,None,,,,,,,[[1.41]],2.640000000000002,0.7169811320754716,11045,002,2024_Apr_13_1519,MFTM_A_new1021,2021.2.3,59.50238160338267,
,,,,,,,,stim/Instruction_adaptive.png,conditions/adaptive.xlsx,test,-0.6,-0.6,-0.6,0.6,0.6,left,L,,,,,0,1,1,1,0,53,53,73,,,,,,,,,,,,,,,,,,,,,,,,,,,,,,,,,,,,,,,,,,,,304.64788649999537,None,right,0,1.3845881999004632,305.14826839999296,306.7176071999129,305.14826839999296,306.21677269996144,305.14826839999296,306.21677269996144,305.14826839999296,306.21677269996144,305.14826839999296,306.21677269996144,305.14826839999296,306.21677269996144,306.18328749993816,306.6844224999659,306.18328749993816,306.6844224999659,306.18328749993816,306.6844224999659,306.18328749993816,306.6844224999659,306.18328749993816,306.6844224999659,306.18328749993816,306.6844224999659,306.18328749993816,306.6844224999659,306.18328749993816,306.6844224999659,305.14826839999296,None,306.6844224999659,308.1031908998266,1.0600000000000007,308.13597889989614,None,308.88764919992536,None,,,,,,,[1.41796296],2.520000000000002,0.7037037037037037,11045,002,2024_Apr_13_1519,MFTM_A_new1021,2021.2.3,59.50238160338267,
,,,,,,,,stim/Instruction_adaptive.png,conditions/adaptive.xlsx,test,-0.6,-0.6,-0.6,0.6,0.6,left,L,,,,,0,1,1,1,0,54,54,93,,,,,,,,,,,,,,,,,,,,,,,,,,,,,,,,,,,,,,,,,,,,309.38932839990593,None,left,1,1.2819940000772476,309.8907221998088,311.54204649990425,309.8907221998088,311.04095569998026,309.8907221998088,311.04095569998026,309.8907221998088,311.04095569998026,309.8907221998088,311.04095569998026,309.8907221998088,311.04095569998026,311.0240307999775,311.5246005000081,311.0240307999775,311.5246005000081,311.0240307999775,311.5246005000081,311.0240307999775,311.5246005000081,311.0240307999775,311.5246005000081,311.0240307999775,311.5246005000081,311.0240307999775,311.5246005000081,311.0240307999775,311.5246005000081,309.8907221998088,None,311.5246005000081,312.8776255999692,1.1500000000000008,312.8934749998152,None,313.6453507998958,None,,,,,,,[[1.35]],2.560000000000002,0.7090909090909091,11045,002,2024_Apr_13_1519,MFTM_A_new1021,2021.2.3,59.50238160338267,
,,,,,,,,stim/Instruction_adaptive.png,conditions/adaptive.xlsx,test,-0.6,-0.6,-0.6,0.6,0.6,left,L,,,,,0,1,1,1,0,55,55,47,,,,,,,,,,,,,,,,,,,,,,,,,,,,,,,,,,,,,,,,,,,,314.14602649980225,None,left,1,1.5746127001475543,314.64575089979917,316.26503079989925,314.64575089979917,315.76500929985195,314.64575089979917,315.76500929985195,314.64575089979917,315.76500929985195,314.64575089979917,315.76500929985195,314.64575089979917,315.76500929985195,315.74834309984,316.2492242997978,315.74834309984,316.2492242997978,315.74834309984,316.2492242997978,315.74834309984,316.2492242997978,315.74834309984,316.2492242997978,315.74834309984,316.2492242997978,315.74834309984,316.2492242997978,315.74834309984,316.2492242997978,314.64575089979917,None,316.2492242997978,317.6352740000002,1.1200000000000008,317.6682013999671,None,318.4189611999318,None,,,,,,,[[1.38]],2.600000000000002,0.7142857142857143,11045,002,2024_Apr_13_1519,MFTM_A_new1021,2021.2.3,59.50238160338267,
,,,,,,,,stim/Instruction_adaptive.png,conditions/adaptive.xlsx,test,-0.6,-0.6,-0.6,0.6,0.6,left,L,,,,,0,1,1,1,0,56,56,63,,,,,,,,,,,,,,,,,,,,,,,,,,,,,,,,,,,,,,,,,,,,318.91936899977736,None,right,0,1.2879731999710202,319.4205828998238,321.02267799992114,319.4205828998238,320.52292269980535,319.4205828998238,320.52292269980535,319.4205828998238,320.52292269980535,319.4205828998238,320.52292269980535,319.4205828998238,320.52292269980535,320.4880097999703,320.9890625998378,320.4880097999703,320.9890625998378,320.4880097999703,320.9890625998378,320.4880097999703,320.9890625998378,320.4880097999703,320.9890625998378,320.4880097999703,320.9890625998378,320.4880097999703,320.9890625998378,320.4880097999703,320.9890625998378,319.4205828998238,None,320.9890625998378,322.40813359990716,1.0900000000000007,322.4415318998508,None,323.19444329990074,None,,,,,,,[[1.41]],2.4800000000000018,0.7017543859649122,11045,002,2024_Apr_13_1519,MFTM_A_new1021,2021.2.3,59.50238160338267,
,,,,,,,,stim/Instruction_adaptive.png,conditions/adaptive.xlsx,test,-0.6,-0.6,-0.6,0.6,0.6,left,L,,,,,0,1,1,1,0,57,57,77,,,,,,,,,,,,,,,,,,,,,,,,,,,,,,,,,,,,,,,,,,,,323.6934221999254,None,left,1,1.370462599908933,324.19425329985097,325.8804352998268,324.19425329985097,325.3791620999109,324.19425329985097,325.3791620999109,324.19425329985097,325.3791620999109,324.19425329985097,325.3791620999109,324.19425329985097,325.3791620999109,325.3458745998796,325.8466717998963,325.3458745998796,325.8466717998963,325.3458745998796,325.8466717998963,325.3458745998796,325.8466717998963,325.3458745998796,325.8466717998963,325.3458745998796,325.8466717998963,325.3458745998796,325.8466717998963,325.3458745998796,325.8466717998963,324.19425329985097,None,325.8466717998963,327.18207539990544,1.1800000000000008,327.19994379999116,None,327.9497554998379,None,,,,,,,[[1.32]],2.520000000000002,0.7068965517241379,11045,002,2024_Apr_13_1519,MFTM_A_new1021,2021.2.3,59.50238160338267,
,,,,,,,,stim/Instruction_adaptive.png,conditions/adaptive.xlsx,test,0.6,0.6,0.6,-0.6,-0.6,right,R,,,,,0,1,1,1,0,58,58,86,,,,,,,,,,,,,,,,,,,,,,,,,,,,,,,,,,,,,,,,,,,,328.4508618998807,None,right,1,1.3574973999056965,328.9511340998579,330.6040567997843,328.9511340998579,330.10362669988535,328.9511340998579,330.10362669988535,328.9511340998579,330.10362669988535,328.9511340998579,330.10362669988535,328.9511340998579,330.10362669988535,330.0860862999689,330.58655149978586,330.0860862999689,330.58655149978586,330.0860862999689,330.58655149978586,330.0860862999689,330.58655149978586,330.0860862999689,330.58655149978586,330.0860862999689,330.58655149978586,330.0860862999689,330.58655149978586,330.0860862999689,330.58655149978586,328.9511340998579,None,330.58655149978586,331.93924809992313,1.1500000000000008,331.9729930998292,None,332.72342029982246,None,,,,,,,[[1.35]],2.560000000000002,0.711864406779661,11045,002,2024_Apr_13_1519,MFTM_A_new1021,2021.2.3,59.50238160338267,
,,,,,,,,stim/Instruction_adaptive.png,conditions/adaptive.xlsx,test,0.6,0.6,0.6,-0.6,-0.6,right,R,,,,,0,1,1,1,0,59,59,98,,,,,,,,,,,,,,,,,,,,,,,,,,,,,,,,,,,,,,,,,,,,333.22458879998885,None,right,1,1.6236658999696374,333.72509659989737,335.3448606999591,333.72509659989737,334.8598567999434,333.72509659989737,334.8598567999434,333.72509659989737,334.8598567999434,333.72509659989737,334.8598567999434,333.72509659989737,334.8598567999434,334.82640659995377,335.3284423998557,334.82640659995377,335.3284423998557,334.82640659995377,335.3284423998557,334.82640659995377,335.3284423998557,334.82640659995377,335.3284423998557,334.82640659995377,335.3284423998557,334.82640659995377,335.3284423998557,334.82640659995377,335.3284423998557,333.72509659989737,None,335.3284423998557,336.7129014998209,1.1200000000000008,336.7300042998977,None,337.4805002999492,None,,,,,,,[[1.38]],2.600000000000002,0.7166666666666667,11045,002,2024_Apr_13_1519,MFTM_A_new1021,2021.2.3,59.50238160338267,
,,,,,,,,stim/Instruction_adaptive.png,conditions/adaptive.xlsx,test,0.6,0.6,0.6,-0.6,-0.6,right,R,,,,,0,1,1,1,0,60,60,58,,,,,,,,,,,,,,,,,,,,,,,,,,,,,,,,,,,,,,,,,,,,337.9815932000056,None,right,1,1.3148660999722779,338.4822650998831,340.0844833999872,338.4822650998831,339.5838924997952,338.4822650998831,339.5838924997952,338.4822650998831,339.5838924997952,338.4822650998831,339.5838924997952,338.4822650998831,339.5838924997952,339.5519198998809,340.0522546998691,339.5519198998809,340.0522546998691,339.5519198998809,340.0522546998691,339.5519198998809,340.0522546998691,339.5519198998809,340.0522546998691,339.5519198998809,340.0522546998691,339.5519198998809,340.0522546998691,339.5519198998809,340.0522546998691,338.4822650998831,None,340.0522546998691,341.4700497998856,1.0900000000000007,341.4867567999754,None,342.2382896998897,None,,,,,,,[[1.41]],2.6300000000000017,0.7213114754098361,11045,002,2024_Apr_13_1519,MFTM_A_new1021,2021.2.3,59.50238160338267,
,,,,,,,,stim/Instruction_adaptive.png,conditions/adaptive.xlsx,test,-0.6,-0.6,-0.6,0.6,0.6,left,L,,,,,0,1,1,1,0,61,61,17,,,,,,,,,,,,,,,,,,,,,,,,,,,,,,,,,,,,,,,,,,,,342.7386764998082,None,right,0,1.5895967001561075,343.2401271997951,344.8089017998427,343.2401271997951,344.3084471998736,343.2401271997951,344.3084471998736,343.2401271997951,344.3084471998736,343.2401271997951,344.3084471998736,343.2401271997951,344.3084471998736,344.27539719990455,344.77502619987354,344.27539719990455,344.77502619987354,344.27539719990455,344.77502619987354,344.27539719990455,344.77502619987354,344.27539719990455,344.77502619987354,344.27539719990455,344.77502619987354,344.27539719990455,344.77502619987354,344.27539719990455,344.77502619987354,343.2401271997951,None,344.77502619987354,346.1938763000071,1.0600000000000007,346.227099099895,None,346.9781602998264,None,,,,,,,[1.41306452],2.530000000000002,0.7096774193548387,11045,002,2024_Apr_13_1519,MFTM_A_new1021,2021.2.3,59.50238160338267,
,,,,,,,,stim/Instruction_adaptive.png,conditions/adaptive.xlsx,test,-0.6,-0.6,-0.6,0.6,0.6,left,L,,,,,0,1,1,1,0,62,62,55,,,,,,,,,,,,,,,,,,,,,,,,,,,,,,,,,,,,,,,,,,,,347.4792736999225,None,left,1,1.643004999961704,347.9792529998813,349.63231689995155,347.9792529998813,349.1320801998954,347.9792529998813,349.1320801998954,347.9792529998813,349.1320801998954,347.9792529998813,349.1320801998954,347.9792529998813,349.1320801998954,349.0983557999134,349.5994436999317,349.0983557999134,349.5994436999317,349.0983557999134,349.5994436999317,349.0983557999134,349.5994436999317,349.0983557999134,349.5994436999317,349.0983557999134,349.5994436999317,349.0983557999134,349.5994436999317,349.0983557999134,349.5994436999317,347.9792529998813,None,349.5994436999317,350.967564499937,1.1400000000000008,350.9845981998369,None,351.73595199990086,None,,,,,,,[[1.36]],2.570000000000002,0.7142857142857143,11045,002,2024_Apr_13_1519,MFTM_A_new1021,2021.2.3,59.50238160338267,
,,,,,,,,stim/Instruction_adaptive.png,conditions/adaptive.xlsx,test,0.6,0.6,0.6,-0.6,-0.6,right,R,,,,,0,1,1,1,0,63,63,12,,,,,,,,,,,,,,,,,,,,,,,,,,,,,,,,,,,,,,,,,,,,352.2358288997784,None,right,1,1.5883075001183897,352.7373284997884,354.35592939984053,352.7373284997884,353.8562378999777,352.7373284997884,353.8562378999777,352.7373284997884,353.8562378999777,352.7373284997884,353.8562378999777,352.7373284997884,353.8562378999777,353.8219659999013,354.3232057997957,353.8219659999013,354.3232057997957,353.8219659999013,354.3232057997957,353.8219659999013,354.3232057997957,353.8219659999013,354.3232057997957,353.8219659999013,354.3232057997957,353.8219659999013,354.3232057997957,353.8219659999013,354.3232057997957,352.7373284997884,None,354.3232057997957,355.7250457999762,1.1100000000000008,355.7420349000022,None,356.49344289978035,None,,,,,,,[[1.39]],2.600000000000002,0.71875,11045,002,2024_Apr_13_1519,MFTM_A_new1021,2021.2.3,59.50238160338267,
,,,,,,,,stim/Instruction_adaptive.png,conditions/adaptive.xlsx,test,0.6,0.6,0.6,-0.6,-0.6,right,R,,,,,0,1,1,1,0,64,64,74,,,,,,,,,,,,,,,,,,,,,,,,,,,,,,,,,,,,,,,,,,,,356.994511900004,None,right,1,1.7843001999426633,357.49423129996285,359.0964601999149,357.49423129996285,358.59689849987626,357.49423129996285,358.59689849987626,357.49423129996285,358.59689849987626,357.49423129996285,358.59689849987626,357.49423129996285,358.59689849987626,358.56331949983723,359.0635017999448,358.56331949983723,359.0635017999448,358.56331949983723,359.0635017999448,358.56331949983723,359.0635017999448,358.56331949983723,359.0635017999448,358.56331949983723,359.0635017999448,358.56331949983723,359.0635017999448,358.56331949983723,359.0635017999448,357.49423129996285,None,359.0635017999448,360.48221629997715,1.0900000000000007,360.49895039992407,None,361.25019879988395,None,,,,,,,[[1.41]],2.6300000000000017,0.7230769230769231,11045,002,2024_Apr_13_1519,MFTM_A_new1021,2021.2.3,59.50238160338267,
,,,,,,,,stim/Instruction_adaptive.png,conditions/adaptive.xlsx,test,-0.6,-0.6,-0.6,0.6,0.6,left,L,,,,,0,1,1,1,0,65,65,59,,,,,,,,,,,,,,,,,,,,,,,,,,,,,,,,,,,,,,,,,,,,361.75056029995903,None,left,1,1.5778528999071568,362.2517162999138,363.8208559998311,362.2517162999138,363.31956259999424,362.2517162999138,363.31956259999424,362.2517162999138,363.31956259999424,362.2517162999138,363.31956259999424,362.2517162999138,363.31956259999424,363.2870482997969,363.7873251999263,363.2870482997969,363.7873251999263,363.2870482997969,363.7873251999263,363.2870482997969,363.7873251999263,363.2870482997969,363.7873251999263,363.2870482997969,363.7873251999263,363.2870482997969,363.7873251999263,363.2870482997969,363.7873251999263,362.2517162999138,None,363.7873251999263,365.2063071997836,1.0600000000000007,365.2393970999401,None,365.9907894998323,None,,,,,,,[1.41227273],2.660000000000002,0.7272727272727273,11045,002,2024_Apr_13_1519,MFTM_A_new1021,2021.2.3,59.50238160338267,
,,,,,,,,stim/Instruction_adaptive.png,conditions/adaptive.xlsx,test,0.6,0.6,0.6,-0.6,-0.6,right,R,,,,,0,1,1,1,0,66,66,40,,,,,,,,,,,,,,,,,,,,,,,,,,,,,,,,,,,,,,,,,,,,366.491263799835,None,right,1,1.5817619999870658,367.0090470998548,368.5617433998268,367.0090470998548,368.0602355999872,367.0090470998548,368.0602355999872,367.0090470998548,368.0602355999872,367.0090470998548,368.0602355999872,367.0090470998548,368.0602355999872,368.0263997998554,368.5278701998759,368.0263997998554,368.5278701998759,368.0263997998554,368.5278701998759,368.0263997998554,368.5278701998759,368.0263997998554,368.5278701998759,368.0263997998554,368.5278701998759,368.0263997998554,368.5278701998759,368.0263997998554,368.5278701998759,367.0090470998548,None,368.5112712997943,369.92982549988665,1.0400000000000007,369.96341719990596,None,370.71452069981024,None,,,,,,,[1.41298507],2.700000000000002,0.7313432835820896,11045,002,2024_Apr_13_1519,MFTM_A_new1021,2021.2.3,59.50238160338267,
,,,,,,,,stim/Instruction_adaptive.png,conditions/adaptive.xlsx,test,0.6,0.6,0.6,-0.6,-0.6,right,R,,,,,0,1,1,1,0,67,67,90,,,,,,,,,,,,,,,,,,,,,,,,,,,,,,,,,,,,,,,,,,,,371.21499129990116,None,left,0,1.851546199992299,371.71517609991133,373.23525789985433,371.71517609991133,372.73376729991287,371.71517609991133,372.73376729991287,371.71517609991133,372.73376729991287,371.71517609991133,372.73376729991287,371.71517609991133,372.73376729991287,372.70016289991327,373.20173829980195,372.70016289991327,373.20173829980195,372.70016289991327,373.20173829980195,372.70016289991327,373.20173829980195,372.70016289991327,373.20173829980195,372.70016289991327,373.20173829980195,372.70016289991327,373.20173829980195,372.70016289991327,373.20173829980195,371.71517609991133,None,373.20173829980195,374.62044549989514,1.0100000000000007,374.65306229982525,None,375.40512279979885,None,,,,,,,[1.41411765],2.610000000000002,0.7205882352941176,11045,002,2024_Apr_13_1519,MFTM_A_new1021,2021.2.3,59.50238160338267,
,,,,,,,,stim/Instruction_adaptive.png,conditions/adaptive.xlsx,test,0.6,0.6,0.6,-0.6,-0.6,right,R,,,,,0,1,1,1,0,68,68,28,,,,,,,,,,,,,,,,,,,,,,,,,,,,,,,,,,,,,,,,,,,,375.90576059999876,None,left,0,2.191076199989766,376.4236417999491,378.00879579992034,376.4236417999491,377.50744570000097,376.4236417999491,377.50744570000097,376.4236417999491,377.50744570000097,376.4236417999491,377.50744570000097,376.4236417999491,377.50744570000097,377.47585179982707,377.976182699902,377.47585179982707,377.976182699902,377.47585179982707,377.976182699902,377.47585179982707,377.976182699902,377.47585179982707,377.976182699902,377.47585179982707,377.976182699902,377.47585179982707,377.976182699902,377.47585179982707,377.976182699902,376.4236417999491,None,377.976182699902,379.394817299908,1.0800000000000007,379.444778499892,None,380.19568179990165,None,,,,,,,[1.4142029],2.5100000000000016,0.7101449275362319,11045,002,2024_Apr_13_1519,MFTM_A_new1021,2021.2.3,59.50238160338267,
,,,,,,,,stim/Instruction_adaptive.png,conditions/adaptive.xlsx,test,-0.6,-0.6,-0.6,0.6,0.6,left,L,,,,,0,1,1,1,0,69,69,39,,,,,,,,,,,,,,,,,,,,,,,,,,,,,,,,,,,,,,,,,,,,380.6959691999946,None,right,0,1.3617358999326825,381.1973069999367,382.8498592998367,381.1973069999367,382.34845529985614,381.1973069999367,382.34845529985614,381.1973069999367,382.34845529985614,381.1973069999367,382.34845529985614,381.1973069999367,382.34845529985614,382.33233529981226,382.83293869998306,382.33233529981226,382.83293869998306,382.33233529981226,382.83293869998306,382.33233529981226,382.83293869998306,382.33233529981226,382.83293869998306,382.33233529981226,382.83293869998306,382.33233529981226,382.83293869998306,382.33233529981226,382.83293869998306,381.1973069999367,None,382.83293869998306,384.1845126999542,1.1500000000000008,384.20124209998176,None,384.9520568998996,None,,,,,,,[[1.35]],2.410000000000002,0.7,11045,002,2024_Apr_13_1519,MFTM_A_new1021,2021.2.3,59.50238160338267,
,,,,,,,,stim/Instruction_adaptive.png,conditions/adaptive.xlsx,test,0.6,0.6,0.6,-0.6,-0.6,right,R,,,,,0,1,1,1,0,70,70,36,,,,,,,,,,,,,,,,,,,,,,,,,,,,,,,,,,,,,,,,,,,,385.4538322999142,None,right,1,2.08527659997344,385.95402129995637,387.7069163999986,385.95402129995637,387.2059302998241,385.95402129995637,387.2059302998241,385.95402129995637,387.2059302998241,385.95402129995637,387.2059302998241,385.95402129995637,387.2059302998241,387.1722771998029,387.67339459992945,387.1722771998029,387.67339459992945,387.1722771998029,387.67339459992945,387.1722771998029,387.67339459992945,387.1722771998029,387.67339459992945,387.1722771998029,387.67339459992945,387.1722771998029,387.67339459992945,387.1722771998029,387.67339459992945,385.95402129995637,None,387.67339459992945,388.94266429985873,1.2400000000000009,388.9756377998274,None,389.72634089994244,None,,,,,,,[[1.26]],2.450000000000002,0.704225352112676,11045,002,2024_Apr_13_1519,MFTM_A_new1021,2021.2.3,59.50238160338267,
,,,,,,,,stim/Instruction_adaptive.png,conditions/adaptive.xlsx,test,0.6,0.6,0.6,-0.6,-0.6,right,R,,,,,0,1,1,1,0,71,71,84,,,,,,,,,,,,,,,,,,,,,,,,,,,,,,,,,,,,,,,,,,,,390.22712869988754,None,right,1,0.959812100045383,390.72809170000255,392.43100059987046,390.72809170000255,391.9300468999427,390.72809170000255,391.9300468999427,390.72809170000255,391.9300468999427,390.72809170000255,391.9300468999427,390.72809170000255,391.9300468999427,391.9134557999205,392.4135102999862,391.9134557999205,392.4135102999862,391.9134557999205,392.4135102999862,391.9134557999205,392.4135102999862,391.9134557999205,392.4135102999862,391.9134557999205,392.4135102999862,391.9134557999205,392.4135102999862,391.9134557999205,392.4135102999862,390.72809170000255,None,392.4135102999862,393.7162764999084,1.2000000000000008,393.74979879986495,None,394.50051649985835,None,,,,,,,[[1.3]],2.4800000000000018,0.7083333333333334,11045,002,2024_Apr_13_1519,MFTM_A_new1021,2021.2.3,59.50238160338267,
,,,,,,,,stim/Instruction_adaptive.png,conditions/adaptive.xlsx,test,0.6,0.6,0.6,-0.6,-0.6,right,R,,,,,0,1,1,1,0,72,72,32,,,,,,,,,,,,,,,,,,,,,,,,,,,,,,,,,,,,,,,,,,,,395.00117269996554,None,right,1,0.9774195000063628,395.5019975998439,397.18786999979056,395.5019975998439,396.68627989990637,395.5019975998439,396.68627989990637,395.5019975998439,396.68627989990637,395.5019975998439,396.68627989990637,395.5019975998439,396.68627989990637,396.65358759998344,397.15453679999337,396.65358759998344,397.15453679999337,396.65358759998344,397.15453679999337,396.65358759998344,397.15453679999337,396.65358759998344,397.15453679999337,396.65358759998344,397.15453679999337,396.65358759998344,397.15453679999337,396.65358759998344,397.15453679999337,395.5019975998439,None,397.15453679999337,398.4899020998273,1.1800000000000008,398.50579349999316,None,399.2568367999047,None,,,,,,,[[1.32]],2.5100000000000016,0.7123287671232876,11045,002,2024_Apr_13_1519,MFTM_A_new1021,2021.2.3,59.50238160338267,
,,,,,,,,stim/Instruction_adaptive.png,conditions/adaptive.xlsx,test,0.6,0.6,0.6,-0.6,-0.6,right,R,,,,,0,1,1,1,0,73,73,70,,,,,,,,,,,,,,,,,,,,,,,,,,,,,,,,,,,,,,,,,,,,399.75795909995213,None,left,0,1.7482972999569029,400.2583849998191,401.91113899997436,400.2583849998191,401.410586199956,400.2583849998191,401.410586199956,400.2583849998191,401.410586199956,400.2583849998191,401.410586199956,400.2583849998191,401.410586199956,401.39316769992,401.8950980999507,401.39316769992,401.8950980999507,401.39316769992,401.8950980999507,401.39316769992,401.8950980999507,401.39316769992,401.8950980999507,401.39316769992,401.8950980999507,401.39316769992,401.8950980999507,401.39316769992,401.8950980999507,400.2583849998191,None,401.8950980999507,403.2465536999516,1.1500000000000008,403.2626115998719,None,404.0142681999132,None,,,,,,,[[1.35]],2.4200000000000017,0.7027027027027027,11045,002,2024_Apr_13_1519,MFTM_A_new1021,2021.2.3,59.50238160338267,
,,,,,,,,stim/Instruction_adaptive.png,conditions/adaptive.xlsx,test,0.6,0.6,0.6,-0.6,-0.6,right,R,,,,,0,1,1,1,0,74,74,48,,,,,,,,,,,,,,,,,,,,,,,,,,,,,,,,,,,,,,,,,,,,404.5153159999754,None,left,0,1.6963274998124689,405.0154380998574,406.7520200998988,405.0154380998574,406.25067769992165,405.0154380998574,406.25067769992165,405.0154380998574,406.25067769992165,405.0154380998574,406.25067769992165,405.0154380998574,406.25067769992165,406.2348921999801,406.7350225998089,406.2348921999801,406.7350225998089,406.2348921999801,406.7350225998089,406.2348921999801,406.7350225998089,406.2348921999801,406.7350225998089,406.2348921999801,406.7350225998089,406.2348921999801,406.7350225998089,406.2348921999801,406.7350225998089,405.0154380998574,None,406.7350225998089,None,1.2300000000000009,408.03896839986555,None,408.78823599987663,None,,,,,,,[[1.27]],2.3200000000000016,0.6933333333333334,11045,002,2024_Apr_13_1519,MFTM_A_new1021,2021.2.3,59.50238160338267,
,,,,,,,,stim/Instruction_adaptive.png,conditions/adaptive.xlsx,test,-0.6,-0.6,-0.6,0.6,0.6,left,L,,,,,0,1,1,1,0,75,75,87,,,,,,,,,,,,,,,,,,,,,,,,,,,,,,,,,,,,,,,,,,,,409.289213999873,None,left,1,1.5530375000089407,409.7903176997788,411.62599669978954,409.7903176997788,411.1090378998779,409.7903176997788,411.1090378998779,409.7903176997788,411.1090378998779,409.7903176997788,411.1090378998779,409.7903176997788,411.1090378998779,411.09313009982,411.6089559998363,411.09313009982,411.6089559998363,411.09313009982,411.6089559998363,411.09313009982,411.6089559998363,411.09313009982,411.6089559998363,411.09313009982,411.6089559998363,411.09313009982,411.6089559998363,411.09313009982,411.6089559998363,409.7903176997788,None,411.5924546997994,412.77776859980077,1.320000000000001,412.7938806999009,None,413.54562979983166,None,,,,,,,[[1.18]],2.3600000000000017,0.6973684210526315,11045,002,2024_Apr_13_1519,MFTM_A_new1021,2021.2.3,59.50238160338267,
,,,,,,,,stim/Instruction_adaptive.png,conditions/adaptive.xlsx,test,0.6,0.6,0.6,-0.6,-0.6,right,R,,,,,0,1,1,1,0,76,76,62,,,,,,,,,,,,,,,,,,,,,,,,,,,,,,,,,,,,,,,,,,,,414.04677679995075,None,right,1,1.5252266998868436,414.5471395999193,416.33337619993836,414.5471395999193,415.8327553998679,414.5471395999193,415.8327553998679,414.5471395999193,415.8327553998679,414.5471395999193,415.8327553998679,414.5471395999193,415.8327553998679,415.8155999998562,416.31659909989685,415.8155999998562,416.31659909989685,415.8155999998562,416.31659909989685,415.8155999998562,416.31659909989685,415.8155999998562,416.31659909989685,415.8155999998562,416.31659909989685,415.8155999998562,416.31659909989685,415.8155999998562,416.31659909989685,414.5471395999193,None,416.31659909989685,None,1.280000000000001,417.55150169995613,None,418.3034556999337,None,,,,,,,[[1.22]],2.3900000000000015,0.7012987012987013,11045,002,2024_Apr_13_1519,MFTM_A_new1021,2021.2.3,59.50238160338267,
,,,,,,,,stim/Instruction_adaptive.png,conditions/adaptive.xlsx,test,0.6,0.6,0.6,-0.6,-0.6,right,R,,,,,0,1,1,1,0,77,77,66,,,,,,,,,,,,,,,,,,,,,,,,,,,,,,,,,,,,,,,,,,,,418.8034157999791,None,right,1,1.439455599989742,419.3038711999543,421.0741755999625,419.3038711999543,420.5729309997987,419.3038711999543,420.5729309997987,419.3038711999543,420.5729309997987,419.3038711999543,420.5729309997987,419.3038711999543,420.5729309997987,420.5565248997882,421.05747269978747,420.5565248997882,421.05747269978747,420.5565248997882,421.05747269978747,420.5565248997882,421.05747269978747,420.5565248997882,421.05747269978747,420.5565248997882,421.05747269978747,420.5565248997882,421.05747269978747,420.5565248997882,421.05747269978747,419.3038711999543,None,421.05747269978747,None,1.260000000000001,422.30834859982133,None,423.0596513999626,None,,,,,,,[[1.24]],2.4200000000000017,0.7051282051282052,11045,002,2024_Apr_13_1519,MFTM_A_new1021,2021.2.3,59.50238160338267,
,,,,,,,,stim/Instruction_adaptive.png,conditions/adaptive.xlsx,test,0.6,0.6,0.6,-0.6,-0.6,right,R,,,,,0,1,1,1,0,78,78,80,,,,,,,,,,,,,,,,,,,,,,,,,,,,,,,,,,,,,,,,,,,,423.56048979982734,None,right,1,1.2086795999202877,424.0791409998201,425.8144872998819,424.0791409998201,425.3134548999369,424.0791409998201,425.3134548999369,424.0791409998201,425.3134548999369,424.0791409998201,425.3134548999369,424.0791409998201,425.3134548999369,425.2801250999328,425.78047619992867,425.2801250999328,425.78047619992867,425.2801250999328,425.78047619992867,425.2801250999328,425.78047619992867,425.2801250999328,425.78047619992867,425.2801250999328,425.78047619992867,425.2801250999328,425.78047619992867,425.2801250999328,425.78047619992867,424.0791409998201,None,425.78047619992867,427.0656017998699,1.2300000000000009,427.0827074998524,None,427.8333674999885,None,,,,,,,[[1.27]],2.450000000000002,0.7088607594936709,11045,002,2024_Apr_13_1519,MFTM_A_new1021,2021.2.3,59.50238160338267,
,,,,,,,,stim/Instruction_adaptive.png,conditions/adaptive.xlsx,test,-0.6,-0.6,-0.6,0.6,0.6,left,L,,,,,0,1,1,1,0,79,79,29,,,,,,,,,,,,,,,,,,,,,,,,,,,,,,,,,,,,,,,,,,,,428.3339992999099,None,right,0,1.2525101001374424,428.8361255999189,430.53741449979134,428.8361255999189,430.03759049996734,428.8361255999189,430.03759049996734,428.8361255999189,430.03759049996734,428.8361255999189,430.03759049996734,428.8361255999189,430.03759049996734,430.0205488000065,430.5212981000077,430.0205488000065,430.5212981000077,430.0205488000065,430.5212981000077,430.0205488000065,430.5212981000077,430.0205488000065,430.5212981000077,430.0205488000065,430.5212981000077,430.0205488000065,430.5212981000077,430.0205488000065,430.5212981000077,428.8361255999189,None,430.5212981000077,431.82265669992194,1.2000000000000008,431.83948809979483,None,432.59156099986285,None,,,,,,,[[1.3]],2.3600000000000017,0.7,11045,002,2024_Apr_13_1519,MFTM_A_new1021,2021.2.3,59.50238160338267,
,,,,,,,,stim/Instruction_adaptive.png,conditions/adaptive.xlsx,test,-0.6,-0.6,-0.6,0.6,0.6,left,L,,,,,0,1,1,1,0,80,80,53,,,,,,,,,,,,,,,,,,,,,,,,,,,,,,,,,,,,,,,,,,,,433.0929667998571,None,left,1,1.4057314000092447,433.61078149988316,435.39557349984534,433.61078149988316,434.89494429994375,433.61078149988316,434.89494429994375,433.61078149988316,434.89494429994375,433.61078149988316,434.89494429994375,433.61078149988316,434.89494429994375,434.86111269984394,435.36169119994156,434.86111269984394,435.36169119994156,434.86111269984394,435.36169119994156,434.86111269984394,435.36169119994156,434.86111269984394,435.36169119994156,434.86111269984394,435.36169119994156,434.86111269984394,435.36169119994156,434.86111269984394,435.36169119994156,433.61078149988316,None,435.36169119994156,436.5974232999142,1.280000000000001,436.63108709990047,None,437.3819358998444,None,,,,,,,[[1.22]],2.3900000000000015,0.7037037037037037,11045,002,2024_Apr_13_1519,MFTM_A_new1021,2021.2.3,59.50238160338267,
,,,,,,,,stim/Instruction_adaptive.png,conditions/adaptive.xlsx,test,0.6,0.6,0.6,-0.6,-0.6,right,R,,,,,0,1,1,1,0,81,81,10,,,,,,,,,,,,,,,,,,,,,,,,,,,,,,,,,,,,,,,,,,,,437.88258569990285,None,right,1,1.1355326999910176,438.3842007999774,440.15279869991355,438.3842007999774,439.65187609987333,438.3842007999774,439.65187609987333,438.3842007999774,439.65187609987333,438.3842007999774,439.65187609987333,438.3842007999774,439.65187609987333,439.61821119999513,440.1200134998653,439.61821119999513,440.1200134998653,439.61821119999513,440.1200134998653,439.61821119999513,440.1200134998653,439.61821119999513,440.1200134998653,439.61821119999513,440.1200134998653,439.61821119999513,440.1200134998653,439.61821119999513,440.1200134998653,438.3842007999774,None,440.1200134998653,441.37095699994825,1.260000000000001,441.3878477998078,None,442.1386793998536,None,,,,,,,[[1.24]],2.4200000000000017,0.7073170731707317,11045,002,2024_Apr_13_1519,MFTM_A_new1021,2021.2.3,59.50238160338267,
,,,,,,,,stim/Instruction_adaptive.png,conditions/adaptive.xlsx,test,0.6,0.6,0.6,-0.6,-0.6,right,R,,,,,0,1,1,1,0,82,82,54,,,,,,,,,,,,,,,,,,,,,,,,,,,,,,,,,,,,,,,,,,,,442.6393998998683,None,left,0,1.8698336998932064,443.1397090998944,444.87670119991526,443.1397090998944,444.3761643997859,443.1397090998944,444.3761643997859,443.1397090998944,444.3761643997859,443.1397090998944,444.3761643997859,443.1397090998944,444.3761643997859,444.35943179996684,444.85979939997196,444.35943179996684,444.85979939997196,444.35943179996684,444.85979939997196,444.35943179996684,444.85979939997196,444.35943179996684,444.85979939997196,444.35943179996684,444.85979939997196,444.35943179996684,444.85979939997196,444.35943179996684,444.85979939997196,443.1397090998944,None,444.85979939997196,None,1.2300000000000009,446.1439950999338,None,446.89615899999626,None,,,,,,,[[1.27]],2.3400000000000016,0.6987951807228916,11045,002,2024_Apr_13_1519,MFTM_A_new1021,2021.2.3,59.50238160338267,
,,,,,,,,stim/Instruction_adaptive.png,conditions/adaptive.xlsx,test,-0.6,-0.6,-0.6,0.6,0.6,left,L,,,,,0,1,1,1,0,83,83,27,,,,,,,,,,,,,,,,,,,,,,,,,,,,,,,,,,,,,,,,,,,,447.39729969995096,None,left,1,1.4721510000526905,447.8977854999248,449.69985380000435,447.8977854999248,449.20063479989767,447.8977854999248,449.20063479989767,447.8977854999248,449.20063479989767,447.8977854999248,449.20063479989767,447.8977854999248,449.20063479989767,449.18268959992565,449.6833228999749,449.18268959992565,449.6833228999749,449.18268959992565,449.6833228999749,449.18268959992565,449.6833228999749,449.18268959992565,449.6833228999749,449.18268959992565,449.6833228999749,449.18268959992565,449.6833228999749,449.18268959992565,449.6833228999749,447.8977854999248,None,449.6833228999749,450.88533339998685,1.300000000000001,450.90131019987166,None,451.65337249985896,None,,,,,,,[[1.2]],2.370000000000002,0.7023809523809523,11045,002,2024_Apr_13_1519,MFTM_A_new1021,2021.2.3,59.50238160338267,
,,,,,,,,stim/Instruction_adaptive.png,conditions/adaptive.xlsx,test,0.6,0.6,0.6,-0.6,-0.6,right,R,,,,,0,1,1,1,0,84,84,8,,,,,,,,,,,,,,,,,,,,,,,,,,,,,,,,,,,,,,,,,,,,452.1539091998711,None,left,0,2.1377858999185264,452.65466819982976,454.42382719996385,452.65466819982976,453.92420000000857,452.65466819982976,453.92420000000857,452.65466819982976,453.92420000000857,452.65466819982976,453.92420000000857,452.65466819982976,453.92420000000857,453.9071570998058,454.40729769994505,453.9071570998058,454.40729769994505,453.9071570998058,454.40729769994505,453.9071570998058,454.40729769994505,453.9071570998058,454.40729769994505,453.9071570998058,454.40729769994505,453.9071570998058,454.40729769994505,453.9071570998058,454.40729769994505,452.65466819982976,None,454.40729769994505,455.6429625998717,1.270000000000001,455.6768968999386,None,456.4279203999322,None,,,,,,,[[1.23]],2.2800000000000016,0.6941176470588235,11045,002,2024_Apr_13_1519,MFTM_A_new1021,2021.2.3,59.50238160338267,
,,,,,,,,stim/Instruction_adaptive.png,conditions/adaptive.xlsx,test,-0.6,-0.6,-0.6,0.6,0.6,left,L,,,,,0,1,1,1,0,85,85,85,,,,,,,,,,,,,,,,,,,,,,,,,,,,,,,,,,,,,,,,,,,,456.9278835998848,None,right,0,1.3321493999101222,457.428474499844,459.28137949993834,457.428474499844,458.7804618999362,457.428474499844,458.7804618999362,457.428474499844,458.7804618999362,457.428474499844,458.7804618999362,457.428474499844,458.7804618999362,458.76423959992826,459.2646568999626,458.76423959992826,459.2646568999626,458.76423959992826,459.2646568999626,458.76423959992826,459.2646568999626,458.76423959992826,459.2646568999626,458.76423959992826,459.2646568999626,458.76423959992826,459.2646568999626,458.76423959992826,459.2646568999626,457.428474499844,None,459.2646568999626,460.4159979999531,1.350000000000001,460.4329569998663,None,461.1843124998268,None,,,,,,,[[1.15]],2.1900000000000013,0.686046511627907,11045,002,2024_Apr_13_1519,MFTM_A_new1021,2021.2.3,59.50238160338267,
,,,,,,,,stim/Instruction_adaptive.png,conditions/adaptive.xlsx,test,-0.6,-0.6,-0.6,0.6,0.6,left,L,,,,,0,1,1,1,0,86,86,21,,,,,,,,,,,,,,,,,,,,,,,,,,,,,,,,,,,,,,,,,,,,461.6856032998767,None,right,0,2.014403000008315,462.1865635998547,464.1382593999151,462.1865635998547,463.6383132999763,462.1865635998547,463.6383132999763,462.1865635998547,463.6383132999763,462.1865635998547,463.6383132999763,462.1865635998547,463.6383132999763,463.60465869982727,464.10534439980984,463.60465869982727,464.10534439980984,463.60465869982727,464.10534439980984,463.60465869982727,464.10534439980984,463.60465869982727,464.10534439980984,463.60465869982727,464.10534439980984,463.60465869982727,464.10534439980984,463.60465869982727,464.10534439980984,462.1865635998547,None,464.10534439980984,465.1731020999141,1.440000000000001,465.1900447998196,None,465.94147359998897,None,,,,,,,[[1.06]],2.0900000000000016,0.6781609195402298,11045,002,2024_Apr_13_1519,MFTM_A_new1021,2021.2.3,59.50238160338267,
,,,,,,,,stim/Instruction_adaptive.png,conditions/adaptive.xlsx,test,-0.6,-0.6,-0.6,0.6,0.6,left,L,,,,,0,1,1,1,0,87,87,61,,,,,,,,,,,,,,,,,,,,,,,,,,,,,,,,,,,,,,,,,,,,466.44265109999105,None,left,1,2.193970900028944,466.9422951999586,468.99657069984823,466.9422951999586,468.49505589995533,466.9422951999586,468.49505589995533,466.9422951999586,468.49505589995533,466.9422951999586,468.49505589995533,466.9422951999586,468.49505589995533,468.47840319992974,468.9788322998211,468.47840319992974,468.9788322998211,468.47840319992974,468.9788322998211,468.47840319992974,468.9788322998211,468.47840319992974,468.9788322998211,468.47840319992974,468.9788322998211,468.47840319992974,468.9788322998211,468.47840319992974,468.9788322998211,466.9422951999586,None,468.9788322998211,469.93240269995295,1.5500000000000012,469.96407699980773,None,470.715306899976,None,,,,,,,[[0.95]],2.1200000000000014,0.6818181818181818,11045,002,2024_Apr_13_1519,MFTM_A_new1021,2021.2.3,59.50238160338267,
,,,,,,,,stim/Instruction_adaptive.png,conditions/adaptive.xlsx,test,-0.6,-0.6,-0.6,0.6,0.6,left,L,,,,,0,1,1,1,0,88,88,9,,,,,,,,,,,,,,,,,,,,,,,,,,,,,,,,,,,,,,,,,,,,471.21632209979,None,left,1,2.3085718001239,471.7168798998464,473.7365371999331,471.7168798998464,473.2371316999197,471.7168798998464,473.2371316999197,471.7168798998464,473.2371316999197,471.7168798998464,473.2371316999197,471.7168798998464,473.2371316999197,473.20221229991876,473.7030124999583,473.20221229991876,473.7030124999583,473.20221229991876,473.7030124999583,473.20221229991876,473.7030124999583,473.20221229991876,473.7030124999583,473.20221229991876,473.7030124999583,473.20221229991876,473.7030124999583,473.20221229991876,473.7030124999583,471.7168798998464,None,473.7030124999583,474.7063253999222,1.5100000000000011,474.73914629989304,None,475.48937159986235,None,,,,,,,[[0.99]],2.1600000000000015,0.6853932584269663,11045,002,2024_Apr_13_1519,MFTM_A_new1021,2021.2.3,59.50238160338267,
,,,,,,,,stim/Instruction_adaptive.png,conditions/adaptive.xlsx,test,0.6,0.6,0.6,-0.6,-0.6,right,R,,,,,0,1,1,1,0,89,89,96,,,,,,,,,,,,,,,,,,,,,,,,,,,,,,,,,,,,,,,,,,,,475.9894591998309,None,left,0,1.6711043000686914,476.4905395999085,478.46063869982027,476.4905395999085,477.9764614999294,476.4905395999085,477.9764614999294,476.4905395999085,477.9764614999294,476.4905395999085,477.9764614999294,476.4905395999085,477.9764614999294,477.9427749000024,478.44427099986933,477.9427749000024,478.44427099986933,477.9427749000024,478.44427099986933,477.9427749000024,478.44427099986933,477.9427749000024,478.44427099986933,477.9427749000024,478.44427099986933,477.9427749000024,478.44427099986933,477.9427749000024,478.44427099986933,476.4905395999085,None,478.44427099986933,479.4784224999603,1.470000000000001,479.49546429980546,None,480.2464703998994,None,,,,,,,[[1.03]],2.0600000000000014,0.6777777777777778,11045,002,2024_Apr_13_1519,MFTM_A_new1021,2021.2.3,59.50238160338267,
,,,,,,,,stim/Instruction_adaptive.png,conditions/adaptive.xlsx,test,0.6,0.6,0.6,-0.6,-0.6,right,R,,,,,0,1,1,1,0,90,90,24,,,,,,,,,,,,,,,,,,,,,,,,,,,,,,,,,,,,,,,,,,,,480.74726919992827,None,right,1,1.4098994000814855,481.2478643998038,483.3340629998129,481.2478643998038,482.8339124999475,481.2478643998038,482.8339124999475,481.2478643998038,482.8339124999475,481.2478643998038,482.8339124999475,481.2478643998038,482.8339124999475,482.8004262999166,483.30109209986404,482.8004262999166,483.30109209986404,482.8004262999166,483.30109209986404,482.8004262999166,483.30109209986404,482.8004262999166,483.30109209986404,482.8004262999166,483.30109209986404,482.8004262999166,483.30109209986404,482.8004262999166,483.30109209986404,481.2478643998038,None,483.30109209986404,484.23604179988615,1.5800000000000012,484.2515268998686,None,485.0038130998146,None,,,,,,,[[0.92]],2.0900000000000016,0.6813186813186813,11045,002,2024_Apr_13_1519,MFTM_A_new1021,2021.2.3,59.50238160338267,
,,,,,,,,stim/Instruction_adaptive.png,conditions/adaptive.xlsx,test,-0.6,-0.6,-0.6,0.6,0.6,left,L,,,,,0,1,1,1,0,91,91,45,,,,,,,,,,,,,,,,,,,,,,,,,,,,,,,,,,,,,,,,,,,,485.5046569998376,None,left,1,2.285666799871251,486.00489959982224,488.0584145998582,486.00489959982224,487.557549999794,486.00489959982224,487.557549999794,486.00489959982224,487.557549999794,486.00489959982224,487.557549999794,486.00489959982224,487.557549999794,487.54056219989434,488.04176940000616,487.54056219989434,488.04176940000616,487.54056219989434,488.04176940000616,487.54056219989434,488.04176940000616,487.54056219989434,488.04176940000616,487.54056219989434,488.04176940000616,487.54056219989434,488.04176940000616,487.54056219989434,488.04176940000616,486.00489959982224,None,488.04176940000616,488.9932442998979,1.5500000000000012,489.00900919991545,None,489.76094189984724,None,,,,,,,[[0.95]],2.1200000000000014,0.6847826086956522,11045,002,2024_Apr_13_1519,MFTM_A_new1021,2021.2.3,59.50238160338267,
,,,,,,,,stim/Instruction_adaptive.png,conditions/adaptive.xlsx,test,0.6,0.6,0.6,-0.6,-0.6,right,R,,,,,0,1,1,1,0,92,92,76,,,,,,,,,,,,,,,,,,,,,,,,,,,,,,,,,,,,,,,,,,,,490.26139329979196,None,right,1,2.183784999884665,490.7619685998652,492.78226659982465,490.7619685998652,492.282698799856,490.7619685998652,492.282698799856,490.7619685998652,492.282698799856,490.7619685998652,492.282698799856,490.7619685998652,492.282698799856,492.2639767997898,492.7661633999087,492.2639767997898,492.7661633999087,492.2639767997898,492.7661633999087,492.2639767997898,492.7661633999087,492.2639767997898,492.7661633999087,492.2639767997898,492.7661633999087,492.2639767997898,492.7661633999087,492.2639767997898,492.7661633999087,490.7619685998652,None,492.7661633999087,None,1.5100000000000011,493.783817099873,None,494.5343509998638,None,,,,,,,[[0.99]],2.1600000000000015,0.6881720430107527,11045,002,2024_Apr_13_1519,MFTM_A_new1021,2021.2.3,59.50238160338267,
,,,,,,,,stim/Instruction_adaptive.png,conditions/adaptive.xlsx,test,0.6,0.6,0.6,-0.6,-0.6,right,R,,,,,0,1,1,1,0,93,93,30,,,,,,,,,,,,,,,,,,,,,,,,,,,,,,,,,,,,,,,,,,,,495.0348542998545,None,right,1,1.7056893999688327,495.5365692998748,497.5060632999521,495.5365692998748,497.00486649991944,495.5365692998748,497.00486649991944,495.5365692998748,497.00486649991944,495.5365692998748,497.00486649991944,495.5365692998748,497.00486649991944,496.9896596998442,497.4892485998571,496.9896596998442,497.4892485998571,496.9896596998442,497.4892485998571,496.9896596998442,497.4892485998571,496.9896596998442,497.4892485998571,496.9896596998442,497.4892485998571,496.9896596998442,497.4892485998571,496.9896596998442,497.4892485998571,495.5365692998748,None,497.4892485998571,498.5237885999959,1.470000000000001,498.53999709989876,None,499.29214589996263,None,,,,,,,[[1.03]],2.1900000000000013,0.6914893617021277,11045,002,2024_Apr_13_1519,MFTM_A_new1021,2021.2.3,59.50238160338267,
