arrwidth1,arrwidth2,arrwidth3,arrwidth4,arrwidth5,keyb,type,orientation,instruction_image,block_filename,block_type,arrow11,arrow22,arrow33,arrow44,arrow55,keyb_3,orientation3,trials.thisRepN,trials.thisTrialN,trials.thisN,trials.thisIndex,trials_3.thisRepN,trials_3.thisTrialN,trials_3.thisN,trials_3.thisIndex,trials_2.thisRepN,trials_2.thisTrialN,trials_2.thisN,trials_2.thisIndex,welcome.started,welcome.stopped,key_resp.keys,key_resp.rt,key_resp.started,key_resp.stopped,instruction_example.started,instruction_example.stopped,key_resp_3.keys,key_resp_3.rt,key_resp_3.started,key_resp_3.stopped,instruction_task.started,instruction_task.stopped,key_resp_2.keys,key_resp_2.rt,key_resp_2.started,key_resp_2.stopped,text_2.started,text_2.stopped,A1.started,A1.stopped,A2.started,A2.stopped,A3.started,A3.stopped,A4.started,A4.stopped,A5.started,A5.stopped,key_resp_4.keys,key_resp_4.corr,key_resp_4.rt,key_resp_4.started,key_resp_4.stopped,fb.started,fb.stopped,instruction_block.started,instruction_block.stopped,key_resp_8.keys,key_resp_8.rt,key_resp_8.started,key_resp_8.stopped,text_8.started,text_8.stopped,key_resp_9.keys,key_resp_9.corr,key_resp_9.rt,text_5.started,text_5.stopped,A11_3.started,A11_3.stopped,A22_2.started,A22_2.stopped,A33_2.started,A33_2.stopped,A44_2.started,A44_2.stopped,A55_2.started,A55_2.stopped,M1_3.started,M1_3.stopped,M2_2.started,M2_2.stopped,M3_2.started,M3_2.stopped,M4_2.started,M4_2.stopped,M5_2.started,M5_2.stopped,M6_2.started,M6_2.stopped,M7_2.started,M7_2.stopped,M8_2.started,M8_2.stopped,key_resp_9.started,key_resp_9.stopped,fixation.started,fixation.stopped,ET,fb_3.started,fb_3.stopped,text_9.started,text_9.stopped,fb_4.started,fb_4.stopped,text_7.started,text_7.stopped,endtext.started,endtext.stopped,fixation_ITI,CCC,Acc,participant,session,date,expName,psychopyVersion,frameRate,
,,,,,,,,,,,,,,,,,,,,,,,,,,,,,,11.55643220001366,None,space,2.0037966999807395,11.55643220001366,None,,,,,,,,,,,,,,,,,,,,,,,,,,,,,,,,,,,,,,,,,,,,,,,,,,,,,,,,,,,,,,,,,,,,,,,,,,,,,,,,,,,,,,,,,11041,001,2024_Mar_15_1402,MFTM_A_new1021,2021.2.3,59.98868613843175,
,,,,,,,,,,,,,,,,,,,,,,,,,,,,,,,,,,,,13.576941600011196,None,right,2.118454899988137,13.576941600011196,None,,,,,,,,,,,,,,,,,,,,,,,,,,,,,,,,,,,,,,,,,,,,,,,,,,,,,,,,,,,,,,,,,,,,,,,,,,,,,,,,,,,11041,001,2024_Mar_15_1402,MFTM_A_new1021,2021.2.3,59.98868613843175,
,,,,,,,,,,,,,,,,,,,,,,,,,,,,,,,,,,,,,,,,,,15.713341900031082,None,space,4.262432400020771,15.713341900031082,None,,,,,,,,,,,,,,,,,,,,,,,,,,,,,,,,,,,,,,,,,,,,,,,,,,,,,,,,,,,,,,,,,,,,,,,,,,,,,11041,001,2024_Mar_15_1402,MFTM_A_new1021,2021.2.3,59.98868613843175,
-0.6,-0.6,-0.6,0.6,0.6,left,3:2,L,,,,,,,,,,,0,0,0,1,,,,,,,,,,,,,,,,,,,,,,,,,,,20.020199200022034,None,20.020199200022034,None,20.020199200022034,None,20.020199200022034,None,20.020199200022034,None,20.020199200022034,None,left,1,1.1872805000166409,20.020199200022034,None,21.25521110004047,None,,,,,,,,,,,,,,,,,,,,,,,,,,,,,,,,,,,,,,,,,,,,,,,,,,,,,,,,,,11041,001,2024_Mar_15_1402,MFTM_A_new1021,2021.2.3,59.98868613843175,
0.6,0.6,0.6,-0.6,-0.6,right,3:2,R,,,,,,,,,,,0,1,1,0,,,,,,,,,,,,,,,,,,,,,,,,,,,22.006329700001515,None,22.006329700001515,None,22.006329700001515,None,22.006329700001515,None,22.006329700001515,None,22.006329700001515,None,left,0,2.217323699966073,22.006329700001515,None,24.260178500029724,None,,,,,,,,,,,,,,,,,,,,,,,,,,,,,,,,,,,,,,,,,,,,,,,,,,,,,,,,,,11041,001,2024_Mar_15_1402,MFTM_A_new1021,2021.2.3,59.98868613843175,
0.6,0.6,0.6,-0.6,-0.6,right,3:2,R,,,,,,,,,,,1,0,2,0,,,,,,,,,,,,,,,,,,,,,,,,,,,25.010999100049958,None,25.010999100049958,None,25.010999100049958,None,25.010999100049958,None,25.010999100049958,None,25.010999100049958,None,right,1,2.724864499992691,25.010999100049958,None,27.765068400010932,None,,,,,,,,,,,,,,,,,,,,,,,,,,,,,,,,,,,,,,,,,,,,,,,,,,,,,,,,,,11041,001,2024_Mar_15_1402,MFTM_A_new1021,2021.2.3,59.98868613843175,
-0.6,-0.6,-0.6,0.6,0.6,left,3:2,L,,,,,,,,,,,1,1,3,1,,,,,,,,,,,,,,,,,,,,,,,,,,,28.51630810002098,None,28.51630810002098,None,28.51630810002098,None,28.51630810002098,None,28.51630810002098,None,28.51630810002098,None,left,1,3.100119699956849,28.51630810002098,None,31.637475800001994,None,,,,,,,,,,,,,,,,,,,,,,,,,,,,,,,,,,,,,,,,,,,,,,,,,,,,,,,,,,11041,001,2024_Mar_15_1402,MFTM_A_new1021,2021.2.3,59.98868613843175,
,,,,,,,,stim/Instruction_mask.png,conditions/adaptive.xlsx,practice,0.6,0.6,0.6,-0.6,-0.6,right,R,,,,,0,0,0,0,0,0,0,98,,,,,,,,,,,,,,,,,,,,,,,,,,,,,,,,,,,,,,32.70503040001495,None,space,28.3279619999812,32.70503040001495,None,61.13240840000799,None,None,0,0,61.56590980000328,None,61.56590980000328,64.57082130003255,61.56590980000328,64.57082130003255,61.56590980000328,64.57082130003255,61.56590980000328,64.57082130003255,61.56590980000328,64.57082130003255,64.55401260004146,65.05498170002829,64.55401260004146,65.05498170002829,64.55401260004146,65.05498170002829,64.55401260004146,65.05498170002829,64.55401260004146,65.05498170002829,64.55401260004146,65.05498170002829,64.55401260004146,65.05498170002829,64.55401260004146,65.05498170002829,61.56590980000328,None,65.05498170002829,65.05498170002829,3,65.07090819999576,None,65.82256390003022,None,,,,,,,,,,11041,001,2024_Mar_15_1402,MFTM_A_new1021,2021.2.3,59.98868613843175,
,,,,,,,,stim/Instruction_mask.png,conditions/adaptive.xlsx,practice,0.6,0.6,0.6,-0.6,-0.6,right,R,,,,,0,0,0,0,0,1,1,20,,,,,,,,,,,,,,,,,,,,,,,,,,,,,,,,,,,,,,,,,,,,66.32354830001714,None,right,1,1.7208727999823168,66.82393770001363,68.82713660004083,66.82393770001363,68.32617030001711,66.82393770001363,68.32617030001711,66.82393770001363,68.32617030001711,66.82393770001363,68.32617030001711,66.82393770001363,68.32617030001711,68.30987500003539,68.81082150002476,68.30987500003539,68.81082150002476,68.30987500003539,68.81082150002476,68.30987500003539,68.81082150002476,68.30987500003539,68.81082150002476,68.30987500003539,68.81082150002476,68.30987500003539,68.81082150002476,68.30987500003539,68.81082150002476,66.82393770001363,None,68.81082150002476,70.31276440003421,1.5,70.3292404000531,None,71.08048990002135,None,,,,,,,,,,11041,001,2024_Mar_15_1402,MFTM_A_new1021,2021.2.3,59.98868613843175,
,,,,,,,,stim/Instruction_mask.png,conditions/adaptive.xlsx,practice,0.6,0.6,0.6,-0.6,-0.6,right,R,,,,,0,0,0,0,0,2,2,14,,,,,,,,,,,,,,,,,,,,,,,,,,,,,,,,,,,,,,,,,,,,71.58117220003624,None,left,0,1.175020799972117,72.08182410005247,73.3837690000073,72.08182410005247,72.88339860003907,72.08182410005247,72.88339860003907,72.08182410005247,72.88339860003907,72.08182410005247,72.88339860003907,72.08182410005247,72.88339860003907,72.86651810002513,73.36755090003135,72.86651810002513,73.36755090003135,72.86651810002513,73.36755090003135,72.86651810002513,73.36755090003135,72.86651810002513,73.36755090003135,72.86651810002513,73.36755090003135,72.86651810002513,73.36755090003135,72.86651810002513,73.36755090003135,72.08182410005247,None,73.36755090003135,75.5703803000506,0.8,75.58755620004376,None,76.3383654000354,None,,,,,,,,,,11041,001,2024_Mar_15_1402,MFTM_A_new1021,2021.2.3,59.98868613843175,
,,,,,,,,stim/Instruction_mask.png,conditions/adaptive.xlsx,practice,0.6,0.6,0.6,-0.6,-0.6,right,R,,,,,0,0,0,0,0,3,3,90,,,,,,,,,,,,,,,,,,,,,,,,,,,,,,,,,,,,,,,,,,,,76.83915980003076,None,right,1,0.7977296999888495,77.33971140003996,78.09110000001965,77.33971140003996,77.59011710004415,77.33971140003996,77.59011710004415,77.33971140003996,77.59011710004415,77.33971140003996,77.59011710004415,77.33971140003996,77.59011710004415,77.57343849999597,78.07483250001678,77.57343849999597,78.07483250001678,77.57343849999597,78.07483250001678,77.57343849999597,78.07483250001678,77.57343849999597,78.07483250001678,77.57343849999597,78.07483250001678,77.57343849999597,78.07483250001678,77.57343849999597,78.07483250001678,77.33971140003996,None,78.07483250001678,80.82911660004174,3,80.84505180001725,None,81.59602740005357,None,,,,,,,,,,11041,001,2024_Mar_15_1402,MFTM_A_new1021,2021.2.3,59.98868613843175,
,,,,,,,,stim/Instruction_mask.png,conditions/adaptive.xlsx,practice,,,,,,,,,,,,0,0,0,0,,,,,,,,,,,,,,,,,,,,,,,,,,,,,,,,,,,,,,,,,,,,,,,,,,,,,,,,,,,,,,,,,,,,,,,,,,,,,,,,,,,,,,,,,,82.130946600053,83.13369380001677,83.11581930000102,83.11581930000102,83.11581930000102,None,,,,11041,001,2024_Mar_15_1402,MFTM_A_new1021,2021.2.3,59.98868613843175,
,,,,,,,,stim/Instruction_adaptive.png,conditions/adaptive.xlsx,test,0.6,0.6,0.6,-0.6,-0.6,right,R,,,,,0,1,1,1,0,0,0,64,,,,,,,,,,,,,,,,,,,,,,,,,,,,,,,,,,,,,,86.33782640000572,None,space,45.528665799996816,86.33782640000572,None,131.90479240001878,None,right,1,1.396560400025919,132.40601600002265,None,132.40601600002265,135.4107252000249,132.40601600002265,135.4107252000249,132.40601600002265,135.4107252000249,132.40601600002265,135.4107252000249,132.40601600002265,135.4107252000249,135.39418410003418,135.89489510003477,135.39418410003418,135.89489510003477,135.39418410003418,135.89489510003477,135.39418410003418,135.89489510003477,135.39418410003418,135.89489510003477,135.39418410003418,135.89489510003477,135.39418410003418,135.89489510003477,135.39418410003418,135.89489510003477,132.40601600002265,None,135.89489510003477,135.89489510003477,3,135.91139670001576,None,136.66304410004523,None,,,,,,,0,6.000000000000005,1.0,11041,001,2024_Mar_15_1402,MFTM_A_new1021,2021.2.3,59.98868613843175,
,,,,,,,,stim/Instruction_adaptive.png,conditions/adaptive.xlsx,test,0.6,0.6,0.6,-0.6,-0.6,right,R,,,,,0,1,1,1,0,1,1,90,,,,,,,,,,,,,,,,,,,,,,,,,,,,,,,,,,,,,,,,,,,,137.1632307000109,None,right,1,1.0108997999923304,137.66379740001867,138.41517780005233,137.66379740001867,137.91430709999986,137.66379740001867,137.91430709999986,137.66379740001867,137.91430709999986,137.66379740001867,137.91430709999986,137.66379740001867,137.91430709999986,137.8977811000077,138.3982303000521,137.8977811000077,138.3982303000521,137.8977811000077,138.3982303000521,137.8977811000077,138.3982303000521,137.8977811000077,138.3982303000521,137.8977811000077,138.3982303000521,137.8977811000077,138.3982303000521,137.8977811000077,138.3982303000521,137.66379740001867,None,138.3982303000521,139.28312540001934,0.25,139.29970410000533,None,140.05147250002483,None,,,,,,,[0.875],6.000000000000005,1.0,11041,001,2024_Mar_15_1402,MFTM_A_new1021,2021.2.3,59.98868613843175,
,,,,,,,,stim/Instruction_adaptive.png,conditions/adaptive.xlsx,test,-0.6,-0.6,-0.6,0.6,0.6,left,L,,,,,0,1,1,1,0,2,2,13,,,,,,,,,,,,,,,,,,,,,,,,,,,,,,,,,,,,,,,,,,,,140.5516384000075,None,left,1,0.4860696000396274,141.05250260001048,141.80413240002235,141.05250260001048,141.30287870002212,141.05250260001048,141.30287870002212,141.05250260001048,141.30287870002212,141.05250260001048,141.30287870002212,141.05250260001048,141.30287870002212,141.28646450000815,141.78707200003555,141.28646450000815,141.78707200003555,141.28646450000815,141.78707200003555,141.28646450000815,141.78707200003555,141.28646450000815,141.78707200003555,141.28646450000815,141.78707200003555,141.28646450000815,141.78707200003555,141.28646450000815,141.78707200003555,141.05250260001048,None,141.78707200003555,143.12233060004655,0.25,143.1389715000405,None,143.89018159999978,None,,,,,,,[1.33333333],6.000000000000005,1.0,11041,001,2024_Mar_15_1402,MFTM_A_new1021,2021.2.3,59.98868613843175,
,,,,,,,,stim/Instruction_adaptive.png,conditions/adaptive.xlsx,test,-0.6,-0.6,-0.6,0.6,0.6,left,L,,,,,0,1,1,1,0,3,3,17,,,,,,,,,,,,,,,,,,,,,,,,,,,,,,,,,,,,,,,,,,,,144.39109730004566,None,left,1,0.7434993999777362,144.89147020003293,145.64264480001293,144.89147020003293,145.14207660005195,144.89147020003293,145.14207660005195,144.89147020003293,145.14207660005195,144.89147020003293,145.14207660005195,144.89147020003293,145.14207660005195,145.1255208000075,145.6264362000511,145.1255208000075,145.6264362000511,145.1255208000075,145.6264362000511,145.1255208000075,145.6264362000511,145.1255208000075,145.6264362000511,145.1255208000075,145.6264362000511,145.1255208000075,145.6264362000511,145.1255208000075,145.6264362000511,144.89147020003293,None,145.6264362000511,147.19662410003366,0.25,147.2116808000137,None,147.96311300003435,None,,,,,,,[1.5625],6.000000000000005,1.0,11041,001,2024_Mar_15_1402,MFTM_A_new1021,2021.2.3,59.98868613843175,
,,,,,,,,stim/Instruction_adaptive.png,conditions/adaptive.xlsx,test,-0.6,-0.6,-0.6,0.6,0.6,left,L,,,,,0,1,1,1,0,4,4,29,,,,,,,,,,,,,,,,,,,,,,,,,,,,,,,,,,,,,,,,,,,,148.46375019999687,None,left,1,0.9584904000512324,148.96435370005202,149.71628079999937,148.96435370005202,149.21468530001584,148.96435370005202,149.21468530001584,148.96435370005202,149.21468530001584,148.96435370005202,149.21468530001584,148.96435370005202,149.21468530001584,149.19820440001786,149.6992268000031,149.19820440001786,149.6992268000031,149.19820440001786,149.6992268000031,149.19820440001786,149.6992268000031,149.19820440001786,149.6992268000031,149.19820440001786,149.6992268000031,149.19820440001786,149.6992268000031,149.19820440001786,149.6992268000031,148.96435370005202,None,149.6992268000031,151.40144750004401,0.25,151.4186060000211,None,152.169532000029,None,,,,,,,[1.7],6.000000000000005,1.0,11041,001,2024_Mar_15_1402,MFTM_A_new1021,2021.2.3,59.98868613843175,
,,,,,,,,stim/Instruction_adaptive.png,conditions/adaptive.xlsx,test,0.6,0.6,0.6,-0.6,-0.6,right,R,,,,,0,1,1,1,0,5,5,0,,,,,,,,,,,,,,,,,,,,,,,,,,,,,,,,,,,,,,,,,,,,152.6699581000139,None,right,1,0.6718487999751233,153.17129980004393,153.92256960005034,153.17129980004393,153.4211361000198,153.17129980004393,153.4211361000198,153.17129980004393,153.4211361000198,153.17129980004393,153.4211361000198,153.17129980004393,153.4211361000198,153.40474160003942,153.90558930003317,153.40474160003942,153.90558930003317,153.40474160003942,153.90558930003317,153.40474160003942,153.90558930003317,153.40474160003942,153.90558930003317,153.40474160003942,153.90558930003317,153.40474160003942,153.90558930003317,153.40474160003942,153.90558930003317,153.17129980004393,None,153.90558930003317,155.70777580002323,0.25,155.7242640000186,None,156.4762598000234,None,,,,,,,[1.79166667],6.000000000000005,1.0,11041,001,2024_Mar_15_1402,MFTM_A_new1021,2021.2.3,59.98868613843175,
,,,,,,,,stim/Instruction_adaptive.png,conditions/adaptive.xlsx,test,0.6,0.6,0.6,-0.6,-0.6,right,R,,,,,0,1,1,1,0,6,6,92,,,,,,,,,,,,,,,,,,,,,,,,,,,,,,,,,,,,,,,,,,,,156.97680890001357,None,right,1,0.557925500033889,157.47735150001245,158.22826320002787,157.47735150001245,157.72756280004978,157.47735150001245,157.72756280004978,157.47735150001245,157.72756280004978,157.47735150001245,157.72756280004978,157.47735150001245,157.72756280004978,157.71120770002017,158.21151620004093,157.71120770002017,158.21151620004093,157.71120770002017,158.21151620004093,157.71120770002017,158.21151620004093,157.71120770002017,158.21151620004093,157.71120770002017,158.21151620004093,157.71120770002017,158.21151620004093,157.71120770002017,158.21151620004093,157.47735150001245,None,158.21151620004093,160.0813454000163,0.25,160.09767420002026,None,160.84941010002512,None,,,,,,,[1.85714286],6.000000000000005,1.0,11041,001,2024_Mar_15_1402,MFTM_A_new1021,2021.2.3,59.98868613843175,
,,,,,,,,stim/Instruction_adaptive.png,conditions/adaptive.xlsx,test,-0.6,-0.6,-0.6,0.6,0.6,left,L,,,,,0,1,1,1,0,7,7,7,,,,,,,,,,,,,,,,,,,,,,,,,,,,,,,,,,,,,,,,,,,,161.34985890000826,None,right,0,0.9451925000175834,161.85059760004515,162.60147540003527,161.85059760004515,162.10072600003332,161.85059760004515,162.10072600003332,161.85059760004515,162.10072600003332,161.85059760004515,162.10072600003332,161.85059760004515,162.10072600003332,162.0841357000172,162.58495730004506,162.0841357000172,162.58495730004506,162.0841357000172,162.58495730004506,162.0841357000172,162.58495730004506,162.0841357000172,162.58495730004506,162.0841357000172,162.58495730004506,162.0841357000172,162.58495730004506,162.0841357000172,162.58495730004506,161.85059760004515,None,162.58495730004506,164.50451080000494,0.25,164.52094920002855,None,165.27254820003873,None,,,,,,,[1.90625],5.570000000000005,0.875,11041,001,2024_Mar_15_1402,MFTM_A_new1021,2021.2.3,59.98868613843175,
,,,,,,,,stim/Instruction_adaptive.png,conditions/adaptive.xlsx,test,0.6,0.6,0.6,-0.6,-0.6,right,R,,,,,0,1,1,1,0,8,8,48,,,,,,,,,,,,,,,,,,,,,,,,,,,,,,,,,,,,,,,,,,,,165.77292000001762,None,right,1,0.5455379000050016,166.27407040004618,167.02539000002434,166.27407040004618,166.524087400001,166.27407040004618,166.524087400001,166.27407040004618,166.524087400001,166.27407040004618,166.524087400001,166.27407040004618,166.524087400001,166.50767960003577,167.0088580000447,166.50767960003577,167.0088580000447,166.50767960003577,167.0088580000447,166.50767960003577,167.0088580000447,166.50767960003577,167.0088580000447,166.50767960003577,167.0088580000447,166.50767960003577,167.0088580000447,166.50767960003577,167.0088580000447,166.27407040004618,None,167.0088580000447,168.96301470004255,0.25,168.97769410000183,None,169.7295961000491,None,,,,,,,[1.94444444],5.720000000000004,0.8888888888888888,11041,001,2024_Mar_15_1402,MFTM_A_new1021,2021.2.3,59.98868613843175,
,,,,,,,,stim/Instruction_adaptive.png,conditions/adaptive.xlsx,test,0.6,0.6,0.6,-0.6,-0.6,right,R,,,,,0,1,1,1,0,9,9,8,,,,,,,,,,,,,,,,,,,,,,,,,,,,,,,,,,,,,,,,,,,,170.22976260003634,None,left,0,0.4489843000192195,170.73074960004305,171.48190450004768,170.73074960004305,170.9812985000317,170.73074960004305,170.9812985000317,170.73074960004305,170.9812985000317,170.73074960004305,170.9812985000317,170.73074960004305,170.9812985000317,170.9645545000094,171.4649203000008,170.9645545000094,171.4649203000008,170.9645545000094,171.4649203000008,170.9645545000094,171.4649203000008,170.9645545000094,171.4649203000008,170.9645545000094,171.4649203000008,170.9645545000094,171.4649203000008,170.9645545000094,171.4649203000008,170.73074960004305,None,171.4649203000008,173.45134850003524,0.25,173.46785860002274,None,174.21924890001537,None,,,,,,,[1.975],4.940000000000004,0.8,11041,001,2024_Mar_15_1402,MFTM_A_new1021,2021.2.3,59.98868613843175,
,,,,,,,,stim/Instruction_adaptive.png,conditions/adaptive.xlsx,test,0.6,0.6,0.6,-0.6,-0.6,right,R,,,,,0,1,1,1,0,10,10,58,,,,,,,,,,,,,,,,,,,,,,,,,,,,,,,,,,,,,,,,,,,,174.72002900001826,None,right,1,0.911126899998635,175.2206695000059,175.97211650002282,175.2206695000059,175.47116440004902,175.2206695000059,175.47116440004902,175.2206695000059,175.47116440004902,175.2206695000059,175.47116440004902,175.2206695000059,175.47116440004902,175.4541162000387,175.9551250000368,175.4541162000387,175.9551250000368,175.4541162000387,175.9551250000368,175.4541162000387,175.9551250000368,175.4541162000387,175.9551250000368,175.4541162000387,175.9551250000368,175.4541162000387,175.9551250000368,175.4541162000387,175.9551250000368,175.2206695000059,None,175.9551250000368,177.9598682000069,0.25,177.97447160002775,None,178.72633320000023,None,,,,,,,[2.],5.1200000000000045,0.8181818181818182,11041,001,2024_Mar_15_1402,MFTM_A_new1021,2021.2.3,59.98868613843175,
,,,,,,,,stim/Instruction_adaptive.png,conditions/adaptive.xlsx,test,-0.6,-0.6,-0.6,0.6,0.6,left,L,,,,,0,1,1,1,0,11,11,43,,,,,,,,,,,,,,,,,,,,,,,,,,,,,,,,,,,,,,,,,,,,179.22707380005158,None,right,0,0.9162259000004269,179.72748890001094,180.4784797000466,179.72748890001094,179.97784980002325,179.72748890001094,179.97784980002325,179.72748890001094,179.97784980002325,179.72748890001094,179.97784980002325,179.72748890001094,179.97784980002325,179.9616953000077,180.46174210001482,179.9616953000077,180.46174210001482,179.9616953000077,180.46174210001482,179.9616953000077,180.46174210001482,179.9616953000077,180.46174210001482,179.9616953000077,180.46174210001482,179.9616953000077,180.46174210001482,179.9616953000077,180.46174210001482,179.72748890001094,None,180.46174210001482,None,0.25,182.49792420002632,None,183.24990280001657,None,,,,,,,[2.02083333],4.530000000000004,0.75,11041,001,2024_Mar_15_1402,MFTM_A_new1021,2021.2.3,59.98868613843175,
,,,,,,,,stim/Instruction_adaptive.png,conditions/adaptive.xlsx,test,-0.6,-0.6,-0.6,0.6,0.6,left,L,,,,,0,1,1,1,0,12,12,5,,,,,,,,,,,,,,,,,,,,,,,,,,,,,,,,,,,,,,,,,,,,183.75012040004367,None,left,1,0.7209804000449367,184.2507431000122,185.03528090001782,184.2507431000122,184.53491450002184,184.2507431000122,184.53491450002184,184.2507431000122,184.53491450002184,184.2507431000122,184.53491450002184,184.2507431000122,184.53491450002184,184.51793170004385,185.01865189999808,184.51793170004385,185.01865189999808,184.51793170004385,185.01865189999808,184.51793170004385,185.01865189999808,184.51793170004385,185.01865189999808,184.51793170004385,185.01865189999808,184.51793170004385,185.01865189999808,184.51793170004385,185.01865189999808,184.2507431000122,None,185.01865189999808,187.0553563000285,0.28,187.07220530003542,None,187.82337910000933,None,,,,,,,[2.03615385],4.720000000000004,0.7692307692307693,11041,001,2024_Mar_15_1402,MFTM_A_new1021,2021.2.3,59.98868613843175,
,,,,,,,,stim/Instruction_adaptive.png,conditions/adaptive.xlsx,test,0.6,0.6,0.6,-0.6,-0.6,right,R,,,,,0,1,1,1,0,13,13,88,,,,,,,,,,,,,,,,,,,,,,,,,,,,,,,,,,,,,,,,,,,,188.32388820004417,None,left,0,0.6117509000468999,188.8243502000114,189.57549519999884,188.8243502000114,189.07471260003513,188.8243502000114,189.07471260003513,188.8243502000114,189.07471260003513,188.8243502000114,189.07471260003513,188.8243502000114,189.07471260003513,189.0582991000265,189.56007900001714,189.0582991000265,189.56007900001714,189.0582991000265,189.56007900001714,189.0582991000265,189.56007900001714,189.0582991000265,189.56007900001714,189.0582991000265,189.56007900001714,189.0582991000265,189.56007900001714,189.0582991000265,189.56007900001714,188.8243502000114,None,189.56007900001714,191.61220760003198,0.25,191.62872600002447,None,192.38036810001358,None,,,,,,,[2.05142857],4.220000000000003,0.7142857142857143,11041,001,2024_Mar_15_1402,MFTM_A_new1021,2021.2.3,59.98868613843175,
,,,,,,,,stim/Instruction_adaptive.png,conditions/adaptive.xlsx,test,-0.6,-0.6,-0.6,0.6,0.6,left,L,,,,,0,1,1,1,0,14,14,67,,,,,,,,,,,,,,,,,,,,,,,,,,,,,,,,,,,,,,,,,,,,192.88046320003923,None,right,0,0.814883099985309,193.38139789999695,194.23287170002004,193.38139789999695,193.7319308000151,193.38139789999695,193.7319308000151,193.38139789999695,193.7319308000151,193.38139789999695,193.7319308000151,193.38139789999695,193.7319308000151,193.71521280001616,194.21614780003438,193.71521280001616,194.21614780003438,193.71521280001616,194.21614780003438,193.71521280001616,194.21614780003438,193.71521280001616,194.21614780003438,193.71521280001616,194.21614780003438,193.71521280001616,194.21614780003438,193.71521280001616,194.21614780003438,193.38139789999695,None,194.21614780003438,196.28641270002117,0.3500000000000001,196.3023543000454,None,197.05376830004388,None,,,,,,,[2.058],3.5500000000000025,0.6666666666666666,11041,001,2024_Mar_15_1402,MFTM_A_new1021,2021.2.3,59.98868613843175,
,,,,,,,,stim/Instruction_adaptive.png,conditions/adaptive.xlsx,test,0.6,0.6,0.6,-0.6,-0.6,right,R,,,,,0,1,1,1,0,15,15,12,,,,,,,,,,,,,,,,,,,,,,,,,,,,,,,,,,,,,,,,,,,,197.55429310002364,None,left,0,0.9973464999930002,198.05510840000352,199.1235969000263,198.05510840000352,198.62235360004706,198.05510840000352,198.62235360004706,198.05510840000352,198.62235360004706,198.05510840000352,198.62235360004706,198.05510840000352,198.62235360004706,198.6058170000324,199.10727540001972,198.6058170000324,199.10727540001972,198.6058170000324,199.10727540001972,198.6058170000324,199.10727540001972,198.6058170000324,199.10727540001972,198.6058170000324,199.10727540001972,198.6058170000324,199.10727540001972,198.6058170000324,199.10727540001972,198.05510840000352,None,199.0897540000151,201.0431685000076,0.5600000000000003,201.05958100000862,None,201.81107860000338,None,,,,,,,[[1.94]],2.620000000000002,0.625,11041,001,2024_Mar_15_1402,MFTM_A_new1021,2021.2.3,59.98868613843175,
,,,,,,,,stim/Instruction_adaptive.png,conditions/adaptive.xlsx,test,-0.6,-0.6,-0.6,0.6,0.6,left,L,,,,,0,1,1,1,0,16,16,91,,,,,,,,,,,,,,,,,,,,,,,,,,,,,,,,,,,,,,,,,,,,202.3113990999991,None,left,1,1.4000951999914832,202.81249880004907,204.39815270004328,202.81249880004907,203.89727470005164,202.81249880004907,203.89727470005164,202.81249880004907,203.89727470005164,202.81249880004907,203.89727470005164,202.81249880004907,203.89727470005164,203.86418400000548,204.36461270001018,203.86418400000548,204.36461270001018,203.86418400000548,204.36461270001018,203.86418400000548,204.36461270001018,203.86418400000548,204.36461270001018,203.86418400000548,204.36461270001018,203.86418400000548,204.36461270001018,203.86418400000548,204.36461270001018,202.81249880004907,None,204.36461270001018,205.80000129999826,1.0700000000000007,205.8167478000396,None,206.56830340001034,None,,,,,,,[[1.43]],3.0400000000000023,0.6470588235294118,11041,001,2024_Mar_15_1402,MFTM_A_new1021,2021.2.3,59.98868613843175,
,,,,,,,,stim/Instruction_adaptive.png,conditions/adaptive.xlsx,test,-0.6,-0.6,-0.6,0.6,0.6,left,L,,,,,0,1,1,1,0,17,17,11,,,,,,,,,,,,,,,,,,,,,,,,,,,,,,,,,,,,,,,,,,,,207.06903060001787,None,right,0,1.0676099000265822,207.56921139999758,208.8712693999987,207.56921139999758,208.37059350003256,207.56921139999758,208.37059350003256,207.56921139999758,208.37059350003256,207.56921139999758,208.37059350003256,207.56921139999758,208.37059350003256,208.35430340003222,208.855117900006,208.35430340003222,208.855117900006,208.35430340003222,208.855117900006,208.35430340003222,208.855117900006,208.35430340003222,208.855117900006,208.35430340003222,208.855117900006,208.35430340003222,208.855117900006,208.35430340003222,208.855117900006,207.56921139999758,None,208.855117900006,210.557186799997,0.8000000000000005,210.5738268000423,None,211.3253525000182,None,,,,,,,[[1.7]],2.1500000000000012,0.6111111111111112,11041,001,2024_Mar_15_1402,MFTM_A_new1021,2021.2.3,59.98868613843175,
,,,,,,,,stim/Instruction_adaptive.png,conditions/adaptive.xlsx,test,-0.6,-0.6,-0.6,0.6,0.6,left,L,,,,,0,1,1,1,0,18,18,69,,,,,,,,,,,,,,,,,,,,,,,,,,,,,,,,,,,,,,,,,,,,211.82587240001885,None,right,0,1.622050899954047,212.3264032000443,214.31296250002924,212.3264032000443,213.81198170001153,212.3264032000443,213.81198170001153,212.3264032000443,213.81198170001153,212.3264032000443,213.81198170001153,212.3264032000443,213.81198170001153,213.77905100001954,214.27996500005247,213.77905100001954,214.27996500005247,213.77905100001954,214.27996500005247,213.77905100001954,214.27996500005247,213.77905100001954,214.27996500005247,213.77905100001954,214.27996500005247,213.77905100001954,214.27996500005247,213.77905100001954,214.27996500005247,212.3264032000443,None,214.27996500005247,215.31454570003552,1.480000000000001,215.33108400000492,None,216.0822548000142,None,,,,,,,[[1.02]],0.6400000000000001,0.5789473684210527,11041,001,2024_Mar_15_1402,MFTM_A_new1021,2021.2.3,59.98868613843175,
,,,,,,,,stim/Instruction_adaptive.png,conditions/adaptive.xlsx,test,0.6,0.6,0.6,-0.6,-0.6,right,R,,,,,0,1,1,1,0,19,19,4,,,,,,,,,,,,,,,,,,,,,,,,,,,,,,,,,,,,,,,,,,,,216.58293670002604,None,right,1,1.1207066999631934,217.08388200000627,None,217.08388200000627,220.08816780004418,217.08388200000627,220.08816780004418,217.08388200000627,220.08816780004418,217.08388200000627,220.08816780004418,217.08388200000627,220.08816780004418,220.07148750004126,220.57256620004773,220.07148750004126,220.57256620004773,220.07148750004126,220.57256620004773,220.07148750004126,220.57256620004773,220.07148750004126,220.57256620004773,220.07148750004126,220.57256620004773,220.07148750004126,220.57256620004773,220.07148750004126,220.57256620004773,217.08388200000627,None,220.57256620004773,220.57256620004773,3.0000000000000027,220.58887500001583,None,221.3410727000446,None,,,,,,,0,1.4600000000000009,0.6,11041,001,2024_Mar_15_1402,MFTM_A_new1021,2021.2.3,59.98868613843175,
,,,,,,,,stim/Instruction_adaptive.png,conditions/adaptive.xlsx,test,0.6,0.6,0.6,-0.6,-0.6,right,R,,,,,0,1,1,1,0,20,20,94,,,,,,,,,,,,,,,,,,,,,,,,,,,,,,,,,,,,,,,,,,,,221.84107330004917,None,right,1,1.4318332999828272,222.34168420004426,225.24639860005118,222.34168420004426,224.74535710003693,222.34168420004426,224.74535710003693,222.34168420004426,224.74535710003693,222.34168420004426,224.74535710003693,222.34168420004426,224.74535710003693,224.7118935000035,225.2128552000504,224.7118935000035,225.2128552000504,224.7118935000035,225.2128552000504,224.7118935000035,225.2128552000504,224.7118935000035,225.2128552000504,224.7118935000035,225.2128552000504,224.7118935000035,225.2128552000504,224.7118935000035,225.2128552000504,222.34168420004426,None,225.2128552000504,225.3296765999985,2.390000000000002,225.3463718999992,None,226.0970811000443,None,,,,,,,[[0.11]],1.8400000000000012,0.6190476190476191,11041,001,2024_Mar_15_1402,MFTM_A_new1021,2021.2.3,59.98868613843175,
,,,,,,,,stim/Instruction_adaptive.png,conditions/adaptive.xlsx,test,0.6,0.6,0.6,-0.6,-0.6,right,R,,,,,0,1,1,1,0,21,21,86,,,,,,,,,,,,,,,,,,,,,,,,,,,,,,,,,,,,,,,,,,,,226.59799550002208,None,right,1,1.0579768000170588,227.0993887000368,229.45256290002726,227.0993887000368,228.95163389999652,227.0993887000368,228.95163389999652,227.0993887000368,228.95163389999652,227.0993887000368,228.95163389999652,227.0993887000368,228.95163389999652,228.9184999000281,229.41916740004672,228.9184999000281,229.41916740004672,228.9184999000281,229.41916740004672,228.9184999000281,229.41916740004672,228.9184999000281,229.41916740004672,228.9184999000281,229.41916740004672,228.9184999000281,229.41916740004672,228.9184999000281,229.41916740004672,227.0993887000368,None,229.41916740004672,230.08788890001597,1.8400000000000014,230.10314110002946,None,230.85438380000414,None,,,,,,,[[0.66]],2.110000000000001,0.6363636363636364,11041,001,2024_Mar_15_1402,MFTM_A_new1021,2021.2.3,59.98868613843175,
,,,,,,,,stim/Instruction_adaptive.png,conditions/adaptive.xlsx,test,-0.6,-0.6,-0.6,0.6,0.6,left,L,,,,,0,1,1,1,0,22,22,3,,,,,,,,,,,,,,,,,,,,,,,,,,,,,,,,,,,,,,,,,,,,231.35549730004277,None,left,1,1.164945800032001,231.85644060000777,233.87601480004378,231.85644060000777,233.39182210003491,231.85644060000777,233.39182210003491,231.85644060000777,233.39182210003491,231.85644060000777,233.39182210003491,231.85644060000777,233.39182210003491,233.358281599998,233.85900820000097,233.358281599998,233.85900820000097,233.358281599998,233.85900820000097,233.358281599998,233.85900820000097,233.358281599998,233.85900820000097,233.358281599998,233.85900820000097,233.358281599998,233.85900820000097,233.358281599998,233.85900820000097,231.85644060000777,None,233.85900820000097,234.8441104000085,1.5200000000000011,234.86032590002287,None,235.61143230000744,None,,,,,,,[[0.98]],2.3100000000000014,0.6521739130434783,11041,001,2024_Mar_15_1402,MFTM_A_new1021,2021.2.3,59.98868613843175,
,,,,,,,,stim/Instruction_adaptive.png,conditions/adaptive.xlsx,test,0.6,0.6,0.6,-0.6,-0.6,right,R,,,,,0,1,1,1,0,23,23,44,,,,,,,,,,,,,,,,,,,,,,,,,,,,,,,,,,,,,,,,,,,,236.11240740003996,None,right,1,1.9372220000368543,236.61313569999766,238.44921470002737,236.61313569999766,237.94861550000496,236.61313569999766,237.94861550000496,236.61313569999766,237.94861550000496,236.61313569999766,237.94861550000496,236.61313569999766,237.94861550000496,237.93183020001743,238.43267870001728,237.93183020001743,238.43267870001728,237.93183020001743,238.43267870001728,237.93183020001743,238.43267870001728,237.93183020001743,238.43267870001728,237.93183020001743,238.43267870001728,237.93183020001743,238.43267870001728,237.93183020001743,238.43267870001728,236.61313569999766,None,238.43267870001728,None,1.330000000000001,239.61769260000437,None,240.36901520000538,None,,,,,,,[[1.17]],2.4700000000000015,0.6666666666666666,11041,001,2024_Mar_15_1402,MFTM_A_new1021,2021.2.3,59.98868613843175,
,,,,,,,,stim/Instruction_adaptive.png,conditions/adaptive.xlsx,test,0.6,0.6,0.6,-0.6,-0.6,right,R,,,,,0,1,1,1,0,24,24,46,,,,,,,,,,,,,,,,,,,,,,,,,,,,,,,,,,,,,,,,,,,,240.87013019999722,None,right,1,1.05936469999142,241.370243100042,243.0729148000246,241.370243100042,242.5723021000158,241.370243100042,242.5723021000158,241.370243100042,242.5723021000158,241.370243100042,242.5723021000158,241.370243100042,242.5723021000158,242.53880810004193,243.04002010001568,242.53880810004193,243.04002010001568,242.53880810004193,243.04002010001568,242.53880810004193,243.04002010001568,242.53880810004193,243.04002010001568,242.53880810004193,243.04002010001568,242.53880810004193,243.04002010001568,242.53880810004193,243.04002010001568,241.370243100042,None,243.04002010001568,244.35869370005094,1.1900000000000008,244.37497990002157,None,245.1265053000534,None,,,,,,,[[1.31]],2.620000000000002,0.68,11041,001,2024_Mar_15_1402,MFTM_A_new1021,2021.2.3,59.98868613843175,
,,,,,,,,stim/Instruction_adaptive.png,conditions/adaptive.xlsx,test,-0.6,-0.6,-0.6,0.6,0.6,left,L,,,,,0,1,1,1,0,25,25,71,,,,,,,,,,,,,,,,,,,,,,,,,,,,,,,,,,,,,,,,,,,,245.62673489999725,None,left,1,1.3197607000474818,246.12740880000638,247.69626190001145,246.12740880000638,247.2124904000084,246.12740880000638,247.2124904000084,246.12740880000638,247.2124904000084,246.12740880000638,247.2124904000084,246.12740880000638,247.2124904000084,247.17928540002322,247.67981580004562,247.17928540002322,247.67981580004562,247.17928540002322,247.67981580004562,247.17928540002322,247.67981580004562,247.17928540002322,247.67981580004562,247.17928540002322,247.67981580004562,247.17928540002322,247.67981580004562,247.17928540002322,247.67981580004562,246.12740880000638,None,247.67981580004562,249.1156843000208,1.0700000000000007,249.13204520003637,None,249.88478670001496,None,,,,,,,[[1.43]],2.740000000000002,0.6923076923076923,11041,001,2024_Mar_15_1402,MFTM_A_new1021,2021.2.3,59.98868613843175,
,,,,,,,,stim/Instruction_adaptive.png,conditions/adaptive.xlsx,test,-0.6,-0.6,-0.6,0.6,0.6,left,L,,,,,0,1,1,1,0,26,26,87,,,,,,,,,,,,,,,,,,,,,,,,,,,,,,,,,,,,,,,,,,,,250.38433080003597,None,right,0,1.3772792000090703,250.88459070003591,252.37017440004274,250.88459070003591,251.8699150000466,250.88459070003591,251.8699150000466,250.88459070003591,251.8699150000466,250.88459070003591,251.8699150000466,250.88459070003591,251.8699150000466,251.85316470003454,252.3536856000428,251.85316470003454,252.3536856000428,251.85316470003454,252.3536856000428,251.85316470003454,252.3536856000428,251.85316470003454,252.3536856000428,251.85316470003454,252.3536856000428,251.85316470003454,252.3536856000428,251.85316470003454,252.3536856000428,250.88459070003591,None,252.3367688000435,253.85601190000307,0.9800000000000006,253.88920360000338,None,254.64031899999827,None,,,,,,,[[1.52]],2.410000000000002,0.6666666666666666,11041,001,2024_Mar_15_1402,MFTM_A_new1021,2021.2.3,59.98868613843175,
,,,,,,,,stim/Instruction_adaptive.png,conditions/adaptive.xlsx,test,0.6,0.6,0.6,-0.6,-0.6,right,R,,,,,0,1,1,1,0,27,27,72,,,,,,,,,,,,,,,,,,,,,,,,,,,,,,,,,,,,,,,,,,,,255.1410376999993,None,left,0,1.7559652999625541,255.64187290001428,257.39480639999965,255.64187290001428,256.89358960004756,255.64187290001428,256.89358960004756,255.64187290001428,256.89358960004756,255.64187290001428,256.89358960004756,255.64187290001428,256.89358960004756,256.86033009999665,257.361674600048,256.86033009999665,257.361674600048,256.86033009999665,257.361674600048,256.86033009999665,257.361674600048,256.86033009999665,257.361674600048,256.86033009999665,257.361674600048,256.86033009999665,257.361674600048,256.86033009999665,257.361674600048,255.64187290001428,None,257.361674600048,258.62998730002437,1.2400000000000009,258.646298800013,None,259.3980528000393,None,,,,,,,[[1.26]],2.030000000000001,0.6428571428571429,11041,001,2024_Mar_15_1402,MFTM_A_new1021,2021.2.3,59.98868613843175,
,,,,,,,,stim/Instruction_adaptive.png,conditions/adaptive.xlsx,test,0.6,0.6,0.6,-0.6,-0.6,right,R,,,,,0,1,1,1,0,28,28,40,,,,,,,,,,,,,,,,,,,,,,,,,,,,,,,,,,,,,,,,,,,,259.8986194000463,None,right,1,1.9193324000225402,260.3992041000165,262.51927370001795,260.3992041000165,262.0179791999981,260.3992041000165,262.0179791999981,260.3992041000165,262.0179791999981,260.3992041000165,262.0179791999981,260.3992041000165,262.0179791999981,262.00146510003833,262.5025585000403,262.00146510003833,262.5025585000403,262.00146510003833,262.5025585000403,262.00146510003833,262.5025585000403,262.00146510003833,262.5025585000403,262.00146510003833,262.5025585000403,262.00146510003833,262.5025585000403,262.00146510003833,262.5025585000403,260.3992041000165,None,262.48596030002227,263.38719390000915,1.6100000000000012,263.40390680002747,None,264.1546273000422,None,,,,,,,[[0.89]],2.1800000000000015,0.6551724137931034,11041,001,2024_Mar_15_1402,MFTM_A_new1021,2021.2.3,59.98868613843175,
,,,,,,,,stim/Instruction_adaptive.png,conditions/adaptive.xlsx,test,0.6,0.6,0.6,-0.6,-0.6,right,R,,,,,0,1,1,1,0,29,29,6,,,,,,,,,,,,,,,,,,,,,,,,,,,,,,,,,,,,,,,,,,,,264.6555398000055,None,right,1,1.5702911000116728,265.1560735999956,267.1091005000053,265.1560735999956,266.6082495000446,265.1560735999956,266.6082495000446,265.1560735999956,266.6082495000446,265.1560735999956,266.6082495000446,265.1560735999956,266.6082495000446,266.59140580001986,267.09252840001136,266.59140580001986,267.09252840001136,266.59140580001986,267.09252840001136,266.59140580001986,267.09252840001136,266.59140580001986,267.09252840001136,266.59140580001986,267.09252840001136,266.59140580001986,267.09252840001136,266.59140580001986,267.09252840001136,265.1560735999956,None,267.09252840001136,268.1440215000184,1.450000000000001,268.16069660003996,None,268.9122749000089,None,,,,,,,[[1.05]],2.3000000000000016,0.6666666666666666,11041,001,2024_Mar_15_1402,MFTM_A_new1021,2021.2.3,59.98868613843175,
,,,,,,,,stim/Instruction_adaptive.png,conditions/adaptive.xlsx,test,0.6,0.6,0.6,-0.6,-0.6,right,R,,,,,0,1,1,1,0,30,30,32,,,,,,,,,,,,,,,,,,,,,,,,,,,,,,,,,,,,,,,,,,,,269.4126043000142,None,right,1,1.245292600011453,269.913100100006,271.76609390001977,269.913100100006,271.2656217000331,269.913100100006,271.2656217000331,269.913100100006,271.2656217000331,269.913100100006,271.2656217000331,269.913100100006,271.2656217000331,271.2322010000353,271.7328689999995,271.2322010000353,271.7328689999995,271.2322010000353,271.7328689999995,271.2322010000353,271.7328689999995,271.2322010000353,271.7328689999995,271.2322010000353,271.7328689999995,271.2322010000353,271.7328689999995,271.2322010000353,271.7328689999995,269.913100100006,None,271.7328689999995,272.9011158000212,1.340000000000001,272.9178435000358,None,273.66942680004286,None,,,,,,,[[1.16]],2.410000000000002,0.6774193548387096,11041,001,2024_Mar_15_1402,MFTM_A_new1021,2021.2.3,59.98868613843175,
,,,,,,,,stim/Instruction_adaptive.png,conditions/adaptive.xlsx,test,-0.6,-0.6,-0.6,0.6,0.6,left,L,,,,,0,1,1,1,0,31,31,89,,,,,,,,,,,,,,,,,,,,,,,,,,,,,,,,,,,,,,,,,,,,274.1695979000069,None,left,1,1.5121781000052579,274.6702241000021,276.42313900002046,274.6702241000021,275.9227039000252,274.6702241000021,275.9227039000252,274.6702241000021,275.9227039000252,274.6702241000021,275.9227039000252,274.6702241000021,275.9227039000252,275.8894793000072,276.39033950003795,275.8894793000072,276.39033950003795,275.8894793000072,276.39033950003795,275.8894793000072,276.39033950003795,275.8894793000072,276.39033950003795,275.8894793000072,276.39033950003795,275.8894793000072,276.39033950003795,275.8894793000072,276.39033950003795,274.6702241000021,None,276.39033950003795,277.6583108000341,1.2400000000000009,277.67493690003175,None,278.42606080003316,None,,,,,,,[[1.26]],2.5100000000000016,0.6875,11041,001,2024_Mar_15_1402,MFTM_A_new1021,2021.2.3,59.98868613843175,
,,,,,,,,stim/Instruction_adaptive.png,conditions/adaptive.xlsx,test,-0.6,-0.6,-0.6,0.6,0.6,left,L,,,,,0,1,1,1,0,32,32,45,,,,,,,,,,,,,,,,,,,,,,,,,,,,,,,,,,,,,,,,,,,,278.92693450005027,None,left,1,1.6265483999741264,279.42775700002676,281.0802111000521,279.42775700002676,280.5793618000462,279.42775700002676,280.5793618000462,279.42775700002676,280.5793618000462,279.42775700002676,280.5793618000462,279.42775700002676,280.5793618000462,280.56258470000466,281.06353660003515,280.56258470000466,281.06353660003515,280.56258470000466,281.06353660003515,280.56258470000466,281.06353660003515,280.56258470000466,281.06353660003515,280.56258470000466,281.06353660003515,280.56258470000466,281.06353660003515,280.56258470000466,281.06353660003515,279.42775700002676,None,281.06353660003515,282.415664500033,1.1500000000000008,282.4321739000152,None,283.18342230003327,None,,,,,,,[[1.35]],2.600000000000002,0.696969696969697,11041,001,2024_Mar_15_1402,MFTM_A_new1021,2021.2.3,59.98868613843175,
,,,,,,,,stim/Instruction_adaptive.png,conditions/adaptive.xlsx,test,-0.6,-0.6,-0.6,0.6,0.6,left,L,,,,,0,1,1,1,0,33,33,63,,,,,,,,,,,,,,,,,,,,,,,,,,,,,,,,,,,,,,,,,,,,283.6840362000512,None,right,0,1.5340035000117496,284.184861500049,285.78735350002535,284.184861500049,285.2867678000475,284.184861500049,285.2867678000475,284.184861500049,285.2867678000475,284.184861500049,285.2867678000475,284.184861500049,285.2867678000475,285.2536686999956,285.7541622000281,285.2536686999956,285.7541622000281,285.2536686999956,285.7541622000281,285.2536686999956,285.7541622000281,285.2536686999956,285.7541622000281,285.2536686999956,285.7541622000281,285.2536686999956,285.7541622000281,285.2536686999956,285.7541622000281,284.184861500049,None,285.7541622000281,287.1728757000528,1.0900000000000007,287.1897365000332,None,287.94046200002776,None,,,,,,,[[1.41]],2.3500000000000014,0.6764705882352942,11041,001,2024_Mar_15_1402,MFTM_A_new1021,2021.2.3,59.98868613843175,
,,,,,,,,stim/Instruction_adaptive.png,conditions/adaptive.xlsx,test,-0.6,-0.6,-0.6,0.6,0.6,left,L,,,,,0,1,1,1,0,34,34,97,,,,,,,,,,,,,,,,,,,,,,,,,,,,,,,,,,,,,,,,,,,,288.44137430004776,None,right,0,1.320367400010582,288.94206100003794,290.74531330005266,288.94206100003794,290.2440340000321,288.94206100003794,290.2440340000321,288.94206100003794,290.2440340000321,288.94206100003794,290.2440340000321,288.94206100003794,290.2440340000321,290.2110440999968,290.71231170004467,290.2110440999968,290.71231170004467,290.2110440999968,290.71231170004467,290.2110440999968,290.71231170004467,290.2110440999968,290.71231170004467,290.2110440999968,290.71231170004467,290.2110440999968,290.71231170004467,290.2110440999968,290.71231170004467,288.94206100003794,None,290.71231170004467,291.9300888000289,1.290000000000001,291.94676770002116,None,292.697632800031,None,,,,,,,[[1.21]],2.0800000000000014,0.6571428571428571,11041,001,2024_Mar_15_1402,MFTM_A_new1021,2021.2.3,59.98868613843175,
,,,,,,,,stim/Instruction_adaptive.png,conditions/adaptive.xlsx,test,0.6,0.6,0.6,-0.6,-0.6,right,R,,,,,0,1,1,1,0,35,35,24,,,,,,,,,,,,,,,,,,,,,,,,,,,,,,,,,,,,,,,,,,,,293.1986793000251,None,right,1,0.9957061000168324,293.6992261999985,295.7691478000488,293.6992261999985,295.26809540000977,293.6992261999985,295.26809540000977,293.6992261999985,295.26809540000977,293.6992261999985,295.26809540000977,293.6992261999985,295.26809540000977,295.234739800042,295.7357180000399,295.234739800042,295.7357180000399,295.234739800042,295.7357180000399,295.234739800042,295.7357180000399,295.234739800042,295.7357180000399,295.234739800042,295.7357180000399,295.234739800042,295.7357180000399,295.234739800042,295.7357180000399,293.6992261999985,None,295.7357180000399,296.6876620000112,1.5600000000000012,296.70359889999963,None,297.4547645000275,None,,,,,,,[[0.94]],2.1800000000000015,0.6666666666666666,11041,001,2024_Mar_15_1402,MFTM_A_new1021,2021.2.3,59.98868613843175,
,,,,,,,,stim/Instruction_adaptive.png,conditions/adaptive.xlsx,test,0.6,0.6,0.6,-0.6,-0.6,right,R,,,,,0,1,1,1,0,36,36,74,,,,,,,,,,,,,,,,,,,,,,,,,,,,,,,,,,,,,,,,,,,,297.9557992000482,None,right,1,1.6705193999805488,298.4563345000497,300.41079670004547,298.4563345000497,299.90854870004114,298.4563345000497,299.90854870004114,298.4563345000497,299.90854870004114,298.4563345000497,299.90854870004114,298.4563345000497,299.90854870004114,299.89184400002705,300.39240720000817,299.89184400002705,300.39240720000817,299.89184400002705,300.39240720000817,299.89184400002705,300.39240720000817,299.89184400002705,300.39240720000817,299.89184400002705,300.39240720000817,299.89184400002705,300.39240720000817,299.89184400002705,300.39240720000817,298.4563345000497,None,300.39240720000817,301.44429090002086,1.450000000000001,301.460687600018,None,302.21227840002393,None,,,,,,,[[1.05]],2.2700000000000014,0.6756756756756757,11041,001,2024_Mar_15_1402,MFTM_A_new1021,2021.2.3,59.98868613843175,
,,,,,,,,stim/Instruction_adaptive.png,conditions/adaptive.xlsx,test,0.6,0.6,0.6,-0.6,-0.6,right,R,,,,,0,1,1,1,0,37,37,56,,,,,,,,,,,,,,,,,,,,,,,,,,,,,,,,,,,,,,,,,,,,302.7129090000526,None,right,1,1.0015800999826752,303.21349130000453,305.083334200026,303.21349130000453,304.5821878000279,303.21349130000453,304.5821878000279,303.21349130000453,304.5821878000279,303.21349130000453,304.5821878000279,303.21349130000453,304.5821878000279,304.54864970000926,305.04980540002,304.54864970000926,305.04980540002,304.54864970000926,305.04980540002,304.54864970000926,305.04980540002,304.54864970000926,305.04980540002,304.54864970000926,305.04980540002,304.54864970000926,305.04980540002,304.54864970000926,305.04980540002,303.21349130000453,None,305.04980540002,306.2019905000343,1.360000000000001,306.2179441000335,None,306.96908440004336,None,,,,,,,[[1.14]],2.3500000000000014,0.6842105263157895,11041,001,2024_Mar_15_1402,MFTM_A_new1021,2021.2.3,59.98868613843175,
,,,,,,,,stim/Instruction_adaptive.png,conditions/adaptive.xlsx,test,0.6,0.6,0.6,-0.6,-0.6,right,R,,,,,0,1,1,1,0,38,38,22,,,,,,,,,,,,,,,,,,,,,,,,,,,,,,,,,,,,,,,,,,,,307.4701621000422,None,right,1,1.5646863000001758,307.97086340002716,309.77372350002406,307.97086340002716,309.2729832000332,307.97086340002716,309.2729832000332,307.97086340002716,309.2729832000332,307.97086340002716,309.2729832000332,307.97086340002716,309.2729832000332,309.2393751000054,309.74027589999605,309.2393751000054,309.74027589999605,309.2393751000054,309.74027589999605,309.2393751000054,309.74027589999605,309.2393751000054,309.74027589999605,309.2393751000054,309.74027589999605,309.2393751000054,309.74027589999605,309.2393751000054,309.74027589999605,307.97086340002716,None,309.74027589999605,310.9585301000043,1.290000000000001,310.9748930000351,None,311.7264368000324,None,,,,,,,[[1.21]],2.4300000000000015,0.6923076923076923,11041,001,2024_Mar_15_1402,MFTM_A_new1021,2021.2.3,59.98868613843175,
,,,,,,,,stim/Instruction_adaptive.png,conditions/adaptive.xlsx,test,0.6,0.6,0.6,-0.6,-0.6,right,R,,,,,0,1,1,1,0,39,39,78,,,,,,,,,,,,,,,,,,,,,,,,,,,,,,,,,,,,,,,,,,,,312.22789900004864,None,right,1,1.4314109000260942,312.72784570005024,314.44742690003477,312.72784570005024,313.9630110000144,312.72784570005024,313.9630110000144,312.72784570005024,313.9630110000144,312.72784570005024,313.9630110000144,312.72784570005024,313.9630110000144,313.92957279999973,314.43048239999916,313.92957279999973,314.43048239999916,313.92957279999973,314.43048239999916,313.92957279999973,314.43048239999916,313.92957279999973,314.43048239999916,313.92957279999973,314.43048239999916,313.92957279999973,314.43048239999916,313.92957279999973,314.43048239999916,312.72784570005024,None,314.43048239999916,315.71632170001976,1.2200000000000009,315.73248490004335,None,316.4836002000375,None,,,,,,,[[1.28]],2.5000000000000018,0.7,11041,001,2024_Mar_15_1402,MFTM_A_new1021,2021.2.3,59.98868613843175,
,,,,,,,,stim/Instruction_adaptive.png,conditions/adaptive.xlsx,test,0.6,0.6,0.6,-0.6,-0.6,right,R,,,,,0,1,1,1,0,40,40,10,,,,,,,,,,,,,,,,,,,,,,,,,,,,,,,,,,,,,,,,,,,,316.98423719999846,None,right,1,1.3067121999920346,317.48496270005126,319.154215400049,317.48496270005126,318.65353070001584,317.48496270005126,318.65353070001584,317.48496270005126,318.65353070001584,317.48496270005126,318.65353070001584,317.48496270005126,318.65353070001584,318.6368758000317,319.13763920002384,318.6368758000317,319.13763920002384,318.6368758000317,319.13763920002384,318.6368758000317,319.13763920002384,318.6368758000317,319.13763920002384,318.6368758000317,319.13763920002384,318.6368758000317,319.13763920002384,318.6368758000317,319.13763920002384,317.48496270005126,None,319.13763920002384,None,1.1600000000000008,320.4895708000404,None,321.2409682000289,None,,,,,,,[[1.34]],2.560000000000002,0.7073170731707317,11041,001,2024_Mar_15_1402,MFTM_A_new1021,2021.2.3,59.98868613843175,
,,,,,,,,stim/Instruction_adaptive.png,conditions/adaptive.xlsx,test,0.6,0.6,0.6,-0.6,-0.6,right,R,,,,,0,1,1,1,0,41,41,68,,,,,,,,,,,,,,,,,,,,,,,,,,,,,,,,,,,,,,,,,,,,321.7419498000527,None,right,1,1.2131983999861404,322.24217340000905,323.86162120004883,322.24217340000905,323.37755380000453,322.24217340000905,323.37755380000453,322.24217340000905,323.37755380000453,322.24217340000905,323.37755380000453,322.24217340000905,323.37755380000453,323.3439720000024,323.8447994000162,323.3439720000024,323.8447994000162,323.3439720000024,323.8447994000162,323.3439720000024,323.8447994000162,323.3439720000024,323.8447994000162,323.3439720000024,323.8447994000162,323.3439720000024,323.8447994000162,323.3439720000024,323.8447994000162,322.24217340000905,None,323.8447994000162,325.2306765000103,1.1200000000000008,325.2471524000284,None,325.9979701000266,None,,,,,,,[[1.38]],2.620000000000002,0.7142857142857143,11041,001,2024_Mar_15_1402,MFTM_A_new1021,2021.2.3,59.98868613843175,
,,,,,,,,stim/Instruction_adaptive.png,conditions/adaptive.xlsx,test,-0.6,-0.6,-0.6,0.6,0.6,left,L,,,,,0,1,1,1,0,42,42,21,,,,,,,,,,,,,,,,,,,,,,,,,,,,,,,,,,,,,,,,,,,,326.49857710005017,None,right,0,1.2322104999911971,326.99933180003427,328.56866460002493,326.99933180003427,328.08450759999687,326.99933180003427,328.08450759999687,326.99933180003427,328.08450759999687,326.99933180003427,328.08450759999687,326.99933180003427,328.08450759999687,328.05116299999645,328.55178450001404,328.05116299999645,328.55178450001404,328.05116299999645,328.55178450001404,328.05116299999645,328.55178450001404,328.05116299999645,328.55178450001404,328.05116299999645,328.55178450001404,328.05116299999645,328.55178450001404,328.05116299999645,328.55178450001404,326.99933180003427,None,328.55178450001404,329.9872388000367,1.0700000000000007,330.0043001000304,None,330.75502770004096,None,,,,,,,[[1.43]],2.450000000000002,0.6976744186046512,11041,001,2024_Mar_15_1402,MFTM_A_new1021,2021.2.3,59.98868613843175,
,,,,,,,,stim/Instruction_adaptive.png,conditions/adaptive.xlsx,test,0.6,0.6,0.6,-0.6,-0.6,right,R,,,,,0,1,1,1,0,43,43,80,,,,,,,,,,,,,,,,,,,,,,,,,,,,,,,,,,,,,,,,,,,,331.2561013000086,None,right,1,1.7393850000225939,331.75664940004935,333.4592979000299,331.75664940004935,332.9586204000516,331.75664940004935,332.9586204000516,331.75664940004935,332.9586204000516,331.75664940004935,332.9586204000516,331.75664940004935,332.9586204000516,332.94164030003594,333.4423662000336,332.94164030003594,333.4423662000336,332.94164030003594,333.4423662000336,332.94164030003594,333.4423662000336,332.94164030003594,333.4423662000336,332.94164030003594,333.4423662000336,332.94164030003594,333.4423662000336,332.94164030003594,333.4423662000336,331.75664940004935,None,333.4423662000336,334.7446751000243,1.2000000000000008,334.76109250000445,None,335.5122665000381,None,,,,,,,[[1.3]],2.5100000000000016,0.7045454545454546,11041,001,2024_Mar_15_1402,MFTM_A_new1021,2021.2.3,59.98868613843175,
,,,,,,,,stim/Instruction_adaptive.png,conditions/adaptive.xlsx,test,0.6,0.6,0.6,-0.6,-0.6,right,R,,,,,0,1,1,1,0,44,44,54,,,,,,,,,,,,,,,,,,,,,,,,,,,,,,,,,,,,,,,,,,,,336.0130973000196,None,left,0,1.837805400020443,336.5139058000059,338.1661020000465,336.5139058000059,337.6653901000391,336.5139058000059,337.6653901000391,336.5139058000059,337.6653901000391,336.5139058000059,337.6653901000391,336.5139058000059,337.6653901000391,337.6488905000151,338.1498043000465,337.6488905000151,338.1498043000465,337.6488905000151,338.1498043000465,337.6488905000151,338.1498043000465,337.6488905000151,338.1498043000465,337.6488905000151,338.1498043000465,337.6488905000151,338.1498043000465,337.6488905000151,338.1498043000465,336.5139058000059,None,338.1498043000465,339.50141460000305,1.1500000000000008,339.5184605999966,None,340.2694459000486,None,,,,,,,[[1.35]],2.3400000000000016,0.6888888888888889,11041,001,2024_Mar_15_1402,MFTM_A_new1021,2021.2.3,59.98868613843175,
,,,,,,,,stim/Instruction_adaptive.png,conditions/adaptive.xlsx,test,0.6,0.6,0.6,-0.6,-0.6,right,R,,,,,0,1,1,1,0,45,45,60,,,,,,,,,,,,,,,,,,,,,,,,,,,,,,,,,,,,,,,,,,,,340.7701431000023,None,right,1,1.7449569000164047,341.27103800000623,343.0736446000519,341.27103800000623,342.572784900025,341.27103800000623,342.572784900025,341.27103800000623,342.572784900025,341.27103800000623,342.572784900025,341.27103800000623,342.572784900025,342.55602499999804,343.0569377000211,342.55602499999804,343.0569377000211,342.55602499999804,343.0569377000211,342.55602499999804,343.0569377000211,342.55602499999804,343.0569377000211,342.55602499999804,343.0569377000211,342.55602499999804,343.0569377000211,342.55602499999804,343.0569377000211,341.27103800000623,None,343.0569377000211,344.25879839999834,1.300000000000001,344.27559520001523,None,345.02654160000384,None,,,,,,,[[1.2]],2.4000000000000017,0.6956521739130435,11041,001,2024_Mar_15_1402,MFTM_A_new1021,2021.2.3,59.98868613843175,
,,,,,,,,stim/Instruction_adaptive.png,conditions/adaptive.xlsx,test,-0.6,-0.6,-0.6,0.6,0.6,left,L,,,,,0,1,1,1,0,46,46,15,,,,,,,,,,,,,,,,,,,,,,,,,,,,,,,,,,,,,,,,,,,,345.52796870004386,None,right,0,1.747941699984949,346.028511200042,347.7807008000091,346.028511200042,347.280335700023,346.028511200042,347.280335700023,346.028511200042,347.280335700023,346.028511200042,347.280335700023,346.028511200042,347.280335700023,347.26377990003675,347.7642915000324,347.26377990003675,347.7642915000324,347.26377990003675,347.7642915000324,347.26377990003675,347.7642915000324,347.26377990003675,347.7642915000324,347.26377990003675,347.7642915000324,347.26377990003675,347.7642915000324,347.26377990003675,347.7642915000324,346.028511200042,None,347.7642915000324,349.01601300004404,1.2500000000000009,349.0324801999959,None,349.78374189999886,None,,,,,,,[[1.25]],2.2300000000000013,0.6808510638297872,11041,001,2024_Mar_15_1402,MFTM_A_new1021,2021.2.3,59.98868613843175,
,,,,,,,,stim/Instruction_adaptive.png,conditions/adaptive.xlsx,test,-0.6,-0.6,-0.6,0.6,0.6,left,L,,,,,0,1,1,1,0,47,47,39,,,,,,,,,,,,,,,,,,,,,,,,,,,,,,,,,,,,,,,,,,,,350.28442580002593,None,right,0,1.5832268999656662,350.7855684000533,352.68819590000203,350.7855684000533,352.18734880001284,350.7855684000533,352.18734880001284,350.7855684000533,352.18734880001284,350.7855684000533,352.18734880001284,350.7855684000533,352.18734880001284,352.17055560002336,352.6717630000203,352.17055560002336,352.6717630000203,352.17055560002336,352.6717630000203,352.17055560002336,352.6717630000203,352.17055560002336,352.6717630000203,352.17055560002336,352.6717630000203,352.17055560002336,352.6717630000203,352.17055560002336,352.6717630000203,350.7855684000533,None,352.6717630000203,353.77330340002663,1.400000000000001,353.78980570001295,None,354.542220000003,None,,,,,,,[[1.1]],2.030000000000001,0.6666666666666666,11041,001,2024_Mar_15_1402,MFTM_A_new1021,2021.2.3,59.98868613843175,
,,,,,,,,stim/Instruction_adaptive.png,conditions/adaptive.xlsx,test,-0.6,-0.6,-0.6,0.6,0.6,left,L,,,,,0,1,1,1,0,48,48,73,,,,,,,,,,,,,,,,,,,,,,,,,,,,,,,,,,,,,,,,,,,,355.0418475000188,None,left,1,2.0820845999987796,355.5424011000432,357.66221350000706,355.5424011000432,357.161521800037,355.5424011000432,357.161521800037,355.5424011000432,357.161521800037,355.5424011000432,357.161521800037,355.5424011000432,357.161521800037,357.1284343000152,357.6289029000327,357.1284343000152,357.6289029000327,357.1284343000152,357.6289029000327,357.1284343000152,357.6289029000327,357.1284343000152,357.6289029000327,357.1284343000152,357.6289029000327,357.1284343000152,357.6289029000327,357.1284343000152,357.6289029000327,355.5424011000432,None,357.6289029000327,358.530823100009,1.6100000000000012,358.54689690005034,None,359.2983624000335,None,,,,,,,[[0.89]],2.1000000000000014,0.673469387755102,11041,001,2024_Mar_15_1402,MFTM_A_new1021,2021.2.3,59.98868613843175,
,,,,,,,,stim/Instruction_adaptive.png,conditions/adaptive.xlsx,test,0.6,0.6,0.6,-0.6,-0.6,right,R,,,,,0,1,1,1,0,49,49,84,,,,,,,,,,,,,,,,,,,,,,,,,,,,,,,,,,,,,,,,,,,,359.7989373000455,None,left,0,1.8609702999820001,360.29964580002706,362.3360148000065,360.29964580002706,361.8351653999998,360.29964580002706,361.8351653999998,360.29964580002706,361.8351653999998,360.29964580002706,361.8351653999998,360.29964580002706,361.8351653999998,361.8187833999982,362.31927590002306,361.8187833999982,362.31927590002306,361.8187833999982,362.31927590002306,361.8187833999982,362.31927590002306,361.8187833999982,362.31927590002306,361.8187833999982,362.31927590002306,361.8187833999982,362.31927590002306,361.8187833999982,362.31927590002306,360.29964580002706,None,362.31927590002306,None,1.5300000000000011,363.3040893000434,None,364.0553781000199,None,,,,,,,[[0.97]],1.9100000000000013,0.66,11041,001,2024_Mar_15_1402,MFTM_A_new1021,2021.2.3,59.98868613843175,
,,,,,,,,stim/Instruction_adaptive.png,conditions/adaptive.xlsx,test,-0.6,-0.6,-0.6,0.6,0.6,left,L,,,,,0,1,1,1,0,50,50,99,,,,,,,,,,,,,,,,,,,,,,,,,,,,,,,,,,,,,,,,,,,,364.55584909999743,None,right,0,1.5919630999560468,365.05673990002833,367.31023960001767,365.05673990002833,366.8092484000372,365.05673990002833,366.8092484000372,365.05673990002833,366.8092484000372,365.05673990002833,366.8092484000372,365.05673990002833,366.8092484000372,366.7929665000411,367.29483070003334,366.7929665000411,367.29483070003334,366.7929665000411,367.29483070003334,366.7929665000411,367.29483070003334,366.7929665000411,367.29483070003334,366.7929665000411,367.29483070003334,366.7929665000411,367.29483070003334,366.7929665000411,367.29483070003334,365.05673990002833,None,367.29483070003334,368.0449090000475,1.7500000000000013,368.061148400011,None,368.812277500052,None,,,,,,,[[0.75]],1.680000000000001,0.6470588235294118,11041,001,2024_Mar_15_1402,MFTM_A_new1021,2021.2.3,59.98868613843175,
,,,,,,,,stim/Instruction_adaptive.png,conditions/adaptive.xlsx,test,-0.6,-0.6,-0.6,0.6,0.6,left,L,,,,,0,1,1,1,0,51,51,65,,,,,,,,,,,,,,,,,,,,,,,,,,,,,,,,,,,,,,,,,,,,369.31389750004746,None,left,1,1.7388961999677122,369.81392810004763,372.36805380001897,369.81392810004763,371.8671176000498,369.81392810004763,371.8671176000498,369.81392810004763,371.8671176000498,369.81392810004763,371.8671176000498,369.81392810004763,371.8671176000498,371.85039730003336,372.35109850001754,371.85039730003336,372.35109850001754,371.85039730003336,372.35109850001754,371.85039730003336,372.35109850001754,371.85039730003336,372.35109850001754,371.85039730003336,372.35109850001754,371.85039730003336,372.35109850001754,371.85039730003336,372.35109850001754,369.81392810004763,None,372.35109850001754,372.8016619000118,2.0500000000000016,372.8182499000104,None,373.56949900003383,None,,,,,,,[[0.45]],1.7700000000000011,0.6538461538461539,11041,001,2024_Mar_15_1402,MFTM_A_new1021,2021.2.3,59.98868613843175,
,,,,,,,,stim/Instruction_adaptive.png,conditions/adaptive.xlsx,test,-0.6,-0.6,-0.6,0.6,0.6,left,L,,,,,0,1,1,1,0,52,52,49,,,,,,,,,,,,,,,,,,,,,,,,,,,,,,,,,,,,,,,,,,,,374.0710036000237,None,left,1,1.261967700032983,374.57101820001844,377.01006360002793,374.57101820001844,376.50742510001874,374.57101820001844,376.50742510001874,374.57101820001844,376.50742510001874,374.57101820001844,376.50742510001874,374.57101820001844,376.50742510001874,376.47375860001193,376.9747626000317,376.47375860001193,376.9747626000317,376.47375860001193,376.9747626000317,376.47375860001193,376.9747626000317,376.47375860001193,376.9747626000317,376.47375860001193,376.9747626000317,376.47375860001193,376.9747626000317,376.47375860001193,376.9747626000317,374.57101820001844,None,376.9747626000317,377.55931370001053,1.9300000000000015,377.5757448000368,None,378.3265117999981,None,,,,,,,[[0.57]],1.8400000000000012,0.660377358490566,11041,001,2024_Mar_15_1402,MFTM_A_new1021,2021.2.3,59.98868613843175,
,,,,,,,,stim/Instruction_adaptive.png,conditions/adaptive.xlsx,test,0.6,0.6,0.6,-0.6,-0.6,right,R,,,,,0,1,1,1,0,53,53,20,,,,,,,,,,,,,,,,,,,,,,,,,,,,,,,,,,,,,,,,,,,,378.8274471000186,None,right,1,2.0005332000437193,379.32859940000344,381.6820549000404,379.32859940000344,381.18149550003,379.32859940000344,381.18149550003,379.32859940000344,381.18149550003,379.32859940000344,381.18149550003,379.32859940000344,381.18149550003,381.1476230000262,381.64835120004136,381.1476230000262,381.64835120004136,381.1476230000262,381.64835120004136,381.1476230000262,381.64835120004136,381.1476230000262,381.64835120004136,381.1476230000262,381.64835120004136,381.1476230000262,381.64835120004136,381.1476230000262,381.64835120004136,379.32859940000344,None,381.64835120004136,382.3160304000485,1.8400000000000014,382.33270230004564,None,383.0844134000363,None,,,,,,,[[0.66]],1.9100000000000013,0.6666666666666666,11041,001,2024_Mar_15_1402,MFTM_A_new1021,2021.2.3,59.98868613843175,
,,,,,,,,stim/Instruction_adaptive.png,conditions/adaptive.xlsx,test,-0.6,-0.6,-0.6,0.6,0.6,left,L,,,,,0,1,1,1,0,54,54,25,,,,,,,,,,,,,,,,,,,,,,,,,,,,,,,,,,,,,,,,,,,,383.58488199999556,None,left,1,1.3082976000150666,384.0856555000064,386.3389514000155,384.0856555000064,385.838170300005,384.0856555000064,385.838170300005,384.0856555000064,385.838170300005,384.0856555000064,385.838170300005,384.0856555000064,385.838170300005,385.8217344000004,386.32211930002086,385.8217344000004,386.32211930002086,385.8217344000004,386.32211930002086,385.8217344000004,386.32211930002086,385.8217344000004,386.32211930002086,385.8217344000004,386.32211930002086,385.8217344000004,386.32211930002086,385.8217344000004,386.32211930002086,384.0856555000064,None,386.32211930002086,387.0734415000188,1.7500000000000013,387.09029230003944,None,387.8408050000435,None,,,,,,,[[0.75]],1.9700000000000013,0.6727272727272727,11041,001,2024_Mar_15_1402,MFTM_A_new1021,2021.2.3,59.98868613843175,
,,,,,,,,stim/Instruction_adaptive.png,conditions/adaptive.xlsx,test,0.6,0.6,0.6,-0.6,-0.6,right,R,,,,,0,1,1,1,0,55,55,50,,,,,,,,,,,,,,,,,,,,,,,,,,,,,,,,,,,,,,,,,,,,388.3422548000235,None,right,1,1.9588655999978073,388.842633399996,391.0294300999958,388.842633399996,390.5288984000217,388.842633399996,390.5288984000217,388.842633399996,390.5288984000217,388.842633399996,390.5288984000217,388.842633399996,390.5288984000217,390.5121527000447,391.0126675000065,390.5121527000447,391.0126675000065,390.5121527000447,391.0126675000065,390.5121527000447,391.0126675000065,390.5121527000447,391.0126675000065,390.5121527000447,391.0126675000065,390.5121527000447,391.0126675000065,390.5121527000447,391.0126675000065,388.842633399996,None,391.0126675000065,None,1.6800000000000013,391.84721810003975,None,392.59817100001965,None,,,,,,,[[0.82]],2.030000000000001,0.6785714285714286,11041,001,2024_Mar_15_1402,MFTM_A_new1021,2021.2.3,59.98868613843175,
,,,,,,,,stim/Instruction_adaptive.png,conditions/adaptive.xlsx,test,0.6,0.6,0.6,-0.6,-0.6,right,R,,,,,0,1,1,1,0,56,56,52,,,,,,,,,,,,,,,,,,,,,,,,,,,,,,,,,,,,,,,,,,,,393.0996014000266,None,right,1,2.233856500010006,393.5996474000276,395.71968520001974,393.5996474000276,395.21916720003355,393.5996474000276,395.21916720003355,393.5996474000276,395.21916720003355,393.5996474000276,395.21916720003355,393.5996474000276,395.21916720003355,395.18591180001386,395.68676510005025,395.18591180001386,395.68676510005025,395.18591180001386,395.68676510005025,395.18591180001386,395.68676510005025,395.18591180001386,395.68676510005025,395.18591180001386,395.68676510005025,395.18591180001386,395.68676510005025,395.18591180001386,395.68676510005025,393.5996474000276,None,395.68676510005025,396.588965700008,1.6100000000000012,396.6047901000129,None,397.35623860004125,None,,,,,,,[[0.89]],2.0800000000000014,0.6842105263157895,11041,001,2024_Mar_15_1402,MFTM_A_new1021,2021.2.3,59.98868613843175,
,,,,,,,,stim/Instruction_adaptive.png,conditions/adaptive.xlsx,test,-0.6,-0.6,-0.6,0.6,0.6,left,L,,,,,0,1,1,1,0,57,57,1,,,,,,,,,,,,,,,,,,,,,,,,,,,,,,,,,,,,,,,,,,,,397.8566874000244,None,left,1,0.9573939999681897,398.3568889000453,400.42728820000775,398.3568889000453,399.9262180000078,398.3568889000453,399.9262180000078,398.3568889000453,399.9262180000078,398.3568889000453,399.9262180000078,398.3568889000453,399.9262180000078,399.8927080000285,400.39342320000287,399.8927080000285,400.39342320000287,399.8927080000285,400.39342320000287,399.8927080000285,400.39342320000287,399.8927080000285,400.39342320000287,399.8927080000285,400.39342320000287,399.8927080000285,400.39342320000287,399.8927080000285,400.39342320000287,398.3568889000453,None,400.39342320000287,401.34529160003876,1.5600000000000012,401.36213130003307,None,402.11264080001274,None,,,,,,,[[0.94]],2.1300000000000017,0.6896551724137931,11041,001,2024_Mar_15_1402,MFTM_A_new1021,2021.2.3,59.98868613843175,
,,,,,,,,stim/Instruction_adaptive.png,conditions/adaptive.xlsx,test,0.6,0.6,0.6,-0.6,-0.6,right,R,,,,,0,1,1,1,0,58,58,98,,,,,,,,,,,,,,,,,,,,,,,,,,,,,,,,,,,,,,,,,,,,402.61367570003495,None,left,0,2.0234337000292726,403.1142391000176,405.11717140005203,403.1142391000176,404.616256600013,403.1142391000176,404.616256600013,403.1142391000176,404.616256600013,403.1142391000176,404.616256600013,403.1142391000176,404.616256600013,404.5995722000371,405.10034400003497,404.5995722000371,405.10034400003497,404.5995722000371,405.10034400003497,404.5995722000371,405.10034400003497,404.5995722000371,405.10034400003497,404.5995722000371,405.10034400003497,404.5995722000371,405.10034400003497,404.5995722000371,405.10034400003497,403.1142391000176,None,405.10034400003497,406.10234920005314,1.500000000000001,406.1186182000092,None,406.8698030000087,None,,,,,,,[[1.]],1.9900000000000013,0.6779661016949152,11041,001,2024_Mar_15_1402,MFTM_A_new1021,2021.2.3,59.98868613843175,
,,,,,,,,stim/Instruction_adaptive.png,conditions/adaptive.xlsx,test,-0.6,-0.6,-0.6,0.6,0.6,left,L,,,,,0,1,1,1,0,59,59,79,,,,,,,,,,,,,,,,,,,,,,,,,,,,,,,,,,,,,,,,,,,,407.3704780000262,None,right,0,2.1151069999905303,407.8712102000136,410.0430399000179,407.8712102000136,409.54066490003606,407.8712102000136,409.54066490003606,407.8712102000136,409.54066490003606,407.8712102000136,409.54066490003606,407.8712102000136,409.54066490003606,409.5238142000162,410.0243779000011,409.5238142000162,410.0243779000011,409.5238142000162,410.0243779000011,409.5238142000162,410.0243779000011,409.5238142000162,410.0243779000011,409.5238142000162,410.0243779000011,409.5238142000162,410.0243779000011,409.5238142000162,410.0243779000011,407.8712102000136,None,410.0079150000238,410.8596906000166,1.6600000000000013,410.8757307000342,None,411.62692890001927,None,,,,,,,[[0.84]],1.8300000000000012,0.6666666666666666,11041,001,2024_Mar_15_1402,MFTM_A_new1021,2021.2.3,59.98868613843175,
,,,,,,,,stim/Instruction_adaptive.png,conditions/adaptive.xlsx,test,-0.6,-0.6,-0.6,0.6,0.6,left,L,,,,,0,1,1,1,0,60,60,9,,,,,,,,,,,,,,,,,,,,,,,,,,,,,,,,,,,,,,,,,,,,412.1278048000531,None,left,1,1.4534497000277042,412.6283929000492,414.98181190004107,412.6283929000492,414.48130169999786,412.6283929000492,414.48130169999786,412.6283929000492,414.48130169999786,412.6283929000492,414.48130169999786,412.6283929000492,414.48130169999786,414.464424100006,414.96525110001676,414.464424100006,414.96525110001676,414.464424100006,414.96525110001676,414.464424100006,414.96525110001676,414.464424100006,414.96525110001676,414.464424100006,414.96525110001676,414.464424100006,414.96525110001676,414.464424100006,414.96525110001676,412.6283929000492,None,414.96525110001676,415.616335800034,1.8500000000000014,415.63296170003014,None,416.3846130000311,None,,,,,,,[[0.65]],1.8800000000000012,0.6721311475409836,11041,001,2024_Mar_15_1402,MFTM_A_new1021,2021.2.3,59.98868613843175,
,,,,,,,,stim/Instruction_adaptive.png,conditions/adaptive.xlsx,test,0.6,0.6,0.6,-0.6,-0.6,right,R,,,,,0,1,1,1,0,61,61,2,,,,,,,,,,,,,,,,,,,,,,,,,,,,,,,,,,,,,,,,,,,,416.8854306000285,None,right,1,2.329077899979893,417.38554610003484,419.6890663000522,417.38554610003484,419.18856920005055,417.38554610003484,419.18856920005055,417.38554610003484,419.18856920005055,417.38554610003484,419.18856920005055,417.38554610003484,419.18856920005055,419.15500620001694,419.6570870000287,419.15500620001694,419.6570870000287,419.15500620001694,419.6570870000287,419.15500620001694,419.6570870000287,419.15500620001694,419.6570870000287,419.15500620001694,419.6570870000287,419.15500620001694,419.6570870000287,419.15500620001694,419.6570870000287,417.38554610003484,None,419.6570870000287,420.3734244000516,1.7900000000000014,420.390062600025,None,421.1416019000462,None,,,,,,,[[0.71]],1.9400000000000013,0.6774193548387096,11041,001,2024_Mar_15_1402,MFTM_A_new1021,2021.2.3,59.98868613843175,
,,,,,,,,stim/Instruction_adaptive.png,conditions/adaptive.xlsx,test,0.6,0.6,0.6,-0.6,-0.6,right,R,,,,,0,1,1,1,0,62,62,42,,,,,,,,,,,,,,,,,,,,,,,,,,,,,,,,,,,,,,,,,,,,421.6418222000357,None,right,1,1.651265799999237,422.1429220000282,424.3627263000235,422.1429220000282,423.86231740005314,422.1429220000282,423.86231740005314,422.1429220000282,423.86231740005314,422.1429220000282,423.86231740005314,422.1429220000282,423.86231740005314,423.8290378000238,424.3295058000367,423.8290378000238,424.3295058000367,423.8290378000238,424.3295058000367,423.8290378000238,424.3295058000367,423.8290378000238,424.3295058000367,423.8290378000238,424.3295058000367,423.8290378000238,424.3295058000367,423.8290378000238,424.3295058000367,422.1429220000282,None,424.3295058000367,425.13118810002925,1.7100000000000013,425.1471584000392,None,425.89841020002495,None,,,,,,,[[0.79]],1.9900000000000013,0.6825396825396826,11041,001,2024_Mar_15_1402,MFTM_A_new1021,2021.2.3,59.98868613843175,
,,,,,,,,stim/Instruction_adaptive.png,conditions/adaptive.xlsx,test,-0.6,-0.6,-0.6,0.6,0.6,left,L,,,,,0,1,1,1,0,63,63,81,,,,,,,,,,,,,,,,,,,,,,,,,,,,,,,,,,,,,,,,,,,,426.39925880002556,None,right,0,1.358461800031364,426.90003370004706,429.07064920000266,426.90003370004706,428.5690262000426,426.90003370004706,428.5690262000426,426.90003370004706,428.5690262000426,426.90003370004706,428.5690262000426,426.90003370004706,428.5690262000426,428.5358219000045,429.03656080004293,428.5358219000045,429.03656080004293,428.5358219000045,429.03656080004293,428.5358219000045,429.03656080004293,428.5358219000045,429.03656080004293,428.5358219000045,429.03656080004293,428.5358219000045,429.03656080004293,428.5358219000045,429.03656080004293,426.90003370004706,None,429.03656080004293,429.88848930003587,1.6600000000000013,429.9043204000336,None,430.6557184000267,None,,,,,,,[[0.84]],1.8400000000000012,0.671875,11041,001,2024_Mar_15_1402,MFTM_A_new1021,2021.2.3,59.98868613843175,
,,,,,,,,stim/Instruction_adaptive.png,conditions/adaptive.xlsx,test,-0.6,-0.6,-0.6,0.6,0.6,left,L,,,,,0,1,1,1,0,64,64,75,,,,,,,,,,,,,,,,,,,,,,,,,,,,,,,,,,,,,,,,,,,,431.15695620002225,None,right,0,1.8651056000380777,431.6574084000313,434.01072950003436,431.6574084000313,433.50983540003654,431.6574084000313,433.50983540003654,431.6574084000313,433.50983540003654,431.6574084000313,433.50983540003654,431.6574084000313,433.50983540003654,433.47646770003485,433.97724720003316,433.47646770003485,433.97724720003316,433.47646770003485,433.97724720003316,433.47646770003485,433.97724720003316,433.47646770003485,433.97724720003316,433.47646770003485,433.97724720003316,433.47646770003485,433.97724720003316,433.47646770003485,433.97724720003316,431.6574084000313,None,433.97724720003316,434.64497900003335,1.8400000000000014,434.6615762000438,None,435.41280370001914,None,,,,,,,[[0.66]],1.690000000000001,0.6615384615384615,11041,001,2024_Mar_15_1402,MFTM_A_new1021,2021.2.3,59.98868613843175,
,,,,,,,,stim/Instruction_adaptive.png,conditions/adaptive.xlsx,test,0.6,0.6,0.6,-0.6,-0.6,right,R,,,,,0,1,1,1,0,65,65,16,,,,,,,,,,,,,,,,,,,,,,,,,,,,,,,,,,,,,,,,,,,,435.91333760001,None,right,1,2.260421800019685,436.414264800027,438.9688667000155,436.414264800027,438.4675293000182,436.414264800027,438.4675293000182,436.414264800027,438.4675293000182,436.414264800027,438.4675293000182,436.414264800027,438.4675293000182,438.4340550000197,438.93475660000695,438.4340550000197,438.93475660000695,438.4340550000197,438.93475660000695,438.4340550000197,438.93475660000695,438.4340550000197,438.93475660000695,438.4340550000197,438.93475660000695,438.4340550000197,438.93475660000695,438.4340550000197,438.93475660000695,436.414264800027,None,438.93475660000695,439.4019355000346,2.040000000000002,439.4190815000329,None,440.17012770002475,None,,,,,,,[[0.46]],1.740000000000001,0.6666666666666666,11041,001,2024_Mar_15_1402,MFTM_A_new1021,2021.2.3,59.98868613843175,
,,,,,,,,stim/Instruction_adaptive.png,conditions/adaptive.xlsx,test,-0.6,-0.6,-0.6,0.6,0.6,left,L,,,,,0,1,1,1,0,66,66,27,,,,,,,,,,,,,,,,,,,,,,,,,,,,,,,,,,,,,,,,,,,,440.67081620002864,None,left,1,1.7911658000084572,441.17169220000505,443.64176560001215,441.17169220000505,443.14148250001017,441.17169220000505,443.14148250001017,441.17169220000505,443.14148250001017,441.17169220000505,443.14148250001017,441.17169220000505,443.14148250001017,443.1245266000042,443.6251063000527,443.1245266000042,443.6251063000527,443.1245266000042,443.6251063000527,443.1245266000042,443.6251063000527,443.1245266000042,443.6251063000527,443.1245266000042,443.6251063000527,443.1245266000042,443.6251063000527,443.1245266000042,443.6251063000527,441.17169220000505,None,443.6251063000527,444.1606031000265,1.9700000000000015,444.1757681000163,None,444.92718270001933,None,,,,,,,[[0.53]],1.7900000000000011,0.6716417910447762,11041,001,2024_Mar_15_1402,MFTM_A_new1021,2021.2.3,59.98868613843175,
,,,,,,,,stim/Instruction_adaptive.png,conditions/adaptive.xlsx,test,-0.6,-0.6,-0.6,0.6,0.6,left,L,,,,,0,1,1,1,0,67,67,53,,,,,,,,,,,,,,,,,,,,,,,,,,,,,,,,,,,,,,,,,,,,445.4279294000007,None,left,1,1.8504473000066355,445.9286355000222,448.3328980000224,445.9286355000222,447.8313715000404,445.9286355000222,447.8313715000404,445.9286355000222,447.8313715000404,445.9286355000222,447.8313715000404,445.9286355000222,447.8313715000404,447.8150069999974,448.3155737000052,447.8150069999974,448.3155737000052,447.8150069999974,448.3155737000052,447.8150069999974,448.3155737000052,447.8150069999974,448.3155737000052,447.8150069999974,448.3155737000052,447.8150069999974,448.3155737000052,447.8150069999974,448.3155737000052,445.9286355000222,None,448.3155737000052,448.9161771000363,1.9000000000000015,448.93304430000717,None,449.68423090002034,None,,,,,,,[[0.6]],1.8400000000000012,0.6764705882352942,11041,001,2024_Mar_15_1402,MFTM_A_new1021,2021.2.3,59.98868613843175,
,,,,,,,,stim/Instruction_adaptive.png,conditions/adaptive.xlsx,test,0.6,0.6,0.6,-0.6,-0.6,right,R,,,,,0,1,1,1,0,68,68,28,,,,,,,,,,,,,,,,,,,,,,,,,,,,,,,,,,,,,,,,,,,,450.18488080002135,None,right,1,2.189465100003872,450.68571520003024,453.03942360001383,450.68571520003024,452.5392270000302,450.68571520003024,452.5392270000302,450.68571520003024,452.5392270000302,450.68571520003024,452.5392270000302,450.68571520003024,452.5392270000302,452.5051970000495,453.00590350001585,452.5051970000495,453.00590350001585,452.5051970000495,453.00590350001585,452.5051970000495,453.00590350001585,452.5051970000495,453.00590350001585,452.5051970000495,453.00590350001585,452.5051970000495,453.00590350001585,452.5051970000495,453.00590350001585,450.68571520003024,None,453.00590350001585,453.6733948000474,1.8400000000000014,453.69004470005166,None,454.4418970000115,None,,,,,,,[[0.66]],1.8900000000000012,0.6811594202898551,11041,001,2024_Mar_15_1402,MFTM_A_new1021,2021.2.3,59.98868613843175,
,,,,,,,,stim/Instruction_adaptive.png,conditions/adaptive.xlsx,test,-0.6,-0.6,-0.6,0.6,0.6,left,L,,,,,0,1,1,1,0,69,69,93,,,,,,,,,,,,,,,,,,,,,,,,,,,,,,,,,,,,,,,,,,,,454.94252900005085,None,left,1,1.7846416999818757,455.442906900018,457.72976440005004,455.442906900018,457.22892300004605,455.442906900018,457.22892300004605,455.442906900018,457.22892300004605,455.442906900018,457.22892300004605,455.442906900018,457.22892300004605,457.21219120000023,457.7129452000372,457.21219120000023,457.7129452000372,457.21219120000023,457.7129452000372,457.21219120000023,457.7129452000372,457.21219120000023,457.7129452000372,457.21219120000023,457.7129452000372,457.21219120000023,457.7129452000372,457.21219120000023,457.7129452000372,455.442906900018,None,457.696337100002,458.4307884000009,1.7800000000000014,458.44741610001074,None,459.1984967000317,None,,,,,,,[[0.72]],1.9300000000000013,0.6857142857142857,11041,001,2024_Mar_15_1402,MFTM_A_new1021,2021.2.3,59.98868613843175,
,,,,,,,,stim/Instruction_adaptive.png,conditions/adaptive.xlsx,test,0.6,0.6,0.6,-0.6,-0.6,right,R,,,,,0,1,1,1,0,70,70,38,,,,,,,,,,,,,,,,,,,,,,,,,,,,,,,,,,,,,,,,,,,,459.69976330001373,None,right,1,1.947049500013236,460.2003473000368,462.43689140002243,460.2003473000368,461.93625620001694,460.2003473000368,461.93625620001694,460.2003473000368,461.93625620001694,460.2003473000368,461.93625620001694,460.2003473000368,461.93625620001694,461.91948530002264,462.42051940003876,461.91948530002264,462.42051940003876,461.91948530002264,462.42051940003876,461.91948530002264,462.42051940003876,461.91948530002264,462.42051940003876,461.91948530002264,462.42051940003876,461.91948530002264,462.42051940003876,461.91948530002264,462.42051940003876,460.2003473000368,None,462.42051940003876,None,1.7300000000000013,463.2047544000088,None,463.95582210004795,None,,,,,,,[[0.77]],1.9700000000000013,0.6901408450704225,11041,001,2024_Mar_15_1402,MFTM_A_new1021,2021.2.3,59.98868613843175,
,,,,,,,,stim/Instruction_adaptive.png,conditions/adaptive.xlsx,test,0.6,0.6,0.6,-0.6,-0.6,right,R,,,,,0,1,1,1,0,71,71,62,,,,,,,,,,,,,,,,,,,,,,,,,,,,,,,,,,,,,,,,,,,,464.45656000002054,None,right,1,1.6944036000058986,464.9573522999999,467.1440938000451,464.9573522999999,466.64328170003137,464.9573522999999,466.64328170003137,464.9573522999999,466.64328170003137,464.9573522999999,466.64328170003137,464.9573522999999,466.64328170003137,466.6264443999971,467.12754750001477,466.6264443999971,467.12754750001477,466.6264443999971,467.12754750001477,466.6264443999971,467.12754750001477,466.6264443999971,467.12754750001477,466.6264443999971,467.12754750001477,466.6264443999971,467.12754750001477,466.6264443999971,467.12754750001477,464.9573522999999,None,467.12754750001477,None,1.6800000000000013,467.9617756000371,None,468.7138546000351,None,,,,,,,[[0.82]],2.0100000000000016,0.6944444444444444,11041,001,2024_Mar_15_1402,MFTM_A_new1021,2021.2.3,59.98868613843175,
,,,,,,,,stim/Instruction_adaptive.png,conditions/adaptive.xlsx,test,-0.6,-0.6,-0.6,0.6,0.6,left,L,,,,,0,1,1,1,0,72,72,77,,,,,,,,,,,,,,,,,,,,,,,,,,,,,,,,,,,,,,,,,,,,469.21409820002737,None,left,1,1.9051332999952137,469.7143822000362,471.85138330003247,469.7143822000362,471.3505908000516,469.7143822000362,471.3505908000516,469.7143822000362,471.3505908000516,469.7143822000362,471.3505908000516,469.7143822000362,471.3505908000516,471.3339150000247,471.83433410001453,471.3339150000247,471.83433410001453,471.3339150000247,471.83433410001453,471.3339150000247,471.83433410001453,471.3339150000247,471.83433410001453,471.3339150000247,471.83433410001453,471.3339150000247,471.83433410001453,471.3339150000247,471.83433410001453,469.7143822000362,None,471.83433410001453,None,1.6300000000000012,472.7190005000448,None,473.47015010000905,None,,,,,,,[[0.87]],2.0500000000000016,0.6986301369863014,11041,001,2024_Mar_15_1402,MFTM_A_new1021,2021.2.3,59.98868613843175,
,,,,,,,,stim/Instruction_adaptive.png,conditions/adaptive.xlsx,test,-0.6,-0.6,-0.6,0.6,0.6,left,L,,,,,0,1,1,1,0,73,73,37,,,,,,,,,,,,,,,,,,,,,,,,,,,,,,,,,,,,,,,,,,,,473.97095960000297,None,left,1,2.1397090000100434,474.4717284000362,476.5752984000137,474.4717284000362,476.0742120000068,474.4717284000362,476.0742120000068,474.4717284000362,476.0742120000068,474.4717284000362,476.0742120000068,474.4717284000362,476.0742120000068,476.0406526000006,476.5414024000056,476.0406526000006,476.5414024000056,476.0406526000006,476.5414024000056,476.0406526000006,476.5414024000056,476.0406526000006,476.5414024000056,476.0406526000006,476.5414024000056,476.0406526000006,476.5414024000056,476.0406526000006,476.5414024000056,474.4717284000362,None,476.5414024000056,477.4600666000042,1.5900000000000012,477.47615490003955,None,478.2272830000147,None,,,,,,,[[0.91]],2.0900000000000016,0.7027027027027027,11041,001,2024_Mar_15_1402,MFTM_A_new1021,2021.2.3,59.98868613843175,
,,,,,,,,stim/Instruction_adaptive.png,conditions/adaptive.xlsx,test,-0.6,-0.6,-0.6,0.6,0.6,left,L,,,,,0,1,1,1,0,74,74,59,,,,,,,,,,,,,,,,,,,,,,,,,,,,,,,,,,,,,,,,,,,,478.72798180003883,None,left,1,1.43908250000095,479.2286981000216,481.28180430002976,479.2286981000216,480.78113220003434,479.2286981000216,480.78113220003434,479.2286981000216,480.78113220003434,479.2286981000216,480.78113220003434,479.2286981000216,480.78113220003434,480.7648137000506,481.26531960000284,480.7648137000506,481.26531960000284,480.7648137000506,481.26531960000284,480.7648137000506,481.26531960000284,480.7648137000506,481.26531960000284,480.7648137000506,481.26531960000284,480.7648137000506,481.26531960000284,480.7648137000506,481.26531960000284,479.2286981000216,None,481.26531960000284,482.217029499996,1.5500000000000012,482.233235599997,None,482.98452830000315,None,,,,,,,[[0.95]],2.1200000000000014,0.7066666666666667,11041,001,2024_Mar_15_1402,MFTM_A_new1021,2021.2.3,59.98868613843175,
,,,,,,,,stim/Instruction_adaptive.png,conditions/adaptive.xlsx,test,0.6,0.6,0.6,-0.6,-0.6,right,R,,,,,0,1,1,1,0,75,75,82,,,,,,,,,,,,,,,,,,,,,,,,,,,,,,,,,,,,,,,,,,,,483.4851054000319,None,right,1,1.7941163000068627,483.9858471000334,486.0059556000051,483.9858471000334,485.5048579000286,483.9858471000334,485.5048579000286,483.9858471000334,485.5048579000286,483.9858471000334,485.5048579000286,483.9858471000334,485.5048579000286,485.4715427000192,485.97220700001344,485.4715427000192,485.97220700001344,485.4715427000192,485.97220700001344,485.4715427000192,485.97220700001344,485.4715427000192,485.97220700001344,485.4715427000192,485.97220700001344,485.4715427000192,485.97220700001344,485.4715427000192,485.97220700001344,483.9858471000334,None,485.97220700001344,486.9738443000242,1.5100000000000011,486.99047770001926,None,487.7423140000319,None,,,,,,,[[0.99]],2.1500000000000012,0.7105263157894737,11041,001,2024_Mar_15_1402,MFTM_A_new1021,2021.2.3,59.98868613843175,
,,,,,,,,stim/Instruction_adaptive.png,conditions/adaptive.xlsx,test,0.6,0.6,0.6,-0.6,-0.6,right,R,,,,,0,1,1,1,0,76,76,26,,,,,,,,,,,,,,,,,,,,,,,,,,,,,,,,,,,,,,,,,,,,488.24242200003937,None,right,1,1.7334969000075944,488.74306760000763,490.72985699999845,488.74306760000763,490.228797400021,488.74306760000763,490.228797400021,488.74306760000763,490.228797400021,488.74306760000763,490.228797400021,488.74306760000763,490.228797400021,490.21206700004404,490.71337690000655,490.21206700004404,490.71337690000655,490.21206700004404,490.71337690000655,490.21206700004404,490.71337690000655,490.21206700004404,490.71337690000655,490.21206700004404,490.71337690000655,490.21206700004404,490.71337690000655,490.21206700004404,490.71337690000655,488.74306760000763,None,490.6961272000335,491.7308993000188,1.480000000000001,491.7475851000054,None,492.498758700036,None,,,,,,,[[1.02]],2.1900000000000013,0.7142857142857143,11041,001,2024_Mar_15_1402,MFTM_A_new1021,2021.2.3,59.98868613843175,
,,,,,,,,stim/Instruction_adaptive.png,conditions/adaptive.xlsx,test,-0.6,-0.6,-0.6,0.6,0.6,left,L,,,,,0,1,1,1,0,77,77,31,,,,,,,,,,,,,,,,,,,,,,,,,,,,,,,,,,,,,,,,,,,,492.9995348000084,None,right,0,1.312168099975679,493.50009950000094,495.45328940002946,493.50009950000094,494.952560500009,493.50009950000094,494.952560500009,493.50009950000094,494.952560500009,493.50009950000094,494.952560500009,493.50009950000094,494.952560500009,494.91916390002007,495.41977999999654,494.91916390002007,495.41977999999654,494.91916390002007,495.41977999999654,494.91916390002007,495.41977999999654,494.91916390002007,495.41977999999654,494.91916390002007,495.41977999999654,494.91916390002007,495.41977999999654,494.91916390002007,495.41977999999654,493.50009950000094,None,495.41977999999654,496.4880047000479,1.440000000000001,496.50495710002724,None,497.25660439999774,None,,,,,,,[[1.06]],2.0900000000000016,0.7051282051282052,11041,001,2024_Mar_15_1402,MFTM_A_new1021,2021.2.3,59.98868613843175,
,,,,,,,,stim/Instruction_adaptive.png,conditions/adaptive.xlsx,test,0.6,0.6,0.6,-0.6,-0.6,right,R,,,,,0,1,1,1,0,78,78,36,,,,,,,,,,,,,,,,,,,,,,,,,,,,,,,,,,,,,,,,,,,,497.75703000003705,None,right,1,1.3072697999887168,498.2574278000393,500.3113521000487,498.2574278000393,499.81013720005285,498.2574278000393,499.81013720005285,498.2574278000393,499.81013720005285,498.2574278000393,499.81013720005285,498.2574278000393,499.81013720005285,499.7934314000304,500.294442500046,499.7934314000304,500.294442500046,499.7934314000304,500.294442500046,499.7934314000304,500.294442500046,499.7934314000304,500.294442500046,499.7934314000304,500.294442500046,499.7934314000304,500.294442500046,499.7934314000304,500.294442500046,498.2574278000393,None,500.294442500046,501.24532680003904,1.5500000000000012,501.26233800000045,None,502.01304980000714,None,,,,,,,[[0.95]],2.1300000000000017,0.7088607594936709,11041,001,2024_Mar_15_1402,MFTM_A_new1021,2021.2.3,59.98868613843175,
,,,,,,,,stim/Instruction_adaptive.png,conditions/adaptive.xlsx,test,-0.6,-0.6,-0.6,0.6,0.6,left,L,,,,,0,1,1,1,0,79,79,85,,,,,,,,,,,,,,,,,,,,,,,,,,,,,,,,,,,,,,,,,,,,502.51387100003194,None,right,0,1.9659604000044055,503.0144292000332,505.01773560000584,503.0144292000332,504.51690090005286,503.0144292000332,504.51690090005286,503.0144292000332,504.51690090005286,503.0144292000332,504.51690090005286,503.0144292000332,504.51690090005286,504.5001783000189,505.0016602000105,504.5001783000189,505.0016602000105,504.5001783000189,505.0016602000105,504.5001783000189,505.0016602000105,504.5001783000189,505.0016602000105,504.5001783000189,505.0016602000105,504.5001783000189,505.0016602000105,504.5001783000189,505.0016602000105,503.0144292000332,None,505.0016602000105,506.00317450001603,1.500000000000001,506.01893940003356,None,506.7703771000379,None,,,,,,,[[1.]],2.030000000000001,0.7,11041,001,2024_Mar_15_1402,MFTM_A_new1021,2021.2.3,59.98868613843175,
,,,,,,,,stim/Instruction_adaptive.png,conditions/adaptive.xlsx,test,0.6,0.6,0.6,-0.6,-0.6,right,R,,,,,0,1,1,1,0,80,80,76,,,,,,,,,,,,,,,,,,,,,,,,,,,,,,,,,,,,,,,,,,,,507.2712101000361,None,right,1,1.2167977000353858,507.7718582000234,509.8919363000314,507.7718582000234,509.3909779000096,507.7718582000234,509.3909779000096,507.7718582000234,509.3909779000096,507.7718582000234,509.3909779000096,507.7718582000234,509.3909779000096,509.35797230002936,509.8588764000451,509.35797230002936,509.8588764000451,509.35797230002936,509.8588764000451,509.35797230002936,509.8588764000451,509.35797230002936,509.8588764000451,509.35797230002936,509.8588764000451,509.35797230002936,509.8588764000451,509.35797230002936,509.8588764000451,507.7718582000234,None,509.8588764000451,510.760259600007,1.6100000000000012,510.7761761000147,None,511.5274655999965,None,,,,,,,[[0.89]],2.070000000000001,0.7037037037037037,11041,001,2024_Mar_15_1402,MFTM_A_new1021,2021.2.3,59.98868613843175,
,,,,,,,,stim/Instruction_adaptive.png,conditions/adaptive.xlsx,test,-0.6,-0.6,-0.6,0.6,0.6,left,L,,,,,0,1,1,1,0,81,81,51,,,,,,,,,,,,,,,,,,,,,,,,,,,,,,,,,,,,,,,,,,,,512.0283011000138,None,left,1,1.7875162999844179,512.5289559000521,514.5993933000136,512.5289559000521,514.0987030999968,512.5289559000521,514.0987030999968,512.5289559000521,514.0987030999968,512.5289559000521,514.0987030999968,512.5289559000521,514.0987030999968,514.081370000029,514.581921700039,514.081370000029,514.581921700039,514.081370000029,514.581921700039,514.081370000029,514.581921700039,514.081370000029,514.581921700039,514.081370000029,514.581921700039,514.081370000029,514.581921700039,514.081370000029,514.581921700039,512.5289559000521,None,514.581921700039,515.517037200043,1.5700000000000012,515.533478300029,None,516.2850675000227,None,,,,,,,[[0.93]],2.1000000000000014,0.7073170731707317,11041,001,2024_Mar_15_1402,MFTM_A_new1021,2021.2.3,59.98868613843175,
,,,,,,,,stim/Instruction_adaptive.png,conditions/adaptive.xlsx,test,-0.6,-0.6,-0.6,0.6,0.6,left,L,,,,,0,1,1,1,0,82,82,19,,,,,,,,,,,,,,,,,,,,,,,,,,,,,,,,,,,,,,,,,,,,516.7855907000485,None,left,1,1.3503116000210866,517.2862435000134,519.3228909000172,517.2862435000134,518.8220029000076,517.2862435000134,518.8220029000076,517.2862435000134,518.8220029000076,517.2862435000134,518.8220029000076,517.2862435000134,518.8220029000076,518.8050012000022,519.3063532000524,518.8050012000022,519.3063532000524,518.8050012000022,519.3063532000524,518.8050012000022,519.3063532000524,518.8050012000022,519.3063532000524,518.8050012000022,519.3063532000524,518.8050012000022,519.3063532000524,518.8050012000022,519.3063532000524,517.2862435000134,None,519.3063532000524,520.27462500002,1.5300000000000011,520.2909117000527,None,521.04192040005,None,,,,,,,[[0.97]],2.1300000000000017,0.7108433734939759,11041,001,2024_Mar_15_1402,MFTM_A_new1021,2021.2.3,59.98868613843175,
,,,,,,,,stim/Instruction_adaptive.png,conditions/adaptive.xlsx,test,-0.6,-0.6,-0.6,0.6,0.6,left,L,,,,,0,1,1,1,0,83,83,47,,,,,,,,,,,,,,,,,,,,,,,,,,,,,,,,,,,,,,,,,,,,521.5428619000013,None,left,1,1.6977423000498675,522.0433894000016,524.0466000000015,522.0433894000016,523.5456556000281,522.0433894000016,523.5456556000281,522.0433894000016,523.5456556000281,522.0433894000016,523.5456556000281,522.0433894000016,523.5456556000281,523.529042500013,524.0300600000191,523.529042500013,524.0300600000191,523.529042500013,524.0300600000191,523.529042500013,524.0300600000191,523.529042500013,524.0300600000191,523.529042500013,524.0300600000191,523.529042500013,524.0300600000191,523.529042500013,524.0300600000191,522.0433894000016,None,524.0300600000191,525.031318399997,1.500000000000001,525.0476669000345,None,525.7990481000161,None,,,,,,,[[1.]],2.1600000000000015,0.7142857142857143,11041,001,2024_Mar_15_1402,MFTM_A_new1021,2021.2.3,59.98868613843175,
,,,,,,,,stim/Instruction_adaptive.png,conditions/adaptive.xlsx,test,-0.6,-0.6,-0.6,0.6,0.6,left,L,,,,,0,1,1,1,0,84,84,55,,,,,,,,,,,,,,,,,,,,,,,,,,,,,,,,,,,,,,,,,,,,526.3008668000111,None,left,1,1.1729217999964021,526.8004543000134,528.7703456000309,526.8004543000134,528.2860806000535,526.8004543000134,528.2860806000535,526.8004543000134,528.2860806000535,526.8004543000134,528.2860806000535,526.8004543000134,528.2860806000535,528.2526667000493,528.7535210000351,528.2526667000493,528.7535210000351,528.2526667000493,528.7535210000351,528.2526667000493,528.7535210000351,528.2526667000493,528.7535210000351,528.2526667000493,528.7535210000351,528.2526667000493,528.7535210000351,528.2526667000493,528.7535210000351,526.8004543000134,None,528.7535210000351,529.7884801000473,1.470000000000001,529.8047997000394,None,530.5559603000293,None,,,,,,,[[1.03]],2.1800000000000015,0.7176470588235294,11041,001,2024_Mar_15_1402,MFTM_A_new1021,2021.2.3,59.98868613843175,
,,,,,,,,stim/Instruction_adaptive.png,conditions/adaptive.xlsx,test,0.6,0.6,0.6,-0.6,-0.6,right,R,,,,,0,1,1,1,0,85,85,96,,,,,,,,,,,,,,,,,,,,,,,,,,,,,,,,,,,,,,,,,,,,531.0569446000154,None,right,1,1.9113486999995075,531.5579275000491,533.5108350000228,531.5579275000491,533.0098361000419,531.5579275000491,533.0098361000419,531.5579275000491,533.0098361000419,531.5579275000491,533.0098361000419,531.5579275000491,533.0098361000419,532.9931044999976,533.4939625000115,532.9931044999976,533.4939625000115,532.9931044999976,533.4939625000115,532.9931044999976,533.4939625000115,532.9931044999976,533.4939625000115,532.9931044999976,533.4939625000115,532.9931044999976,533.4939625000115,532.9931044999976,533.4939625000115,531.5579275000491,None,533.4939625000115,534.5458185000462,1.450000000000001,534.5622227000422,None,535.3135372000397,None,,,,,,,[[1.05]],2.2100000000000017,0.7209302325581395,11041,001,2024_Mar_15_1402,MFTM_A_new1021,2021.2.3,59.98868613843175,
,,,,,,,,stim/Instruction_adaptive.png,conditions/adaptive.xlsx,test,-0.6,-0.6,-0.6,0.6,0.6,left,L,,,,,0,1,1,1,0,86,86,95,,,,,,,,,,,,,,,,,,,,,,,,,,,,,,,,,,,,,,,,,,,,535.8152258000337,None,left,1,1.3702972999890335,536.3147420000168,538.2344602000085,536.3147420000168,537.750277300016,536.3147420000168,537.750277300016,536.3147420000168,537.750277300016,536.3147420000168,537.750277300016,536.3147420000168,537.750277300016,537.7167280000285,538.2177128000185,537.7167280000285,538.2177128000185,537.7167280000285,538.2177128000185,537.7167280000285,538.2177128000185,537.7167280000285,538.2177128000185,537.7167280000285,538.2177128000185,537.7167280000285,538.2177128000185,537.7167280000285,538.2177128000185,536.3147420000168,None,538.2177128000185,539.3031385000213,1.420000000000001,539.3194640000002,None,540.070631700044,None,,,,,,,[[1.08]],2.2400000000000015,0.7241379310344828,11041,001,2024_Mar_15_1402,MFTM_A_new1021,2021.2.3,59.98868613843175,
,,,,,,,,stim/Instruction_adaptive.png,conditions/adaptive.xlsx,test,-0.6,-0.6,-0.6,0.6,0.6,left,L,,,,,0,1,1,1,0,87,87,41,,,,,,,,,,,,,,,,,,,,,,,,,,,,,,,,,,,,,,,,,,,,540.5712778000161,None,left,1,1.4132955999812111,541.0718943999964,542.9750268000062,541.0718943999964,542.4742582000326,541.0718943999964,542.4742582000326,541.0718943999964,542.4742582000326,541.0718943999964,542.4742582000326,541.0718943999964,542.4742582000326,542.4407941000536,542.9414279000484,542.4407941000536,542.9414279000484,542.4407941000536,542.9414279000484,542.4407941000536,542.9414279000484,542.4407941000536,542.9414279000484,542.4407941000536,542.9414279000484,542.4407941000536,542.9414279000484,542.4407941000536,542.9414279000484,541.0718943999964,None,542.9414279000484,544.0603505000472,1.390000000000001,544.0771602000459,None,544.8281567000085,None,,,,,,,[[1.11]],2.2600000000000016,0.7272727272727273,11041,001,2024_Mar_15_1402,MFTM_A_new1021,2021.2.3,59.98868613843175,
,,,,,,,,stim/Instruction_adaptive.png,conditions/adaptive.xlsx,test,-0.6,-0.6,-0.6,0.6,0.6,left,L,,,,,0,1,1,1,0,88,88,33,,,,,,,,,,,,,,,,,,,,,,,,,,,,,,,,,,,,,,,,,,,,545.3284984000493,None,right,0,1.8319569999584928,545.8294390000519,547.6986542000086,545.8294390000519,547.2148777000257,545.8294390000519,547.2148777000257,545.8294390000519,547.2148777000257,545.8294390000519,547.2148777000257,545.8294390000519,547.2148777000257,547.1816376000061,547.682288800017,547.1816376000061,547.682288800017,547.1816376000061,547.682288800017,547.1816376000061,547.682288800017,547.1816376000061,547.682288800017,547.1816376000061,547.682288800017,547.1816376000061,547.682288800017,547.1816376000061,547.682288800017,545.8294390000519,None,547.682288800017,548.8174635000178,1.370000000000001,548.8338057000074,None,549.5851818000083,None,,,,,,,[[1.13]],2.1900000000000013,0.7191011235955056,11041,001,2024_Mar_15_1402,MFTM_A_new1021,2021.2.3,59.98868613843175,
,,,,,,,,stim/Instruction_adaptive.png,conditions/adaptive.xlsx,test,0.6,0.6,0.6,-0.6,-0.6,right,R,,,,,0,1,1,1,0,89,89,30,,,,,,,,,,,,,,,,,,,,,,,,,,,,,,,,,,,,,,,,,,,,550.0856477000052,None,right,1,1.907450600003358,550.5864008000353,552.5390990000451,550.5864008000353,552.0386593000148,550.5864008000353,552.0386593000148,550.5864008000353,552.0386593000148,550.5864008000353,552.0386593000148,550.5864008000353,552.0386593000148,552.0053590000025,552.5063464000123,552.0053590000025,552.5063464000123,552.0053590000025,552.5063464000123,552.0053590000025,552.5063464000123,552.0053590000025,552.5063464000123,552.0053590000025,552.5063464000123,552.0053590000025,552.5063464000123,552.0053590000025,552.5063464000123,550.5864008000353,None,552.5063464000123,553.5743757000309,1.440000000000001,553.5908016000176,None,554.3420737000415,None,,,,,,,[[1.06]],2.2100000000000017,0.7222222222222222,11041,001,2024_Mar_15_1402,MFTM_A_new1021,2021.2.3,59.98868613843175,
,,,,,,,,stim/Instruction_adaptive.png,conditions/adaptive.xlsx,test,0.6,0.6,0.6,-0.6,-0.6,right,R,,,,,0,1,1,1,0,90,90,14,,,,,,,,,,,,,,,,,,,,,,,,,,,,,,,,,,,,,,,,,,,,554.8426512000151,None,right,1,1.142283299996052,555.3437418999965,557.2631523000309,555.3437418999965,556.779164800013,555.3437418999965,556.779164800013,555.3437418999965,556.779164800013,555.3437418999965,556.779164800013,555.3437418999965,556.779164800013,556.745982500026,557.2469352000044,556.745982500026,557.2469352000044,556.745982500026,557.2469352000044,556.745982500026,557.2469352000044,556.745982500026,557.2469352000044,556.745982500026,557.2469352000044,556.745982500026,557.2469352000044,556.745982500026,557.2469352000044,555.3437418999965,None,557.2469352000044,558.3313407000387,1.420000000000001,558.3481031000265,None,559.0998108000495,None,,,,,,,[[1.08]],2.2400000000000015,0.7252747252747253,11041,001,2024_Mar_15_1402,MFTM_A_new1021,2021.2.3,59.98868613843175,
,,,,,,,,stim/Instruction_adaptive.png,conditions/adaptive.xlsx,test,-0.6,-0.6,-0.6,0.6,0.6,left,L,,,,,0,1,1,1,0,91,91,61,,,,,,,,,,,,,,,,,,,,,,,,,,,,,,,,,,,,,,,,,,,,559.5998284000088,None,left,1,1.9373106999555603,560.1009418000467,562.004044500005,560.1009418000467,561.503632500011,560.1009418000467,561.503632500011,560.1009418000467,561.503632500011,560.1009418000467,561.503632500011,560.1009418000467,561.503632500011,561.4697074000142,561.9700505000073,561.4697074000142,561.9700505000073,561.4697074000142,561.9700505000073,561.4697074000142,561.9700505000073,561.4697074000142,561.9700505000073,561.4697074000142,561.9700505000073,561.4697074000142,561.9700505000073,561.4697074000142,561.9700505000073,560.1009418000467,None,561.9700505000073,563.0886737999972,1.390000000000001,563.1053689999972,None,563.8562750000274,None,,,,,,,[[1.11]],2.2600000000000016,0.7282608695652174,11041,001,2024_Mar_15_1402,MFTM_A_new1021,2021.2.3,59.98868613843175,
,,,,,,,,stim/Instruction_adaptive.png,conditions/adaptive.xlsx,test,0.6,0.6,0.6,-0.6,-0.6,right,R,,,,,0,1,1,1,0,92,92,66,,,,,,,,,,,,,,,,,,,,,,,,,,,,,,,,,,,,,,,,,,,,564.3573197000078,None,right,1,1.4204371999949217,564.8576735000242,566.7272379000206,564.8576735000242,566.2268365000491,564.8576735000242,566.2268365000491,564.8576735000242,566.2268365000491,564.8576735000242,566.2268365000491,564.8576735000242,566.2268365000491,566.2101257000468,566.7109067999991,566.2101257000468,566.7109067999991,566.2101257000468,566.7109067999991,566.2101257000468,566.7109067999991,566.2101257000468,566.7109067999991,566.2101257000468,566.7109067999991,566.2101257000468,566.7109067999991,566.2101257000468,566.7109067999991,564.8576735000242,None,566.7109067999991,567.8456248000148,1.370000000000001,567.8626981000416,None,568.6144117000513,None,,,,,,,[[1.13]],2.290000000000002,0.7311827956989247,11041,001,2024_Mar_15_1402,MFTM_A_new1021,2021.2.3,59.98868613843175,
,,,,,,,,stim/Instruction_adaptive.png,conditions/adaptive.xlsx,test,0.6,0.6,0.6,-0.6,-0.6,right,R,,,,,0,1,1,1,0,93,93,34,,,,,,,,,,,,,,,,,,,,,,,,,,,,,,,,,,,,,,,,,,,,569.1151279000333,None,right,1,1.2795723999734037,569.6150453000446,571.4677859000512,569.6150453000446,570.9675723999972,569.6150453000446,570.9675723999972,569.6150453000446,570.9675723999972,569.6150453000446,570.9675723999972,569.6150453000446,570.9675723999972,570.9506797000067,571.4509838000522,570.9506797000067,571.4509838000522,570.9506797000067,571.4509838000522,570.9506797000067,571.4509838000522,570.9506797000067,571.4509838000522,570.9506797000067,571.4509838000522,570.9506797000067,571.4509838000522,570.9506797000067,571.4509838000522,569.6150453000446,None,571.4509838000522,572.6027739000274,1.350000000000001,572.619855500001,None,573.3707609000267,None,,,,,,,[[1.15]],2.3100000000000014,0.7340425531914894,11041,001,2024_Mar_15_1402,MFTM_A_new1021,2021.2.3,59.98868613843175,
