TrialType,Path,Correct,ms,s,ks,trials_4.thisRepN,trials_4.thisTrialN,trials_4.thisN,trials_4.thisIndex,welcome.started,welcome.stopped,space.started,space.stopped,key_resp.keys,key_resp.rt,key_resp.started,key_resp.stopped,Fixwarn.started,Fixwarn.stopped,table.started,table.stopped,key_resp__0.keys,key_resp__0.rt,key_resp__0.started,key_resp__0.stopped,type.started,type.stopped,space_3.started,space_3.stopped,key_resp_6.keys,key_resp_6.rt,key_resp_6.started,key_resp_6.stopped,stim_2.started,stim_2.stopped,text_2.started,text_2.stopped,key_resp_9.keys,key_resp_9.corr,key_resp_9.rt,key_resp_9.started,key_resp_9.stopped,END.started,END.stopped,key_resp_2.keys,key_resp_2.rt,key_resp_2.started,key_resp_2.stopped,participant,session,date,expName,psychopyVersion,frameRate,
,,,,,,,,,,6.524283099999593,None,6.524283099999593,None,space,1.4662528999979259,6.524283099999593,None,,,,,,,,,,,,,,,,,,,,,,,,,,,,,,,,11001,001,2023_Dec_29_1015,gonogo_T,2021.2.3,59.86797913250258,
,,,,,,,,,,,,,,,,,,8.010793500005093,None,8.010793500005093,None,space,7.819619900001271,8.010793500005093,None,,,,,,,,,,,,,,,,,,,,,,,,11001,001,2023_Dec_29_1015,gonogo_T,2021.2.3,59.86797913250258,
,,,,,,,,,,,,,,,,,,,,,,,,,,15.889331700003822,None,15.889331700003822,None,space,41.13363529999333,15.889331700003822,None,,,,,,,,,,,,,,,,11001,001,2023_Dec_29_1015,gonogo_T,2021.2.3,59.86797913250258,
go,triangle.png,space,1052,1.052,1.552,0,0,0,89,,,,,,,,,,,,,,,,,,,,,,,,,57.18284780000249,57.684456499999214,57.667738900003314,58.719289200002095,space,1,0.5912950999991153,57.18284780000249,None,,,,,,,11001,001,2023_Dec_29_1015,gonogo_T,2021.2.3,59.86797913250258,
go,triangle.png,space,1280,1.28,1.78,0,1,1,18,,,,,,,,,,,,,,,,,,,,,,,,,58.73588649999874,59.23647809999966,59.2195137000017,60.50510240000585,space,1,0.3266300000032061,58.73588649999874,58.73588649999874,,,,,,,11001,001,2023_Dec_29_1015,gonogo_T,2021.2.3,59.86797913250258,
go,triangle.png,space,1979,1.979,2.479,0,2,2,93,,,,,,,,,,,,,,,,,,,,,,,,,60.52186559999973,61.022240400001465,61.00643800000398,62.99225470000238,space,1,0.32431440000073053,60.52186559999973,60.52186559999973,,,,,,,11001,001,2023_Dec_29_1015,gonogo_T,2021.2.3,59.86797913250258,
go,triangle.png,space,1879,1.879,2.379,0,3,3,11,,,,,,,,,,,,,,,,,,,,,,,,,63.01094020000164,63.52621460000228,63.49278210000193,65.3788554000057,space,1,0.3717038999966462,63.01094020000164,63.01094020000164,,,,,,,11001,001,2023_Dec_29_1015,gonogo_T,2021.2.3,59.86797913250258,
go,triangle.png,space,1386,1.386,1.886,0,4,4,83,,,,,,,,,,,,,,,,,,,,,,,,,65.39552309999999,65.89650700000493,65.8798128999988,67.26566350000212,space,1,0.25874239999393467,65.39552309999999,65.39552309999999,,,,,,,11001,001,2023_Dec_29_1015,gonogo_T,2021.2.3,59.86797913250258,
nogo,square.png,None,1165,1.165,1.665,0,5,5,76,,,,,,,,,,,,,,,,,,,,,,,,,67.31570710000233,67.8156639000008,67.79944990000513,68.96768220000376,None,1,,67.31570710000233,67.31570710000233,,,,,,,11001,001,2023_Dec_29_1015,gonogo_T,2021.2.3,59.86797913250258,
nogo,square.png,None,1413,1.413,1.913,0,6,6,16,,,,,,,,,,,,,,,,,,,,,,,,,68.98480120000022,69.4852394000045,69.46849440000369,70.8872221000056,None,1,,68.98480120000022,68.98480120000022,,,,,,,11001,001,2023_Dec_29_1015,gonogo_T,2021.2.3,59.86797913250258,
nogo,square.png,None,1611,1.611,2.111,0,7,7,28,,,,,,,,,,,,,,,,,,,,,,,,,70.90395980000176,71.40459689999989,71.3885070000033,73.00735680000071,None,1,,70.90395980000176,70.90395980000176,,,,,,,11001,001,2023_Dec_29_1015,gonogo_T,2021.2.3,59.86797913250258,
go,triangle.png,space,1822,1.822,2.322,0,8,8,26,,,,,,,,,,,,,,,,,,,,,,,,,73.0227548000039,73.52457200000208,73.50771960000566,None,space,1,0.31188350000593346,73.0227548000039,73.0227548000039,,,,,,,11001,001,2023_Dec_29_1015,gonogo_T,2021.2.3,59.86797913250258,
go,triangle.png,space,1962,1.962,2.462,0,9,9,74,,,,,,,,,,,,,,,,,,,,,,,,,75.34371630000533,75.84458620000078,75.82784000000538,77.79731410000386,space,1,0.2545797999991919,75.34371630000533,75.34371630000533,,,,,,,11001,001,2023_Dec_29_1015,gonogo_T,2021.2.3,59.86797913250258,
go,triangle.png,space,1161,1.161,1.661,0,10,10,62,,,,,,,,,,,,,,,,,,,,,,,,,77.81403929999942,78.31472620000568,78.29819729999872,79.46657110000524,space,1,0.2564053000023705,77.81403929999942,77.81403929999942,,,,,,,11001,001,2023_Dec_29_1015,gonogo_T,2021.2.3,59.86797913250258,
go,triangle.png,space,1478,1.478,1.978,0,11,11,75,,,,,,,,,,,,,,,,,,,,,,,,,79.483281300003,79.98441930000263,79.96753120000358,81.45278940000571,space,1,0.315196499999729,79.483281300003,79.483281300003,,,,,,,11001,001,2023_Dec_29_1015,gonogo_T,2021.2.3,59.86797913250258,
go,triangle.png,space,1940,1.94,2.44,0,12,12,49,,,,,,,,,,,,,,,,,,,,,,,,,81.4690683000008,81.97035630000028,81.95325900000171,83.90649760000088,space,1,0.28142140000272775,81.4690683000008,81.4690683000008,,,,,,,11001,001,2023_Dec_29_1015,gonogo_T,2021.2.3,59.86797913250258,
nogo,square.png,None,1337,1.337,1.837,0,13,13,64,,,,,,,,,,,,,,,,,,,,,,,,,83.9233177999995,84.423896100001,84.40787290000299,None,None,1,,83.9233177999995,83.9233177999995,,,,,,,11001,001,2023_Dec_29_1015,gonogo_T,2021.2.3,59.86797913250258,
go,triangle.png,space,1566,1.566,2.066,0,14,14,25,,,,,,,,,,,,,,,,,,,,,,,,,85.75933160000568,86.25995369999873,86.24385099999927,87.81236960000388,space,1,0.31886759999906644,85.75933160000568,85.75933160000568,,,,,,,11001,001,2023_Dec_29_1015,gonogo_T,2021.2.3,59.86797913250258,
nogo,square.png,None,1776,1.776,2.276,0,15,15,8,,,,,,,,,,,,,,,,,,,,,,,,,87.82854940000107,88.32972100000188,88.3128097000008,90.0990055000002,None,1,,87.82854940000107,87.82854940000107,,,,,,,11001,001,2023_Dec_29_1015,gonogo_T,2021.2.3,59.86797913250258,
go,triangle.png,space,1529,1.529,2.029,0,16,16,51,,,,,,,,,,,,,,,,,,,,,,,,,90.1155448999998,90.6162445000009,90.59981150000385,92.13531750000402,space,1,0.2671545000048354,90.1155448999998,90.1155448999998,,,,,,,11001,001,2023_Dec_29_1015,gonogo_T,2021.2.3,59.86797913250258,
go,triangle.png,space,1825,1.825,2.325,0,17,17,10,,,,,,,,,,,,,,,,,,,,,,,,,92.15204770000128,92.65326900000218,92.63637210000161,94.47252610000578,space,1,0.3423064999951748,92.15204770000128,92.15204770000128,,,,,,,11001,001,2023_Dec_29_1015,gonogo_T,2021.2.3,59.86797913250258,
nogo,square.png,None,1131,1.131,1.631,0,18,18,52,,,,,,,,,,,,,,,,,,,,,,,,,94.48939360000077,94.98968800000148,94.9730142000044,96.10805529999925,None,1,,94.48939360000077,94.48939360000077,,,,,,,11001,001,2023_Dec_29_1015,gonogo_T,2021.2.3,59.86797913250258,
go,triangle.png,space,1457,1.457,1.957,0,19,19,66,,,,,,,,,,,,,,,,,,,,,,,,,96.12500770000042,96.6254517999987,96.60863840000093,98.07882049999898,space,1,0.3454695999971591,96.12500770000042,96.12500770000042,,,,,,,11001,001,2023_Dec_29_1015,gonogo_T,2021.2.3,59.86797913250258,
nogo,square.png,None,1154,1.154,1.654,0,20,20,40,,,,,,,,,,,,,,,,,,,,,,,,,98.09430020000582,98.59500250000565,98.57830720000493,99.7457757000011,None,1,,98.09430020000582,98.09430020000582,,,,,,,11001,001,2023_Dec_29_1015,gonogo_T,2021.2.3,59.86797913250258,
go,triangle.png,space,1960,1.96,2.46,0,21,21,31,,,,,,,,,,,,,,,,,,,,,,,,,99.7634509999989,100.26427720000356,100.24746109999978,102.21694070000376,space,1,0.31525250000413507,99.7634509999989,99.7634509999989,,,,,,,11001,001,2023_Dec_29_1015,gonogo_T,2021.2.3,59.86797913250258,
go,triangle.png,space,1973,1.973,2.473,0,22,22,37,,,,,,,,,,,,,,,,,,,,,,,,,102.23365940000076,102.73485430000437,102.71804240000347,104.7041515000019,space,1,0.396968699998979,102.23365940000076,102.23365940000076,,,,,,,11001,001,2023_Dec_29_1015,gonogo_T,2021.2.3,59.86797913250258,
nogo,square.png,None,1913,1.913,2.413,0,23,23,36,,,,,,,,,,,,,,,,,,,,,,,,,104.72059300000547,105.22127259999979,105.20478070000536,107.12450530000206,None,1,,104.72059300000547,104.72059300000547,,,,,,,11001,001,2023_Dec_29_1015,gonogo_T,2021.2.3,59.86797913250258,
go,triangle.png,space,1087,1.087,1.587,0,24,24,50,,,,,,,,,,,,,,,,,,,,,,,,,107.14138600000297,107.64178370000445,107.62504389999958,108.72648470000422,space,1,0.28117099999508355,107.14138600000297,107.14138600000297,,,,,,,11001,001,2023_Dec_29_1015,gonogo_T,2021.2.3,59.86797913250258,
nogo,square.png,None,1379,1.379,1.879,0,25,25,84,,,,,,,,,,,,,,,,,,,,,,,,,108.7434229999999,109.24417900000117,109.22713880000083,110.61307510000188,None,1,,108.7434229999999,108.7434229999999,,,,,,,11001,001,2023_Dec_29_1015,gonogo_T,2021.2.3,59.86797913250258,
go,triangle.png,space,1466,1.466,1.966,0,26,26,94,,,,,,,,,,,,,,,,,,,,,,,,,110.63010300000315,111.13013380000484,111.11351180000202,112.58242160000373,space,1,0.26443559999461286,110.63010300000315,110.63010300000315,,,,,,,11001,001,2023_Dec_29_1015,gonogo_T,2021.2.3,59.86797913250258,
go,triangle.png,space,1445,1.445,1.945,0,27,27,5,,,,,,,,,,,,,,,,,,,,,,,,,112.59903779999877,113.09942760000558,113.08289350000268,114.53526229999989,space,1,0.27950780000537634,112.59903779999877,112.59903779999877,,,,,,,11001,001,2023_Dec_29_1015,gonogo_T,2021.2.3,59.86797913250258,
nogo,square.png,None,1518,1.518,2.018,0,28,28,56,,,,,,,,,,,,,,,,,,,,,,,,,114.55194580000534,115.05263950000517,115.0356105000028,116.55494069999986,None,1,,114.55194580000534,114.55194580000534,,,,,,,11001,001,2023_Dec_29_1015,gonogo_T,2021.2.3,59.86797913250258,
go,triangle.png,space,1918,1.918,2.418,0,29,29,3,,,,,,,,,,,,,,,,,,,,,,,,,116.57160420000582,117.0722259000031,117.05564589999994,118.97533910000493,space,1,0.25862639999832027,116.57160420000582,116.57160420000582,,,,,,,11001,001,2023_Dec_29_1015,gonogo_T,2021.2.3,59.86797913250258,
go,triangle.png,space,1329,1.329,1.829,0,30,30,90,,,,,,,,,,,,,,,,,,,,,,,,,118.99188030000369,119.49187810000149,119.47588770000584,120.81136340000376,space,1,0.35838800000055926,118.99188030000369,118.99188030000369,,,,,,,11001,001,2023_Dec_29_1015,gonogo_T,2021.2.3,59.86797913250258,
go,triangle.png,space,1575,1.575,2.075,0,31,31,33,,,,,,,,,,,,,,,,,,,,,,,,,120.82796890000463,121.32866220000142,121.31193840000196,122.89798249999876,space,1,0.41043130000616657,120.82796890000463,120.82796890000463,,,,,,,11001,001,2023_Dec_29_1015,gonogo_T,2021.2.3,59.86797913250258,
go,triangle.png,space,1329,1.329,1.829,0,32,32,27,,,,,,,,,,,,,,,,,,,,,,,,,122.91419619999942,123.41469599999982,123.39842399999907,124.7339723000041,space,1,0.2681129000047804,122.91419619999942,122.91419619999942,,,,,,,11001,001,2023_Dec_29_1015,gonogo_T,2021.2.3,59.86797913250258,
nogo,square.png,None,1414,1.414,1.914,0,33,33,68,,,,,,,,,,,,,,,,,,,,,,,,,124.75033640000038,125.25161870000011,125.23445129999891,126.65321129999938,None,1,,124.75033640000038,124.75033640000038,,,,,,,11001,001,2023_Dec_29_1015,gonogo_T,2021.2.3,59.86797913250258,
go,triangle.png,space,1450,1.45,1.95,0,34,34,78,,,,,,,,,,,,,,,,,,,,,,,,,126.66998500000045,127.17025650000141,127.1535978000029,128.60653680000541,space,1,0.2565565999975661,126.66998500000045,126.66998500000045,,,,,,,11001,001,2023_Dec_29_1015,gonogo_T,2021.2.3,59.86797913250258,
nogo,square.png,None,1102,1.102,1.602,0,35,35,80,,,,,,,,,,,,,,,,,,,,,,,,,128.62274009999965,129.12376580000273,129.10729840000567,130.2085589999988,None,1,,128.62274009999965,128.62274009999965,,,,,,,11001,001,2023_Dec_29_1015,gonogo_T,2021.2.3,59.86797913250258,
go,triangle.png,space,1021,1.021,1.521,0,36,36,91,,,,,,,,,,,,,,,,,,,,,,,,,130.22530460000416,130.72601320000103,130.70908190000046,131.74405020000268,space,1,0.38091349999740487,130.22530460000416,130.22530460000416,,,,,,,11001,001,2023_Dec_29_1015,gonogo_T,2021.2.3,59.86797913250258,
nogo,square.png,None,1139,1.139,1.639,0,37,37,48,,,,,,,,,,,,,,,,,,,,,,,,,131.76073349999933,132.26147750000382,132.2449928999995,133.39648039999884,None,1,,131.76073349999933,131.76073349999933,,,,,,,11001,001,2023_Dec_29_1015,gonogo_T,2021.2.3,59.86797913250258,
nogo,square.png,None,1267,1.267,1.767,0,38,38,20,,,,,,,,,,,,,,,,,,,,,,,,,133.41330480000033,133.91438010000275,133.89745960000437,135.16590530000394,None,1,,133.41330480000033,133.41330480000033,,,,,,,11001,001,2023_Dec_29_1015,gonogo_T,2021.2.3,59.86797913250258,
go,triangle.png,space,1447,1.447,1.947,0,39,39,7,,,,,,,,,,,,,,,,,,,,,,,,,135.18265090000205,135.68336960000306,135.66640680000273,137.11859489999915,space,1,0.35162479999416973,135.18265090000205,135.18265090000205,,,,,,,11001,001,2023_Dec_29_1015,gonogo_T,2021.2.3,59.86797913250258,
go,triangle.png,space,1344,1.344,1.844,0,40,40,53,,,,,,,,,,,,,,,,,,,,,,,,,137.13542060000327,137.6361201000036,137.61942239999917,138.97147720000066,space,1,0.31115760000102455,137.13542060000327,137.13542060000327,,,,,,,11001,001,2023_Dec_29_1015,gonogo_T,2021.2.3,59.86797913250258,
nogo,square.png,None,1453,1.453,1.953,0,41,41,12,,,,,,,,,,,,,,,,,,,,,,,,,138.9882099000024,139.48888240000088,139.47218260000227,140.92405100000178,None,1,,138.9882099000024,138.9882099000024,,,,,,,11001,001,2023_Dec_29_1015,gonogo_T,2021.2.3,59.86797913250258,
go,triangle.png,space,1217,1.217,1.717,0,42,42,1,,,,,,,,,,,,,,,,,,,,,,,,,140.94070669999928,141.44217740000022,141.42468850000296,142.64357089999976,space,1,0.26593080000020564,140.94070669999928,140.94070669999928,,,,,,,11001,001,2023_Dec_29_1015,gonogo_T,2021.2.3,59.86797913250258,
go,triangle.png,space,1370,1.37,1.87,0,43,43,13,,,,,,,,,,,,,,,,,,,,,,,,,142.66029410000192,143.16098950000014,143.14407710000523,144.5131268000041,space,1,0.31429510000452865,142.66029410000192,142.66029410000192,,,,,,,11001,001,2023_Dec_29_1015,gonogo_T,2021.2.3,59.86797913250258,
go,triangle.png,space,1036,1.036,1.536,0,44,44,70,,,,,,,,,,,,,,,,,,,,,,,,,144.52979430000414,145.03045109999948,145.0138578000042,146.04857740000443,space,1,0.24457840000104625,144.52979430000414,144.52979430000414,,,,,,,11001,001,2023_Dec_29_1015,gonogo_T,2021.2.3,59.86797913250258,
go,triangle.png,space,1320,1.32,1.82,0,45,45,54,,,,,,,,,,,,,,,,,,,,,,,,,146.06513960000302,146.5663893000019,146.54941610000242,147.86756980000064,space,1,0.2614460999975563,146.06513960000302,146.06513960000302,,,,,,,11001,001,2023_Dec_29_1015,gonogo_T,2021.2.3,59.86797913250258,
nogo,square.png,None,1600,1.6,2.1,0,46,46,92,,,,,,,,,,,,,,,,,,,,,,,,,147.88451300000452,148.38552139999956,148.36874440000247,149.97124140000233,None,1,,147.88451300000452,147.88451300000452,,,,,,,11001,001,2023_Dec_29_1015,gonogo_T,2021.2.3,59.86797913250258,
nogo,square.png,None,1895,1.895,2.395,0,47,47,4,,,,,,,,,,,,,,,,,,,,,,,,,149.98780249999982,150.4885404000015,150.47181780000392,152.3746844999987,None,1,,149.98780249999982,149.98780249999982,,,,,,,11001,001,2023_Dec_29_1015,gonogo_T,2021.2.3,59.86797913250258,
go,triangle.png,space,1767,1.767,2.267,0,48,48,77,,,,,,,,,,,,,,,,,,,,,,,,,152.39142849999917,152.8918907000043,152.8751007000028,154.6450552000024,space,1,0.2710693999979412,152.39142849999917,152.39142849999917,,,,,,,11001,001,2023_Dec_29_1015,gonogo_T,2021.2.3,59.86797913250258,
go,triangle.png,space,1761,1.761,2.261,0,49,49,95,,,,,,,,,,,,,,,,,,,,,,,,,154.66200380000373,155.16191750000144,155.14538720000564,156.9147370999999,space,1,0.3286130999986199,154.66200380000373,154.66200380000373,,,,,,,11001,001,2023_Dec_29_1015,gonogo_T,2021.2.3,59.86797913250258,
go,triangle.png,space,1095,1.095,1.595,0,50,50,63,,,,,,,,,,,,,,,,,,,,,,,,,156.9314302999992,157.43181510000431,157.41535960000328,158.51781309999933,space,1,0.40285169999697246,156.9314302999992,156.9314302999992,,,,,,,11001,001,2023_Dec_29_1015,gonogo_T,2021.2.3,59.86797913250258,
go,triangle.png,space,1866,1.866,2.366,0,51,51,42,,,,,,,,,,,,,,,,,,,,,,,,,158.53367190000426,159.03475199999957,159.01794630000222,160.887687800001,space,1,0.28095870000106515,158.53367190000426,158.53367190000426,,,,,,,11001,001,2023_Dec_29_1015,gonogo_T,2021.2.3,59.86797913250258,
go,triangle.png,space,1806,1.806,2.306,0,52,52,85,,,,,,,,,,,,,,,,,,,,,,,,,160.90388679999887,161.40483140000288,161.38812280000275,None,space,1,0.2703737999981968,160.90388679999887,160.90388679999887,,,,,,,11001,001,2023_Dec_29_1015,gonogo_T,2021.2.3,59.86797913250258,
go,triangle.png,space,1105,1.105,1.605,0,53,53,57,,,,,,,,,,,,,,,,,,,,,,,,,163.20723230000294,163.70813080000516,163.69074340000225,164.8097609000033,space,1,0.3114302000030875,163.20723230000294,163.20723230000294,,,,,,,11001,001,2023_Dec_29_1015,gonogo_T,2021.2.3,59.86797913250258,
go,triangle.png,space,1154,1.154,1.654,0,54,54,71,,,,,,,,,,,,,,,,,,,,,,,,,164.82657219999965,165.32716780000192,165.31045040000026,166.4789968000041,space,1,0.3007175999955507,164.82657219999965,164.82657219999965,,,,,,,11001,001,2023_Dec_29_1015,gonogo_T,2021.2.3,59.86797913250258,
go,triangle.png,space,1074,1.074,1.574,0,55,55,41,,,,,,,,,,,,,,,,,,,,,,,,,166.49559679999948,166.99632540000312,166.9796037000051,168.0644678000026,space,1,0.34298379999381723,166.49559679999948,166.49559679999948,,,,,,,11001,001,2023_Dec_29_1015,gonogo_T,2021.2.3,59.86797913250258,
go,triangle.png,space,1246,1.246,1.746,0,56,56,87,,,,,,,,,,,,,,,,,,,,,,,,,168.08129670000199,168.5823692000049,168.56551410000247,169.81725310000184,space,1,0.29315840000344906,168.08129670000199,168.08129670000199,,,,,,,11001,001,2023_Dec_29_1015,gonogo_T,2021.2.3,59.86797913250258,
go,triangle.png,space,1074,1.074,1.574,0,57,57,6,,,,,,,,,,,,,,,,,,,,,,,,,169.83396920000087,170.33474520000163,170.31793010000547,171.40415159999975,space,1,0.34054659999674186,169.83396920000087,169.83396920000087,,,,,,,11001,001,2023_Dec_29_1015,gonogo_T,2021.2.3,59.86797913250258,
go,triangle.png,space,1180,1.18,1.68,0,58,58,81,,,,,,,,,,,,,,,,,,,,,,,,,171.41997600000468,171.920243200002,171.90361190000112,173.08870160000515,space,1,0.370445300002757,171.41997600000468,171.41997600000468,,,,,,,11001,001,2023_Dec_29_1015,gonogo_T,2021.2.3,59.86797913250258,
go,triangle.png,space,1589,1.589,2.089,0,59,59,39,,,,,,,,,,,,,,,,,,,,,,,,,173.10540590000164,173.6061275000029,173.58942760000355,175.1922421000054,space,1,0.27690399999846704,173.10540590000164,173.10540590000164,,,,,,,11001,001,2023_Dec_29_1015,gonogo_T,2021.2.3,59.86797913250258,
go,triangle.png,space,1716,1.716,2.216,0,60,60,14,,,,,,,,,,,,,,,,,,,,,,,,,175.20852240000386,175.70937000000413,175.6922199000037,177.4117183999988,space,1,0.38212149999890244,175.20852240000386,175.20852240000386,,,,,,,11001,001,2023_Dec_29_1015,gonogo_T,2021.2.3,59.86797913250258,
go,triangle.png,space,1002,1.002,1.502,0,61,61,34,,,,,,,,,,,,,,,,,,,,,,,,,177.42845260000468,177.9293433999992,177.91231300000072,178.9137871999992,space,1,0.2820057999997516,177.42845260000468,177.42845260000468,,,,,,,11001,001,2023_Dec_29_1015,gonogo_T,2021.2.3,59.86797913250258,
go,triangle.png,space,1003,1.003,1.503,0,62,62,15,,,,,,,,,,,,,,,,,,,,,,,,,178.93074989999877,179.43136900000536,179.4145062000025,None,space,1,0.3562796999976854,178.93074989999877,178.93074989999877,,,,,,,11001,001,2023_Dec_29_1015,gonogo_T,2021.2.3,59.86797913250258,
go,triangle.png,space,1714,1.714,2.214,0,63,63,22,,,,,,,,,,,,,,,,,,,,,,,,,180.43294440000318,180.93367940000462,180.9169267000034,182.63621720000083,space,1,0.34137559999362566,180.43294440000318,180.43294440000318,,,,,,,11001,001,2023_Dec_29_1015,gonogo_T,2021.2.3,59.86797913250258,
go,triangle.png,space,1674,1.674,2.174,0,64,64,47,,,,,,,,,,,,,,,,,,,,,,,,,182.6529570000057,183.15365340000426,183.1369141000032,184.82289410000521,space,1,0.35379590000229655,182.6529570000057,182.6529570000057,,,,,,,11001,001,2023_Dec_29_1015,gonogo_T,2021.2.3,59.86797913250258,
go,triangle.png,space,1955,1.955,2.455,0,65,65,35,,,,,,,,,,,,,,,,,,,,,,,,,184.83947720000288,185.3401617999989,185.32345630000054,187.29353619999893,space,1,0.3189141999973799,184.83947720000288,184.83947720000288,,,,,,,11001,001,2023_Dec_29_1015,gonogo_T,2021.2.3,59.86797913250258,
go,triangle.png,space,1630,1.63,2.13,0,66,66,79,,,,,,,,,,,,,,,,,,,,,,,,,187.3104009000017,187.8109665000011,187.7938815000016,189.42893439999898,space,1,0.2962740000002668,187.3104009000017,187.3104009000017,,,,,,,11001,001,2023_Dec_29_1015,gonogo_T,2021.2.3,59.86797913250258,
go,triangle.png,space,1357,1.357,1.857,0,67,67,29,,,,,,,,,,,,,,,,,,,,,,,,,189.4463728000046,189.94635589999962,189.92964870000287,191.2991289000056,space,1,0.32002859999920474,189.4463728000046,189.4463728000046,,,,,,,11001,001,2023_Dec_29_1015,gonogo_T,2021.2.3,59.86797913250258,
go,triangle.png,space,1493,1.493,1.993,0,68,68,69,,,,,,,,,,,,,,,,,,,,,,,,,191.31552770000417,191.81648440000572,191.79976739999984,193.3020217000012,space,1,0.33118069999909494,191.31552770000417,191.31552770000417,,,,,,,11001,001,2023_Dec_29_1015,gonogo_T,2021.2.3,59.86797913250258,
go,triangle.png,space,1641,1.641,2.141,0,69,69,86,,,,,,,,,,,,,,,,,,,,,,,,,193.31872020000446,193.81929180000589,193.80249380000168,195.45529660000466,space,1,0.2639753999974346,193.31872020000446,193.31872020000446,,,,,,,11001,001,2023_Dec_29_1015,gonogo_T,2021.2.3,59.86797913250258,
nogo,square.png,None,1636,1.636,2.136,0,70,70,0,,,,,,,,,,,,,,,,,,,,,,,,,195.4718950000024,195.97228610000457,195.95586439999897,197.59131190000335,None,1,,195.4718950000024,195.4718950000024,,,,,,,11001,001,2023_Dec_29_1015,gonogo_T,2021.2.3,59.86797913250258,
go,triangle.png,space,1739,1.739,2.239,0,71,71,17,,,,,,,,,,,,,,,,,,,,,,,,,197.6079805000045,198.10863880000397,198.092538900004,199.84510180000507,space,1,0.26266670000040904,197.6079805000045,197.6079805000045,,,,,,,11001,001,2023_Dec_29_1015,gonogo_T,2021.2.3,59.86797913250258,
go,triangle.png,space,1869,1.869,2.369,0,72,72,59,,,,,,,,,,,,,,,,,,,,,,,,,199.86182140000165,200.3621284000037,200.34572940000362,202.2151853000032,space,1,0.25652099999570055,199.86182140000165,199.86182140000165,,,,,,,11001,001,2023_Dec_29_1015,gonogo_T,2021.2.3,59.86797913250258,
go,triangle.png,space,1711,1.711,2.211,0,73,73,65,,,,,,,,,,,,,,,,,,,,,,,,,202.23193100000208,202.73225000000093,202.71648180000193,204.4352044000043,space,1,0.27068989999679616,202.23193100000208,202.23193100000208,,,,,,,11001,001,2023_Dec_29_1015,gonogo_T,2021.2.3,59.86797913250258,
nogo,square.png,None,1844,1.844,2.344,0,74,74,88,,,,,,,,,,,,,,,,,,,,,,,,,204.4519986000014,204.95254209999985,204.93581290000293,206.78861210000468,None,1,,204.4519986000014,204.4519986000014,,,,,,,11001,001,2023_Dec_29_1015,gonogo_T,2021.2.3,59.86797913250258,
go,triangle.png,space,1323,1.323,1.823,0,75,75,21,,,,,,,,,,,,,,,,,,,,,,,,,206.80531540000084,207.3059837000037,207.28985620000458,208.6247164000015,space,1,0.3614618999999948,206.80531540000084,206.80531540000084,,,,,,,11001,001,2023_Dec_29_1015,gonogo_T,2021.2.3,59.86797913250258,
nogo,square.png,None,1233,1.233,1.733,0,76,76,44,,,,,,,,,,,,,,,,,,,,,,,,,208.64142680000077,209.14208650000364,209.12508750000416,210.36057010000513,None,1,,208.64142680000077,208.64142680000077,,,,,,,11001,001,2023_Dec_29_1015,gonogo_T,2021.2.3,59.86797913250258,
go,triangle.png,space,1388,1.388,1.888,0,77,77,9,,,,,,,,,,,,,,,,,,,,,,,,,210.3774201000051,210.87797340000543,210.86108760000207,212.26324450000538,space,1,0.357553599998937,210.3774201000051,210.3774201000051,,,,,,,11001,001,2023_Dec_29_1015,gonogo_T,2021.2.3,59.86797913250258,
go,triangle.png,space,1532,1.532,2.032,0,78,78,2,,,,,,,,,,,,,,,,,,,,,,,,,212.27984730000026,212.7808509000024,212.76392119999946,214.29972719999932,space,1,0.4948307999948156,212.27984730000026,212.27984730000026,,,,,,,11001,001,2023_Dec_29_1015,gonogo_T,2021.2.3,59.86797913250258,
go,triangle.png,space,1448,1.448,1.948,0,79,79,43,,,,,,,,,,,,,,,,,,,,,,,,,214.31646180000098,214.81722720000107,214.80080979999912,216.25280070000008,space,1,0.25787129999662284,214.31646180000098,214.31646180000098,,,,,,,11001,001,2023_Dec_29_1015,gonogo_T,2021.2.3,59.86797913250258,
go,triangle.png,space,1233,1.233,1.733,0,80,80,46,,,,,,,,,,,,,,,,,,,,,,,,,216.2696849000058,216.77017970000452,216.75340580000193,217.98855970000295,space,1,0.2896376000062446,216.2696849000058,216.2696849000058,,,,,,,11001,001,2023_Dec_29_1015,gonogo_T,2021.2.3,59.86797913250258,
go,triangle.png,space,1582,1.582,2.082,0,81,81,67,,,,,,,,,,,,,,,,,,,,,,,,,218.0052633000014,218.50592909999978,218.48993419999897,220.0750113000031,space,1,0.329503000000841,218.0052633000014,218.0052633000014,,,,,,,11001,001,2023_Dec_29_1015,gonogo_T,2021.2.3,59.86797913250258,
go,triangle.png,space,1991,1.991,2.491,0,82,82,82,,,,,,,,,,,,,,,,,,,,,,,,,220.09211370000412,220.59211090000463,220.57566300000326,222.57869650000066,space,1,0.3305640000035055,220.09211370000412,220.09211370000412,,,,,,,11001,001,2023_Dec_29_1015,gonogo_T,2021.2.3,59.86797913250258,
go,triangle.png,space,1437,1.437,1.937,0,83,83,45,,,,,,,,,,,,,,,,,,,,,,,,,222.59538020000036,223.0961243000056,223.07953880000423,None,space,1,0.33141410000098404,222.59538020000036,222.59538020000036,,,,,,,11001,001,2023_Dec_29_1015,gonogo_T,2021.2.3,59.86797913250258,
nogo,square.png,None,1467,1.467,1.967,0,84,84,72,,,,,,,,,,,,,,,,,,,,,,,,,224.53208209999866,225.0324599000014,225.01570840000204,226.48451660000137,None,1,,224.53208209999866,224.53208209999866,,,,,,,11001,001,2023_Dec_29_1015,gonogo_T,2021.2.3,59.86797913250258,
nogo,square.png,None,1783,1.783,2.283,0,85,85,60,,,,,,,,,,,,,,,,,,,,,,,,,226.50157000000036,227.0019981000005,226.98525230000087,228.77114560000336,None,1,,226.50157000000036,226.50157000000036,,,,,,,11001,001,2023_Dec_29_1015,gonogo_T,2021.2.3,59.86797913250258,
nogo,square.png,None,1698,1.698,2.198,0,86,86,32,,,,,,,,,,,,,,,,,,,,,,,,,228.78714949999994,229.28894940000464,229.27210520000517,230.97457679999934,None,1,,228.78714949999994,228.78714949999994,,,,,,,11001,001,2023_Dec_29_1015,gonogo_T,2021.2.3,59.86797913250258,
go,triangle.png,space,1791,1.791,2.291,0,87,87,55,,,,,,,,,,,,,,,,,,,,,,,,,230.9907583000022,231.4914293000038,231.4754080000057,233.27796540000418,space,1,0.3681480000013835,230.9907583000022,230.9907583000022,,,,,,,11001,001,2023_Dec_29_1015,gonogo_T,2021.2.3,59.86797913250258,
go,triangle.png,space,1806,1.806,2.306,0,88,88,73,,,,,,,,,,,,,,,,,,,,,,,,,233.2946684999988,233.79521200000454,233.7785881000018,235.59800360000372,space,1,0.31205250000493834,233.2946684999988,233.2946684999988,,,,,,,11001,001,2023_Dec_29_1015,gonogo_T,2021.2.3,59.86797913250258,
go,triangle.png,space,1796,1.796,2.296,0,89,89,58,,,,,,,,,,,,,,,,,,,,,,,,,235.61486780000268,236.1153892000002,236.09935110000515,237.901543400003,space,1,0.33554649999859976,235.61486780000268,235.61486780000268,,,,,,,11001,001,2023_Dec_29_1015,gonogo_T,2021.2.3,59.86797913250258,
go,triangle.png,space,1630,1.63,2.13,0,90,90,23,,,,,,,,,,,,,,,,,,,,,,,,,237.91727489999903,238.41892580000422,238.40219069999876,240.03796720000537,space,1,0.29744310000387486,237.91727489999903,237.91727489999903,,,,,,,11001,001,2023_Dec_29_1015,gonogo_T,2021.2.3,59.86797913250258,
go,triangle.png,space,1590,1.59,2.09,0,91,91,19,,,,,,,,,,,,,,,,,,,,,,,,,240.05465090000507,240.55529590000515,240.53861519999919,242.14149510000425,space,1,0.3198417999956291,240.05465090000507,240.05465090000507,,,,,,,11001,001,2023_Dec_29_1015,gonogo_T,2021.2.3,59.86797913250258,
go,triangle.png,space,1262,1.262,1.762,0,92,92,61,,,,,,,,,,,,,,,,,,,,,,,,,242.15764570000465,242.65856920000078,242.64186260000133,243.9102916000047,space,1,0.35290830000303686,242.15764570000465,242.15764570000465,,,,,,,11001,001,2023_Dec_29_1015,gonogo_T,2021.2.3,59.86797913250258,
go,triangle.png,space,1651,1.651,2.151,0,93,93,30,,,,,,,,,,,,,,,,,,,,,,,,,243.92705090000527,244.42781259999902,244.4110834000021,246.06352390000393,space,1,0.29528929999651155,243.92705090000527,243.92705090000527,,,,,,,11001,001,2023_Dec_29_1015,gonogo_T,2021.2.3,59.86797913250258,
go,triangle.png,space,1594,1.594,2.094,0,94,94,38,,,,,,,,,,,,,,,,,,,,,,,,,246.080289000005,246.5805438000025,246.5648738000018,248.16689790000237,space,1,0.34211209999921266,246.080289000005,246.080289000005,,,,,,,11001,001,2023_Dec_29_1015,gonogo_T,2021.2.3,59.86797913250258,
nogo,square.png,None,1194,1.194,1.694,0,95,95,24,,,,,,,,,,,,,,,,,,,,,,,,,248.18332110000483,248.68403170000238,248.6674617000026,249.86909430000378,None,1,,248.18332110000483,248.18332110000483,,,,,,,11001,001,2023_Dec_29_1015,gonogo_T,2021.2.3,59.86797913250258,
,,,,,,,,,,,,,,,,,,,,,,,,,,,,,,,,,,,,,,,,,,,249.8857932000028,None,space,2.4008740999997826,249.8857932000028,None,11001,001,2023_Dec_29_1015,gonogo_T,2021.2.3,59.86797913250258,
