TrialType,Path,Correct,ms,s,ks,trials_4.thisRepN,trials_4.thisTrialN,trials_4.thisN,trials_4.thisIndex,welcome.started,welcome.stopped,space.started,space.stopped,key_resp.keys,key_resp.rt,key_resp.started,key_resp.stopped,Fixwarn.started,Fixwarn.stopped,table.started,table.stopped,key_resp__0.keys,key_resp__0.rt,key_resp__0.started,key_resp__0.stopped,type.started,type.stopped,space_3.started,space_3.stopped,key_resp_6.keys,key_resp_6.rt,key_resp_6.started,key_resp_6.stopped,stim_2.started,stim_2.stopped,text_2.started,text_2.stopped,key_resp_9.keys,key_resp_9.corr,key_resp_9.started,key_resp_9.stopped,key_resp_9.rt,END.started,END.stopped,key_resp_2.keys,key_resp_2.rt,key_resp_2.started,key_resp_2.stopped,participant,session,date,expName,psychopyVersion,frameRate,
,,,,,,,,,,31.21133809996536,None,31.21133809996536,None,space,6.215436800033785,31.21133809996536,None,,,,,,,,,,,,,,,,,,,,,,,,,,,,,,,,11009,001,2024_Jan_01_1640,gonogo_T,2021.2.3,59.74122490795418,
,,,,,,,,,,,,,,,,,,37.453907099959906,None,37.453907099959906,None,space,12.028815400029998,37.453907099959906,None,,,,,,,,,,,,,,,,,,,,,,,,11009,001,2024_Jan_01_1640,gonogo_T,2021.2.3,59.74122490795418,
,,,,,,,,,,,,,,,,,,,,,,,,,,49.52263009996386,None,49.52263009996386,None,space,13.064071900036652,49.52263009996386,None,,,,,,,,,,,,,,,,11009,001,2024_Jan_01_1640,gonogo_T,2021.2.3,59.74122490795418,
nogo,square.png,None,1154,1.154,1.654,0,0,0,40,,,,,,,,,,,,,,,,,,,,,,,,,62.674346199957654,63.17603589995997,63.159805900009815,None,None,1,62.674346199957654,None,,,,,,,,11009,001,2024_Jan_01_1640,gonogo_T,2021.2.3,59.74122490795418,
go,triangle.png,space,1450,1.45,1.95,0,1,1,78,,,,,,,,,,,,,,,,,,,,,,,,,64.32779209996806,64.82786409999244,64.81123539997498,66.26498999999603,space,1,64.32779209996806,64.32779209996806,0.27461149997543544,,,,,,,11009,001,2024_Jan_01_1640,gonogo_T,2021.2.3,59.74122490795418,
go,triangle.png,space,1329,1.329,1.829,0,2,2,90,,,,,,,,,,,,,,,,,,,,,,,,,66.28029919997789,66.78152719995705,66.76405870000599,68.0992769000004,space,1,66.28029919997789,66.28029919997789,0.2582053999649361,,,,,,,11009,001,2024_Jan_01_1640,gonogo_T,2021.2.3,59.74122490795418,
go,triangle.png,space,1529,1.529,2.029,0,3,3,51,,,,,,,,,,,,,,,,,,,,,,,,,68.11709650000557,68.61672529997304,68.60066009999719,70.1361312000081,space,1,68.11709650000557,68.11709650000557,0.26938349998090416,,,,,,,11009,001,2024_Jan_01_1640,gonogo_T,2021.2.3,59.74122490795418,
nogo,square.png,None,1131,1.131,1.631,0,4,4,52,,,,,,,,,,,,,,,,,,,,,,,,,70.15239719999954,70.65396500000497,70.63669219997246,71.77131099998951,None,1,70.15239719999954,70.15239719999954,,,,,,,,11009,001,2024_Jan_01_1640,gonogo_T,2021.2.3,59.74122490795418,
go,triangle.png,space,1448,1.448,1.948,0,5,5,43,,,,,,,,,,,,,,,,,,,,,,,,,71.78857809997862,72.28889879997587,72.27266049996251,73.72444679995533,space,1,71.78857809997862,71.78857809997862,0.25389950000680983,,,,,,,11009,001,2024_Jan_01_1640,gonogo_T,2021.2.3,59.74122490795418,
nogo,square.png,None,1414,1.414,1.914,0,6,6,68,,,,,,,,,,,,,,,,,,,,,,,,,73.74111229996197,74.24199929996394,74.22570010001073,75.64433709997684,None,1,73.74111229996197,73.74111229996197,,,,,,,,11009,001,2024_Jan_01_1640,gonogo_T,2021.2.3,59.74122490795418,
go,triangle.png,space,1651,1.651,2.151,0,7,7,30,,,,,,,,,,,,,,,,,,,,,,,,,75.66061059996719,76.16145650000544,76.14540609996766,77.79746549995616,space,1,75.66061059996719,75.66061059996719,0.2620512999710627,,,,,,,11009,001,2024_Jan_01_1640,gonogo_T,2021.2.3,59.74122490795418,
go,triangle.png,space,1180,1.18,1.68,0,8,8,81,,,,,,,,,,,,,,,,,,,,,,,,,77.81356449995656,78.31449429999338,78.2977424999699,79.48300239996752,space,1,77.81356449995656,77.81356449995656,0.3010980000253767,,,,,,,11009,001,2024_Jan_01_1640,gonogo_T,2021.2.3,59.74122490795418,
go,triangle.png,space,1532,1.532,2.032,0,9,9,2,,,,,,,,,,,,,,,,,,,,,,,,,79.49973469995894,80.00024219998159,79.98450169997523,81.51920270000119,space,1,79.49973469995894,79.49973469995894,0.3672281000181101,,,,,,,11009,001,2024_Jan_01_1640,gonogo_T,2021.2.3,59.74122490795418,
go,triangle.png,space,1105,1.105,1.605,0,10,10,57,,,,,,,,,,,,,,,,,,,,,,,,,81.53656579996459,82.03641379997134,82.01995359995635,83.13810350000858,space,1,81.53656579996459,81.53656579996459,0.29021609999472275,,,,,,,11009,001,2024_Jan_01_1640,gonogo_T,2021.2.3,59.74122490795418,
go,triangle.png,space,1329,1.329,1.829,0,11,11,27,,,,,,,,,,,,,,,,,,,,,,,,,83.15509319998091,83.65582409995841,83.64013929996872,84.97502579999855,space,1,83.15509319998091,83.15509319998091,0.3756545999785885,,,,,,,11009,001,2024_Jan_01_1640,gonogo_T,2021.2.3,59.74122490795418,
go,triangle.png,space,1590,1.59,2.09,0,12,12,19,,,,,,,,,,,,,,,,,,,,,,,,,84.99088249995839,85.49212239996996,85.47571189998416,87.0774298000033,space,1,84.99088249995839,84.99088249995839,0.2516350999940187,,,,,,,11009,001,2024_Jan_01_1640,gonogo_T,2021.2.3,59.74122490795418,
go,triangle.png,space,1246,1.246,1.746,0,13,13,87,,,,,,,,,,,,,,,,,,,,,,,,,87.09443549998105,87.59485910000512,87.57833270000992,88.82978400000138,space,1,87.09443549998105,87.09443549998105,0.3401602999656461,,,,,,,11009,001,2024_Jan_01_1640,gonogo_T,2021.2.3,59.74122490795418,
go,triangle.png,space,1154,1.154,1.654,0,14,14,71,,,,,,,,,,,,,,,,,,,,,,,,,88.84655869996641,89.34809769998537,89.33075399999507,None,space,1,88.84655869996641,88.84655869996641,0.38036720000673085,,,,,,,11009,001,2024_Jan_01_1640,gonogo_T,2021.2.3,59.74122490795418,
go,triangle.png,space,1386,1.386,1.886,0,15,15,83,,,,,,,,,,,,,,,,,,,,,,,,,90.50013439997565,91.00058369996259,90.98329000000376,92.36928459996125,space,1,90.50013439997565,90.50013439997565,0.3105259999865666,,,,,,,11009,001,2024_Jan_01_1640,gonogo_T,2021.2.3,59.74122490795418,
nogo,square.png,None,1379,1.379,1.879,0,16,16,84,,,,,,,,,,,,,,,,,,,,,,,,,92.38525950000621,92.88592619996052,92.86915029998636,94.25520469999174,None,1,92.38525950000621,92.38525950000621,,,,,,,,11009,001,2024_Jan_01_1640,gonogo_T,2021.2.3,59.74122490795418,
nogo,square.png,None,1913,1.913,2.413,0,17,17,36,,,,,,,,,,,,,,,,,,,,,,,,,94.27165859995876,94.77293289999943,94.75546889996622,96.67551119998097,None,1,94.27165859995876,94.27165859995876,,,,,,,,11009,001,2024_Jan_01_1640,gonogo_T,2021.2.3,59.74122490795418,
go,triangle.png,space,1357,1.357,1.857,0,18,18,29,,,,,,,,,,,,,,,,,,,,,,,,,96.69229829998221,97.19432730000699,97.17641650000587,98.54550249996828,space,1,96.69229829998221,96.69229829998221,0.4306057000067085,,,,,,,11009,001,2024_Jan_01_1640,gonogo_T,2021.2.3,59.74122490795418,
go,triangle.png,space,1447,1.447,1.947,0,19,19,7,,,,,,,,,,,,,,,,,,,,,,,,,98.56096749997232,99.06224349996774,99.04594240000006,100.49830899998778,space,1,98.56096749997232,98.56096749997232,0.27351939998334274,,,,,,,11009,001,2024_Jan_01_1640,gonogo_T,2021.2.3,59.74122490795418,
go,triangle.png,space,1979,1.979,2.479,0,20,20,93,,,,,,,,,,,,,,,,,,,,,,,,,100.51424489996862,101.0147380999988,100.99797169998055,102.98435779998545,space,1,100.51424489996862,100.51424489996862,0.2564079000148922,,,,,,,11009,001,2024_Jan_01_1640,gonogo_T,2021.2.3,59.74122490795418,
go,triangle.png,space,1960,1.96,2.46,0,21,21,31,,,,,,,,,,,,,,,,,,,,,,,,,103.00128490000498,103.5017631999799,103.48517179995542,105.4547947999672,space,1,103.00128490000498,103.00128490000498,0.3134489000076428,,,,,,,11009,001,2024_Jan_01_1640,gonogo_T,2021.2.3,59.74122490795418,
go,triangle.png,space,1566,1.566,2.066,0,22,22,25,,,,,,,,,,,,,,,,,,,,,,,,,105.47143959999084,105.97310639999341,105.95566330000293,107.52525279996917,space,1,105.47143959999084,105.47143959999084,0.2750063000130467,,,,,,,11009,001,2024_Jan_01_1640,gonogo_T,2021.2.3,59.74122490795418,
go,triangle.png,space,1002,1.002,1.502,0,23,23,34,,,,,,,,,,,,,,,,,,,,,,,,,107.54207409999799,108.04241059999913,108.02656510000816,None,space,1,107.54207409999799,107.54207409999799,0.3498801999958232,,,,,,,11009,001,2024_Jan_01_1640,gonogo_T,2021.2.3,59.74122490795418,
go,triangle.png,space,1233,1.233,1.733,0,24,24,46,,,,,,,,,,,,,,,,,,,,,,,,,109.04346199997235,109.5438867000048,109.52723969996441,110.76256060000742,space,1,109.04346199997235,109.04346199997235,0.36790040001505986,,,,,,,11009,001,2024_Jan_01_1640,gonogo_T,2021.2.3,59.74122490795418,
go,triangle.png,space,1036,1.036,1.536,0,25,25,70,,,,,,,,,,,,,,,,,,,,,,,,,110.77925169997616,111.28026169998338,111.26336439995794,None,space,1,110.77925169997616,110.77925169997616,0.352014500007499,,,,,,,11009,001,2024_Jan_01_1640,gonogo_T,2021.2.3,59.74122490795418,
go,triangle.png,space,1796,1.796,2.296,0,26,26,58,,,,,,,,,,,,,,,,,,,,,,,,,112.31588010000996,112.81585189996986,112.79932469996857,114.60151989996666,space,1,112.31588010000996,112.31588010000996,0.27902880002511665,,,,,,,11009,001,2024_Jan_01_1640,gonogo_T,2021.2.3,59.74122490795418,
go,triangle.png,space,1575,1.575,2.075,0,27,27,33,,,,,,,,,,,,,,,,,,,,,,,,,114.61822399997618,115.11922399996547,115.10276549996343,116.68862619996071,space,1,114.61822399997618,114.61822399997618,0.32039259996963665,,,,,,,11009,001,2024_Jan_01_1640,gonogo_T,2021.2.3,59.74122490795418,
go,triangle.png,space,1962,1.962,2.462,0,28,28,74,,,,,,,,,,,,,,,,,,,,,,,,,116.7049510999932,117.20556059997762,117.18945249996614,119.15834889997495,space,1,116.7049510999932,116.7049510999932,0.2896658999961801,,,,,,,11009,001,2024_Jan_01_1640,gonogo_T,2021.2.3,59.74122490795418,
go,triangle.png,space,1739,1.739,2.239,0,29,29,17,,,,,,,,,,,,,,,,,,,,,,,,,119.1751030999585,119.67594169999938,119.66003899998032,None,space,1,119.1751030999585,119.1751030999585,0.24347250000573695,,,,,,,11009,001,2024_Jan_01_1640,gonogo_T,2021.2.3,59.74122490795418,
nogo,square.png,None,1776,1.776,2.276,0,30,30,8,,,,,,,,,,,,,,,,,,,,,,,,,121.41168879996985,121.91227069997694,121.89590409997618,123.6814827999915,None,1,121.41168879996985,121.41168879996985,,,,,,,,11009,001,2024_Jan_01_1640,gonogo_T,2021.2.3,59.74122490795418,
go,triangle.png,space,1869,1.869,2.369,0,31,31,59,,,,,,,,,,,,,,,,,,,,,,,,,123.69862199999625,124.19941050000489,124.18244269996649,126.05188899999484,space,1,123.69862199999625,123.69862199999625,0.46449000004213303,,,,,,,11009,001,2024_Jan_01_1640,gonogo_T,2021.2.3,59.74122490795418,
go,triangle.png,space,1806,1.806,2.306,0,32,32,85,,,,,,,,,,,,,,,,,,,,,,,,,126.0683515999699,126.56938179995632,126.5528697000118,128.37194809998618,space,1,126.0683515999699,126.0683515999699,0.29425720003200695,,,,,,,11009,001,2024_Jan_01_1640,gonogo_T,2021.2.3,59.74122490795418,
go,triangle.png,space,1594,1.594,2.094,0,33,33,38,,,,,,,,,,,,,,,,,,,,,,,,,128.38864540000213,128.88972159998957,128.87340839998797,130.4763510999619,space,1,128.38864540000213,128.38864540000213,0.26223980000941083,,,,,,,11009,001,2024_Jan_01_1640,gonogo_T,2021.2.3,59.74122490795418,
go,triangle.png,space,1641,1.641,2.141,0,34,34,86,,,,,,,,,,,,,,,,,,,,,,,,,130.49247359996662,130.9938836999936,130.97618309996324,132.6289206999936,space,1,130.49247359996662,130.49247359996662,0.28676719998475164,,,,,,,11009,001,2024_Jan_01_1640,gonogo_T,2021.2.3,59.74122490795418,
nogo,square.png,None,1518,1.518,2.018,0,35,35,56,,,,,,,,,,,,,,,,,,,,,,,,,132.64497709996067,133.1461262999801,133.1296330000041,134.64826330001233,None,1,132.64497709996067,132.64497709996067,,,,,,,,11009,001,2024_Jan_01_1640,gonogo_T,2021.2.3,59.74122490795418,
go,triangle.png,space,1582,1.582,2.082,0,36,36,67,,,,,,,,,,,,,,,,,,,,,,,,,134.66529809997883,135.1653040999663,135.14896510000108,136.73442100000102,space,1,134.66529809997883,134.66529809997883,0.4177540999953635,,,,,,,11009,001,2024_Jan_01_1640,gonogo_T,2021.2.3,59.74122490795418,
nogo,square.png,None,1165,1.165,1.665,0,37,37,76,,,,,,,,,,,,,,,,,,,,,,,,,136.7513401999604,137.25150849996135,137.23528899997473,138.40379349997966,None,1,136.7513401999604,136.7513401999604,,,,,,,,11009,001,2024_Jan_01_1640,gonogo_T,2021.2.3,59.74122490795418,
nogo,square.png,None,1413,1.413,1.913,0,38,38,16,,,,,,,,,,,,,,,,,,,,,,,,,138.42028039996512,138.9211008999846,138.9051850999822,140.32307639997452,None,1,138.42028039996512,138.42028039996512,,,,,,,,11009,001,2024_Jan_01_1640,gonogo_T,2021.2.3,59.74122490795418,
nogo,square.png,None,1102,1.102,1.602,0,39,39,80,,,,,,,,,,,,,,,,,,,,,,,,,140.33994460001122,140.84117889998015,140.82414489996154,141.92570789996535,None,1,140.33994460001122,140.33994460001122,,,,,,,,11009,001,2024_Jan_01_1640,gonogo_T,2021.2.3,59.74122490795418,
go,triangle.png,space,1087,1.087,1.587,0,40,40,50,,,,,,,,,,,,,,,,,,,,,,,,,141.94248969998443,142.4442224999657,142.42606500000693,143.5285408999771,space,1,141.94248969998443,141.94248969998443,0.3961057000560686,,,,,,,11009,001,2024_Jan_01_1640,gonogo_T,2021.2.3,59.74122490795418,
go,triangle.png,space,1973,1.973,2.473,0,41,41,37,,,,,,,,,,,,,,,,,,,,,,,,,143.5448224999709,144.0465186999645,144.02964059996884,None,space,1,143.5448224999709,143.5448224999709,0.29839560005348176,,,,,,,11009,001,2024_Jan_01_1640,gonogo_T,2021.2.3,59.74122490795418,
go,triangle.png,space,1674,1.674,2.174,0,42,42,47,,,,,,,,,,,,,,,,,,,,,,,,,146.01560539996717,146.51618239999516,146.49958389997482,148.18467429996235,space,1,146.01560539996717,146.01560539996717,0.25903549999929965,,,,,,,11009,001,2024_Jan_01_1640,gonogo_T,2021.2.3,59.74122490795418,
go,triangle.png,space,1714,1.714,2.214,0,43,43,22,,,,,,,,,,,,,,,,,,,,,,,,,148.20207979995757,148.70254579995526,148.68543979997048,150.4066051999689,space,1,148.20207979995757,148.20207979995757,0.2889185000094585,,,,,,,11009,001,2024_Jan_01_1640,gonogo_T,2021.2.3,59.74122490795418,
nogo,square.png,None,1139,1.139,1.639,0,44,44,48,,,,,,,,,,,,,,,,,,,,,,,,,150.42150050000055,150.92204119998496,150.90598079998745,152.05711569997948,None,1,150.42150050000055,150.42150050000055,,,,,,,,11009,001,2024_Jan_01_1640,gonogo_T,2021.2.3,59.74122490795418,
nogo,square.png,None,1233,1.233,1.733,0,45,45,44,,,,,,,,,,,,,,,,,,,,,,,,,152.0738029999775,152.57447419996606,152.55778539995663,153.79293349996442,None,1,152.0738029999775,152.0738029999775,,,,,,,,11009,001,2024_Jan_01_1640,gonogo_T,2021.2.3,59.74122490795418,
go,triangle.png,space,1791,1.791,2.291,0,46,46,55,,,,,,,,,,,,,,,,,,,,,,,,,153.81021399999736,154.31021709996276,154.2938814999652,156.09639640001114,space,1,153.81021399999736,153.81021399999736,0.3843565999995917,,,,,,,11009,001,2024_Jan_01_1640,gonogo_T,2021.2.3,59.74122490795418,
go,triangle.png,space,1806,1.806,2.306,0,47,47,73,,,,,,,,,,,,,,,,,,,,,,,,,156.11375819996465,156.61537580000004,156.59748489997583,158.41728789999615,space,1,156.11375819996465,156.11375819996465,0.3453414000105113,,,,,,,11009,001,2024_Jan_01_1640,gonogo_T,2021.2.3,59.74122490795418,
go,triangle.png,space,1630,1.63,2.13,0,48,48,23,,,,,,,,,,,,,,,,,,,,,,,,,158.43321270000888,158.93397139996523,158.91711799998302,160.55393349996302,space,1,158.43321270000888,158.43321270000888,0.2658435000339523,,,,,,,11009,001,2024_Jan_01_1640,gonogo_T,2021.2.3,59.74122490795418,
go,triangle.png,space,1711,1.711,2.211,0,49,49,65,,,,,,,,,,,,,,,,,,,,,,,,,160.56949560000794,161.0704803999979,161.05367289995775,162.77375359996222,space,1,160.56949560000794,160.56949560000794,0.2815792000037618,,,,,,,11009,001,2024_Jan_01_1640,gonogo_T,2021.2.3,59.74122490795418,
go,triangle.png,space,1761,1.761,2.261,0,50,50,95,,,,,,,,,,,,,,,,,,,,,,,,,162.79045440000482,163.29118110000854,163.2744837999926,165.04291219997685,space,1,162.79045440000482,162.79045440000482,0.26066279999213293,,,,,,,11009,001,2024_Jan_01_1640,gonogo_T,2021.2.3,59.74122490795418,
go,triangle.png,space,1370,1.37,1.87,0,51,51,13,,,,,,,,,,,,,,,,,,,,,,,,,165.06026840000413,165.56074459996307,165.54388770001242,None,space,1,165.06026840000413,165.06026840000413,0.2625724999816157,,,,,,,11009,001,2024_Jan_01_1640,gonogo_T,2021.2.3,59.74122490795418,
go,triangle.png,space,1161,1.161,1.661,0,52,52,62,,,,,,,,,,,,,,,,,,,,,,,,,166.92931109998608,167.42985939997016,167.41408349998528,168.5816397999879,space,1,166.92931109998608,166.92931109998608,0.28177139995386824,,,,,,,11009,001,2024_Jan_01_1640,gonogo_T,2021.2.3,59.74122490795418,
go,triangle.png,space,1445,1.445,1.945,0,53,53,5,,,,,,,,,,,,,,,,,,,,,,,,,168.59915099997306,169.10124129999895,169.08231009996962,170.53466269996716,space,1,168.59915099997306,168.59915099997306,0.3007538000238128,,,,,,,11009,001,2024_Jan_01_1640,gonogo_T,2021.2.3,59.74122490795418,
nogo,square.png,None,1453,1.453,1.953,0,54,54,12,,,,,,,,,,,,,,,,,,,,,,,,,170.55186279996997,171.0521141999634,171.0350952000008,172.48765369999455,None,1,170.55186279996997,170.55186279996997,,,,,,,,11009,001,2024_Jan_01_1640,gonogo_T,2021.2.3,59.74122490795418,
nogo,square.png,None,1467,1.467,1.967,0,55,55,72,,,,,,,,,,,,,,,,,,,,,,,,,172.50396880001063,173.0051051999908,172.98871169995982,174.45755429996643,None,1,172.50396880001063,172.50396880001063,,,,,,,,11009,001,2024_Jan_01_1640,gonogo_T,2021.2.3,59.74122490795418,
go,triangle.png,space,1478,1.478,1.978,0,56,56,75,,,,,,,,,,,,,,,,,,,,,,,,,174.47400129999733,174.97504629998002,174.95824499998707,176.44406639999943,space,1,174.47400129999733,174.47400129999733,0.44065210002008826,,,,,,,11009,001,2024_Jan_01_1640,gonogo_T,2021.2.3,59.74122490795418,
go,triangle.png,space,1344,1.344,1.844,0,57,57,53,,,,,,,,,,,,,,,,,,,,,,,,,176.46069440001156,176.96061109995935,176.94404119998217,178.29867039999226,space,1,176.46069440001156,176.46069440001156,0.2940298999892548,,,,,,,11009,001,2024_Jan_01_1640,gonogo_T,2021.2.3,59.74122490795418,
go,triangle.png,space,1955,1.955,2.455,0,58,58,35,,,,,,,,,,,,,,,,,,,,,,,,,178.312981199997,178.8156333999941,178.797251699958,180.7677842999692,space,1,178.312981199997,178.312981199997,0.27363180002430454,,,,,,,11009,001,2024_Jan_01_1640,gonogo_T,2021.2.3,59.74122490795418,
nogo,square.png,None,1698,1.698,2.198,0,59,59,32,,,,,,,,,,,,,,,,,,,,,,,,,180.78299939999124,181.28428309998708,181.2678644999978,182.96995419997256,None,1,180.78299939999124,180.78299939999124,,,,,,,,11009,001,2024_Jan_01_1640,gonogo_T,2021.2.3,59.74122490795418,
go,triangle.png,space,1021,1.021,1.521,0,60,60,91,,,,,,,,,,,,,,,,,,,,,,,,,182.9868359999964,183.48747699998785,183.46997509995708,184.50626359996386,space,1,182.9868359999964,182.9868359999964,0.37591959995916113,,,,,,,11009,001,2024_Jan_01_1640,gonogo_T,2021.2.3,59.74122490795418,
nogo,square.png,None,1194,1.194,1.694,0,61,61,24,,,,,,,,,,,,,,,,,,,,,,,,,184.52192879997892,185.02262399997562,185.00615779997315,186.20807230001083,None,1,184.52192879997892,184.52192879997892,,,,,,,,11009,001,2024_Jan_01_1640,gonogo_T,2021.2.3,59.74122490795418,
go,triangle.png,space,1493,1.493,1.993,0,62,62,69,,,,,,,,,,,,,,,,,,,,,,,,,186.2243315000087,186.72542470000917,186.70904320001137,188.21087010001065,space,1,186.2243315000087,186.2243315000087,0.3543346000369638,,,,,,,11009,001,2024_Jan_01_1640,gonogo_T,2021.2.3,59.74122490795418,
go,triangle.png,space,1825,1.825,2.325,0,63,63,10,,,,,,,,,,,,,,,,,,,,,,,,,188.2270978000015,188.72838260000572,188.71171689999755,190.5474425999564,space,1,188.2270978000015,188.2270978000015,0.4156494000344537,,,,,,,11009,001,2024_Jan_01_1640,gonogo_T,2021.2.3,59.74122490795418,
go,triangle.png,space,1280,1.28,1.78,0,64,64,18,,,,,,,,,,,,,,,,,,,,,,,,,190.5647939000046,191.0667967000045,191.04826109996065,192.3332508999738,space,1,190.5647939000046,190.5647939000046,0.26979749999009073,,,,,,,11009,001,2024_Jan_01_1640,gonogo_T,2021.2.3,59.74122490795418,
go,triangle.png,space,1074,1.074,1.574,0,65,65,6,,,,,,,,,,,,,,,,,,,,,,,,,192.35009789996548,192.85088139999425,192.83397539996076,193.91967209998984,space,1,192.35009789996548,192.35009789996548,0.4368739000055939,,,,,,,11009,001,2024_Jan_01_1640,gonogo_T,2021.2.3,59.74122490795418,
nogo,square.png,None,1783,1.783,2.283,0,66,66,60,,,,,,,,,,,,,,,,,,,,,,,,,193.93568359996425,194.4367898000055,194.4204110999708,196.20578809996368,None,1,193.93568359996425,193.93568359996425,,,,,,,,11009,001,2024_Jan_01_1640,gonogo_T,2021.2.3,59.74122490795418,
go,triangle.png,space,1716,1.716,2.216,0,67,67,14,,,,,,,,,,,,,,,,,,,,,,,,,196.22296139999526,196.7239627999952,196.7067618999863,198.42635759996483,space,1,196.22296139999526,196.22296139999526,0.35572859999956563,,,,,,,11009,001,2024_Jan_01_1640,gonogo_T,2021.2.3,59.74122490795418,
go,triangle.png,space,1095,1.095,1.595,0,68,68,63,,,,,,,,,,,,,,,,,,,,,,,,,198.4425629999605,198.94339229998877,198.92741399997612,200.02868200000376,space,1,198.4425629999605,198.4425629999605,0.2884139000088908,,,,,,,11009,001,2024_Jan_01_1640,gonogo_T,2021.2.3,59.74122490795418,
go,triangle.png,space,1437,1.437,1.937,0,69,69,45,,,,,,,,,,,,,,,,,,,,,,,,,200.04492279997794,200.54556279996177,200.52869439998176,None,space,1,200.04492279997794,200.04492279997794,0.35044780001044273,,,,,,,11009,001,2024_Jan_01_1640,gonogo_T,2021.2.3,59.74122490795418,
go,triangle.png,space,1217,1.217,1.717,0,70,70,1,,,,,,,,,,,,,,,,,,,,,,,,,201.98191029997543,202.4820810999954,202.46548700000858,203.68497939995723,space,1,201.98191029997543,201.98191029997543,0.317744700005278,,,,,,,11009,001,2024_Jan_01_1640,gonogo_T,2021.2.3,59.74122490795418,
nogo,square.png,None,1895,1.895,2.395,0,71,71,4,,,,,,,,,,,,,,,,,,,,,,,,,203.7005046000122,204.2026590000023,204.18462680000812,206.0870525999926,None,1,203.7005046000122,203.7005046000122,,,,,,,,11009,001,2024_Jan_01_1640,gonogo_T,2021.2.3,59.74122490795418,
go,triangle.png,space,1767,1.767,2.267,0,72,72,77,,,,,,,,,,,,,,,,,,,,,,,,,206.10369809996337,206.60524429997895,206.5884411999723,208.35785899998154,space,1,206.10369809996337,206.10369809996337,0.3391824000282213,,,,,,,11009,001,2024_Jan_01_1640,gonogo_T,2021.2.3,59.74122490795418,
go,triangle.png,space,1323,1.323,1.823,0,73,73,21,,,,,,,,,,,,,,,,,,,,,,,,,208.37376009998843,208.8755854999763,208.85823640000308,210.19350130000385,space,1,208.37376009998843,208.37376009998843,0.29310419998364523,,,,,,,11009,001,2024_Jan_01_1640,gonogo_T,2021.2.3,59.74122490795418,
go,triangle.png,space,1388,1.388,1.888,0,74,74,9,,,,,,,,,,,,,,,,,,,,,,,,,210.20986880001146,210.7105644000112,210.69426029996248,212.09591929998714,space,1,210.20986880001146,210.20986880001146,0.34519289998570457,,,,,,,11009,001,2024_Jan_01_1640,gonogo_T,2021.2.3,59.74122490795418,
go,triangle.png,space,1918,1.918,2.418,0,75,75,3,,,,,,,,,,,,,,,,,,,,,,,,,212.11266619997332,212.61400140001206,212.5968585999799,214.51613679999718,space,1,212.11266619997332,212.11266619997332,0.33809509995626286,,,,,,,11009,001,2024_Jan_01_1640,gonogo_T,2021.2.3,59.74122490795418,
go,triangle.png,space,1866,1.866,2.366,0,76,76,42,,,,,,,,,,,,,,,,,,,,,,,,,214.5332325999625,215.03398439998273,215.016947600001,216.88641440001084,space,1,214.5332325999625,214.5332325999625,0.3024472999968566,,,,,,,11009,001,2024_Jan_01_1640,gonogo_T,2021.2.3,59.74122490795418,
go,triangle.png,space,1822,1.822,2.322,0,77,77,26,,,,,,,,,,,,,,,,,,,,,,,,,216.9031136999838,217.40461139997933,217.38735769997584,219.22378000000026,space,1,216.9031136999838,216.9031136999838,0.3075877000228502,,,,,,,11009,001,2024_Jan_01_1640,gonogo_T,2021.2.3,59.74122490795418,
nogo,square.png,None,1611,1.611,2.111,0,78,78,28,,,,,,,,,,,,,,,,,,,,,,,,,219.239917400002,219.74077490001218,219.72444829996675,221.34368799999356,None,1,219.239917400002,219.239917400002,,,,,,,,11009,001,2024_Jan_01_1640,gonogo_T,2021.2.3,59.74122490795418,
go,triangle.png,space,1589,1.589,2.089,0,79,79,39,,,,,,,,,,,,,,,,,,,,,,,,,221.3601318000001,221.8605353999883,221.84462170000188,223.4485726999701,space,1,221.3601318000001,221.3601318000001,0.40264799998840317,,,,,,,11009,001,2024_Jan_01_1640,gonogo_T,2021.2.3,59.74122490795418,
go,triangle.png,space,1074,1.074,1.574,0,80,80,41,,,,,,,,,,,,,,,,,,,,,,,,,223.46349880000344,223.96478899999056,223.94794569996884,225.03186569997342,space,1,223.46349880000344,223.46349880000344,0.35536720004165545,,,,,,,11009,001,2024_Jan_01_1640,gonogo_T,2021.2.3,59.74122490795418,
go,triangle.png,space,1052,1.052,1.552,0,81,81,89,,,,,,,,,,,,,,,,,,,,,,,,,225.04875829996308,225.5493592999992,225.5325259999954,226.58511899999576,space,1,225.04875829996308,225.04875829996308,0.3859124999726191,,,,,,,11009,001,2024_Jan_01_1640,gonogo_T,2021.2.3,59.74122490795418,
go,triangle.png,space,1320,1.32,1.82,0,82,82,54,,,,,,,,,,,,,,,,,,,,,,,,,226.60091420001118,227.1021629999741,227.0851387999719,228.4041872000089,space,1,226.60091420001118,226.60091420001118,0.28977709996979684,,,,,,,11009,001,2024_Jan_01_1640,gonogo_T,2021.2.3,59.74122490795418,
nogo,square.png,None,1600,1.6,2.1,0,83,83,92,,,,,,,,,,,,,,,,,,,,,,,,,228.4209463999723,228.9211978999665,228.90512329997728,230.50713209999958,None,1,228.4209463999723,228.4209463999723,,,,,,,,11009,001,2024_Jan_01_1640,gonogo_T,2021.2.3,59.74122490795418,
nogo,square.png,None,1337,1.337,1.837,0,84,84,64,,,,,,,,,,,,,,,,,,,,,,,,,230.52339649997884,231.02452729997458,231.00830419996055,None,None,1,230.52339649997884,230.52339649997884,,,,,,,,11009,001,2024_Jan_01_1640,gonogo_T,2021.2.3,59.74122490795418,
go,triangle.png,space,1940,1.94,2.44,0,85,85,49,,,,,,,,,,,,,,,,,,,,,,,,,232.35983699996723,232.86022029997548,232.84337859996594,234.79706959996838,space,1,232.35983699996723,232.35983699996723,0.29097979998914525,,,,,,,11009,001,2024_Jan_01_1640,gonogo_T,2021.2.3,59.74122490795418,
go,triangle.png,space,1457,1.457,1.957,0,86,86,66,,,,,,,,,,,,,,,,,,,,,,,,,234.81295399996452,235.31379109999398,235.29709969996475,236.7667775999871,space,1,234.81295399996452,234.81295399996452,0.30203920003259555,,,,,,,11009,001,2024_Jan_01_1640,gonogo_T,2021.2.3,59.74122490795418,
go,triangle.png,space,1630,1.63,2.13,0,87,87,79,,,,,,,,,,,,,,,,,,,,,,,,,236.782697299961,237.2844087999547,237.26756509998813,238.9030025000102,space,1,236.782697299961,236.782697299961,0.28436380001949146,,,,,,,11009,001,2024_Jan_01_1640,gonogo_T,2021.2.3,59.74122490795418,
go,triangle.png,space,1879,1.879,2.379,0,88,88,11,,,,,,,,,,,,,,,,,,,,,,,,,238.91976369998883,239.4196910999599,239.40319189999718,241.28928299999097,space,1,238.91976369998883,238.91976369998883,0.2749845999642275,,,,,,,11009,001,2024_Jan_01_1640,gonogo_T,2021.2.3,59.74122490795418,
go,triangle.png,space,1466,1.466,1.966,0,89,89,94,,,,,,,,,,,,,,,,,,,,,,,,,241.30623629997717,241.80666989996098,241.79020129999844,243.25995330000296,space,1,241.30623629997717,241.30623629997717,0.24937019997742027,,,,,,,11009,001,2024_Jan_01_1640,gonogo_T,2021.2.3,59.74122490795418,
nogo,square.png,None,1636,1.636,2.136,0,90,90,0,,,,,,,,,,,,,,,,,,,,,,,,,243.27573180000763,243.77651989995502,243.76015849999385,None,None,1,243.27573180000763,243.27573180000763,,,,,,,,11009,001,2024_Jan_01_1640,gonogo_T,2021.2.3,59.74122490795418,
go,triangle.png,space,1003,1.003,1.503,0,91,91,15,,,,,,,,,,,,,,,,,,,,,,,,,245.41211949998979,245.9140774999978,245.8961122999899,246.8986118999892,space,1,245.41211949998979,245.41211949998979,0.37462180003058165,,,,,,,11009,001,2024_Jan_01_1640,gonogo_T,2021.2.3,59.74122490795418,
nogo,square.png,None,1844,1.844,2.344,0,92,92,88,,,,,,,,,,,,,,,,,,,,,,,,,246.91478110000025,247.41523990000132,247.39866070001153,249.25301819999004,None,1,246.91478110000025,246.91478110000025,,,,,,,,11009,001,2024_Jan_01_1640,gonogo_T,2021.2.3,59.74122490795418,
go,triangle.png,space,1262,1.262,1.762,0,93,93,61,,,,,,,,,,,,,,,,,,,,,,,,,249.26783129997784,249.76870209997287,249.75190480001038,251.0215841999743,space,1,249.26783129997784,249.26783129997784,0.3429595999768935,,,,,,,11009,001,2024_Jan_01_1640,gonogo_T,2021.2.3,59.74122490795418,
nogo,square.png,None,1267,1.267,1.767,0,94,94,20,,,,,,,,,,,,,,,,,,,,,,,,,251.03730510000605,251.5378412999562,251.52177200000733,252.7894497999805,None,1,251.03730510000605,251.03730510000605,,,,,,,,11009,001,2024_Jan_01_1640,gonogo_T,2021.2.3,59.74122490795418,
go,triangle.png,space,1991,1.991,2.491,0,95,95,82,,,,,,,,,,,,,,,,,,,,,,,,,252.80613719997928,253.30797349999193,253.29051799996523,255.2937959000119,space,1,252.80613719997928,252.80613719997928,0.3181480999919586,,,,,,,11009,001,2024_Jan_01_1640,gonogo_T,2021.2.3,59.74122490795418,
,,,,,,,,,,,,,,,,,,,,,,,,,,,,,,,,,,,,,,,,,,,255.31057929998497,None,space,5.8924574999837205,255.31057929998497,None,11009,001,2024_Jan_01_1640,gonogo_T,2021.2.3,59.74122490795418,
