TrialType,Path,Correct,ms,s,ks,trials_4.thisRepN,trials_4.thisTrialN,trials_4.thisN,trials_4.thisIndex,welcome.started,welcome.stopped,space.started,space.stopped,key_resp.keys,key_resp.rt,key_resp.started,key_resp.stopped,Fixwarn.started,Fixwarn.stopped,table.started,table.stopped,key_resp__0.keys,key_resp__0.rt,key_resp__0.started,key_resp__0.stopped,type.started,type.stopped,space_3.started,space_3.stopped,key_resp_6.keys,key_resp_6.rt,key_resp_6.started,key_resp_6.stopped,stim_2.started,stim_2.stopped,text_2.started,text_2.stopped,key_resp_9.keys,key_resp_9.corr,key_resp_9.started,key_resp_9.stopped,key_resp_9.rt,END.started,END.stopped,key_resp_2.keys,key_resp_2.rt,key_resp_2.started,key_resp_2.stopped,participant,session,date,expName,psychopyVersion,frameRate,
,,,,,,,,,,8.63258930000302,None,8.63258930000302,None,space,1.5190789999978733,8.63258930000302,None,,,,,,,,,,,,,,,,,,,,,,,,,,,,,,,,11004,001,2023_Dec_29_1401,gonogo_T,2021.2.3,59.60619379958503,
,,,,,,,,,,,,,,,,,,10.168593000002147,None,10.168593000002147,None,space,2.0872577000045567,10.168593000002147,None,,,,,,,,,,,,,,,,,,,,,,,,11004,001,2023_Dec_29_1401,gonogo_T,2021.2.3,59.60619379958503,
,,,,,,,,,,,,,,,,,,,,,,,,,,12.288060300001234,None,12.288060300001234,None,space,21.832139600002847,12.288060300001234,None,,,,,,,,,,,,,,,,11004,001,2023_Dec_29_1401,gonogo_T,2021.2.3,59.60619379958503,
nogo,square.png,None,1413,1.413,1.913,0,0,0,16,,,,,,,,,,,,,,,,,,,,,,,,,34.203620799999044,34.7046857000023,34.68810729999677,36.108374299998104,None,1,34.203620799999044,None,,,,,,,,11004,001,2023_Dec_29_1401,gonogo_T,2021.2.3,59.60619379958503,
go,triangle.png,space,1262,1.262,1.762,0,1,1,61,,,,,,,,,,,,,,,,,,,,,,,,,36.123299699997006,36.624133999997866,36.6079252999989,37.87632989999838,space,1,36.123299699997006,36.123299699997006,0.37246759999834467,,,,,,,11004,001,2023_Dec_29_1401,gonogo_T,2021.2.3,59.60619379958503,
go,triangle.png,space,1796,1.796,2.296,0,2,2,58,,,,,,,,,,,,,,,,,,,,,,,,,37.89328479999676,38.39385760000005,38.37678279999818,40.179233800001384,space,1,37.89328479999676,37.89328479999676,0.4983944000050542,,,,,,,11004,001,2023_Dec_29_1401,gonogo_T,2021.2.3,59.60619379958503,
go,triangle.png,space,1074,1.074,1.574,0,3,3,6,,,,,,,,,,,,,,,,,,,,,,,,,40.19626369999605,40.697790400001395,40.68193690000044,41.76579440000205,space,1,40.19626369999605,40.19626369999605,0.4039526999986265,,,,,,,11004,001,2023_Dec_29_1401,gonogo_T,2021.2.3,59.60619379958503,
go,triangle.png,space,1991,1.991,2.491,0,4,4,82,,,,,,,,,,,,,,,,,,,,,,,,,41.781920499997796,42.283309200000076,42.26573199999984,44.26960410000174,space,1,41.781920499997796,41.781920499997796,0.3936914000005345,,,,,,,11004,001,2023_Dec_29_1401,gonogo_T,2021.2.3,59.60619379958503,
go,triangle.png,space,1246,1.246,1.746,0,5,5,87,,,,,,,,,,,,,,,,,,,,,,,,,44.28617249999661,44.78706660000171,44.76939719999791,46.02200640000228,space,1,44.28617249999661,44.28617249999661,0.38580930000171065,,,,,,,11004,001,2023_Dec_29_1401,gonogo_T,2021.2.3,59.60619379958503,
go,triangle.png,space,1386,1.386,1.886,0,6,6,83,,,,,,,,,,,,,,,,,,,,,,,,,46.03849489999993,46.53944419999607,46.52300390000164,None,space,1,46.03849489999993,46.03849489999993,0.3455123000021558,,,,,,,11004,001,2023_Dec_29_1401,gonogo_T,2021.2.3,59.60619379958503,
go,triangle.png,space,1940,1.94,2.44,0,7,7,49,,,,,,,,,,,,,,,,,,,,,,,,,47.92429760000232,48.42584599999827,48.40918000000238,50.36350890000176,space,1,47.92429760000232,47.92429760000232,0.3237211000014213,,,,,,,11004,001,2023_Dec_29_1401,gonogo_T,2021.2.3,59.60619379958503,
nogo,square.png,None,1913,1.913,2.413,0,8,8,36,,,,,,,,,,,,,,,,,,,,,,,,,50.377878899998905,50.88001329999679,50.86207139999897,52.78199129999848,None,1,50.377878899998905,50.377878899998905,,,,,,,,11004,001,2023_Dec_29_1401,gonogo_T,2021.2.3,59.60619379958503,
go,triangle.png,space,1437,1.437,1.937,0,9,9,45,,,,,,,,,,,,,,,,,,,,,,,,,52.79901499999687,53.29959960000269,53.282294800003,54.718300100001215,space,1,52.79901499999687,52.79901499999687,0.28874440000072354,,,,,,,11004,001,2023_Dec_29_1401,gonogo_T,2021.2.3,59.60619379958503,
go,triangle.png,space,1329,1.329,1.829,0,10,10,27,,,,,,,,,,,,,,,,,,,,,,,,,54.73579130000144,55.23583730000246,55.2188995999968,56.55421370000113,space,1,54.73579130000144,54.73579130000144,0.24827960000402527,,,,,,,11004,001,2023_Dec_29_1401,gonogo_T,2021.2.3,59.60619379958503,
nogo,square.png,None,1337,1.337,1.837,0,11,11,64,,,,,,,,,,,,,,,,,,,,,,,,,56.57025419999991,57.07288040000276,57.054455899997265,None,space,0,56.57025419999991,56.57025419999991,0.24526609999884386,,,,,,,11004,001,2023_Dec_29_1401,gonogo_T,2021.2.3,59.60619379958503,
nogo,square.png,None,1379,1.379,1.879,0,12,12,84,,,,,,,,,,,,,,,,,,,,,,,,,58.406432399999176,58.90856720000011,58.890430799998285,60.27601560000039,None,1,58.406432399999176,58.406432399999176,,,,,,,,11004,001,2023_Dec_29_1401,gonogo_T,2021.2.3,59.60619379958503,
go,triangle.png,space,1866,1.866,2.366,0,13,13,42,,,,,,,,,,,,,,,,,,,,,,,,,60.29287969999859,60.793859400000656,60.77672970000276,62.64662089999911,space,1,60.29287969999859,60.29287969999859,0.2426973000037833,,,,,,,11004,001,2023_Dec_29_1401,gonogo_T,2021.2.3,59.60619379958503,
nogo,square.png,None,1131,1.131,1.631,0,14,14,52,,,,,,,,,,,,,,,,,,,,,,,,,62.66285439999774,63.164011000000755,63.14701049999712,64.28365889999986,None,1,62.66285439999774,62.66285439999774,,,,,,,,11004,001,2023_Dec_29_1401,gonogo_T,2021.2.3,59.60619379958503,
go,triangle.png,space,1791,1.791,2.291,0,15,15,55,,,,,,,,,,,,,,,,,,,,,,,,,64.29966779999813,64.80054999999993,64.78335160000279,66.58571149999625,space,1,64.29966779999813,64.29966779999813,0.29180210000049556,,,,,,,11004,001,2023_Dec_29_1401,gonogo_T,2021.2.3,59.60619379958503,
go,triangle.png,space,1323,1.323,1.823,0,16,16,21,,,,,,,,,,,,,,,,,,,,,,,,,66.60203049999836,67.10341979999794,67.0867212000012,68.4220576000007,space,1,66.60203049999836,66.60203049999836,0.3415796999979648,,,,,,,11004,001,2023_Dec_29_1401,gonogo_T,2021.2.3,59.60619379958503,
go,triangle.png,space,1450,1.45,1.95,0,17,17,78,,,,,,,,,,,,,,,,,,,,,,,,,68.43800329999794,68.9395005999977,68.9227671999979,70.37431059999653,space,1,68.43800329999794,68.43800329999794,0.3375928000023123,,,,,,,11004,001,2023_Dec_29_1401,gonogo_T,2021.2.3,59.60619379958503,
go,triangle.png,space,1590,1.59,2.09,0,18,18,19,,,,,,,,,,,,,,,,,,,,,,,,,70.39082339999732,70.89214119999815,70.87521389999893,72.47848330000124,space,1,70.39082339999732,70.39082339999732,0.42477060000237543,,,,,,,11004,001,2023_Dec_29_1401,gonogo_T,2021.2.3,59.60619379958503,
go,triangle.png,space,1532,1.532,2.032,0,19,19,2,,,,,,,,,,,,,,,,,,,,,,,,,72.494091200002,72.99551659999997,72.97865989999991,74.51383209999767,space,1,72.494091200002,72.494091200002,0.35363470000447705,,,,,,,11004,001,2023_Dec_29_1401,gonogo_T,2021.2.3,59.60619379958503,
go,triangle.png,space,1329,1.329,1.829,0,20,20,90,,,,,,,,,,,,,,,,,,,,,,,,,74.53002910000214,75.0318608000016,75.0152201000019,76.34986149999895,space,1,74.53002910000214,74.53002910000214,0.28668439999455586,,,,,,,11004,001,2023_Dec_29_1401,gonogo_T,2021.2.3,59.60619379958503,
go,triangle.png,space,1388,1.388,1.888,0,21,21,9,,,,,,,,,,,,,,,,,,,,,,,,,76.36643309999636,76.86814120000054,76.8511451000013,78.25309589999961,space,1,76.36643309999636,76.36643309999636,0.29743439999583643,,,,,,,11004,001,2023_Dec_29_1401,gonogo_T,2021.2.3,59.60619379958503,
nogo,square.png,None,1194,1.194,1.694,0,22,22,24,,,,,,,,,,,,,,,,,,,,,,,,,78.2699661000006,78.77076900000247,78.75338979999651,79.95548560000316,None,1,78.2699661000006,78.2699661000006,,,,,,,,11004,001,2023_Dec_29_1401,gonogo_T,2021.2.3,59.60619379958503,
go,triangle.png,space,1280,1.28,1.78,0,23,23,18,,,,,,,,,,,,,,,,,,,,,,,,,79.97208359999786,80.47292469999957,80.45665220000228,81.741723799998,space,1,79.97208359999786,79.97208359999786,0.36424690000421833,,,,,,,11004,001,2023_Dec_29_1401,gonogo_T,2021.2.3,59.60619379958503,
go,triangle.png,space,1674,1.674,2.174,0,24,24,47,,,,,,,,,,,,,,,,,,,,,,,,,81.75818440000148,82.25915839999652,82.24239939999825,83.92817079999804,space,1,81.75818440000148,81.75818440000148,0.42549119999603136,,,,,,,11004,001,2023_Dec_29_1401,gonogo_T,2021.2.3,59.60619379958503,
nogo,square.png,None,1233,1.233,1.733,0,25,25,44,,,,,,,,,,,,,,,,,,,,,,,,,83.94430730000022,84.44509290000133,84.42875059999642,85.66349040000205,None,1,83.94430730000022,83.94430730000022,,,,,,,,11004,001,2023_Dec_29_1401,gonogo_T,2021.2.3,59.60619379958503,
go,triangle.png,space,1445,1.445,1.945,0,26,26,5,,,,,,,,,,,,,,,,,,,,,,,,,85.6802125999966,86.18108930000017,86.1643613999986,87.61717820000194,space,1,85.6802125999966,85.6802125999966,0.3915640999985044,,,,,,,11004,001,2023_Dec_29_1401,gonogo_T,2021.2.3,59.60619379958503,
go,triangle.png,space,1869,1.869,2.369,0,27,27,59,,,,,,,,,,,,,,,,,,,,,,,,,87.63408940000227,88.1345708000008,88.11697730000014,89.98736259999714,space,1,87.63408940000227,87.63408940000227,0.2299297999998089,,,,,,,11004,001,2023_Dec_29_1401,gonogo_T,2021.2.3,59.60619379958503,
nogo,square.png,None,1611,1.611,2.111,0,28,28,28,,,,,,,,,,,,,,,,,,,,,,,,,90.00419810000312,90.5044379999963,90.48869520000153,92.10701400000107,space,0,90.00419810000312,90.00419810000312,0.23561640000116313,,,,,,,11004,001,2023_Dec_29_1401,gonogo_T,2021.2.3,59.60619379958503,
nogo,square.png,None,1776,1.776,2.276,0,29,29,8,,,,,,,,,,,,,,,,,,,,,,,,,92.12311139999656,92.62365439999849,92.60740459999943,94.39381500000309,None,1,92.12311139999656,92.12311139999656,,,,,,,,11004,001,2023_Dec_29_1401,gonogo_T,2021.2.3,59.60619379958503,
go,triangle.png,space,1806,1.806,2.306,0,30,30,73,,,,,,,,,,,,,,,,,,,,,,,,,94.40986079999857,94.91110019999905,94.89415030000237,96.71392930000002,space,1,94.40986079999857,94.40986079999857,0.3179147000046214,,,,,,,11004,001,2023_Dec_29_1401,gonogo_T,2021.2.3,59.60619379958503,
nogo,square.png,None,1467,1.467,1.967,0,31,31,72,,,,,,,,,,,,,,,,,,,,,,,,,96.72992320000048,97.23160720000305,97.21470479999698,98.6836598000009,None,1,96.72992320000048,96.72992320000048,,,,,,,,11004,001,2023_Dec_29_1401,gonogo_T,2021.2.3,59.60619379958503,
go,triangle.png,space,1052,1.052,1.552,0,32,32,89,,,,,,,,,,,,,,,,,,,,,,,,,98.69949369999813,99.20116219999909,99.18436240000301,None,space,1,98.69949369999813,98.69949369999813,0.31645819999539526,,,,,,,11004,001,2023_Dec_29_1401,gonogo_T,2021.2.3,59.60619379958503,
nogo,square.png,None,1600,1.6,2.1,0,33,33,92,,,,,,,,,,,,,,,,,,,,,,,,,100.25207709999813,100.75384540000232,100.73586860000069,102.33851960000175,None,1,100.25207709999813,100.25207709999813,,,,,,,,11004,001,2023_Dec_29_1401,gonogo_T,2021.2.3,59.60619379958503,
go,triangle.png,space,1955,1.955,2.455,0,34,34,35,,,,,,,,,,,,,,,,,,,,,,,,,102.35490320000099,102.8570034000004,102.83954470000026,104.80927830000292,space,1,102.35490320000099,102.35490320000099,0.28480239999771584,,,,,,,11004,001,2023_Dec_29_1401,gonogo_T,2021.2.3,59.60619379958503,
go,triangle.png,space,1594,1.594,2.094,0,35,35,38,,,,,,,,,,,,,,,,,,,,,,,,,104.82601219999924,105.3259074000016,105.30995029999758,106.91364199999953,space,1,104.82601219999924,104.82601219999924,0.3497332999977516,,,,,,,11004,001,2023_Dec_29_1401,gonogo_T,2021.2.3,59.60619379958503,
go,triangle.png,space,1021,1.021,1.521,0,36,36,91,,,,,,,,,,,,,,,,,,,,,,,,,106.92821859999822,107.4295065999977,107.41231479999988,108.4489814999979,space,1,106.92821859999822,106.92821859999822,0.3674585999979172,,,,,,,11004,001,2023_Dec_29_1401,gonogo_T,2021.2.3,59.60619379958503,
go,triangle.png,space,1357,1.357,1.857,0,37,37,29,,,,,,,,,,,,,,,,,,,,,,,,,108.46390280000196,108.96463280000171,108.94734949999838,110.3173506000021,space,1,108.46390280000196,108.46390280000196,0.43208620000223164,,,,,,,11004,001,2023_Dec_29_1401,gonogo_T,2021.2.3,59.60619379958503,
go,triangle.png,space,1739,1.739,2.239,0,38,38,17,,,,,,,,,,,,,,,,,,,,,,,,,110.3338939000023,110.83534959999815,110.81748530000186,112.57042170000204,space,1,110.3338939000023,110.3338939000023,0.3460285000037402,,,,,,,11004,001,2023_Dec_29_1401,gonogo_T,2021.2.3,59.60619379958503,
nogo,square.png,None,1165,1.165,1.665,0,39,39,76,,,,,,,,,,,,,,,,,,,,,,,,,112.58749979999993,113.08810880000237,113.07086819999677,114.23977939999895,None,1,112.58749979999993,112.58749979999993,,,,,,,,11004,001,2023_Dec_29_1401,gonogo_T,2021.2.3,59.60619379958503,
go,triangle.png,space,1320,1.32,1.82,0,40,40,54,,,,,,,,,,,,,,,,,,,,,,,,,114.25599679999868,114.7570293999961,114.7402832000007,116.05910569999833,space,1,114.25599679999868,114.25599679999868,0.35171120000450173,,,,,,,11004,001,2023_Dec_29_1401,gonogo_T,2021.2.3,59.60619379958503,
go,triangle.png,space,1979,1.979,2.479,0,41,41,93,,,,,,,,,,,,,,,,,,,,,,,,,116.07527110000228,116.57597610000084,116.55956960000185,118.5468372999967,space,1,116.07527110000228,116.07527110000228,0.34849060000124155,,,,,,,11004,001,2023_Dec_29_1401,gonogo_T,2021.2.3,59.60619379958503,
nogo,square.png,None,1783,1.783,2.283,0,42,42,60,,,,,,,,,,,,,,,,,,,,,,,,,118.56244940000033,119.06300750000082,119.04639930000121,120.83323830000154,None,1,118.56244940000033,118.56244940000033,,,,,,,,11004,001,2023_Dec_29_1401,gonogo_T,2021.2.3,59.60619379958503,
go,triangle.png,space,1962,1.962,2.462,0,43,43,74,,,,,,,,,,,,,,,,,,,,,,,,,120.85036630000104,121.35027360000095,121.33318970000255,123.30264129999705,space,1,120.85036630000104,120.85036630000104,0.3094674000021769,,,,,,,11004,001,2023_Dec_29_1401,gonogo_T,2021.2.3,59.60619379958503,
go,triangle.png,space,1529,1.529,2.029,0,44,44,51,,,,,,,,,,,,,,,,,,,,,,,,,123.32048670000222,123.82077920000302,123.80428240000037,125.3390550999975,space,1,123.32048670000222,123.32048670000222,0.3271789999998873,,,,,,,11004,001,2023_Dec_29_1401,gonogo_T,2021.2.3,59.60619379958503,
go,triangle.png,space,1180,1.18,1.68,0,45,45,81,,,,,,,,,,,,,,,,,,,,,,,,,125.35556519999955,125.85648670000228,125.84051819999877,127.02545180000016,space,1,125.35556519999955,125.35556519999955,0.3005585999999312,,,,,,,11004,001,2023_Dec_29_1401,gonogo_T,2021.2.3,59.60619379958503,
go,triangle.png,space,1154,1.154,1.654,0,46,46,71,,,,,,,,,,,,,,,,,,,,,,,,,127.04158910000115,127.54217939999944,127.52545290000126,None,space,1,127.04158910000115,127.04158910000115,0.3100555000055465,,,,,,,11004,001,2023_Dec_29_1401,gonogo_T,2021.2.3,59.60619379958503,
go,triangle.png,space,1233,1.233,1.733,0,47,47,46,,,,,,,,,,,,,,,,,,,,,,,,,128.69457449999754,129.19606919999933,129.17865029999666,130.41379020000022,space,1,128.69457449999754,128.69457449999754,0.24956550000206335,,,,,,,11004,001,2023_Dec_29_1401,gonogo_T,2021.2.3,59.60619379958503,
go,triangle.png,space,1651,1.651,2.151,0,48,48,30,,,,,,,,,,,,,,,,,,,,,,,,,130.42985639999824,130.93073970000114,130.9148079000006,132.5664117999986,space,1,130.42985639999824,130.42985639999824,0.2500060000020312,,,,,,,11004,001,2023_Dec_29_1401,gonogo_T,2021.2.3,59.60619379958503,
go,triangle.png,space,1918,1.918,2.418,0,49,49,3,,,,,,,,,,,,,,,,,,,,,,,,,132.58308599999873,133.08375630000228,133.067123599998,134.9886828000017,space,1,132.58308599999873,132.58308599999873,0.3050820999997086,,,,,,,11004,001,2023_Dec_29_1401,gonogo_T,2021.2.3,59.60619379958503,
nogo,square.png,None,1414,1.414,1.914,0,50,50,68,,,,,,,,,,,,,,,,,,,,,,,,,135.00326849999692,135.50458359999902,135.4877142999976,136.90742599999794,None,1,135.00326849999692,135.00326849999692,,,,,,,,11004,001,2023_Dec_29_1401,gonogo_T,2021.2.3,59.60619379958503,
nogo,square.png,None,1698,1.698,2.198,0,51,51,32,,,,,,,,,,,,,,,,,,,,,,,,,136.92291110000224,137.4238114999971,137.4074888000032,139.1100987000027,None,1,136.92291110000224,136.92291110000224,,,,,,,,11004,001,2023_Dec_29_1401,gonogo_T,2021.2.3,59.60619379958503,
nogo,square.png,None,1139,1.139,1.639,0,52,52,48,,,,,,,,,,,,,,,,,,,,,,,,,139.12679639999988,139.62696139999753,139.61011409999628,140.76368859999639,None,1,139.12679639999988,139.12679639999988,,,,,,,,11004,001,2023_Dec_29_1401,gonogo_T,2021.2.3,59.60619379958503,
go,triangle.png,space,1711,1.711,2.211,0,53,53,65,,,,,,,,,,,,,,,,,,,,,,,,,140.77852420000272,141.2796434999982,141.26262390000193,142.98189840000123,space,1,140.77852420000272,140.77852420000272,0.3410853000023053,,,,,,,11004,001,2023_Dec_29_1401,gonogo_T,2021.2.3,59.60619379958503,
go,triangle.png,space,1095,1.095,1.595,0,54,54,63,,,,,,,,,,,,,,,,,,,,,,,,,142.9996226000003,143.50007119999646,143.4837914000018,144.58555920000072,space,1,142.9996226000003,142.9996226000003,0.27281550000043353,,,,,,,11004,001,2023_Dec_29_1401,gonogo_T,2021.2.3,59.60619379958503,
go,triangle.png,space,1761,1.761,2.261,0,55,55,95,,,,,,,,,,,,,,,,,,,,,,,,,144.60161060000246,145.10195540000132,145.08483590000105,146.85504599999695,space,1,144.60161060000246,144.60161060000246,0.25456349999876693,,,,,,,11004,001,2023_Dec_29_1401,gonogo_T,2021.2.3,59.60619379958503,
go,triangle.png,space,1716,1.716,2.216,0,56,56,14,,,,,,,,,,,,,,,,,,,,,,,,,146.87155750000238,147.37158040000213,147.35508839999966,149.07421240000258,space,1,146.87155750000238,146.87155750000238,0.2644695999988471,,,,,,,11004,001,2023_Dec_29_1401,gonogo_T,2021.2.3,59.60619379958503,
go,triangle.png,space,1806,1.806,2.306,0,57,57,85,,,,,,,,,,,,,,,,,,,,,,,,,149.09191889999784,149.59209259999625,149.57578079999803,151.3954864999978,space,1,149.09191889999784,149.09191889999784,0.323785599997791,,,,,,,11004,001,2023_Dec_29_1401,gonogo_T,2021.2.3,59.60619379958503,
go,triangle.png,space,1641,1.641,2.141,0,58,58,86,,,,,,,,,,,,,,,,,,,,,,,,,151.41157920000114,151.91302749999886,151.89508039999782,153.54823500000202,space,1,151.41157920000114,151.41157920000114,0.41240280000056373,,,,,,,11004,001,2023_Dec_29_1401,gonogo_T,2021.2.3,59.60619379958503,
go,triangle.png,space,1582,1.582,2.082,0,59,59,67,,,,,,,,,,,,,,,,,,,,,,,,,153.56464289999712,154.06516259999626,154.04813779999677,155.6344281999991,space,1,153.56464289999712,153.56464289999712,0.29976479999459116,,,,,,,11004,001,2023_Dec_29_1401,gonogo_T,2021.2.3,59.60619379958503,
go,triangle.png,space,1447,1.447,1.947,0,60,60,7,,,,,,,,,,,,,,,,,,,,,,,,,155.6512373000005,156.15191039999627,156.13583010000002,157.58805399999983,space,1,155.6512373000005,155.6512373000005,1.5808879000032903,,,,,,,11004,001,2023_Dec_29_1401,gonogo_T,2021.2.3,59.60619379958503,
nogo,square.png,None,1102,1.102,1.602,0,61,61,80,,,,,,,,,,,,,,,,,,,,,,,,,157.60387320000154,158.10420599999634,158.08776719999878,159.18997390000004,None,1,157.60387320000154,157.60387320000154,,,,,,,,11004,001,2023_Dec_29_1401,gonogo_T,2021.2.3,59.60619379958503,
go,triangle.png,space,1036,1.036,1.536,0,62,62,70,,,,,,,,,,,,,,,,,,,,,,,,,159.20574240000133,159.70662599999923,159.69051020000188,160.7250731000022,space,1,159.20574240000133,159.20574240000133,0.5783311000050162,,,,,,,11004,001,2023_Dec_29_1401,gonogo_T,2021.2.3,59.60619379958503,
go,triangle.png,space,1973,1.973,2.473,0,63,63,37,,,,,,,,,,,,,,,,,,,,,,,,,160.74147359999915,161.24204279999685,161.22729439999966,163.21234019999974,space,1,160.74147359999915,160.74147359999915,0.44223519999650307,,,,,,,11004,001,2023_Dec_29_1401,gonogo_T,2021.2.3,59.60619379958503,
nogo,square.png,None,1154,1.154,1.654,0,64,64,40,,,,,,,,,,,,,,,,,,,,,,,,,163.2283746999965,163.72948229999747,163.71316449999722,164.8821218000012,None,1,163.2283746999965,163.2283746999965,,,,,,,,11004,001,2023_Dec_29_1401,gonogo_T,2021.2.3,59.60619379958503,
go,triangle.png,space,1074,1.074,1.574,0,65,65,41,,,,,,,,,,,,,,,,,,,,,,,,,164.89851169999747,165.39915109999856,165.38217440000153,166.46723580000253,space,1,164.89851169999747,164.89851169999747,0.46161879999999655,,,,,,,11004,001,2023_Dec_29_1401,gonogo_T,2021.2.3,59.60619379958503,
go,triangle.png,space,1003,1.003,1.503,0,66,66,15,,,,,,,,,,,,,,,,,,,,,,,,,166.4838776999968,166.98423339999863,166.96763629999623,None,space,1,166.4838776999968,166.4838776999968,0.26823549999971874,,,,,,,11004,001,2023_Dec_29_1401,gonogo_T,2021.2.3,59.60619379958503,
go,triangle.png,space,1087,1.087,1.587,0,67,67,50,,,,,,,,,,,,,,,,,,,,,,,,,167.9854103999969,168.48716640000202,168.47025089999806,169.57145540000056,space,1,167.9854103999969,167.9854103999969,0.2632690000027651,,,,,,,11004,001,2023_Dec_29_1401,gonogo_T,2021.2.3,59.60619379958503,
go,triangle.png,space,1630,1.63,2.13,0,68,68,23,,,,,,,,,,,,,,,,,,,,,,,,,169.588267799998,170.08998229999997,170.07267670000147,171.7090551000001,space,1,169.588267799998,169.588267799998,0.315837800000736,,,,,,,11004,001,2023_Dec_29_1401,gonogo_T,2021.2.3,59.60619379958503,
go,triangle.png,space,1566,1.566,2.066,0,69,69,25,,,,,,,,,,,,,,,,,,,,,,,,,171.72532209999918,172.22590330000094,172.208521499997,173.77811379999912,space,1,171.72532209999918,171.72532209999918,0.5223943000019062,,,,,,,11004,001,2023_Dec_29_1401,gonogo_T,2021.2.3,59.60619379958503,
nogo,square.png,None,1518,1.518,2.018,0,70,70,56,,,,,,,,,,,,,,,,,,,,,,,,,173.79411249999976,174.29575320000004,174.2791309000022,175.7978471000024,None,1,173.79411249999976,173.79411249999976,,,,,,,,11004,001,2023_Dec_29_1401,gonogo_T,2021.2.3,59.60619379958503,
nogo,square.png,None,1844,1.844,2.344,0,71,71,88,,,,,,,,,,,,,,,,,,,,,,,,,175.8137579999966,176.31576810000115,176.29801469999802,178.1512526000006,None,1,175.8137579999966,175.8137579999966,,,,,,,,11004,001,2023_Dec_29_1401,gonogo_T,2021.2.3,59.60619379958503,
go,triangle.png,space,1161,1.161,1.661,0,72,72,62,,,,,,,,,,,,,,,,,,,,,,,,,178.16737360000116,178.66781189999892,178.65152279999893,179.82097259999864,space,1,178.16737360000116,178.16737360000116,0.48076579999906244,,,,,,,11004,001,2023_Dec_29_1401,gonogo_T,2021.2.3,59.60619379958503,
nogo,square.png,None,1636,1.636,2.136,0,73,73,0,,,,,,,,,,,,,,,,,,,,,,,,,179.8364545000004,180.33785750000243,180.3212407999963,181.9561823999975,None,1,179.8364545000004,179.8364545000004,,,,,,,,11004,001,2023_Dec_29_1401,gonogo_T,2021.2.3,59.60619379958503,
nogo,square.png,None,1453,1.453,1.953,0,74,74,12,,,,,,,,,,,,,,,,,,,,,,,,,181.97290539999813,182.47436539999762,182.4576248000012,None,None,1,181.97290539999813,181.97290539999813,,,,,,,,11004,001,2023_Dec_29_1401,gonogo_T,2021.2.3,59.60619379958503,
nogo,square.png,None,1895,1.895,2.395,0,75,75,4,,,,,,,,,,,,,,,,,,,,,,,,,183.9267925000022,184.42654519999633,184.41056289999688,186.3130960999988,None,1,183.9267925000022,183.9267925000022,,,,,,,,11004,001,2023_Dec_29_1401,gonogo_T,2021.2.3,59.60619379958503,
go,triangle.png,space,1370,1.37,1.87,0,76,76,13,,,,,,,,,,,,,,,,,,,,,,,,,186.32961619999696,186.8304988000018,186.81414309999673,None,space,1,186.32961619999696,186.32961619999696,0.4621622999984538,,,,,,,11004,001,2023_Dec_29_1401,gonogo_T,2021.2.3,59.60619379958503,
go,triangle.png,space,1960,1.96,2.46,0,77,77,31,,,,,,,,,,,,,,,,,,,,,,,,,188.19863579999947,188.70053560000088,188.68333490000077,190.6528096999973,space,1,188.19863579999947,188.19863579999947,0.2731382999991183,,,,,,,11004,001,2023_Dec_29_1401,gonogo_T,2021.2.3,59.60619379958503,
go,triangle.png,space,1825,1.825,2.325,0,78,78,10,,,,,,,,,,,,,,,,,,,,,,,,,190.66936239999632,191.1697550999961,191.15402580000227,192.9894789999962,space,1,190.66936239999632,190.66936239999632,0.2264770999972825,,,,,,,11004,001,2023_Dec_29_1401,gonogo_T,2021.2.3,59.60619379958503,
go,triangle.png,space,1714,1.714,2.214,0,79,79,22,,,,,,,,,,,,,,,,,,,,,,,,,193.00594009999622,193.50770829999965,193.49084700000094,195.209202799997,space,1,193.00594009999622,193.00594009999622,0.30610349999915343,,,,,,,11004,001,2023_Dec_29_1401,gonogo_T,2021.2.3,59.60619379958503,
go,triangle.png,space,1105,1.105,1.605,0,80,80,57,,,,,,,,,,,,,,,,,,,,,,,,,195.2265591999967,195.7274632999979,195.71060510000098,196.8280894999989,space,1,195.2265591999967,195.2265591999967,0.3093908000009833,,,,,,,11004,001,2023_Dec_29_1401,gonogo_T,2021.2.3,59.60619379958503,
go,triangle.png,space,1002,1.002,1.502,0,81,81,34,,,,,,,,,,,,,,,,,,,,,,,,,196.8449255000014,197.34555209999962,197.3294801000011,198.3309952999989,space,1,196.8449255000014,196.8449255000014,0.27498710000509163,,,,,,,11004,001,2023_Dec_29_1401,gonogo_T,2021.2.3,59.60619379958503,
go,triangle.png,space,1630,1.63,2.13,0,82,82,79,,,,,,,,,,,,,,,,,,,,,,,,,198.3484696000014,198.84788690000278,198.83263479999732,200.46753180000087,space,1,198.3484696000014,198.3484696000014,0.2839996000038809,,,,,,,11004,001,2023_Dec_29_1401,gonogo_T,2021.2.3,59.60619379958503,
go,triangle.png,space,1217,1.217,1.717,0,83,83,1,,,,,,,,,,,,,,,,,,,,,,,,,200.48437959999865,200.98500950000016,200.96838169999683,202.18674029999966,space,1,200.48437959999865,200.48437959999865,0.42774630000349134,,,,,,,11004,001,2023_Dec_29_1401,gonogo_T,2021.2.3,59.60619379958503,
go,triangle.png,space,1822,1.822,2.322,0,84,84,26,,,,,,,,,,,,,,,,,,,,,,,,,202.20318879999832,202.70347239999683,202.68724549999752,204.52276459999848,space,1,202.20318879999832,202.20318879999832,0.3965535000024829,,,,,,,11004,001,2023_Dec_29_1401,gonogo_T,2021.2.3,59.60619379958503,
go,triangle.png,space,1879,1.879,2.379,0,85,85,11,,,,,,,,,,,,,,,,,,,,,,,,,204.5394798999987,205.04042879999906,205.0237991000031,206.91067029999977,space,1,204.5394798999987,204.5394798999987,0.31712709999555955,,,,,,,11004,001,2023_Dec_29_1401,gonogo_T,2021.2.3,59.60619379958503,
go,triangle.png,space,1767,1.767,2.267,0,86,86,77,,,,,,,,,,,,,,,,,,,,,,,,,206.9265802000009,207.4273241999981,207.41058260000136,209.18151399999624,space,1,206.9265802000009,206.9265802000009,0.39323480000166455,,,,,,,11004,001,2023_Dec_29_1401,gonogo_T,2021.2.3,59.60619379958503,
go,triangle.png,space,1478,1.478,1.978,0,87,87,75,,,,,,,,,,,,,,,,,,,,,,,,,209.19649229999777,209.697333899996,209.68136480000248,211.16683519999788,space,1,209.19649229999777,209.19649229999777,0.3717136999985087,,,,,,,11004,001,2023_Dec_29_1401,gonogo_T,2021.2.3,59.60619379958503,
go,triangle.png,space,1493,1.493,1.993,0,88,88,69,,,,,,,,,,,,,,,,,,,,,,,,,211.18409139999858,211.684030299999,211.66760860000068,213.16984399999637,space,1,211.18409139999858,211.18409139999858,0.32811450000008335,,,,,,,11004,001,2023_Dec_29_1401,gonogo_T,2021.2.3,59.60619379958503,
go,triangle.png,space,1448,1.448,1.948,0,89,89,43,,,,,,,,,,,,,,,,,,,,,,,,,213.1863480999964,213.6863153000013,213.66991430000053,215.12292960000195,space,1,213.1863480999964,213.1863480999964,0.3254206999990856,,,,,,,11004,001,2023_Dec_29_1401,gonogo_T,2021.2.3,59.60619379958503,
go,triangle.png,space,1589,1.589,2.089,0,90,90,39,,,,,,,,,,,,,,,,,,,,,,,,,215.14026690000173,215.64017510000122,215.62346879999677,217.22633759999735,space,1,215.14026690000173,215.14026690000173,0.3236271999994642,,,,,,,11004,001,2023_Dec_29_1401,gonogo_T,2021.2.3,59.60619379958503,
nogo,square.png,None,1267,1.267,1.767,0,91,91,20,,,,,,,,,,,,,,,,,,,,,,,,,217.2419402000014,217.74244239999825,217.72564969999803,218.99514590000035,space,0,217.2419402000014,217.2419402000014,0.36618150000140304,,,,,,,11004,001,2023_Dec_29_1401,gonogo_T,2021.2.3,59.60619379958503,
go,triangle.png,space,1457,1.457,1.957,0,92,92,66,,,,,,,,,,,,,,,,,,,,,,,,,219.01108589999785,219.51282560000254,219.49590940000053,220.96486749999895,space,1,219.01108589999785,219.01108589999785,0.26088090000121156,,,,,,,11004,001,2023_Dec_29_1401,gonogo_T,2021.2.3,59.60619379958503,
go,triangle.png,space,1575,1.575,2.075,0,93,93,33,,,,,,,,,,,,,,,,,,,,,,,,,220.98068069999863,221.48215039999923,221.4659446000005,223.05139200000121,space,1,220.98068069999863,220.98068069999863,0.27504059999773744,,,,,,,11004,001,2023_Dec_29_1401,gonogo_T,2021.2.3,59.60619379958503,
go,triangle.png,space,1466,1.466,1.966,0,94,94,94,,,,,,,,,,,,,,,,,,,,,,,,,223.06714410000131,223.56790409999667,223.55155479999667,225.02251789999718,space,1,223.06714410000131,223.06714410000131,0.2687441000016406,,,,,,,11004,001,2023_Dec_29_1401,gonogo_T,2021.2.3,59.60619379958503,
go,triangle.png,space,1344,1.344,1.844,0,95,95,53,,,,,,,,,,,,,,,,,,,,,,,,,225.03745869999693,225.53829889999906,225.52137960000255,226.87338579999778,space,1,225.03745869999693,225.03745869999693,0.25827099999878556,,,,,,,11004,001,2023_Dec_29_1401,gonogo_T,2021.2.3,59.60619379958503,
,,,,,,,,,,,,,,,,,,,,,,,,,,,,,,,,,,,,,,,,,,,226.88973540000006,None,space,5.125996000002488,226.88973540000006,None,11004,001,2023_Dec_29_1401,gonogo_T,2021.2.3,59.60619379958503,
