TrialType,Path,Correct,ms,s,ks,trials_4.thisRepN,trials_4.thisTrialN,trials_4.thisN,trials_4.thisIndex,welcome.started,welcome.stopped,space.started,space.stopped,key_resp.keys,key_resp.rt,key_resp.started,key_resp.stopped,Fixwarn.started,Fixwarn.stopped,table.started,table.stopped,key_resp__0.keys,key_resp__0.rt,key_resp__0.started,key_resp__0.stopped,type.started,type.stopped,space_3.started,space_3.stopped,key_resp_6.keys,key_resp_6.rt,key_resp_6.started,key_resp_6.stopped,stim_2.started,stim_2.stopped,text_2.started,text_2.stopped,key_resp_9.keys,key_resp_9.corr,key_resp_9.rt,key_resp_9.started,key_resp_9.stopped,END.started,END.stopped,key_resp_2.keys,key_resp_2.rt,key_resp_2.started,key_resp_2.stopped,participant,session,date,expName,psychopyVersion,frameRate,
,,,,,,,,,,7.028102500014938,None,7.028102500014938,None,space,1.9211757000302896,7.028102500014938,None,,,,,,,,,,,,,,,,,,,,,,,,,,,,,,,,11006,001,2024_Jan_01_1029,gonogo_T,2021.2.3,59.68328469468155,
,,,,,,,,,,,,,,,,,,8.979553300014231,None,8.979553300014231,None,space,11.513982200005557,8.979553300014231,None,,,,,,,,,,,,,,,,,,,,,,,,11006,001,2024_Jan_01_1029,gonogo_T,2021.2.3,59.68328469468155,
,,,,,,,,,,,,,,,,,,,,,,,,,,20.531021500006318,None,20.531021500006318,None,space,13.921820599993225,20.531021500006318,None,,,,,,,,,,,,,,,,11006,001,2024_Jan_01_1029,gonogo_T,2021.2.3,59.68328469468155,
go,triangle.png,space,1796,1.796,2.296,0,0,0,58,,,,,,,,,,,,,,,,,,,,,,,,,34.56750240002293,35.069056900043506,35.05236110003898,36.85515800002031,space,1,0.9821713999845088,34.56750240002293,None,,,,,,,11006,001,2024_Jan_01_1029,gonogo_T,2021.2.3,59.68328469468155,
go,triangle.png,space,1087,1.087,1.587,0,1,1,50,,,,,,,,,,,,,,,,,,,,,,,,,36.87122740002815,37.37175790005131,37.35586430004332,None,space,1,0.39754269999684766,36.87122740002815,36.87122740002815,,,,,,,11006,001,2024_Jan_01_1029,gonogo_T,2021.2.3,59.68328469468155,
go,triangle.png,space,1074,1.074,1.574,0,2,2,41,,,,,,,,,,,,,,,,,,,,,,,,,38.456610700057354,38.95772380003473,38.94140210002661,40.02633030002471,space,1,0.3487553999875672,38.456610700057354,38.456610700057354,,,,,,,11006,001,2024_Jan_01_1029,gonogo_T,2021.2.3,59.68328469468155,
go,triangle.png,space,1806,1.806,2.306,0,3,3,73,,,,,,,,,,,,,,,,,,,,,,,,,40.042319100000896,40.54364570003236,40.52670650003711,42.345910000032745,space,1,0.3470538000110537,40.042319100000896,40.042319100000896,,,,,,,11006,001,2024_Jan_01_1029,gonogo_T,2021.2.3,59.68328469468155,
go,triangle.png,space,1590,1.59,2.09,0,4,4,19,,,,,,,,,,,,,,,,,,,,,,,,,42.362933700031135,42.86406770005124,42.846848500019405,44.44940600002883,space,1,0.3147290999768302,42.362933700031135,42.362933700031135,,,,,,,11006,001,2024_Jan_01_1029,gonogo_T,2021.2.3,59.68328469468155,
go,triangle.png,space,1761,1.761,2.261,0,5,5,95,,,,,,,,,,,,,,,,,,,,,,,,,44.466163800039794,44.96864550001919,44.95012790005421,46.71991290000733,space,1,0.27496930002234876,44.466163800039794,44.466163800039794,,,,,,,11006,001,2024_Jan_01_1029,gonogo_T,2021.2.3,59.68328469468155,
go,triangle.png,space,1457,1.457,1.957,0,6,6,66,,,,,,,,,,,,,,,,,,,,,,,,,46.73622700001579,47.237030300020706,47.22020700003486,48.68846410000697,space,1,0.2366827999940142,46.73622700001579,46.73622700001579,,,,,,,11006,001,2024_Jan_01_1029,gonogo_T,2021.2.3,59.68328469468155,
nogo,square.png,None,1194,1.194,1.694,0,7,7,24,,,,,,,,,,,,,,,,,,,,,,,,,48.7052375000203,49.206687700003386,49.18984560004901,50.392180200025905,space,0,0.23567899997578934,48.7052375000203,48.7052375000203,,,,,,,11006,001,2024_Jan_01_1029,gonogo_T,2021.2.3,59.68328469468155,
nogo,square.png,None,1413,1.413,1.913,0,8,8,16,,,,,,,,,,,,,,,,,,,,,,,,,50.408343100047205,50.90902800002368,50.89229340001475,52.31140540004708,None,1,,50.408343100047205,50.408343100047205,,,,,,,11006,001,2024_Jan_01_1029,gonogo_T,2021.2.3,59.68328469468155,
go,triangle.png,space,1582,1.582,2.082,0,9,9,67,,,,,,,,,,,,,,,,,,,,,,,,,52.327353700005915,52.82855560001917,52.81192630005535,54.39747610001359,space,1,0.4695796999731101,52.327353700005915,52.327353700005915,,,,,,,11006,001,2024_Jan_01_1029,gonogo_T,2021.2.3,59.68328469468155,
go,triangle.png,space,1448,1.448,1.948,0,10,10,43,,,,,,,,,,,,,,,,,,,,,,,,,54.413539200031664,54.91433550004149,54.89831060002325,56.350693300017156,space,1,0.40031350002391264,54.413539200031664,54.413539200031664,,,,,,,11006,001,2024_Jan_01_1029,gonogo_T,2021.2.3,59.68328469468155,
nogo,square.png,None,1154,1.154,1.654,0,11,11,40,,,,,,,,,,,,,,,,,,,,,,,,,56.36704280000413,56.868036500003655,56.851223700039554,58.02004570001736,None,1,,56.36704280000413,56.36704280000413,,,,,,,11006,001,2024_Jan_01_1029,gonogo_T,2021.2.3,59.68328469468155,
go,triangle.png,space,1806,1.806,2.306,0,12,12,85,,,,,,,,,,,,,,,,,,,,,,,,,58.03551180002978,58.537089900055435,58.51993260002928,60.33908290002728,space,1,0.28221670002676547,58.03551180002978,58.03551180002978,,,,,,,11006,001,2024_Jan_01_1029,gonogo_T,2021.2.3,59.68328469468155,
go,triangle.png,space,1991,1.991,2.491,0,13,13,82,,,,,,,,,,,,,,,,,,,,,,,,,60.356240799999796,60.85661690001143,60.83972100005485,62.8430129000335,space,1,0.30479840002954006,60.356240799999796,60.356240799999796,,,,,,,11006,001,2024_Jan_01_1029,gonogo_T,2021.2.3,59.68328469468155,
go,triangle.png,space,1246,1.246,1.746,0,14,14,87,,,,,,,,,,,,,,,,,,,,,,,,,62.85944010003004,63.360864000045694,63.34386110003106,64.59620760002872,space,1,0.3299544000183232,62.85944010003004,62.85944010003004,,,,,,,11006,001,2024_Jan_01_1029,gonogo_T,2021.2.3,59.68328469468155,
go,triangle.png,space,1002,1.002,1.502,0,15,15,34,,,,,,,,,,,,,,,,,,,,,,,,,64.61319150001509,65.11345340003027,65.0964273000136,66.09761560003972,space,1,0.2962351000169292,64.61319150001509,64.61319150001509,,,,,,,11006,001,2024_Jan_01_1029,gonogo_T,2021.2.3,59.68328469468155,
go,triangle.png,space,1630,1.63,2.13,0,16,16,23,,,,,,,,,,,,,,,,,,,,,,,,,66.11417840002105,66.61506940005347,66.59897780005122,68.2345662000007,space,1,0.38672179996501654,66.11417840002105,66.11417840002105,,,,,,,11006,001,2024_Jan_01_1029,gonogo_T,2021.2.3,59.68328469468155,
go,triangle.png,space,1529,1.529,2.029,0,17,17,51,,,,,,,,,,,,,,,,,,,,,,,,,68.25080380000873,68.75200340000447,68.73537760000909,70.27233100001467,space,1,0.2989526999881491,68.25080380000873,68.25080380000873,,,,,,,11006,001,2024_Jan_01_1029,gonogo_T,2021.2.3,59.68328469468155,
go,triangle.png,space,1739,1.739,2.239,0,18,18,17,,,,,,,,,,,,,,,,,,,,,,,,,70.28757970000152,70.78861590003362,70.7720585000352,72.52438620000612,space,1,0.3179655999992974,70.28757970000152,70.28757970000152,,,,,,,11006,001,2024_Jan_01_1029,gonogo_T,2021.2.3,59.68328469468155,
go,triangle.png,space,1869,1.869,2.369,0,19,19,59,,,,,,,,,,,,,,,,,,,,,,,,,72.5411468000384,73.04212930001086,73.02452900004573,74.89506090001669,space,1,0.31219709996366873,72.5411468000384,72.5411468000384,,,,,,,11006,001,2024_Jan_01_1029,gonogo_T,2021.2.3,59.68328469468155,
nogo,square.png,None,1698,1.698,2.198,0,20,20,32,,,,,,,,,,,,,,,,,,,,,,,,,74.91166860004887,75.4119953000336,75.3951359000057,77.09788350004237,None,1,,74.91166860004887,74.91166860004887,,,,,,,11006,001,2024_Jan_01_1029,gonogo_T,2021.2.3,59.68328469468155,
go,triangle.png,space,1445,1.445,1.945,0,21,21,5,,,,,,,,,,,,,,,,,,,,,,,,,77.11467950005317,77.61529800004791,77.59854580002138,79.05038950004382,space,1,0.3386253999779001,77.11467950005317,77.11467950005317,,,,,,,11006,001,2024_Jan_01_1029,gonogo_T,2021.2.3,59.68328469468155,
go,triangle.png,space,1217,1.217,1.717,0,22,22,1,,,,,,,,,,,,,,,,,,,,,,,,,79.06693030003225,79.56859940005234,79.55191430001287,80.77041830000235,space,1,0.35417229996528476,79.06693030003225,79.06693030003225,,,,,,,11006,001,2024_Jan_01_1029,gonogo_T,2021.2.3,59.68328469468155,
nogo,square.png,None,1467,1.467,1.967,0,23,23,72,,,,,,,,,,,,,,,,,,,,,,,,,80.78709740005434,81.2871094000293,81.27040670003043,82.73953290004283,None,1,,80.78709740005434,80.78709740005434,,,,,,,11006,001,2024_Jan_01_1029,gonogo_T,2021.2.3,59.68328469468155,
nogo,square.png,None,1414,1.414,1.914,0,24,24,68,,,,,,,,,,,,,,,,,,,,,,,,,82.75567730003968,83.2570265000104,83.240417300025,84.65875480003888,None,1,,82.75567730003968,82.75567730003968,,,,,,,11006,001,2024_Jan_01_1029,gonogo_T,2021.2.3,59.68328469468155,
go,triangle.png,space,1594,1.594,2.094,0,25,25,38,,,,,,,,,,,,,,,,,,,,,,,,,84.67527970002266,85.1757334000431,85.15932430000976,86.76232350000646,space,1,0.48169049998978153,84.67527970002266,84.67527970002266,,,,,,,11006,001,2024_Jan_01_1029,gonogo_T,2021.2.3,59.68328469468155,
go,triangle.png,space,1630,1.63,2.13,0,26,26,79,,,,,,,,,,,,,,,,,,,,,,,,,86.77903910004534,87.27948440000182,87.26291580003453,88.8981128000305,space,1,0.31490900000790134,86.77903910004534,86.77903910004534,,,,,,,11006,001,2024_Jan_01_1029,gonogo_T,2021.2.3,59.68328469468155,
go,triangle.png,space,1955,1.955,2.455,0,27,27,35,,,,,,,,,,,,,,,,,,,,,,,,,88.91539020003984,89.41610530001344,89.39956340001663,91.36914560000878,space,1,0.4015688000363298,88.91539020003984,88.91539020003984,,,,,,,11006,001,2024_Jan_01_1029,gonogo_T,2021.2.3,59.68328469468155,
go,triangle.png,space,1478,1.478,1.978,0,28,28,75,,,,,,,,,,,,,,,,,,,,,,,,,91.38606300001265,91.88618030003272,91.8694462000276,93.35557030001655,space,1,0.30702030000975356,91.38606300001265,91.38606300001265,,,,,,,11006,001,2024_Jan_01_1029,gonogo_T,2021.2.3,59.68328469468155,
nogo,square.png,None,1636,1.636,2.136,0,29,29,0,,,,,,,,,,,,,,,,,,,,,,,,,93.37210220005363,93.87279990001116,93.85589200002141,95.49223220004933,space,0,0.2969940000330098,93.37210220005363,93.37210220005363,,,,,,,11006,001,2024_Jan_01_1029,gonogo_T,2021.2.3,59.68328469468155,
go,triangle.png,space,1711,1.711,2.211,0,30,30,65,,,,,,,,,,,,,,,,,,,,,,,,,95.50785240001278,96.009395400004,95.99266139999963,97.71234980004374,space,1,0.3055700000259094,95.50785240001278,95.50785240001278,,,,,,,11006,001,2024_Jan_01_1029,gonogo_T,2021.2.3,59.68328469468155,
go,triangle.png,space,1074,1.074,1.574,0,31,31,6,,,,,,,,,,,,,,,,,,,,,,,,,97.72788990003755,98.22927390004043,98.21289740002248,99.29747950000456,space,1,0.3653224000008777,97.72788990003755,97.72788990003755,,,,,,,11006,001,2024_Jan_01_1029,gonogo_T,2021.2.3,59.68328469468155,
go,triangle.png,space,1161,1.161,1.661,0,32,32,62,,,,,,,,,,,,,,,,,,,,,,,,,99.31380100001115,99.81496160000097,99.79824450000888,100.96697940002196,space,1,0.8113230000017211,99.31380100001115,99.31380100001115,,,,,,,11006,001,2024_Jan_01_1029,gonogo_T,2021.2.3,59.68328469468155,
go,triangle.png,space,1866,1.866,2.366,0,33,33,42,,,,,,,,,,,,,,,,,,,,,,,,,100.98249130003387,101.48384510003962,101.46776640001917,103.33837510005105,space,1,0.5506085000233725,100.98249130003387,100.98249130003387,,,,,,,11006,001,2024_Jan_01_1029,gonogo_T,2021.2.3,59.68328469468155,
nogo,square.png,None,1102,1.102,1.602,0,34,34,80,,,,,,,,,,,,,,,,,,,,,,,,,103.35337680001976,103.85400780005148,103.83750730002066,104.93855090002762,None,1,,103.35337680001976,103.35337680001976,,,,,,,11006,001,2024_Jan_01_1029,gonogo_T,2021.2.3,59.68328469468155,
go,triangle.png,space,1641,1.641,2.141,0,35,35,86,,,,,,,,,,,,,,,,,,,,,,,,,104.95515540003544,105.45644200005336,105.439720400027,107.09264440002153,space,1,0.6418523999745958,104.95515540003544,104.95515540003544,,,,,,,11006,001,2024_Jan_01_1029,gonogo_T,2021.2.3,59.68328469468155,
go,triangle.png,space,1036,1.036,1.536,0,36,36,70,,,,,,,,,,,,,,,,,,,,,,,,,107.10899850004353,107.60918860003585,107.5933407000266,None,space,1,0.38466670003253967,107.10899850004353,107.10899850004353,,,,,,,11006,001,2024_Jan_01_1029,gonogo_T,2021.2.3,59.68328469468155,
nogo,square.png,None,1518,1.518,2.018,0,37,37,56,,,,,,,,,,,,,,,,,,,,,,,,,108.64510140003404,109.14629340003012,109.1283412000048,110.64694320003036,None,1,,108.64510140003404,108.64510140003404,,,,,,,11006,001,2024_Jan_01_1029,gonogo_T,2021.2.3,59.68328469468155,
nogo,square.png,None,1233,1.233,1.733,0,38,38,44,,,,,,,,,,,,,,,,,,,,,,,,,110.66429890005384,111.16497100004926,111.14835460000904,112.38395000004675,None,1,,110.66429890005384,110.66429890005384,,,,,,,11006,001,2024_Jan_01_1029,gonogo_T,2021.2.3,59.68328469468155,
go,triangle.png,space,1388,1.388,1.888,0,39,39,9,,,,,,,,,,,,,,,,,,,,,,,,,112.40063650003867,112.90095180005301,112.88413210003637,114.28553590003867,space,1,0.4048002999625169,112.40063650003867,112.40063650003867,,,,,,,11006,001,2024_Jan_01_1029,gonogo_T,2021.2.3,59.68328469468155,
nogo,square.png,None,1611,1.611,2.111,0,40,40,28,,,,,,,,,,,,,,,,,,,,,,,,,114.30239160003839,114.80306670005666,114.78645330003928,116.40640100004384,None,1,,114.30239160003839,114.30239160003839,,,,,,,11006,001,2024_Jan_01_1029,gonogo_T,2021.2.3,59.68328469468155,
nogo,square.png,None,1600,1.6,2.1,0,41,41,92,,,,,,,,,,,,,,,,,,,,,,,,,116.42288990004454,116.92396080004983,116.90678910003044,118.50886640005047,None,1,,116.42288990004454,116.42288990004454,,,,,,,11006,001,2024_Jan_01_1029,gonogo_T,2021.2.3,59.68328469468155,
nogo,square.png,None,1844,1.844,2.344,0,42,42,88,,,,,,,,,,,,,,,,,,,,,,,,,118.52527530002408,119.02670170000056,119.00988110003527,120.86280330002774,None,1,,118.52527530002408,118.52527530002408,,,,,,,11006,001,2024_Jan_01_1029,gonogo_T,2021.2.3,59.68328469468155,
go,triangle.png,space,1370,1.37,1.87,0,43,43,13,,,,,,,,,,,,,,,,,,,,,,,,,120.8789350000443,121.3796540000476,121.36364720005076,None,space,1,0.38295890000881627,120.8789350000443,120.8789350000443,,,,,,,11006,001,2024_Jan_01_1029,gonogo_T,2021.2.3,59.68328469468155,
go,triangle.png,space,1960,1.96,2.46,0,44,44,31,,,,,,,,,,,,,,,,,,,,,,,,,122.7481677000178,123.24946560000535,123.2326017000014,125.20236180000938,space,1,0.3612080999882892,122.7481677000178,122.7481677000178,,,,,,,11006,001,2024_Jan_01_1029,gonogo_T,2021.2.3,59.68328469468155,
go,triangle.png,space,1493,1.493,1.993,0,45,45,69,,,,,,,,,,,,,,,,,,,,,,,,,125.21854620001977,125.71910960000241,125.7036836000043,127.20543740002904,space,1,0.3944051000289619,125.21854620001977,125.21854620001977,,,,,,,11006,001,2024_Jan_01_1029,gonogo_T,2021.2.3,59.68328469468155,
go,triangle.png,space,1357,1.357,1.857,0,46,46,29,,,,,,,,,,,,,,,,,,,,,,,,,127.2213194000069,127.72290530003374,127.7054771000403,129.0743686000351,space,1,0.3596964000025764,127.2213194000069,127.2213194000069,,,,,,,11006,001,2024_Jan_01_1029,gonogo_T,2021.2.3,59.68328469468155,
go,triangle.png,space,1979,1.979,2.479,0,47,47,93,,,,,,,,,,,,,,,,,,,,,,,,,129.0914929000428,129.59147720003966,129.575692500046,131.56436810002197,space,1,0.3299332999740727,129.0914929000428,129.0914929000428,,,,,,,11006,001,2024_Jan_01_1029,gonogo_T,2021.2.3,59.68328469468155,
go,triangle.png,space,1450,1.45,1.95,0,48,48,78,,,,,,,,,,,,,,,,,,,,,,,,,131.57824780000374,132.07937200000742,132.06272220000392,133.5149241000181,space,1,0.28409349999856204,131.57824780000374,131.57824780000374,,,,,,,11006,001,2024_Jan_01_1029,gonogo_T,2021.2.3,59.68328469468155,
go,triangle.png,space,1344,1.344,1.844,0,49,49,53,,,,,,,,,,,,,,,,,,,,,,,,,133.5315680000349,134.03271290002158,134.01548820000608,135.3676242000074,space,1,0.3935052999877371,133.5315680000349,133.5315680000349,,,,,,,11006,001,2024_Jan_01_1029,gonogo_T,2021.2.3,59.68328469468155,
go,triangle.png,space,1262,1.262,1.762,0,50,50,61,,,,,,,,,,,,,,,,,,,,,,,,,135.38355990004493,135.8843944000546,135.86769580002874,137.1367488000542,space,1,0.33431190002011135,135.38355990004493,135.38355990004493,,,,,,,11006,001,2024_Jan_01_1029,gonogo_T,2021.2.3,59.68328469468155,
nogo,square.png,None,1783,1.783,2.283,0,51,51,60,,,,,,,,,,,,,,,,,,,,,,,,,137.1530126000289,137.65425610000966,137.637113600038,139.42303060000995,None,1,,137.1530126000289,137.1530126000289,,,,,,,11006,001,2024_Jan_01_1029,gonogo_T,2021.2.3,59.68328469468155,
go,triangle.png,space,1329,1.329,1.829,0,52,52,90,,,,,,,,,,,,,,,,,,,,,,,,,139.4403289000038,139.94132110005012,139.92387840000447,141.25888370000757,space,1,0.45272210001712665,139.4403289000038,139.4403289000038,,,,,,,11006,001,2024_Jan_01_1029,gonogo_T,2021.2.3,59.68328469468155,
go,triangle.png,space,1822,1.822,2.322,0,53,53,26,,,,,,,,,,,,,,,,,,,,,,,,,141.27618670003721,141.7770788000198,141.76021640002728,143.5796435000375,space,1,0.41682199999922886,141.27618670003721,141.27618670003721,,,,,,,11006,001,2024_Jan_01_1029,gonogo_T,2021.2.3,59.68328469468155,
go,triangle.png,space,1280,1.28,1.78,0,54,54,18,,,,,,,,,,,,,,,,,,,,,,,,,143.6123920000391,144.1141475000186,144.09724480001023,145.3819080000394,space,1,0.2566960000549443,143.6123920000391,143.6123920000391,,,,,,,11006,001,2024_Jan_01_1029,gonogo_T,2021.2.3,59.68328469468155,
go,triangle.png,space,1154,1.154,1.654,0,55,55,71,,,,,,,,,,,,,,,,,,,,,,,,,145.39937730005477,145.90004360000603,145.88350520003587,147.05153410002822,space,1,0.3016503000399098,145.39937730005477,145.39937730005477,,,,,,,11006,001,2024_Jan_01_1029,gonogo_T,2021.2.3,59.68328469468155,
go,triangle.png,space,1825,1.825,2.325,0,56,56,10,,,,,,,,,,,,,,,,,,,,,,,,,147.06776980002178,147.56804420001572,147.55275050003547,149.3878336000489,space,1,0.3772746999748051,147.06776980002178,147.06776980002178,,,,,,,11006,001,2024_Jan_01_1029,gonogo_T,2021.2.3,59.68328469468155,
nogo,square.png,None,1453,1.453,1.953,0,57,57,12,,,,,,,,,,,,,,,,,,,,,,,,,149.40504570002668,149.90592760004802,149.88919160002843,151.34123040002305,space,0,0.2880944999633357,149.40504570002668,149.40504570002668,,,,,,,11006,001,2024_Jan_01_1029,gonogo_T,2021.2.3,59.68328469468155,
nogo,square.png,None,1895,1.895,2.395,0,58,58,4,,,,,,,,,,,,,,,,,,,,,,,,,151.35731250001118,151.85821560001932,151.84195770003134,153.74482620001072,None,1,,151.35731250001118,151.35731250001118,,,,,,,11006,001,2024_Jan_01_1029,gonogo_T,2021.2.3,59.68328469468155,
go,triangle.png,space,1320,1.32,1.82,0,59,59,54,,,,,,,,,,,,,,,,,,,,,,,,,153.7610331000178,154.2621775000007,154.2456040000543,None,space,1,0.3001817999756895,153.7610331000178,153.7610331000178,,,,,,,11006,001,2024_Jan_01_1029,gonogo_T,2021.2.3,59.68328469468155,
nogo,square.png,None,1165,1.165,1.665,0,60,60,76,,,,,,,,,,,,,,,,,,,,,,,,,155.58019470004365,156.08111910003936,156.06495060003363,157.23338180000428,None,1,,155.58019470004365,155.58019470004365,,,,,,,11006,001,2024_Jan_01_1029,gonogo_T,2021.2.3,59.68328469468155,
nogo,square.png,None,1131,1.131,1.631,0,61,61,52,,,,,,,,,,,,,,,,,,,,,,,,,157.25063590001082,157.75006100005703,157.73432340001455,158.8687616000534,None,1,,157.25063590001082,157.25063590001082,,,,,,,11006,001,2024_Jan_01_1029,gonogo_T,2021.2.3,59.68328469468155,
nogo,square.png,None,1267,1.267,1.767,0,62,62,20,,,,,,,,,,,,,,,,,,,,,,,,,158.88519050000468,159.3866005000309,159.36935600003926,160.6384059000411,None,1,,158.88519050000468,158.88519050000468,,,,,,,11006,001,2024_Jan_01_1029,gonogo_T,2021.2.3,59.68328469468155,
go,triangle.png,space,1532,1.532,2.032,0,63,63,2,,,,,,,,,,,,,,,,,,,,,,,,,160.65445400000317,161.15581340005156,161.13953340001171,162.674499500019,space,1,0.42303180001908913,160.65445400000317,160.65445400000317,,,,,,,11006,001,2024_Jan_01_1029,gonogo_T,2021.2.3,59.68328469468155,
go,triangle.png,space,1329,1.329,1.829,0,64,64,27,,,,,,,,,,,,,,,,,,,,,,,,,162.69070840004133,163.1914940000279,163.17511620000005,164.51037550001638,space,1,0.4352201000438072,162.69070840004133,162.69070840004133,,,,,,,11006,001,2024_Jan_01_1029,gonogo_T,2021.2.3,59.68328469468155,
go,triangle.png,space,1589,1.589,2.089,0,65,65,39,,,,,,,,,,,,,,,,,,,,,,,,,164.5273725000443,165.0282374000526,165.01186250004685,166.61379930004478,space,1,0.45369719999143854,164.5273725000443,164.5273725000443,,,,,,,11006,001,2024_Jan_01_1029,gonogo_T,2021.2.3,59.68328469468155,
nogo,square.png,None,1776,1.776,2.276,0,66,66,8,,,,,,,,,,,,,,,,,,,,,,,,,166.63051050005015,167.131115300057,167.11430060002021,168.90039210004034,None,1,,166.63051050005015,166.63051050005015,,,,,,,11006,001,2024_Jan_01_1029,gonogo_T,2021.2.3,59.68328469468155,
nogo,square.png,None,1379,1.379,1.879,0,67,67,84,,,,,,,,,,,,,,,,,,,,,,,,,168.91678930004127,169.41752250003628,169.40064920001896,170.78874910000013,None,1,,168.91678930004127,168.91678930004127,,,,,,,11006,001,2024_Jan_01_1029,gonogo_T,2021.2.3,59.68328469468155,
go,triangle.png,space,1447,1.447,1.947,0,68,68,7,,,,,,,,,,,,,,,,,,,,,,,,,170.80318260000786,171.30394010001328,171.28726940002525,172.73919940000633,space,1,0.4580605999799445,170.80318260000786,170.80318260000786,,,,,,,11006,001,2024_Jan_01_1029,gonogo_T,2021.2.3,59.68328469468155,
nogo,square.png,None,1337,1.337,1.837,0,69,69,64,,,,,,,,,,,,,,,,,,,,,,,,,172.75567870005034,173.2562066000537,173.2398041000124,None,None,1,,172.75567870005034,172.75567870005034,,,,,,,11006,001,2024_Jan_01_1029,gonogo_T,2021.2.3,59.68328469468155,
go,triangle.png,space,1437,1.437,1.937,0,70,70,45,,,,,,,,,,,,,,,,,,,,,,,,,174.59291390003636,175.0931852000067,175.0763134000008,176.52890140004456,space,1,0.43653900001663715,174.59291390003636,174.59291390003636,,,,,,,11006,001,2024_Jan_01_1029,gonogo_T,2021.2.3,59.68328469468155,
go,triangle.png,space,1466,1.466,1.966,0,71,71,94,,,,,,,,,,,,,,,,,,,,,,,,,176.54582290002145,177.04529360000743,177.0285911000101,178.4997449000366,space,1,0.41153629997279495,176.54582290002145,176.54582290002145,,,,,,,11006,001,2024_Jan_01_1029,gonogo_T,2021.2.3,59.68328469468155,
go,triangle.png,space,1674,1.674,2.174,0,72,72,47,,,,,,,,,,,,,,,,,,,,,,,,,178.514762900013,179.01527630002238,178.99819420004496,180.6845865000505,space,1,0.4902914999984205,178.514762900013,178.514762900013,,,,,,,11006,001,2024_Jan_01_1029,gonogo_T,2021.2.3,59.68328469468155,
go,triangle.png,space,1323,1.323,1.823,0,73,73,21,,,,,,,,,,,,,,,,,,,,,,,,,180.70080050005345,181.20145290001528,181.18544200004544,182.52232400001958,space,1,0.36839210003381595,180.70080050005345,180.70080050005345,,,,,,,11006,001,2024_Jan_01_1029,gonogo_T,2021.2.3,59.68328469468155,
go,triangle.png,space,1566,1.566,2.066,0,74,74,25,,,,,,,,,,,,,,,,,,,,,,,,,182.53680840000743,183.03802830004133,183.02131020004163,184.59050230000867,space,1,0.3645173999830149,182.53680840000743,182.53680840000743,,,,,,,11006,001,2024_Jan_01_1029,gonogo_T,2021.2.3,59.68328469468155,
nogo,square.png,None,1913,1.913,2.413,0,75,75,36,,,,,,,,,,,,,,,,,,,,,,,,,184.60682520002592,185.10734690004028,185.09050640003989,187.0111858000164,None,1,,184.60682520002592,184.60682520002592,,,,,,,11006,001,2024_Jan_01_1029,gonogo_T,2021.2.3,59.68328469468155,
go,triangle.png,space,1003,1.003,1.503,0,76,76,15,,,,,,,,,,,,,,,,,,,,,,,,,187.02682470000582,187.52804350003134,187.511857400008,None,space,1,0.4265059999888763,187.02682470000582,187.02682470000582,,,,,,,11006,001,2024_Jan_01_1029,gonogo_T,2021.2.3,59.68328469468155,
go,triangle.png,space,1095,1.095,1.595,0,77,77,63,,,,,,,,,,,,,,,,,,,,,,,,,188.52948660001857,189.03034080000361,189.01411840005312,190.11569090001285,space,1,0.36410999996587634,188.52948660001857,188.52948660001857,,,,,,,11006,001,2024_Jan_01_1029,gonogo_T,2021.2.3,59.68328469468155,
go,triangle.png,space,1918,1.918,2.418,0,78,78,3,,,,,,,,,,,,,,,,,,,,,,,,,190.13135090004653,190.6318622000399,190.61559830000624,192.5356186000281,space,1,0.3058034999994561,190.13135090004653,190.13135090004653,,,,,,,11006,001,2024_Jan_01_1029,gonogo_T,2021.2.3,59.68328469468155,
go,triangle.png,space,1386,1.386,1.886,0,79,79,83,,,,,,,,,,,,,,,,,,,,,,,,,192.55178320000414,193.05304650001926,193.03637390001677,None,space,1,0.3497745000058785,192.55178320000414,192.55178320000414,,,,,,,11006,001,2024_Jan_01_1029,gonogo_T,2021.2.3,59.68328469468155,
go,triangle.png,space,1767,1.767,2.267,0,80,80,77,,,,,,,,,,,,,,,,,,,,,,,,,194.43855780002195,194.93917750002583,194.92287690000376,196.69112160004443,space,1,0.3187319999560714,194.43855780002195,194.43855780002195,,,,,,,11006,001,2024_Jan_01_1029,gonogo_T,2021.2.3,59.68328469468155,
go,triangle.png,space,1575,1.575,2.075,0,81,81,33,,,,,,,,,,,,,,,,,,,,,,,,,196.7081161000533,197.20923670002958,197.1924818000407,198.77809260005597,space,1,0.3369484000140801,196.7081161000533,196.7081161000533,,,,,,,11006,001,2024_Jan_01_1029,gonogo_T,2021.2.3,59.68328469468155,
go,triangle.png,space,1714,1.714,2.214,0,82,82,22,,,,,,,,,,,,,,,,,,,,,,,,,198.79442700004438,199.29475870000897,199.27808180003194,200.99803050002083,space,1,0.3472992000170052,198.79442700004438,198.79442700004438,,,,,,,11006,001,2024_Jan_01_1029,gonogo_T,2021.2.3,59.68328469468155,
go,triangle.png,space,1879,1.879,2.379,0,83,83,11,,,,,,,,,,,,,,,,,,,,,,,,,201.0148910000571,201.51500490005128,201.49877890001517,203.3852518000058,space,1,0.3669103999854997,201.0148910000571,201.0148910000571,,,,,,,11006,001,2024_Jan_01_1029,gonogo_T,2021.2.3,59.68328469468155,
go,triangle.png,space,1962,1.962,2.462,0,84,84,74,,,,,,,,,,,,,,,,,,,,,,,,,203.40173700003652,203.90245590003906,203.88576940004714,205.8549076000345,space,1,0.371519599983003,203.40173700003652,203.40173700003652,,,,,,,11006,001,2024_Jan_01_1029,gonogo_T,2021.2.3,59.68328469468155,
go,triangle.png,space,1973,1.973,2.473,0,85,85,37,,,,,,,,,,,,,,,,,,,,,,,,,205.8729416000424,206.37272860005032,206.35598740004934,208.34169200004544,space,1,0.30033060000278056,205.8729416000424,205.8729416000424,,,,,,,11006,001,2024_Jan_01_1029,gonogo_T,2021.2.3,59.68328469468155,
go,triangle.png,space,1791,1.791,2.291,0,86,86,55,,,,,,,,,,,,,,,,,,,,,,,,,208.35910810000496,208.8590674000443,208.84281130001182,210.64567000005627,space,1,0.25409150001360103,208.35910810000496,208.35910810000496,,,,,,,11006,001,2024_Jan_01_1029,gonogo_T,2021.2.3,59.68328469468155,
nogo,square.png,None,1139,1.139,1.639,0,87,87,48,,,,,,,,,,,,,,,,,,,,,,,,,210.66192740004044,211.1627272000187,211.14637480000965,212.29741640004795,None,1,,210.66192740004044,210.66192740004044,,,,,,,11006,001,2024_Jan_01_1029,gonogo_T,2021.2.3,59.68328469468155,
go,triangle.png,space,1716,1.716,2.216,0,88,88,14,,,,,,,,,,,,,,,,,,,,,,,,,212.31418210000265,212.81568350002635,212.79897310002707,214.51860670000315,space,1,0.37108259997330606,212.31418210000265,212.31418210000265,,,,,,,11006,001,2024_Jan_01_1029,gonogo_T,2021.2.3,59.68328469468155,
go,triangle.png,space,1233,1.233,1.733,0,89,89,46,,,,,,,,,,,,,,,,,,,,,,,,,214.5342124000308,215.03548670001328,215.0188187000458,216.2539383000112,space,1,0.25505819998215884,214.5342124000308,214.5342124000308,,,,,,,11006,001,2024_Jan_01_1029,gonogo_T,2021.2.3,59.68328469468155,
go,triangle.png,space,1180,1.18,1.68,0,90,90,81,,,,,,,,,,,,,,,,,,,,,,,,,216.27013740001712,216.77134740003385,216.75483540003188,217.94193180004368,space,1,0.37496579997241497,216.27013740001712,216.27013740001712,,,,,,,11006,001,2024_Jan_01_1029,gonogo_T,2021.2.3,59.68328469468155,
go,triangle.png,space,1940,1.94,2.44,0,91,91,49,,,,,,,,,,,,,,,,,,,,,,,,,217.95674000005238,218.4572817000444,218.44033790001413,220.3938275000546,space,1,0.3844706000527367,217.95674000005238,217.95674000005238,,,,,,,11006,001,2024_Jan_01_1029,gonogo_T,2021.2.3,59.68328469468155,
go,triangle.png,space,1105,1.105,1.605,0,92,92,57,,,,,,,,,,,,,,,,,,,,,,,,,220.4102000000421,220.91059100005077,220.89437900000485,222.01353850000305,space,1,0.29964689997723326,220.4102000000421,220.4102000000421,,,,,,,11006,001,2024_Jan_01_1029,gonogo_T,2021.2.3,59.68328469468155,
go,triangle.png,space,1021,1.021,1.521,0,93,93,91,,,,,,,,,,,,,,,,,,,,,,,,,222.0284436000511,222.53063440002734,222.51338900002884,223.54739550000522,space,1,0.28113249997841194,222.0284436000511,222.0284436000511,,,,,,,11006,001,2024_Jan_01_1029,gonogo_T,2021.2.3,59.68328469468155,
go,triangle.png,space,1651,1.651,2.151,0,94,94,30,,,,,,,,,,,,,,,,,,,,,,,,,223.5641463000211,224.06626930000493,224.0481477000285,225.701002900023,space,1,0.32100850000279024,223.5641463000211,223.5641463000211,,,,,,,11006,001,2024_Jan_01_1029,gonogo_T,2021.2.3,59.68328469468155,
go,triangle.png,space,1052,1.052,1.552,0,95,95,89,,,,,,,,,,,,,,,,,,,,,,,,,225.71726110001327,226.21807980001904,226.20156970003154,227.25303650001297,space,1,0.2644354000221938,225.71726110001327,225.71726110001327,,,,,,,11006,001,2024_Jan_01_1029,gonogo_T,2021.2.3,59.68328469468155,
,,,,,,,,,,,,,,,,,,,,,,,,,,,,,,,,,,,,,,,,,,,227.2701098000398,None,space,1.5910973999998532,227.2701098000398,None,11006,001,2024_Jan_01_1029,gonogo_T,2021.2.3,59.68328469468155,
